'Start Wavelength	183.907
'End Wavelength	1046.922
'Gate Delay	5.000
'Gate Width (ms)	1.050
'Laser Output Level	0.000
'X Position	0.000
'Y Position	0.000
'Z Position	0.000
'Grid Point Number	1.000
'Shot Number	100.000
183.907	544.000
183.977	-558.000
184.047	83
184.116	-92
184.186	560
184.256	407
184.325	54
184.395	-284
184.465	473
184.534	693
184.604	-427
184.674	804
184.743	-628
184.813	662
184.883	732
184.952	-366
185.022	92
185.092	271
185.161	259
185.231	57
185.301	386
185.370	739
185.440	-533
185.509	-114
185.579	-239
185.649	-283
185.718	402
185.788	1109
185.857	276
185.927	-81
185.996	-672
186.066	64
186.136	221
186.205	24
186.275	-465
186.344	-2
186.414	166
186.483	-241
186.553	872
186.622	774
186.692	693
186.761	100
186.831	543
186.900	-405
186.970	652
187.039	417
187.109	222
187.178	265
187.248	642
187.317	337
187.387	327
187.456	18
187.526	719
187.595	-309
187.664	334
187.734	831
187.803	241
187.873	-178
187.942	454
188.012	-253
188.081	-56
188.150	293
188.220	712
188.289	957
188.358	725
188.428	471
188.497	-222
188.567	393
188.636	403
188.705	492
188.775	319
188.844	78
188.913	1164
188.983	113
189.052	240
189.121	43
189.191	460
189.260	827
189.329	358
189.399	633
189.468	439
189.537	-445
189.606	276
189.676	414
189.745	617
189.814	618
189.883	-112
189.953	418
190.022	975
190.091	1245
190.161	1850
190.230	1775
190.299	358
190.368	-470
190.437	280
190.507	267
190.576	154
190.645	442
190.714	421
190.783	-428
190.853	351
190.922	16
190.991	120
191.060	752
191.129	-201
191.198	764
191.268	436
191.337	55
191.406	850
191.475	64
191.544	107
191.613	488
191.682	-8
191.752	345
191.821	145
191.890	355
191.959	599
192.028	260
192.097	-64
192.166	273
192.235	-20
192.304	-259
192.373	-425
192.442	-230
192.511	254
192.580	266
192.650	213
192.719	209
192.788	806
192.857	-425
192.926	264
192.995	-169
193.064	252
193.133	1017
193.202	502
193.271	845
193.340	465
193.409	610
193.478	1474
193.547	676
193.615	1411
193.684	2009
193.753	1034
193.822	1446
193.891	182
193.960	761
194.029	-315
194.098	558
194.167	-201
194.236	768
194.305	-80
194.374	371
194.443	593
194.512	440
194.580	849
194.649	154
194.718	1017
194.787	764
194.856	-186
194.925	1283
194.994	1097
195.062	656
195.131	499
195.200	1032
195.269	1018
195.338	1186
195.407	549
195.475	560
195.544	755
195.613	2063
195.682	588
195.751	646
195.819	520
195.888	715
195.957	1321
196.026	1439
196.094	424
196.163	1284
196.232	1761
196.301	726
196.369	748
196.438	1233
196.507	383
196.576	451
196.644	370
196.713	816
196.782	148
196.850	970
196.919	381
196.988	883
197.056	443
197.125	275
197.194	488
197.262	-52
197.331	409
197.400	-216
197.468	47
197.537	80
197.606	-193
197.674	1190
197.743	1266
197.812	941
197.880	1660
197.949	667
198.017	1317
198.086	924
198.155	1221
198.223	394
198.292	1923
198.360	1021
198.429	357
198.497	580
198.566	1583
198.635	1521
198.703	1481
198.772	1708
198.840	1318
198.909	2059
198.977	641
199.046	1132
199.114	653
199.183	904
199.251	316
199.320	1263
199.388	-198
199.457	438
199.525	1104
199.594	785
199.662	328
199.731	94
199.799	-15
199.867	947
199.936	481
200.004	1146
200.073	608
200.141	-433
200.210	207
200.278	228
200.346	25
200.415	1369
200.483	1087
200.552	85
200.620	1118
200.688	-20
200.757	316
200.825	807
200.893	68
200.962	765
201.030	855
201.098	32
201.167	1806
201.235	287
201.303	-164
201.372	1402
201.440	481
201.508	1046
201.577	777
201.645	735
201.713	-369
201.781	999
201.850	1262
201.918	763
201.986	423
202.055	905
202.123	459
202.191	666
202.259	1185
202.327	928
202.396	912
202.464	974
202.532	1210
202.600	4737
202.669	2593
202.737	465
202.805	630
202.873	559
202.941	1126
203.009	479
203.078	-55
203.146	783
203.214	-93
203.282	323
203.350	893
203.418	-49
203.487	674
203.555	-500
203.623	702
203.691	476
203.759	176
203.827	98
203.895	462
203.963	298
204.031	-124
204.099	100
204.168	413
204.236	1318
204.304	443
204.372	735
204.440	633
204.508	474
204.576	-472
204.644	252
204.712	420
204.780	833
204.848	-112
204.916	-181
204.984	435
205.052	388
205.120	1005
205.188	1197
205.256	440
205.324	1187
205.392	34
205.460	1011
205.528	916
205.596	401
205.664	219
205.732	1017
205.799	1955
205.867	4053
205.935	655
206.003	1252
206.071	365
206.139	144
206.207	754
206.275	198
206.343	62
206.411	876
206.478	1150
206.546	909
206.614	32
206.682	583
206.750	-18
206.818	703
206.885	1269
206.953	-412
207.021	855
207.089	304
207.157	150
207.225	160
207.292	814
207.360	907
207.428	370
207.496	386
207.563	802
207.631	390
207.699	-98
207.767	684
207.834	-10
207.902	395
207.970	474
208.038	856
208.105	688
208.173	1344
208.241	1593
208.309	1170
208.376	1480
208.444	1769
208.512	1212
208.579	-198
208.647	1000
208.715	1250
208.782	74
208.850	496
208.918	264
208.985	781
209.053	1043
209.120	1065
209.188	1012
209.256	647
209.323	370
209.391	1262
209.459	1844
209.526	271
209.594	679
209.661	1183
209.729	93
209.796	1083
209.864	536
209.932	-381
209.999	2404
210.067	1275
210.134	1209
210.202	907
210.269	2106
210.337	1979
210.404	976
210.472	1214
210.539	1217
210.607	528
210.674	1239
210.742	1277
210.809	725
210.877	1929
210.944	1589
211.012	1026
211.079	2465
211.146	466
211.214	1114
211.281	2099
211.349	1605
211.416	1113
211.484	1039
211.551	970
211.618	1074
211.686	988
211.753	623
211.821	1991
211.888	815
211.955	1333
212.023	1050
212.090	873
212.157	771
212.225	977
212.292	2897
212.359	4601
212.427	10902
212.494	6106
212.561	2252
212.629	1052
212.696	1208
212.763	1095
212.831	1245
212.898	2322
212.965	560
213.032	1382
213.100	1351
213.167	774
213.234	1541
213.301	610
213.369	383
213.436	563
213.503	309
213.570	1473
213.638	1546
213.705	354
213.772	1064
213.839	1427
213.906	2551
213.973	1854
214.041	865
214.108	1747
214.175	1700
214.242	552
214.309	1123
214.376	1655
214.444	2007
214.511	1916
214.578	1655
214.645	1345
214.712	1441
214.779	1800
214.846	1387
214.913	1773
214.980	2353
215.048	2623
215.115	2897
215.182	2570
215.249	1847
215.316	1802
215.383	1537
215.450	1473
215.517	652
215.584	1441
215.651	1826
215.718	1070
215.785	1890
215.852	2368
215.919	2553
215.986	2082
216.053	858
216.120	1211
216.187	1641
216.254	1858
216.321	1614
216.388	1717
216.455	2147
216.522	2407
216.589	2724
216.656	3772
216.722	3354
216.789	2776
216.856	2005
216.923	1781
216.990	2038
217.057	1655
217.124	2459
217.191	2017
217.258	2669
217.324	2789
217.391	3339
217.458	1127
217.525	1840
217.592	1537
217.659	981
217.725	2783
217.792	3493
217.859	3801
217.926	2227
217.993	1830
218.059	1675
218.126	1616
218.193	1815
218.260	1281
218.327	1237
218.393	1516
218.460	1054
218.527	619
218.594	1346
218.660	2970
218.727	4136
218.794	1293
218.860	2168
218.927	1199
218.994	1313
219.061	707
219.127	1582
219.194	3364
219.261	1776
219.327	1057
219.394	1890
219.461	96
219.527	1598
219.594	1908
219.661	861
219.727	135
219.794	2153
219.860	738
219.927	2061
219.994	4239
220.060	5910
220.127	4353
220.193	2821
220.260	2280
220.326	2716
220.393	2758
220.460	3652
220.526	2760
220.593	1999
220.659	2880
220.726	1573
220.792	5934
220.859	4050
220.925	5069
220.992	6425
221.058	7387
221.125	7137
221.191	5874
221.258	2985
221.324	2012
221.391	1634
221.457	1817
221.524	2082
221.590	3329
221.657	7818
221.723	5819
221.789	4555
221.856	4666
221.922	2078
221.989	2479
222.055	1861
222.121	1305
222.188	4167
222.254	2480
222.321	1938
222.387	685
222.453	1479
222.520	1618
222.586	688
222.652	1888
222.719	452
222.785	2772
222.851	2082
222.918	2165
222.984	2112
223.050	1624
223.116	651
223.183	1536
223.249	920
223.315	1091
223.382	1439
223.448	1153
223.514	887
223.580	996
223.647	1544
223.713	828
223.779	721
223.845	1573
223.911	1331
223.978	745
224.044	1263
224.110	1596
224.176	1770
224.242	1925
224.309	860
224.375	1134
224.441	1194
224.507	529
224.573	1316
224.639	1833
224.705	730
224.772	1111
224.838	703
224.904	2530
224.970	970
225.036	576
225.102	1711
225.168	2352
225.234	1767
225.300	1096
225.366	921
225.432	2071
225.499	418
225.565	1126
225.631	1737
225.697	2061
225.763	2420
225.829	2467
225.895	2411
225.961	3914
226.027	3912
226.093	2478
226.159	2761
226.225	3778
226.291	6280
226.357	10721
226.423	7343
226.489	4726
226.554	3569
226.620	2063
226.686	3765
226.752	5658
226.818	6189
226.884	14563
226.950	13264
227.016	5098
227.082	4002
227.148	2468
227.214	4096
227.279	3903
227.345	2916
227.411	2601
227.477	4255
227.543	8112
227.609	8549
227.674	4503
227.740	2742
227.806	2789
227.872	2067
227.938	3055
228.003	3702
228.069	2519
228.135	1019
228.201	2524
228.267	1810
228.332	2827
228.398	2078
228.464	2650
228.530	1345
228.595	1381
228.661	718
228.727	2250
228.792	3602
228.858	2030
228.924	1180
228.990	3719
229.055	2748
229.121	3405
229.187	2832
229.252	1883
229.318	1444
229.384	2542
229.449	3635
229.515	435
229.581	696
229.646	2873
229.712	2861
229.777	3881
229.843	4882
229.909	4401
229.974	3638
230.040	4120
230.105	2738
230.171	3786
230.236	4113
230.302	5259
230.368	5640
230.433	2144
230.499	3026
230.564	3624
230.630	2399
230.695	2008
230.761	3583
230.826	673
230.892	4440
230.957	2298
231.023	2136
231.088	2165
231.154	2258
231.219	2854
231.284	3115
231.350	3647
231.415	1219
231.481	2173
231.546	1887
231.612	1969
231.677	2051
231.742	1258
231.808	2786
231.873	1268
231.939	499
232.004	4927
232.069	4315
232.135	2233
232.200	1319
232.265	2493
232.331	1486
232.396	1612
232.461	1799
232.527	846
232.592	1870
232.657	1943
232.723	2970
232.788	2946
232.853	1701
232.918	2241
232.984	1240
233.049	1155
233.114	3100
233.179	3580
233.245	4365
233.310	5346
233.375	1113
233.440	2554
233.506	939
233.571	739
233.636	1802
233.701	1209
233.766	2825
233.832	4614
233.897	1958
233.962	1655
234.027	3766
234.092	3109
234.157	2106
234.222	2293
234.288	3694
234.353	8642
234.418	9510
234.483	6791
234.548	5103
234.613	3863
234.678	3864
234.743	3447
234.808	10329
234.873	6246
234.938	4089
235.004	3463
235.069	2930
235.134	2409
235.199	3180
235.264	2349
235.329	887
235.394	2585
235.459	3970
235.524	3016
235.589	2689
235.654	1862
235.719	2007
235.784	1813
235.849	2383
235.913	6220
235.978	5711
236.043	7268
236.108	3603
236.173	2893
236.238	3600
236.303	3017
236.368	2200
236.433	3789
236.498	6116
236.563	3939
236.627	6139
236.692	20220
236.757	15700
236.822	7050
236.887	6833
236.952	5418
237.017	3228
237.081	4937
237.146	4843
237.211	8873
237.276	17865
237.341	34620
237.405	16596
237.470	7344
237.535	6845
237.600	3825
237.664	3432
237.729	2525
237.794	2651
237.859	7056
237.923	5557
237.988	3982
238.053	5140
238.118	5375
238.182	12593
238.247	11756
238.312	6165
238.376	5045
238.441	2792
238.506	3875
238.570	1603
238.635	3596
238.700	2244
238.764	2472
238.829	6111
238.893	6806
238.958	4239
239.023	4750
239.087	2624
239.152	3547
239.216	2268
239.281	2575
239.346	2572
239.410	2138
239.475	2860
239.539	11849
239.604	9483
239.668	4769
239.733	3212
239.797	5055
239.862	15072
239.926	13943
239.991	5384
240.055	3839
240.120	2379
240.184	3572
240.249	3123
240.313	2757
240.378	2193
240.442	7426
240.507	11242
240.571	4689
240.635	5542
240.700	7604
240.764	4139
240.829	2665
240.893	1451
240.957	2892
241.022	5317
241.086	11522
241.151	6363
241.215	2519
241.279	4791
241.344	6310
241.408	4897
241.472	3296
241.537	4986
241.601	4513
241.665	2492
241.730	2801
241.794	4633
241.858	3442
241.922	3463
241.987	3905
242.051	2974
242.115	2933
242.179	2850
242.244	3080
242.308	3679
242.372	3782
242.436	3818
242.501	4232
242.565	1751
242.629	2503
242.693	3435
242.757	2686
242.822	2424
242.886	3506
242.950	2930
243.014	2849
243.078	3824
243.142	4274
243.206	3266
243.271	4047
243.335	3834
243.399	4953
243.463	14762
243.527	39131
243.591	14441
243.655	7181
243.719	4092
243.783	5625
243.847	7768
243.911	9878
243.975	11537
244.040	8270
244.104	5207
244.168	3208
244.232	6311
244.296	8738
244.360	9670
244.424	4994
244.488	4470
244.552	4523
244.615	2483
244.679	3486
244.743	4016
244.807	4888
244.871	3273
244.935	2492
244.999	2020
245.063	3298
245.127	4187
245.191	5951
245.255	6897
245.319	5307
245.383	4892
245.446	4467
245.510	3343
245.574	3916
245.638	4909
245.702	2792
245.766	9866
245.829	7052
245.893	3966
245.957	2980
246.021	4379
246.085	3845
246.149	5825
246.212	12512
246.276	17583
246.340	8759
246.404	7434
246.467	6604
246.531	9111
246.595	6792
246.659	6313
246.722	4657
246.786	7315
246.850	6797
246.913	8704
246.977	4823
247.041	3846
247.104	5812
247.168	5178
247.232	11430
247.295	22860
247.359	13197
247.423	5841
247.486	10620
247.550	7683
247.614	5350
247.677	8652
247.741	4915
247.804	4006
247.868	5572
247.932	9956
247.995	22775
248.059	8803
248.122	4549
248.186	7611
248.249	11305
248.313	35201
248.376	39307
248.440	24483
248.503	10159
248.567	9453
248.630	12901
248.694	17814
248.757	20142
248.821	39657
248.884	26233
248.948	22128
249.011	31162
249.075	43696
249.138	40121
249.202	17762
249.265	11319
249.328	11969
249.392	9714
249.455	8843
249.519	6280
249.582	9090
249.645	13681
249.709	11520
249.772	5735
249.835	6298
249.899	6479
249.962	6434
250.025	5977
250.089	13867
250.152	22306
250.215	10758
250.279	7890
250.342	8430
250.405	8852
250.468	6245
250.532	8926
250.595	13884
250.658	37056
250.721	61364
250.785	26735
250.848	15334
250.911	9466
250.974	9192
251.038	11109
251.101	23884
251.164	13092
251.227	13781
251.290	11812
251.354	15937
251.417	49980
251.480	53436
251.543	38765
251.606	87027
251.669	71522
251.732	32558
251.795	32837
251.859	32577
251.922	57981
251.985	39634
252.048	16462
252.111	12378
252.174	12846
252.237	22480
252.300	45607
252.363	46237
252.426	76118
252.489	37698
252.552	20013
252.615	13822
252.678	15159
252.741	33153
252.804	41018
252.867	76776
252.930	54989
252.993	31781
253.056	19555
253.119	14737
253.182	11651
253.245	18265
253.308	14256
253.371	14787
253.434	14180
253.497	12617
253.559	23057
253.622	17470
253.685	21868
253.748	25105
253.811	12007
253.874	12243
253.937	12123
254.000	10234
254.062	17008
254.125	24052
254.188	21689
254.251	19069
254.314	9943
254.376	16931
254.439	21596
254.502	19312
254.565	17357
254.628	29390
254.690	20154
254.753	11660
254.816	9658
254.878	9569
254.941	16909
255.004	17802
255.067	9090
255.129	9292
255.192	5896
255.255	4779
255.317	6549
255.380	4261
255.443	3490
255.505	4367
255.568	3150
255.631	4713
255.693	4854
255.756	4078
255.819	4796
255.881	3713
255.944	3343
256.006	2502
256.069	4131
256.132	3261
256.194	4393
256.257	11287
256.319	8226
256.382	8112
256.444	5954
256.507	5181
256.569	2923
256.632	3687
256.694	5842
256.757	10733
256.819	32486
256.882	12586
256.944	7368
257.007	7191
257.069	7510
257.132	6000
257.194	6072
257.257	4447
257.319	4180
257.381	3770
257.444	9457
257.506	34156
257.569	42544
257.631	31168
257.693	18154
257.756	8823
257.818	6818
257.880	5211
257.943	5792
258.005	4091
258.067	4366
258.130	4080
258.192	5532
258.254	11564
258.317	7046
258.379	5991
258.441	14267
258.503	12868
258.566	13178
258.628	18075
258.690	5165
258.753	6646
258.815	13907
258.877	6894
258.939	5167
259.001	5093
259.064	3873
259.126	4821
259.188	7503
259.250	6161
259.312	7692
259.375	18531
259.437	13454
259.499	5038
259.561	5834
259.623	6196
259.685	4427
259.747	4395
259.809	11830
259.872	23656
259.934	33118
259.996	32400
260.058	9978
260.120	4774
260.182	4819
260.244	4411
260.306	3574
260.368	4308
260.430	4020
260.492	8304
260.554	17333
260.616	14540
260.678	19998
260.740	25976
260.802	7940
260.864	7048
260.926	5468
260.988	5940
261.050	4788
261.112	9113
261.174	23917
261.236	19207
261.298	7130
261.359	11136
261.421	17691
261.483	5448
261.545	5546
261.607	2701
261.669	4003
261.731	8657
261.793	20238
261.854	10114
261.916	7376
261.978	4932
262.040	5685
262.102	4779
262.164	7959
262.225	7558
262.287	4411
262.349	12588
262.411	10841
262.472	5525
262.534	7664
262.596	15899
262.658	6056
262.719	4253
262.781	6205
262.843	14422
262.904	7953
262.966	5374
263.028	7062
263.090	25181
263.151	65680
263.213	24971
263.275	14524
263.336	7536
263.398	5660
263.459	4073
263.521	4472
263.583	11903
263.644	8857
263.706	4053
263.767	2570
263.829	2764
263.891	1299
263.952	1946
264.014	2942
264.075	4385
264.137	10151
264.198	5928
264.260	2197
264.321	2897
264.383	7001
264.444	17512
264.506	5807
264.567	4121
264.629	6356
264.690	11074
264.752	6344
264.813	5117
264.875	2931
264.936	3363
264.998	2583
265.059	2529
265.120	3104
265.182	3877
265.243	14151
265.305	13822
265.366	4769
265.427	2930
265.489	3132
265.550	2292
265.611	4049
265.673	4070
265.734	2708
265.795	2841
265.857	2241
265.918	2610
265.979	4363
266.040	22659
266.102	20436
266.163	7453
266.224	7206
266.286	5235
266.347	3197
266.408	3982
266.469	4216
266.530	3766
266.592	3243
266.653	7244
266.714	14345
266.775	5335
266.836	3949
266.898	2901
266.959	5386
267.020	4184
267.081	3579
267.142	4248
267.203	3766
267.264	3006
267.326	5449
267.387	3948
267.448	2885
267.509	3242
267.570	3464
267.631	2059
267.692	1769
267.753	3374
267.814	3416
267.875	7063
267.936	16070
267.997	6504
268.058	6332
268.119	4004
268.180	5104
268.241	3954
268.302	3340
268.363	2487
268.424	3613
268.485	3706
268.546	2649
268.607	1679
268.668	1848
268.729	2480
268.790	2710
268.851	3911
268.912	9823
268.972	13380
269.033	7018
269.094	2954
269.155	2928
269.216	2260
269.277	3265
269.338	2656
269.398	3164
269.459	4838
269.520	6931
269.581	8470
269.642	10523
269.702	7235
269.763	4636
269.824	3340
269.885	5541
269.945	9316
270.006	3713
270.067	2665
270.128	2890
270.188	3199
270.249	2736
270.310	3190
270.370	2922
270.431	3219
270.492	2193
270.553	3678
270.613	8896
270.674	17150
270.734	8791
270.795	4029
270.856	6178
270.916	5300
270.977	3436
271.038	6170
271.098	4933
271.159	8463
271.219	8111
271.280	3666
271.340	2792
271.401	3914
271.462	9961
271.522	5840
271.583	4378
271.643	4120
271.704	4346
271.764	5027
271.825	11976
271.885	36262
271.946	49806
272.006	18215
272.066	21844
272.127	36737
272.187	14303
272.248	8315
272.308	7616
272.369	23642
272.429	15460
272.489	11593
272.550	12418
272.610	14387
272.671	11066
272.731	7835
272.791	13940
272.852	9486
272.912	8417
272.972	4779
273.033	4283
273.093	7559
273.153	8319
273.214	5166
273.274	5956
273.334	16787
273.394	36831
273.455	18663
273.515	15991
273.575	34675
273.635	16256
273.696	19273
273.756	35006
273.816	16959
273.876	9743
273.936	15535
273.997	26820
274.057	8495
274.117	7148
274.177	10648
274.237	43019
274.297	37665
274.358	25194
274.418	29214
274.478	23937
274.538	10139
274.598	7962
274.658	21394
274.718	28000
274.778	12061
274.838	7051
274.898	12648
274.958	37586
275.018	34416
275.078	23280
275.138	11003
275.198	6815
275.258	5255
275.318	6362
275.378	12442
275.438	14234
275.498	8988
275.558	16895
275.618	36661
275.678	26293
275.738	17831
275.798	14267
275.858	6537
275.918	5161
275.978	6461
276.038	6138
276.098	4021
276.157	10228
276.217	29032
276.277	14466
276.337	10887
276.397	5809
276.457	8483
276.517	4838
276.576	4613
276.636	4094
276.696	8199
276.756	17874
276.815	12796
276.875	6898
276.935	7423
276.995	6780
277.055	5000
277.114	5143
277.174	6698
277.234	22935
277.293	11074
277.353	5904
277.413	4074
277.472	4622
277.532	5790
277.592	6338
277.651	19203
277.711	38426
277.771	13965
277.830	43340
277.890	38520
277.950	24490
278.009	64587
278.069	27070
278.128	26596
278.188	41670
278.248	19009
278.307	41641
278.367	27618
278.426	8845
278.486	6558
278.545	4666
278.605	5357
278.664	4399
278.724	5217
278.783	12201
278.843	33472
278.902	11739
278.962	7595
279.021	9133
279.081	9547
279.140	10720
279.199	8652
279.259	9056
279.318	9609
279.378	11793
279.437	21948
279.496	66296
279.556	153283
279.615	133632
279.675	43902
279.734	25863
279.793	34893
279.853	52203
279.912	22314
279.971	12922
280.031	12757
280.090	20211
280.149	36237
280.208	29457
280.268	101716
280.327	113130
280.386	33642
280.445	24768
280.505	23503
280.564	11760
280.623	9573
280.682	13846
280.742	21262
280.801	7592
280.860	5676
280.919	5653
280.978	4424
281.037	4387
281.097	4879
281.156	5280
281.215	4479
281.274	6796
281.333	21696
281.392	18308
281.451	5261
281.510	4755
281.569	4449
281.628	3838
281.688	3797
281.747	5193
281.806	5159
281.865	4225
281.924	3851
281.983	4426
282.042	2942
282.101	3994
282.160	3352
282.219	3404
282.278	4184
282.337	15324
282.396	10824
282.454	4735
282.513	6850
282.572	21954
282.631	14352
282.690	5598
282.749	4405
282.808	6072
282.867	5631
282.926	5524
282.985	3972
283.043	3799
283.102	3657
283.161	3965
283.220	9736
283.279	24142
283.338	8389
283.396	5590
283.455	4964
283.514	6371
283.573	9500
283.631	7245
283.690	4424
283.749	5618
283.808	11000
283.866	12795
283.925	5477
283.984	5939
284.043	7951
284.101	8543
284.160	6429
284.219	6598
284.277	7458
284.336	10513
284.395	32113
284.453	27844
284.512	11345
284.570	15994
284.629	14460
284.688	13987
284.746	16026
284.805	18841
284.863	23982
284.922	30630
284.981	35435
285.039	49543
285.098	82879
285.156	151168
285.215	174283
285.273	177302
285.332	168844
285.390	102253
285.449	64694
285.507	45064
285.566	33457
285.624	25451
285.683	19289
285.741	16017
285.799	13044
285.858	12098
285.916	10918
285.975	9347
286.033	7260
286.091	7124
286.150	5761
286.208	6157
286.267	7276
286.325	7696
286.383	11047
286.442	9426
286.500	4342
286.558	4256
286.616	4706
286.675	7217
286.733	6766
286.791	5955
286.850	6026
286.908	7616
286.966	14095
287.024	6339
287.083	4609
287.141	4464
287.199	3859
287.257	7068
287.315	5828
287.374	5407
287.432	13778
287.490	9614
287.548	5262
287.606	4326
287.664	4624
287.723	6125
287.781	8546
287.839	4442
287.897	5494
287.955	6280
288.013	8940
288.071	22166
288.129	71467
288.187	181967
288.245	93360
288.303	31628
288.361	17775
288.419	13748
288.477	9356
288.535	7424
288.593	6422
288.651	5359
288.709	3802
288.767	3485
288.825	3899
288.883	2539
288.941	2476
288.999	3444
289.057	3366
289.115	2687
289.173	2883
289.231	3625
289.289	3478
289.346	3697
289.404	4519
289.462	8406
289.520	7858
289.578	3986
289.636	2906
289.694	2341
289.751	3016
289.809	2482
289.867	2280
289.925	3858
289.983	4954
290.040	1972
290.098	2824
290.156	3302
290.214	5181
290.271	2746
290.329	2823
290.387	1854
290.444	2351
290.502	1798
290.560	1485
290.617	2523
290.675	3062
290.733	2921
290.790	3483
290.848	2412
290.906	3980
290.963	3330
291.021	2858
291.078	2991
291.136	2967
291.194	9545
291.251	22236
291.309	6475
291.366	3988
291.424	3333
291.481	3533
291.539	3909
291.596	3829
291.654	1674
291.711	2731
291.769	3256
291.826	8561
291.884	6063
291.941	3176
291.999	2523
292.056	3514
292.114	5251
292.171	3215
292.228	2740
292.286	5662
292.343	8386
292.401	11421
292.458	8130
292.515	4403
292.573	6257
292.630	5525
292.687	5170
292.745	4512
292.802	4310
292.859	10920
292.917	25230
292.974	15826
293.031	5506
293.089	3701
293.146	3099
293.203	2980
293.260	3019
293.318	4603
293.375	5646
293.432	2732
293.489	3503
293.546	3069
293.604	4690
293.661	14529
293.718	36751
293.775	19077
293.832	10733
293.889	8617
293.947	9680
294.004	6953
294.061	7018
294.118	12256
294.175	21687
294.232	22542
294.289	9847
294.346	6131
294.403	4658
294.460	4258
294.517	4493
294.574	3320
294.631	3979
294.688	4871
294.745	10425
294.802	36017
294.859	36839
294.916	15724
294.973	11727
295.030	9481
295.087	8419
295.144	4928
295.201	4458
295.258	3010
295.315	5836
295.372	15562
295.429	29733
295.486	13068
295.542	7884
295.599	12488
295.656	22349
295.713	17531
295.770	27587
295.827	11200
295.883	5892
295.940	5580
295.997	9834
296.054	9590
296.111	4657
296.167	3985
296.224	2943
296.281	2768
296.338	2724
296.394	3109
296.451	4194
296.508	11811
296.564	24081
296.621	16210
296.678	30560
296.734	45246
296.791	17577
296.848	10071
296.904	11156
296.961	24141
297.018	33150
297.074	23997
297.131	9584
297.187	7105
297.244	10163
297.301	28716
297.357	55250
297.414	19863
297.470	8518
297.527	6105
297.583	5754
297.640	5804
297.696	4527
297.753	3595
297.809	3419
297.866	2094
297.922	2932
297.979	2447
298.035	3274
298.092	7305
298.148	18943
298.204	19524
298.261	9422
298.317	14861
298.374	36698
298.430	24171
298.486	11385
298.543	8614
298.599	7238
298.656	8624
298.712	14485
298.768	33131
298.824	23466
298.881	8134
298.937	4533
298.993	5551
299.050	6316
299.106	5845
299.162	4532
299.218	5064
299.275	4167
299.331	4673
299.387	10701
299.443	34492
299.500	42522
299.556	19820
299.612	8637
299.668	8433
299.724	13123
299.780	14708
299.837	8638
299.893	10419
299.949	31824
300.005	40813
300.061	31577
300.117	50337
300.173	26481
300.229	13033
300.285	15265
300.341	18820
300.397	9560
300.453	5906
300.510	5517
300.566	6527
300.622	8444
300.678	23589
300.734	44106
300.790	33471
300.845	36924
300.901	26895
300.957	38248
301.013	28701
301.069	10312
301.125	8590
301.181	8651
301.237	7227
301.293	4539
301.349	4195
301.405	3161
301.461	3762
301.516	5407
301.572	6225
301.628	11368
301.684	10607
301.740	13400
301.796	22543
301.851	16295
301.907	24626
301.963	26328
302.019	35871
302.074	90984
302.130	93015
302.186	43568
302.242	18417
302.297	13266
302.353	12860
302.409	22655
302.464	20223
302.520	16600
302.576	35402
302.631	42711
302.687	26103
302.743	10677
302.798	6794
302.854	5271
302.910	5632
302.965	6770
303.021	13401
303.076	12939
303.132	15650
303.187	20250
303.243	10314
303.299	5269
303.354	4731
303.410	3986
303.465	4283
303.521	2812
303.576	3138
303.632	5831
303.687	10321
303.743	28173
303.798	26923
303.853	10775
303.909	5709
303.964	5156
304.020	9187
304.075	15941
304.130	13091
304.186	24489
304.241	24806
304.297	19160
304.352	10364
304.358	9984
304.407	6897
304.449	6946
304.463	6965
304.518	6952
304.539	6677
304.573	6211
304.629	5669
304.630	5746
304.684	9795
304.720	18057
304.739	22110
304.794	37097
304.811	31706
304.850	18309
304.902	8505
304.905	7910
304.960	5047
304.992	4830
305.015	4710
305.071	6041
305.083	6033
305.126	5854
305.173	3810
305.181	3496
305.236	2635
305.264	3382
305.292	4260
305.347	6338
305.354	6413
305.402	6592
305.445	6318
305.457	6269
305.512	7017
305.535	7649
305.567	8526
305.622	8738
305.626	8953
305.678	15731
305.716	28518
305.733	32504
305.788	39824
305.807	34667
305.843	26570
305.897	32773
305.898	32805
305.953	34121
305.988	22781
306.008	16876
306.063	11887
306.078	10701
306.118	7983
306.168	5539
306.173	5386
306.228	4637
306.259	4174
306.283	3787
306.338	3999
306.349	3895
306.393	3666
306.440	4198
306.448	4291
306.503	4228
306.530	4883
306.558	7218
306.613	14931
306.620	16300
306.668	27547
306.711	39232
306.723	39718
306.778	31287
306.801	23990
306.833	16175
306.888	8235
306.892	7851
306.943	5760
306.982	5476
306.997	5478
307.052	5041
307.072	4826
307.107	4581
307.162	4879
307.163	4889
307.217	7258
307.253	9224
307.272	9891
307.327	10131
307.343	9876
307.381	9202
307.434	8804
307.436	9134
307.491	19291
307.524	27798
307.546	30062
307.600	33851
307.614	31329
307.655	19587
307.704	9430
307.710	9126
307.765	9080
307.795	10555
307.819	12136
307.874	17380
307.885	17440
307.929	14420
307.975	10983
307.984	11228
308.038	14994
308.065	18215
308.093	33212
308.148	68597
308.156	75955
308.202	118575
308.246	153714
308.257	148966
308.312	81975
308.336	57976
308.366	47569
308.421	34574
308.426	32937
308.475	20224
308.517	13048
308.530	12342
308.585	10722
308.607	10267
308.639	10515
308.694	11219
308.697	11294
308.748	16924
308.787	23148
308.803	23362
308.857	19970
308.877	17993
308.912	17096
308.967	18186
308.967	18186
309.021	27774
309.058	35592
309.076	44728
309.130	77047
309.148	87999
309.185	139536
309.238	219523
309.239	220439
309.293	249112
309.328	243949
309.348	212464
309.402	108818
309.418	81941
309.457	60778
309.508	40211
309.511	40289
309.566	44950
309.598	49387
309.620	64687
309.674	107728
309.688	118773
309.729	112767
309.778	93597
309.783	91169
309.837	60010
309.868	44267
309.892	50032
309.946	66518
309.959	71573
310.001	89753
310.049	106411
310.055	102480
310.109	59346
310.139	35186
310.163	28439
310.218	17770
310.229	15765
310.272	12797
310.319	9871
310.326	9568
310.381	7466
310.409	6624
310.435	6450
310.489	5772
310.499	5755
310.543	6269
310.589	6448
310.598	6421
310.652	6546
310.679	6432
310.706	5890
310.760	4829
310.769	4677
310.814	4961
310.859	5199
310.868	5298
310.923	5633
310.948	5893
310.977	6795
311.031	8568
311.038	8795
311.085	8196
311.128	7281
311.139	7203
311.193	6876
311.218	6739
311.247	6440
311.301	5770
311.308	5670
311.356	5687
311.398	5789
311.410	5702
311.464	5050
311.488	4778
311.518	5275
311.572	6181
311.578	6288
311.626	10222
311.668	13505
311.680	12891
311.734	9833
311.758	8463
311.788	8505
311.842	8588
311.847	8573
311.896	10350
311.937	11877
311.950	11870
312.004	11684
312.027	11565
312.058	10436
312.112	8365
312.117	8138
312.165	7229
312.207	6423
312.297	7738
312.386	7489
312.476	8595
312.566	22729
312.656	10199
312.745	5506
312.835	5533
312.925	7803
313.015	5718
313.104	6062
313.194	6130
313.284	7555
313.374	12309
313.463	10701
313.553	7093
313.643	5983
313.732	5974
313.822	6353
313.912	7496
314.001	9316
314.091	9377
314.180	9873
314.270	12660
314.360	13349
314.449	11221
314.539	7543
314.628	6495
314.718	7793
314.808	9019
314.897	8442
314.987	8819
315.076	12359
315.166	13992
315.255	11149
315.345	12392
315.434	10505
315.524	10341
315.613	13630
315.703	18816
315.792	27562
315.881	78104
315.971	29544
316.060	22679
316.150	20059
316.239	18667
316.328	8214
316.418	8427
316.507	9525
316.597	13261
316.686	10754
316.775	11709
316.865	17435
316.954	7923
317.043	6960
317.133	8865
317.222	7546
317.311	7506
317.400	7363
317.490	12533
317.579	15524
317.668	12188
317.757	19195
317.847	40761
317.936	133596
318.025	60082
318.114	36861
318.203	22934
318.293	28879
318.382	62729
318.471	44568
318.560	47164
318.649	50093
318.738	14217
318.828	14400
318.917	14800
319.006	12481
319.095	25107
319.184	66929
319.273	52473
319.362	37612
319.451	13526
319.540	11562
319.629	28700
319.718	51620
319.807	19540
319.896	26868
319.985	85530
320.074	41246
320.163	11515
320.252	14329
320.341	12835
320.430	12638
320.519	24946
320.608	14226
320.697	11962
320.786	12844
320.875	18568
320.964	24400
321.053	37094
321.142	52453
321.230	55563
321.319	36939
321.408	85608
321.497	35761
321.586	36031
321.675	28028
321.764	29263
321.852	20332
321.941	50861
322.030	35188
322.119	32598
322.207	86095
322.296	37602
322.385	26679
322.474	37664
322.562	109833
322.651	54329
322.740	40676
322.829	53487
322.917	31438
323.006	28889
323.095	28139
323.183	15718
323.272	22645
323.361	34122
323.449	68030
323.538	26253
323.626	50666
323.715	34399
323.804	14801
323.892	44974
323.981	37019
324.069	12381
324.158	21336
324.246	21453
324.335	17977
324.424	34772
324.512	13543
324.601	20783
324.689	41460
324.778	74675
324.866	29325
324.954	10190
325.043	10984
325.131	16299
325.220	18556
325.308	22716
325.397	19810
325.485	14609
325.574	8946
325.662	9530
325.750	10478
325.839	7627
325.927	7066
326.015	9915
326.104	8580
326.192	11101
326.280	7550
326.369	8125
326.457	14872
326.545	26953
326.634	11904
326.722	6641
326.810	8444
326.898	8235
326.987	10911
327.075	23963
327.163	19660
327.251	11935
327.340	33153
327.428	50118
327.516	11288
327.604	9539
327.692	7439
327.781	6808
327.869	9854
327.957	9092
328.045	12045
328.133	5668
328.221	6165
328.309	8144
328.397	7315
328.485	11448
328.574	17037
328.662	57586
328.750	25951
328.838	8372
328.926	6960
329.014	6418
329.102	10873
329.190	21831
329.278	18122
329.366	5461
329.454	4887
329.542	5161
329.630	5019
329.718	5821
329.806	10007
329.893	6710
329.981	6377
330.069	8861
330.157	26157
330.245	80598
330.333	42147
330.421	11030
330.509	17007
330.597	67140
330.684	41721
330.772	11518
330.860	9872
330.948	13342
331.036	8385
331.123	5218
331.211	5100
331.299	6781
331.387	11692
331.475	22172
331.562	8788
331.650	6121
331.738	6976
331.825	7000
331.913	4960
332.001	5091
332.089	6751
332.176	10002
332.264	19506
332.352	17738
332.439	10097
332.527	7644
332.614	5627
332.702	7778
332.790	7080
332.877	15732
332.965	27589
333.052	16727
333.140	16764
333.228	45115
333.315	12930
333.403	8889
333.490	14913
333.578	22192
333.665	62352
333.753	28985
333.840	9359
333.928	8880
334.015	16543
334.103	24739
334.190	72921
334.278	25326
334.365	18489
334.452	16897
334.540	11435
334.627	11614
334.715	15746
334.802	26154
334.889	78737
334.977	91658
335.064	32096
335.151	15287
335.239	12181
335.326	14456
335.413	39986
335.501	53795
335.588	12895
335.675	10827
335.762	11593
335.850	18143
335.937	21846
336.024	41731
336.111	109665
336.199	73442
336.286	25448
336.373	13677
336.460	9605
336.547	9028
336.635	10187
336.722	10512
336.809	7849
336.896	13471
336.983	30098
337.070	59227
337.157	81003
337.245	47431
337.332	31305
337.419	8363
337.506	6545
337.593	7142
337.680	16518
337.767	48485
337.854	19169
337.941	20547
338.028	23594
338.115	9743
338.202	10611
338.289	15595
338.376	48243
338.463	18765
338.550	28062
338.637	30512
338.724	10799
338.811	15375
338.898	5914
338.984	5761
339.071	7584
339.158	10370
339.245	31140
339.332	18641
339.419	14530
339.506	13088
339.593	4703
339.679	7341
339.766	7047
339.853	10100
339.940	25781
340.027	8619
340.113	9156
340.200	13342
340.287	8746
340.374	12825
340.460	23671
340.547	11814
340.634	17652
340.720	61710
340.807	36458
340.894	7057
340.980	8653
341.067	7093
341.154	9859
341.240	15130
341.327	34594
341.414	12033
341.500	15184
341.587	9218
341.674	7987
341.760	22368
341.847	28006
341.933	9187
342.020	4410
342.106	5166
342.193	9707
342.279	18496
342.366	14659
342.452	24515
342.539	13399
342.625	30794
342.712	70642
342.798	30332
342.885	13019
342.971	4652
343.058	4380
343.144	6060
343.230	7317
343.317	8463
343.403	6688
343.490	5037
343.576	4726
343.662	7043
343.749	9254
343.835	11205
343.921	19604
344.008	93535
344.094	213928
344.180	50901
344.267	22595
344.353	62563
344.439	61715
344.525	32694
344.612	15319
344.698	12682
344.784	9531
344.870	6751
344.957	7506
345.043	14300
345.129	11739
345.215	23866
345.301	14670
345.387	10709
345.474	4221
345.560	4534
345.646	5671
345.732	6176
345.818	10173
345.904	8816
345.990	9341
346.076	8196
346.162	13280
346.249	8402
346.335	6274
346.421	7412
346.507	26000
346.593	89058
346.679	23785
346.765	7631
346.851	9338
346.937	9094
347.023	6356
347.108	9909
347.194	8114
347.280	8303
347.366	11399
347.452	31923
347.538	111992
347.624	82404
347.710	65339
347.796	11320
347.882	6963
347.967	5934
348.053	6542
348.139	6206
348.225	5324
348.311	6135
348.397	6432
348.482	9635
348.568	11329
348.654	7770
348.740	16212
348.825	16274
348.911	15683
348.997	48452
349.083	92582
349.168	16078
349.254	8784
349.340	10396
349.425	5599
349.511	11792
349.597	11616
349.682	23545
349.768	72455
349.854	33796
349.939	7482
350.025	6786
350.110	6216
350.196	5906
350.282	6064
350.367	5170
350.453	7646
350.538	8935
350.624	10941
350.709	10526
350.795	5619
350.880	7193
350.966	8340
351.051	10360
351.137	7174
351.222	8319
351.308	25447
351.393	68675
351.479	20374
351.564	9385
351.649	7437
351.735	5679
351.820	5733
351.906	7258
351.991	9752
352.076	42201
352.162	65058
352.247	15149
352.332	11108
352.418	23306
352.503	27685
352.588	101699
352.673	85902
352.759	20567
352.844	10700
352.929	12108
353.014	17041
353.100	11556
353.185	26081
353.270	31996
353.355	29111
353.441	10155
353.526	8560
353.611	24400
353.696	28968
353.781	17130
353.866	7699
353.952	9757
354.037	24850
354.122	56074
354.207	50863
354.292	17869
354.377	8944
354.462	7484
354.547	11684
354.632	11147
354.717	16501
354.802	31315
354.887	11856
354.972	5903
355.057	5907
355.142	5072
355.227	9655
355.312	16801
355.397	36416
355.482	86872
355.567	41601
355.652	28831
355.737	31103
355.822	79286
355.907	64816
355.991	13534
356.076	7450
356.161	7228
356.246	7062
356.331	8600
356.416	19483
356.501	111010
356.585	116627
356.670	22856
356.755	16061
356.840	22869
356.924	95384
357.009	292457
357.094	112680
357.179	31771
357.263	22142
357.348	19138
357.433	19022
357.517	18636
357.602	15943
357.687	12644
357.771	23463
357.856	61300
357.941	37048
358.025	64805
358.110	259100
358.195	128111
358.279	25771
358.364	18759
358.448	63101
358.533	163282
358.617	119683
358.702	113033
358.787	43650
358.871	28437
358.956	23849
359.040	9312
359.125	7349
359.209	9453
359.294	28827
359.378	51889
359.462	26293
359.547	13275
359.631	7445
359.716	6162
359.800	7192
359.885	11085
359.969	9074
360.053	7620
360.138	7464
360.222	13688
360.306	27282
360.391	20964
360.475	37002
360.559	80347
360.644	64940
360.728	46081
360.812	64134
360.896	167471
360.981	77480
361.065	44951
361.149	13845
361.233	14551
361.318	11780
361.402	14977
361.486	12036
361.570	9936
361.654	14473
361.739	31967
361.823	114556
361.907	168973
361.991	37915
362.075	24181
362.159	55244
362.243	42177
362.327	50838
362.411	70616
362.495	32372
362.580	15766
362.664	11373
362.748	12400
362.832	18659
362.916	34896
363.000	108414
363.084	239214
363.168	230125
363.252	61331
363.336	24789
363.420	28545
363.503	60894
363.587	66038
363.671	21284
363.755	18151
363.839	26958
363.923	14704
364.007	30037
364.091	32101
364.175	33779
364.258	111495
364.342	142683
364.426	246949
364.510	133949
364.594	47847
364.677	40555
364.761	148640
364.845	106774
364.929	48410
365.013	39763
365.096	31318
365.180	35877
365.264	26031
365.347	85333
365.431	38122
365.515	14835
365.598	10920
365.682	10576
365.766	12313
365.849	13700
365.933	11524
366.017	12985
366.100	8681
366.184	5800
366.267	7995
366.351	8736
366.435	7377
366.518	6888
366.602	6738
366.685	7945
366.769	10700
366.852	13775
366.936	26677
367.019	19021
367.103	10303
367.186	14161
367.270	8026
367.353	6534
367.436	8958
367.520	8318
367.603	12767
367.687	18018
367.770	33187
367.853	18776
367.937	48754
368.020	81720
368.104	22515
368.187	24477
368.270	36216
368.353	29801
368.437	26625
368.520	34552
368.603	35145
368.687	58851
368.770	110669
368.853	30589
368.936	27985
369.020	22544
369.103	11986
369.186	9727
369.269	11392
369.352	21956
369.436	29352
369.519	19630
369.602	10792
369.685	11453
369.768	11423
369.851	9401
369.934	7186
370.018	10229
370.101	27705
370.184	20398
370.267	13227
370.350	29540
370.433	38167
370.516	86984
370.599	113550
370.682	41572
370.765	70577
370.848	76167
370.931	126430
371.014	44594
371.097	13213
371.180	11448
371.263	7468
371.346	6024
371.429	8137
371.511	8885
371.594	18482
371.677	23775
371.760	20502
371.843	24516
371.926	98773
372.009	224684
372.091	79177
372.174	52333
372.257	113264
372.340	46603
372.423	32337
372.505	30927
372.588	17440
372.671	43487
372.754	129307
372.836	63627
372.919	31581
373.002	53434
373.085	26485
373.167	26487
373.250	62232
373.332	118339
373.415	145853
373.498	296910
373.580	115600
373.663	159476
373.746	205313
373.828	53260
373.911	23974
373.993	20214
374.076	50361
374.159	45890
374.241	34351
374.324	115631
374.406	75284
374.489	84098
374.571	241947
374.654	103889
374.736	49785
374.819	144813
374.901	206135
374.983	210796
375.066	43247
375.148	16748
375.231	41587
375.313	79072
375.395	35518
375.478	13801
375.560	11516
375.643	16012
375.725	44921
375.807	177185
375.890	122222
375.972	40800
376.054	30140
376.136	28242
376.219	17677
376.301	51433
376.383	157927
376.465	61675
376.548	47820
376.630	49412
376.712	138531
376.794	64371
376.877	11101
376.959	7107
377.041	10066
377.123	11599
377.205	13603
377.287	6092
377.369	6923
377.452	8562
377.534	8035
377.616	8385
377.698	9113
377.780	6913
377.862	9942
377.944	9644
378.026	5180
378.108	7315
378.190	6262
378.272	6566
378.354	5614
378.436	5717
378.518	9991
378.600	30855
378.682	32742
378.764	82666
378.846	63220
378.928	19296
379.010	31875
379.091	17748
379.173	9365
379.255	7363
379.337	12552
379.419	39552
379.501	112906
379.583	43364
379.664	14176
379.746	33473
379.828	83972
379.910	108971
379.991	92449
380.073	17066
380.155	12170
380.237	10977
380.318	7714
380.400	9099
380.482	21708
380.564	32263
380.645	37186
380.727	35446
380.809	18810
380.890	14882
380.972	12108
381.053	10548
381.135	12511
381.217	29345
381.298	89234
381.380	43300
381.461	33355
381.543	134649
381.624	165041
381.706	36283
381.787	21321
381.869	23412
381.951	61304
382.032	219950
382.113	146053
382.195	38803
382.276	29254
382.358	59297
382.439	133746
382.521	137130
382.602	207398
382.684	107274
382.765	198831
382.846	264924
382.928	456498
383.009	256281
383.090	180815
383.172	547081
383.253	749707
383.334	277955
383.416	227358
383.497	128446
383.578	84555
383.659	155951
383.741	467020
383.822	962595
383.903	534400
383.984	205607
384.066	267915
384.147	165982
384.228	45382
384.309	38294
384.390	30094
384.471	22868
384.553	23672
384.634	28486
384.715	30167
384.796	17790
384.877	21926
384.958	76365
385.039	95501
385.120	39546
385.201	18494
385.282	20055
385.363	19663
385.444	21725
385.525	37763
385.606	105336
385.687	86756
385.768	23639
385.849	28375
385.930	109562
386.011	183018
386.092	54393
386.173	17083
386.254	11928
386.335	13015
386.416	16508
386.496	53896
386.577	84722
386.658	27081
386.739	18608
386.820	15906
386.901	11462
386.981	13132
387.062	11778
387.143	23218
387.224	82417
387.304	76143
387.385	31307
387.466	20896
387.547	23334
387.627	21068
387.708	35030
387.789	133490
387.869	161378
387.950	44130
388.031	12130
388.111	8639
388.192	15721
388.273	22053
388.353	17253
388.434	14510
388.514	27852
388.595	110039
388.676	153351
388.756	81341
388.837	81610
388.917	50809
388.998	12055
389.078	12052
389.159	11529
389.239	10314
389.320	18639
389.400	15952
389.480	28498
389.561	82517
389.641	41112
389.722	17879
389.802	28794
389.883	34952
389.963	90387
390.043	52770
390.124	16706
390.204	32720
390.284	97401
390.365	58049
390.445	45229
390.525	132938
390.605	132521
390.686	55877
390.766	24852
390.846	13169
390.927	9676
391.007	10990
391.087	12983
391.167	18280
391.247	13066
391.328	13283
391.408	16420
391.488	13130
391.568	7943
391.648	15151
391.728	22596
391.808	20293
391.888	23426
391.969	47256
392.049	78813
392.129	31926
392.209	36383
392.289	95004
392.369	49310
392.449	29841
392.529	25118
392.609	27735
392.689	33931
392.769	94279
392.849	85604
392.929	59893
393.009	131324
393.089	124579
393.169	140888
393.248	362813
393.328	894224
393.408	926592
393.488	386284
393.568	142079
393.648	72181
393.728	45265
393.807	31714
393.887	26893
393.967	22345
394.047	23398
394.127	24578
394.206	28801
394.286	70248
394.366	309674
394.446	335150
394.525	75170
394.605	23207
394.685	21021
394.764	37059
394.844	64424
394.924	52413
395.003	24830
395.083	17303
395.163	15471
395.242	15369
395.322	15518
395.402	9887
395.481	14230
395.561	29353
395.640	83129
395.720	89518
395.799	77851
395.879	52909
395.958	32079
396.038	93946
396.117	401555
396.197	443853
396.276	123441
396.356	46373
396.435	39950
396.515	39963
396.594	61546
396.673	116396
396.753	342152
396.832	822963
396.912	672675
396.991	215671
397.070	73298
397.150	41476
397.229	30108
397.308	46283
397.388	84237
397.467	39702
397.546	16421
397.625	13320
397.705	18992
397.784	19993
397.863	11603
397.942	8858
398.022	8990
398.101	20876
398.180	53604
398.259	27806
398.338	12286
398.417	12474
398.497	9040
398.576	9463
398.655	6216
398.734	7225
398.813	7408
398.892	17743
398.971	57310
399.050	28965
399.129	6888
399.208	5568
399.287	6091
399.366	4615
399.445	5723
399.524	6088
399.603	6140
399.682	14684
399.761	30408
399.840	66383
399.919	46697
399.998	8900
400.077	5251
400.156	4814
400.235	8603
400.313	5675
400.392	7799
400.471	44755
400.550	72546
400.629	20297
400.708	9942
400.786	6229
400.865	12974
400.944	17086
401.023	12561
401.102	4639
401.180	4314
401.259	4313
401.338	4886
401.416	9311
401.495	8781
401.574	5695
401.652	4624
401.731	8760
401.810	10169
401.888	6179
401.967	5670
402.046	9084
402.124	9376
402.203	11604
402.281	7724
402.360	13028
402.438	19600
402.517	11791
402.596	5898
402.674	4666
402.753	4659
402.831	4613
402.910	6899
402.988	33320
403.066	118632
403.145	64797
403.223	37831
403.302	104401
403.380	78746
403.459	83675
403.537	32351
403.615	12851
403.694	4341
403.772	5361
403.850	3320
403.929	4702
404.007	6149
404.085	17132
404.164	23673
404.242	7981
404.320	9035
404.398	20088
404.477	39935
404.555	166093
404.633	143134
404.711	26483
404.789	11664
404.868	10142
404.946	6484
405.024	3239
405.102	4078
405.180	4142
405.258	3553
405.336	4253
405.415	4069
405.493	12336
405.571	14458
405.649	5749
405.727	3923
405.805	7684
405.883	9918
405.961	8644
406.039	6554
406.117	4937
406.195	10169
406.273	41954
406.351	150633
406.429	83636
406.507	12700
406.585	5474
406.663	8018
406.740	10965
406.818	9307
406.896	5136
406.974	5925
407.052	14471
407.130	89686
407.208	125665
407.285	24896
407.363	5980
407.441	6590
407.519	5340
407.596	6892
407.674	13199
407.752	29523
407.830	27079
407.907	15728
407.985	9132
408.063	4341
408.141	2355
408.218	8465
408.296	11059
408.373	10505
408.451	9651
408.529	8218
408.606	4584
408.684	3875
408.762	3340
408.839	2937
408.917	3682
408.994	4592
409.072	5912
409.149	6166
409.227	12668
409.304	17147
409.382	14981
409.459	15710
409.537	23949
409.614	19832
409.692	14105
409.769	14547
409.846	23727
409.924	30110
410.001	23186
410.079	13455
410.156	10280
410.233	9258
410.311	7525
410.388	6329
410.465	9460
410.543	10092
410.620	6377
410.697	7987
410.775	9791
410.852	5407
410.929	10036
411.006	15112
411.083	8365
411.161	21241
411.238	19302
411.315	7154
411.392	5541
411.469	11227
411.547	13359
411.624	6802
411.701	5993
411.778	7321
411.855	17188
411.932	9655
412.009	4300
412.086	5138
412.163	5440
412.240	5674
412.317	7674
412.394	6254
412.471	3349
412.548	4093
412.625	4585
412.702	6416
412.779	14444
412.856	9410
412.933	3878
413.010	3632
413.087	7064
413.164	44260
413.241	63233
413.318	15628
413.395	10616
413.471	17241
413.548	8060
413.625	3485
413.702	5641
413.779	4135
413.855	2509
413.932	1739
414.009	1566
414.086	3117
414.162	3185
414.239	7286
414.316	39487
414.393	91856
414.469	31677
414.546	4092
414.623	2990
414.699	4087
414.776	6038
414.853	3459
414.929	4497
415.006	3563
415.082	3236
415.159	2979
415.236	3968
415.312	5230
415.389	10994
415.465	15648
415.542	7484
415.618	4621
415.695	10107
415.771	6663
415.848	5864
415.924	4723
416.000	2600
416.077	2672
416.153	835
416.230	148
416.306	1352
416.383	1379
416.459	2860
416.535	2660
416.612	3016
416.688	2942
416.764	2621
416.841	3429
416.917	3711
416.993	4141
417.069	5189
417.146	5907
417.222	8570
417.298	6296
417.374	3961
417.451	4678
417.527	7243
417.603	7591
417.679	5653
417.755	4099
417.831	2610
417.908	2323
417.984	2048
418.060	2217
418.136	13160
418.212	17493
418.288	6581
418.364	3497
418.440	4301
418.516	7408
418.592	6845
418.668	18005
418.744	33458
418.820	23405
418.896	6035
418.972	3236
419.048	4568
419.124	15255
419.200	10733
419.276	3325
419.352	1803
419.428	2881
419.504	4841
419.579	7153
419.655	5845
419.731	5862
419.807	21089
419.883	37794
419.959	24612
420.034	8058
420.110	13818
420.186	58060
420.262	44148
420.337	8687
420.413	7798
420.489	5475
420.565	4854
420.640	5085
420.716	5873
420.792	4133
420.867	5889
420.943	5368
421.019	11164
421.094	8893
421.170	5094
421.245	4003
421.321	6040
421.397	7190
421.472	10466
421.548	19646
421.623	19176
421.699	12904
421.774	13108
421.850	11789
421.925	20148
422.001	18976
422.076	18442
422.152	22918
422.227	34881
422.302	43944
422.378	64538
422.453	114726
422.529	246452
422.604	469634
422.679	516697
422.755	493791
422.830	276172
422.905	126404
422.981	71205
423.056	47869
423.131	34715
423.207	25851
423.282	24346
423.357	32891
423.432	23722
423.508	22668
423.583	40818
423.658	29539
423.733	12779
423.808	12979
423.883	15075
423.959	15027
424.034	14368
424.109	11904
424.184	6954
424.259	6027
424.334	6227
424.409	5166
424.484	5996
424.559	6744
424.634	6934
424.709	10014
424.784	9855
424.859	7129
424.934	11185
425.009	44025
425.084	70321
425.159	24685
425.234	5747
425.309	4874
425.384	16115
425.459	27498
425.534	8216
425.609	3211
425.683	2941
425.758	3446
425.833	4485
425.908	6240
425.983	25623
426.058	74209
426.132	30213
426.207	5838
426.282	6240
426.357	4841
426.431	3313
426.506	3800
426.581	3171
426.655	3817
426.730	3836
426.805	4273
426.879	5538
426.954	4040
427.029	10476
427.103	59270
427.178	136132
427.253	56023
427.327	8117
427.402	7903
427.476	25132
427.551	13606
427.625	4417
427.700	4045
427.774	2585
427.849	4240
427.923	2155
427.998	3283
428.072	4785
428.147	11985
428.221	56274
428.296	161287
428.370	82730
428.444	12411
428.519	7393
428.593	12085
428.667	9547
428.742	12743
428.816	19170
428.890	94302
428.965	157187
429.039	44500
429.113	14877
429.188	7764
429.262	4420
429.336	10048
429.410	33253
429.485	19210
429.559	10474
429.633	8493
429.707	5573
429.781	17463
429.855	98817
429.930	156069
430.004	54991
430.078	52726
430.152	66834
430.226	191354
430.300	191086
430.374	34905
430.448	11083
430.522	19376
430.596	49870
430.670	44869
430.744	161387
430.818	218974
430.892	44212
430.966	8314
431.040	5025
431.114	2335
431.188	1952
431.262	2115
431.336	2559
431.410	6758
431.484	18950
431.557	14905
431.631	3936
431.705	6172
431.779	32319
431.853	140850
431.927	95462
432.000	12888
432.074	4223
432.148	3051
432.222	2849
432.295	1979
432.369	2823
432.443	6443
432.516	47233
432.590	125956
432.664	44089
432.737	6306
432.811	2148
432.885	579
432.958	2084
433.032	2159
433.106	993
433.179	1193
433.253	2384
433.326	1753
433.400	484
433.473	1207
433.547	518
433.620	3310
433.694	7971
433.767	7562
433.841	1897
433.914	1075
433.988	2032
434.061	1521
434.134	2968
434.208	1256
434.281	2004
434.355	1738
434.428	2130
434.501	1555
434.575	1114
434.648	1684
434.721	1180
434.795	1308
434.868	1023
434.941	939
435.014	1273
435.088	1976
435.161	5525
435.234	10675
435.307	12852
435.381	6549
435.454	6781
435.527	11655
435.600	12306
435.673	8773
435.746	6007
435.819	4017
435.892	3725
435.966	2005
436.039	2000
436.112	2156
436.185	1134
436.258	919
436.331	1111
436.404	1149
436.477	827
436.550	1124
436.623	1253
436.696	1574
436.769	2652
436.842	1857
436.915	2156
436.987	3795
437.060	990
437.133	1182
437.206	289
437.279	1361
437.352	1556
437.425	684
437.498	3318
437.570	9507
437.643	9081
437.716	2696
437.789	1717
437.861	9918
437.934	27763
438.007	11188
438.080	1630
438.152	3492
438.225	9116
438.298	62064
438.370	167262
438.443	72409
438.516	22952
438.588	4410
438.661	1617
438.734	2191
438.806	3102
438.879	4472
438.951	6930
439.024	14292
439.096	4385
439.169	1998
439.241	929
439.314	539
439.386	1896
439.459	4628
439.531	9421
439.604	4622
439.676	2442
439.749	716
439.821	194
439.893	1749
439.966	1282
440.038	3422
440.110	4614
440.183	2185
440.255	1518
440.327	4038
440.400	25416
440.472	111260
440.544	69399
440.617	10389
440.689	9165
440.761	13703
440.833	21881
440.905	13055
440.978	2058
441.050	588
441.122	826
441.194	847
441.266	1736
441.338	1118
441.411	6578
441.483	42022
441.555	60674
441.627	11943
441.699	5169
441.771	2996
441.843	1410
441.915	1743
441.987	2417
442.059	2361
442.131	3141
442.203	5908
442.275	7581
442.347	8497
442.419	15640
442.491	85829
442.563	206901
442.635	78942
442.706	26643
442.778	18982
442.850	5254
442.922	4605
442.994	4575
443.066	6821
443.137	6032
443.209	6570
443.281	11239
443.353	25963
443.425	97213
443.496	333483
443.568	337183
443.640	125044
443.711	23740
443.783	10432
443.855	6296
443.926	3707
443.998	3014
444.070	5171
444.141	4966
444.213	8575
444.285	10442
444.356	7800
444.428	5028
444.499	2689
444.571	1907
444.642	2274
444.714	4113
444.785	7904
444.857	6948
444.928	9034
445.000	6723
445.071	8941
445.143	12916
445.214	14102
445.285	20007
445.357	54002
445.428	200740
445.500	430084
445.571	297060
445.642	176270
445.714	55209
445.785	25628
445.856	12445
445.928	14077
445.999	11111
446.070	9258
446.141	9215
446.213	11991
446.284	5734
446.355	3602
446.426	3268
446.497	3684
446.569	3903
446.640	8148
446.711	9340
446.782	1762
446.853	2526
446.924	4451
446.995	3932
447.066	2154
447.138	3486
447.209	2011
447.280	921
447.351	255
447.422	685
447.493	1301
447.564	4423
447.635	8012
447.706	2372
447.777	313
447.847	836
447.918	-562
447.989	2337
448.060	2435
448.131	5085
448.202	6931
448.273	7238
448.344	2578
448.414	1656
448.485	1068
448.556	562
448.627	723
448.698	1707
448.768	366
448.839	811
448.910	3132
448.981	3892
449.051	2709
449.122	1166
449.193	812
449.263	741
449.334	69
449.405	2418
449.475	10627
449.546	4872
449.616	3200
449.687	2549
449.758	1053
449.828	1135
449.899	432
449.969	277
450.040	393
450.110	1102
450.181	1392
450.251	419
450.322	725
450.392	888
450.463	478
450.533	496
450.604	649
450.674	958
450.744	1291
450.815	952
450.885	978
450.955	1428
451.026	1459
451.096	1273
451.166	521
451.237	3876
451.307	8916
451.377	3923
451.447	832
451.518	590
451.588	539
451.658	818
451.728	2402
451.799	8380
451.869	9060
451.939	1806
452.009	442
452.079	633
452.149	1432
452.219	2960
452.289	10460
452.360	7013
452.430	2325
452.500	2817
452.570	4876
452.640	9463
452.710	25908
452.780	29341
452.850	23828
452.920	20064
452.990	6271
453.060	3790
453.129	5593
453.199	5338
453.269	11381
453.339	22684
453.409	34031
453.479	36366
453.549	50857
453.619	52667
453.688	17477
453.758	3036
453.828	1304
453.898	945
453.968	1064
454.037	353
454.087	746
454.107	902
454.168	855
454.177	838
454.247	61
454.249	86
454.316	563
454.330	740
454.386	1414
454.411	2717
454.456	4786
454.492	5855
454.525	6832
454.574	3452
454.595	1958
454.655	1066
454.665	934
454.734	1519
454.736	1575
454.804	3252
454.817	4551
454.873	9705
454.898	9503
454.943	9026
454.979	5740
455.013	2811
455.060	1502
455.082	978
455.141	1734
455.152	1818
455.221	6109
455.222	6194
455.291	11179
455.303	10200
455.360	5540
455.384	7270
455.430	10577
455.465	8847
455.499	7078
455.546	7488
455.569	7536
455.627	5758
455.638	5454
455.707	2168
455.708	2168
455.777	1100
455.789	961
455.846	214
455.869	431
455.916	867
455.950	767
455.985	655
456.031	663
456.054	640
456.112	1034
456.124	1109
456.193	1112
456.193	1103
456.262	997
456.274	1187
456.332	2028
456.355	1917
456.401	1523
456.436	1176
456.470	821
456.516	710
456.540	649
456.597	245
456.609	192
456.678	1450
456.678	1445
456.747	763
456.759	716
456.817	501
456.840	388
456.886	175
456.920	435
456.955	815
457.001	1061
457.024	1069
457.082	1579
457.093	1728
457.162	3274
457.163	3283
457.232	2891
457.243	2673
457.301	1445
457.324	1496
457.370	1716
457.405	1653
457.439	1576
457.485	1674
457.508	1812
457.566	2200
457.577	2312
457.646	3151
457.647	3172
457.715	6162
457.727	7174
457.784	12775
457.808	18391
457.853	27383
457.889	32611
457.922	34433
457.969	21292
457.991	18460
458.050	21031
458.060	21498
458.129	42038
458.130	42563
458.198	54339
458.211	48584
458.267	24248
458.292	16976
458.336	8737
458.372	7687
458.405	9312
458.453	14059
458.474	17771
458.533	34989
458.543	36744
458.611	76887
458.614	76956
458.680	54221
458.694	43908
458.749	16287
458.775	11575
458.818	5477
458.855	4077
458.887	3327
458.936	2806
458.955	2577
459.016	2091
459.024	2028
459.093	2355
459.097	2354
459.162	2398
459.177	2479
459.230	3283
459.257	3861
459.299	4027
459.338	3785
459.368	3961
459.418	4976
459.437	4881
459.499	3065
459.505	2997
459.574	2406
459.579	2411
459.643	1872
459.659	1748
459.711	2471
459.740	2847
459.780	2329
459.820	2218
459.849	2552
459.900	2506
459.917	2297
459.981	1790
459.986	1806
460.054	2037
460.061	2100
460.123	2576
460.141	2577
460.191	3123
460.222	3896
460.260	4249
460.302	4836
460.328	5051
460.382	4121
460.397	3835
460.462	2594
460.465	2606
460.534	3675
460.543	3854
460.602	8607
460.623	10589
460.671	16132
460.703	23149
460.739	24811
460.783	22561
460.808	20240
460.864	6095
460.876	4442
460.944	2521
460.945	2490
461.013	2177
461.024	2136
461.081	2548
461.104	2804
461.150	2975
461.184	2903
461.218	2802
461.264	2232
461.286	2089
461.345	2378
461.355	2371
461.423	2111
461.425	2098
461.491	1747
461.505	1916
461.559	3588
461.585	3981
461.628	5862
461.665	8081
461.696	8900
461.745	11519
461.764	10996
461.825	4935
461.832	4674
461.901	3499
461.905	3504
461.969	2683
461.985	2451
462.037	3118
462.065	3185
462.105	2961
462.145	3069
462.173	3722
462.225	5089
462.241	5401
462.305	7255
462.310	7138
462.378	5348
462.385	4906
462.446	3465
462.465	3371
462.514	3342
462.545	3366
462.582	3273
462.625	3160
462.650	2891
462.705	1899
462.718	1945
462.785	2855
462.786	2867
462.854	3092
462.865	3242
462.922	4956
462.945	5541
462.990	4440
463.025	3350
463.058	3196
463.104	2857
463.126	2686
463.184	2692
463.194	2769
463.262	3107
463.264	3122
463.330	3021
463.344	2976
463.398	3647
463.424	3855
463.466	3257
463.504	3163
463.533	3549
463.583	3655
463.601	3605
463.663	3623
463.669	3666
463.737	4232
463.743	4303
463.805	6305
463.823	6768
463.873	8860
463.903	10270
463.940	10708
463.982	11599
464.008	10308
464.062	6307
464.076	5715
464.142	2808
464.144	2792
464.211	2679
464.221	2682
464.279	2768
464.301	2760
464.347	3530
464.381	4231
464.414	4205
464.461	4074
464.482	4339
464.540	5094
464.550	5038
464.617	4356
464.620	4338
464.685	5352
464.699	5530
464.753	5112
464.779	4950
464.820	5340
464.859	5547
464.888	5098
464.938	4585
464.956	4965
465.018	6001
465.023	5909
465.091	4646
465.098	4518
465.158	4652
465.177	4718
465.226	4561
465.257	4390
465.293	4639
465.336	4903
465.361	5428
465.416	6687
465.428	6863
465.495	7969
465.496	8001
465.563	11260
465.575	11840
465.631	14745
465.654	16133
465.698	10917
465.734	6035
465.765	5339
465.813	4231
465.833	4220
465.893	4749
465.900	4721
465.968	4303
465.972	4262
466.035	3895
466.052	3812
466.102	4184
466.131	4396
466.170	4387
466.210	4339
466.237	4537
466.290	4865
466.304	4803
466.369	4539
466.372	4568
466.439	5194
466.449	5273
466.506	5642
466.528	5785
466.573	7102
466.607	8074
466.641	11771
466.687	16903
466.708	18965
466.766	24762
466.775	23151
466.842	10631
466.845	10018
466.909	6722
466.925	5986
466.977	5971
467.004	5984
467.044	6310
467.083	6626
467.111	6528
467.163	6326
467.178	6676
467.242	8091
467.245	8082
467.312	7670
467.321	7607
467.379	7663
467.400	7663
467.446	7626
467.480	7580
467.559	6977
467.638	5735
467.717	6891
467.796	7234
467.875	9017
467.955	7539
468.034	8997
468.113	18375
468.192	26929
468.271	11198
468.350	9493
468.429	12409
468.508	13743
468.588	10073
468.667	7695
468.746	7850
468.825	7592
468.904	6670
468.983	6679
469.062	9390
469.141	10766
469.220	5552
469.299	6293
469.378	5644
469.456	7715
469.535	7412
469.614	6222
469.693	6489
469.772	8333
469.851	9813
469.930	8344
470.009	7266
470.088	7584
470.166	8817
470.245	15501
470.324	18691
470.403	13014
470.482	8166
470.560	6533
470.639	7050
470.718	8557
470.797	6739
470.875	8090
470.954	9292
471.033	10993
471.111	6005
471.190	5069
471.269	4744
471.347	4872
471.426	4551
471.505	6565
471.583	6528
471.662	6701
471.740	5818
471.819	5653
471.898	5534
471.976	6207
472.055	5566
472.133	5651
472.212	6558
472.290	7680
472.369	5771
472.447	5707
472.526	4843
472.604	6146
472.683	5940
472.761	7506
472.839	6630
472.918	6033
472.996	5562
473.075	6255
473.153	7035
473.231	5289
473.310	6157
473.388	7094
473.466	4854
473.545	8101
473.623	9672
473.701	10781
473.780	7278
473.858	5083
473.936	8526
474.014	6740
474.093	6287
474.171	8167
474.249	9616
474.327	8751
474.405	5188
474.484	6193
474.562	4651
474.640	5173
474.718	6193
474.796	6021
474.874	5417
474.952	5563
475.030	4383
475.108	5889
475.187	6414
475.265	7320
475.343	12393
475.421	14817
475.499	5898
475.577	6057
475.655	6792
475.733	10756
475.811	16673
475.889	16855
475.966	13021
476.044	7138
476.122	8842
476.200	12467
476.278	10511
476.356	6523
476.434	6437
476.512	8690
476.590	11943
476.667	10834
476.745	5215
476.823	6518
476.901	5246
476.979	5299
477.056	6249
477.134	6213
477.212	6337
477.290	6884
477.367	5348
477.445	5458
477.523	5097
477.601	5215
477.678	5496
477.756	6687
477.834	6372
477.911	6880
477.989	5778
478.066	5615
478.144	6677
478.222	9359
478.299	16055
478.377	16145
478.454	5816
478.532	4577
478.609	6381
478.687	7346
478.764	4584
478.842	6223
478.919	5589
478.997	6605
479.074	5036
479.152	5359
479.229	6716
479.307	5721
479.384	4419
479.461	5786
479.539	4858
479.616	6558
479.694	5976
479.771	6283
479.848	5130
479.926	6539
480.003	8785
480.080	5604
480.157	5254
480.235	4416
480.312	4235
480.389	6124
480.467	7326
480.544	9620
480.621	7660
480.698	7221
480.775	6584
480.853	6604
480.930	5954
481.007	5989
481.084	6059
481.161	6990
481.238	6684
481.315	5695
481.392	4661
481.470	6097
481.547	5951
481.624	5373
481.701	5153
481.778	5522
481.855	5828
481.932	8813
482.009	11242
482.086	10772
482.163	7061
482.240	12249
482.317	23221
482.393	18563
482.470	7261
482.547	6738
482.624	6464
482.701	6589
482.778	6218
482.855	5518
482.932	5422
483.009	6628
483.085	6724
483.162	8267
483.239	8381
483.316	7020
483.393	6605
483.469	6413
483.546	6268
483.623	6402
483.699	5251
483.776	6000
483.853	6563
483.930	8843
484.006	16042
484.083	28238
484.160	17201
484.236	19627
484.313	15444
484.389	12922
484.466	11441
484.543	11530
484.619	12658
484.696	15032
484.772	12171
484.849	13379
484.925	10026
485.002	11300
485.078	12601
485.155	13588
485.231	9775
485.308	9451
485.384	9861
485.461	11442
485.537	17298
485.614	22488
485.690	11253
485.766	10133
485.843	11287
485.919	18013
485.995	19461
486.072	9803
486.148	9149
486.224	9700
486.301	9537
486.377	12345
486.453	12346
486.530	12579
486.606	13381
486.682	14465
486.758	16787
486.835	18912
486.911	14418
486.987	24354
487.063	34806
487.139	50251
487.215	34726
487.292	17525
487.368	12606
487.444	14319
487.520	21086
487.596	22858
487.672	34207
487.748	113782
487.824	185733
487.900	66065
487.976	18797
488.052	15662
488.128	19117
488.204	16348
488.280	11727
488.356	11763
488.432	19849
488.508	31361
488.584	15392
488.660	10581
488.736	10251
488.812	11625
488.888	14241
488.964	18949
489.039	44928
489.115	76957
489.191	49922
489.267	11554
489.343	9303
489.418	7950
489.494	8560
489.570	7378
489.646	8632
489.722	8673
489.797	8973
489.873	11243
489.949	20922
490.024	22582
490.100	8156
490.176	8376
490.251	11056
490.327	16974
490.403	10309
490.478	8853
490.554	7397
490.629	6356
490.705	6444
490.781	8920
490.856	8340
490.932	9952
491.007	9561
491.083	9320
491.158	7077
491.234	9869
491.309	16541
491.385	20013
491.460	8402
491.536	9277
491.611	8024
491.686	10207
491.762	13500
491.837	28878
491.913	50501
491.988	68188
492.063	97066
492.139	27239
492.214	12166
492.289	8121
492.365	7304
492.440	8987
492.515	7663
492.590	7898
492.666	6970
492.741	9480
492.816	11418
492.891	8930
492.967	6692
493.042	6676
493.117	6052
493.192	7630
493.267	8154
493.342	15737
493.418	19352
493.493	7750
493.568	6779
493.643	6544
493.718	7517
493.793	11460
493.868	15703
493.943	10727
494.018	8160
494.093	6763
494.168	6429
494.243	5964
494.318	5638
494.393	6181
494.468	5767
494.543	6304
494.618	7287
494.693	6864
494.768	5359
494.842	6938
494.917	6273
494.992	7377
495.067	6327
495.142	6176
495.217	5775
495.292	7030
495.366	8464
495.441	10479
495.516	13018
495.591	16866
495.665	59933
495.740	161852
495.815	86395
495.890	12200
495.964	6890
496.039	10416
496.114	7388
496.188	9494
496.263	8253
496.338	7985
496.412	7928
496.487	10939
496.561	11124
496.636	12162
496.710	8320
496.785	9671
496.860	9685
496.934	8829
497.009	9131
497.083	8228
497.158	7743
497.232	9596
497.307	11913
497.381	9848
497.455	10446
497.530	12905
497.604	10325
497.679	9851
497.753	12691
497.827	17604
497.902	15542
497.976	16869
498.050	31577
498.125	129538
498.199	176460
498.273	35402
498.348	22522
498.422	17947
498.496	15572
498.570	17165
498.645	10163
498.719	8619
498.793	11875
498.867	16311
498.941	20956
499.016	49501
499.090	149509
499.164	84108
499.238	9884
499.312	9701
499.386	12043
499.460	12765
499.534	9300
499.609	12370
499.683	14532
499.757	15234
499.831	22122
499.905	91551
499.979	120133
500.053	21405
500.127	20371
500.201	19015
500.275	11785
500.349	11245
500.422	10443
500.496	16348
500.570	34764
500.644	65106
500.718	114485
500.792	41956
500.866	9460
500.940	11722
501.013	10206
501.087	10915
501.161	18230
501.235	23423
501.309	32362
501.382	89102
501.456	109231
501.530	25585
501.603	31888
501.677	20221
501.751	6195
501.825	9530
501.898	13111
501.972	37406
502.046	34395
502.119	9281
502.193	17602
502.266	42723
502.340	29118
502.413	17486
502.487	38033
502.561	25809
502.634	10819
502.708	8995
502.781	7449
502.855	7335
502.928	4616
503.002	6446
503.075	5117
503.149	6191
503.222	5179
503.295	6384
503.369	6873
503.442	9058
503.516	24029
503.589	69333
503.662	57708
503.736	18536
503.809	32621
503.882	36722
503.956	42268
504.029	58492
504.102	69867
504.175	110909
504.249	42264
504.322	14818
504.395	10689
504.468	7466
504.542	5740
504.615	6055
504.688	6573
504.761	4759
504.834	8284
504.907	10261
504.980	17659
505.053	9961
505.127	9320
505.200	14350
505.273	7989
505.346	6513
505.419	4239
505.492	4424
505.565	4723
505.638	4803
505.711	4664
505.784	4753
505.857	4289
505.930	6509
506.003	3581
506.076	6350
506.149	5967
506.221	7020
506.294	6732
506.367	12853
506.440	50656
506.513	44624
506.586	9783
506.659	5885
506.731	5034
506.804	5743
506.877	11001
506.950	7909
507.022	5586
507.095	4723
507.168	7455
507.241	7280
507.313	4135
507.386	5058
507.459	10091
507.531	7007
507.604	4131
507.677	5325
507.749	3183
507.822	7305
507.894	10757
507.967	15580
508.040	7063
508.112	6352
508.185	7505
508.257	5885
508.330	12647
508.402	7900
508.475	5389
508.547	6507
508.620	5876
508.692	9514
508.765	8019
508.837	4084
508.909	5287
508.982	5835
509.054	6690
509.127	5738
509.199	4694
509.271	4642
509.344	3737
509.416	4866
509.488	4695
509.560	6117
509.633	5679
509.705	7823
509.777	6066
509.849	9654
509.922	6310
509.994	5665
510.066	5019
510.138	3706
510.210	10259
510.283	9503
510.355	6921
510.427	8074
510.499	11408
510.571	13512
510.643	5805
510.715	12663
510.787	10904
510.859	8044
510.931	7404
511.003	11844
511.076	12494
511.148	5902
511.219	4528
511.291	7836
511.363	10474
511.435	5783
511.507	5050
511.579	5189
511.651	6028
511.723	4934
511.795	5091
511.867	5188
511.939	6088
512.010	10007
512.082	11394
512.154	5063
512.226	5388
512.298	8579
512.369	12653
512.441	10795
512.513	10658
512.585	6858
512.656	8099
512.728	8570
512.800	6881
512.871	6736
512.943	6239
513.015	5373
513.086	6605
513.158	7661
513.230	6382
513.301	10984
513.373	15889
513.444	8528
513.516	5669
513.588	6662
513.659	7341
513.731	9655
513.802	8124
513.874	18225
513.945	36713
514.016	14165
514.088	7088
514.159	6979
514.231	9989
514.302	12892
514.374	8364
514.445	7029
514.516	13196
514.588	11846
514.659	7024
514.730	12044
514.802	12994
514.873	7017
514.944	8753
515.016	7910
515.087	9094
515.158	9389
515.229	16164
515.301	10300
515.372	9505
515.443	6232
515.514	5035
515.585	5077
515.656	7010
515.728	6730
515.799	4797
515.870	7912
515.941	6970
516.012	6300
516.083	9445
516.154	10694
516.225	16706
516.296	16050
516.367	13793
516.438	16295
516.509	20940
516.580	29550
516.651	90416
516.722	358388
516.793	221565
516.864	35438
516.935	30491
517.006	33252
517.077	42820
517.148	90426
517.219	341101
517.289	642905
517.360	161659
517.431	51164
517.502	15281
517.573	14333
517.643	12994
517.714	12888
517.785	13771
517.856	15185
517.926	19940
517.997	25819
518.068	32031
518.138	44347
518.209	59854
518.280	205560
518.350	821704
518.421	439188
518.492	54728
518.562	27189
518.633	23095
518.703	24293
518.774	42868
518.845	118273
518.915	145368
518.986	42053
519.056	22219
519.127	30856
519.197	42313
519.268	72165
519.338	60137
519.408	15659
519.479	21347
519.549	18570
519.620	11303
519.690	7985
519.760	7246
519.831	9203
519.901	8062
519.971	7522
520.042	6493
520.112	8035
520.182	11088
520.253	14447
520.323	7702
520.393	9628
520.463	18226
520.534	9009
520.604	21847
520.674	13702
520.744	9945
520.814	21760
520.885	26248
520.955	18684
521.025	68689
521.095	45529
521.165	9633
521.235	7962
521.305	6749
521.375	7866
521.445	7576
521.515	10898
521.585	13635
521.655	13823
521.725	11495
521.795	14482
521.865	6626
521.935	10084
522.005	9166
522.075	6437
522.145	6618
522.215	6138
522.285	10213
522.355	12661
522.424	21427
522.494	21393
522.564	13184
522.634	23997
522.704	86038
522.774	47137
522.843	9965
522.913	7915
522.983	10869
523.053	9569
523.122	9120
523.192	10765
523.262	40668
523.331	54241
523.401	11714
523.471	6317
523.540	6861
523.610	5971
523.680	5699
523.749	6562
523.819	6441
523.888	7501
523.958	5390
524.027	6272
524.097	7048
524.166	6806
524.236	6520
524.305	8705
524.375	5931
524.444	5249
524.514	8425
524.583	5814
524.653	6728
524.722	9138
524.791	5986
524.861	7913
524.930	5298
524.999	6665
525.069	11459
525.138	8009
525.207	9455
525.277	7663
525.346	7287
525.415	8172
525.484	8235
525.554	8527
525.623	9682
525.692	9956
525.761	11785
525.830	14297
525.900	15702
525.969	24187
526.038	41241
526.107	73463
526.176	249380
526.245	247331
526.314	71349
526.383	116797
526.452	189499
526.522	254077
526.591	325983
526.660	82829
526.729	40851
526.797	40200
526.867	63237
526.935	263195
527.004	565667
527.073	402480
527.142	44259
527.211	16759
527.280	13689
527.349	14953
527.418	7033
527.487	8646
527.555	5577
527.624	6723
527.693	4192
527.762	7460
527.831	5071
527.899	6681
527.968	5933
528.037	5418
528.106	8295
528.174	15958
528.243	12965
528.312	14181
528.380	23359
528.449	8316
528.518	7618
528.586	3979
528.655	5911
528.723	4888
528.792	4616
528.861	4792
528.929	4257
528.998	5797
529.066	4597
529.135	5406
529.203	4703
529.272	4695
529.340	6391
529.409	7053
529.477	5754
529.545	5573
529.614	9699
529.682	6991
529.751	8696
529.819	11084
529.887	9558
529.956	6893
530.024	7608
530.092	5816
530.161	8660
530.229	12946
530.297	8148
530.365	7551
530.434	5904
530.502	5751
530.570	6682
530.638	6007
530.707	6319
530.775	8448
530.843	5292
530.911	6496
530.979	7164
531.047	6814
531.115	6751
531.183	5759
531.252	6470
531.320	6761
531.388	5988
531.456	6089
531.524	6011
531.592	7902
531.660	8972
531.728	6550
531.796	5945
531.864	6769
531.932	6877
532.000	7593
532.067	7734
532.135	8973
532.203	9631
532.271	10132
532.339	15866
532.407	39169
532.475	31539
532.542	14234
532.610	14082
532.678	16049
532.746	55559
532.814	185824
532.881	65436
532.949	13079
533.017	8745
533.084	8060
533.152	7402
533.220	7939
533.287	7498
533.355	8719
533.423	7504
533.490	7502
533.558	7528
533.625	8252
533.693	7685
533.761	8996
533.828	9878
533.896	8658
533.963	14690
534.031	19642
534.098	26148
534.166	17680
534.233	9110
534.300	10172
534.368	9764
534.435	9582
534.503	10208
534.570	12724
534.637	12534
534.705	14294
534.772	15561
534.840	23547
534.907	100810
534.974	181508
535.041	29350
535.109	12932
535.176	10070
535.243	9230
535.310	9377
535.378	9697
535.445	8401
535.512	9012
535.579	9061
535.646	8480
535.714	8309
535.781	9898
535.848	9033
535.915	11112
535.982	8539
536.049	9616
536.116	10433
536.183	8816
536.250	8598
536.317	9401
536.384	11273
536.451	15799
536.518	17278
536.585	12178
536.652	14381
536.719	20648
536.786	16880
536.853	13509
536.920	16420
536.987	27463
537.053	25029
537.120	82669
537.187	101844
537.254	16057
537.321	10816
537.388	12489
537.454	9272
537.521	8867
537.588	8594
537.654	10731
537.721	10617
537.788	11920
537.855	10000
537.921	11019
537.988	9938
538.055	10393
538.121	8717
538.188	10722
538.254	13423
538.321	26982
538.388	20549
538.454	11955
538.521	11817
538.587	10211
538.654	9742
538.720	10860
538.787	10270
538.853	10847
538.920	11512
538.986	11543
539.053	10524
539.119	10637
539.185	10915
539.252	13882
539.318	18068
539.385	17484
539.451	12223
539.517	13545
539.583	15153
539.650	25044
539.716	73777
539.782	32263
539.849	11526
539.915	11264
539.981	12046
540.047	13522
540.114	12930
540.180	13513
540.246	12614
540.312	15189
540.378	26127
540.444	31041
540.510	26766
540.576	83715
540.643	39669
540.709	12048
540.775	11424
540.841	10465
540.907	12352
540.973	17235
541.039	16024
541.105	19473
541.171	12511
541.237	11712
541.303	12551
541.369	14113
541.435	15416
541.500	25180
541.566	19981
541.632	11193
541.698	9753
541.764	10725
541.830	9313
541.896	9765
541.961	11062
542.027	11434
542.093	11141
542.159	12090
542.224	11124
542.290	15298
542.356	22677
542.421	31613
542.487	16636
542.553	11885
542.618	12567
542.684	12108
542.750	12293
542.815	14430
542.881	18351
542.947	65809
543.012	67941
543.078	13967
543.143	11116
543.209	13102
543.274	11787
543.340	14476
543.405	24282
543.471	51709
543.536	16877
543.602	11840
543.667	10255
543.732	10897
543.798	9376
543.863	12303
543.928	9793
543.994	10732
544.059	10637
544.124	11354
544.190	11189
544.255	12419
544.320	12076
544.386	12158
544.451	17098
544.516	20274
544.581	16884
544.646	38349
544.712	82403
544.777	23310
544.842	14229
544.907	14112
544.972	13806
545.037	14316
545.102	14365
545.168	15032
545.233	15979
545.298	16492
545.363	16897
545.428	18614
545.493	27293
545.558	63125
545.623	35622
545.688	16896
545.753	14647
545.818	15457
545.883	15690
545.947	16008
546.012	17059
546.077	17645
546.142	17364
546.207	18408
546.272	21537
546.337	23371
546.401	19849
546.466	19939
546.531	18538
546.596	21800
546.661	22560
546.725	22331
546.790	21642
546.855	25079
546.919	24138
546.984	28866
547.049	30581
547.113	35033
547.178	36923
547.243	40111
547.307	47239
547.372	53327
547.436	55447
547.501	54029
547.565	59383
547.630	58021
547.695	55487
547.759	53933
547.823	54244
547.888	53594
547.952	53954
548.017	56543
548.081	60152
548.146	60913
548.210	60385
548.274	61935
548.339	62236
548.403	59086
548.468	53237
548.532	53619
548.596	53288
548.660	53606
548.725	58155
548.789	64292
548.853	66205
548.917	61304
548.982	60549
549.046	57162
549.110	48795
549.174	48300
549.238	54468
549.303	61757
549.367	65010
549.431	63119
549.495	56669
549.559	57903
549.623	64861
549.687	74887
549.751	77736
549.815	84871
549.879	85987
549.943	81755
550.007	85579
550.071	86619
550.135	82073
550.199	74766
550.263	73258
550.327	69191
550.391	71268
550.455	76669
550.519	81062
550.582	86529
550.646	100131
550.710	106350
550.774	97705
550.838	97403
550.901	99703
550.965	105839
551.029	108535
551.093	116566
551.156	123694
551.220	144200
551.284	175449
551.347	132693
551.411	120285
551.475	126584
551.538	107327
551.602	99289
551.666	93406
551.729	87566
551.793	84887
551.856	83695
551.920	82008
551.983	81135
552.047	82319
552.110	83098
552.174	81117
552.237	86424
552.301	79824
552.364	76482
552.428	74581
552.491	76249
552.554	79840
552.618	78881
552.681	80636
552.745	80619
552.808	92478
552.871	115631
552.934	94275
552.998	81006
553.061	78361
553.124	73785
553.187	72169
553.251	75297
553.314	76703
553.377	77010
553.440	79281
553.503	86262
553.567	92107
553.630	82189
553.693	80797
553.756	81997
553.819	79826
553.882	78173
553.945	77769
554.008	77402
554.071	75862
554.134	78931
554.197	75258
554.260	72863
554.323	73679
554.386	75174
554.449	77469
554.512	79080
554.575	74880
554.638	75394
554.701	73967
554.764	72635
554.827	69663
554.889	69861
554.952	64804
555.015	63198
555.078	63538
555.141	65676
555.203	63782
555.266	63190
555.329	62441
555.391	61262
555.454	60796
555.517	59148
555.580	55599
555.642	53479
555.705	53309
555.768	53404
555.830	52713
555.893	49369
555.955	48159
556.018	47843
556.080	46978
556.143	49993
556.206	48322
556.268	46932
556.330	47296
556.393	46499
556.455	44262
556.518	47030
556.580	47099
556.643	41984
556.705	40756
556.767	38814
556.830	39217
556.892	40261
556.955	47450
557.017	43765
557.079	37454
557.142	36453
557.204	37005
557.266	50004
557.328	49314
557.391	33132
557.453	32030
557.515	31486
557.577	34318
557.639	36870
557.701	32978
557.764	31713
557.826	32523
557.888	34924
557.950	35181
558.012	38220
558.074	43953
558.136	81399
558.198	223644
558.260	108551
558.322	39313
558.384	38126
558.446	41770
558.508	48403
558.570	55229
558.632	74048
558.694	102694
558.756	111573
558.818	279315
558.880	782570
558.942	326667
559.003	235220
559.065	145557
559.127	53927
559.189	51460
559.251	55422
559.312	68961
559.374	142775
559.436	522552
559.498	337452
559.559	63511
559.621	52146
559.683	53699
559.744	79454
559.806	238516
559.868	444190
559.929	108518
559.991	53778
560.052	70646
560.114	205536
560.176	161146
560.237	109802
560.299	219903
560.360	63845
560.422	25358
560.483	23462
560.545	20753
560.606	19923
560.667	18307
560.729	18193
560.790	17703
560.852	18353
560.913	18431
560.974	18342
561.036	16434
561.097	17733
561.158	18037
561.220	17529
561.281	15889
561.342	18448
561.403	19709
561.465	22026
561.526	40917
561.587	62460
561.648	22988
561.709	18393
561.771	16047
561.832	16729
561.893	15915
561.954	16403
562.015	15852
562.076	15844
562.137	15179
562.198	15082
562.259	16071
562.320	16397
562.381	17644
562.442	23106
562.503	20742
562.564	16975
562.625	14915
562.686	15307
562.747	17393
562.808	16609
562.869	14948
562.930	16853
562.991	16291
563.051	16290
563.112	15930
563.173	14703
563.234	13933
563.294	14780
563.355	13876
563.416	15965
563.477	14903
563.537	15124
563.598	15228
563.659	15726
563.720	14587
563.780	15739
563.841	15108
563.901	15341
563.962	13930
564.023	14493
564.083	14135
564.144	14754
564.204	14610
564.265	15650
564.325	15053
564.386	21052
564.446	20904
564.507	15064
564.567	12846
564.628	13950
564.688	13752
564.749	14102
564.809	14602
564.869	16566
564.930	14362
564.990	14357
565.050	12980
565.111	13591
565.171	13777
565.231	12890
565.292	14298
565.352	13071
565.412	14691
565.472	14724
565.532	14858
565.593	13683
565.653	13708
565.713	13818
565.773	15335
565.833	17863
565.893	21237
565.953	15544
566.013	12531
566.074	14566
566.134	15353
566.194	20300
566.254	23147
566.314	16943
566.374	14013
566.434	13765
566.494	13855
566.554	13664
566.614	14744
566.673	14868
566.733	13746
566.793	16040
566.853	16144
566.913	14300
566.973	15119
567.033	16214
567.092	17749
567.152	16463
567.212	16772
567.272	15655
567.331	15059
567.391	15539
567.451	15986
567.511	18741
567.570	18650
567.630	15756
567.690	14844
567.749	14324
567.809	14361
567.868	15819
567.928	15976
567.988	17043
568.047	17009
568.107	18848
568.166	21155
568.226	28256
568.285	37798
568.345	30426
568.404	25510
568.464	23646
568.523	20267
568.582	23390
568.642	25467
568.701	28143
568.761	36206
568.820	55474
568.879	51660
568.939	38610
568.998	29426
569.057	24630
569.116	20390
569.176	18859
569.235	16339
569.294	17616
569.353	14405
569.413	14820
569.472	14519
569.531	14869
569.590	12823
569.649	13833
569.708	13979
569.767	14642
569.827	18362
569.886	17660
569.945	13066
570.004	14944
570.063	13539
570.122	14191
570.181	15924
570.240	15044
570.299	16103
570.358	18822
570.417	14917
570.475	13437
570.534	13140
570.593	14894
570.652	15843
570.711	17261
570.770	14828
570.829	14738
570.887	14116
570.946	16370
571.005	13125
571.064	14267
571.122	15064
571.181	16123
571.240	13239
571.299	13176
571.357	12952
571.416	13767
571.475	13321
571.533	14691
571.592	12705
571.650	13604
571.709	13024
571.768	14314
571.826	14813
571.885	13549
571.943	11593
572.002	11755
572.060	12563
572.119	12877
572.177	12462
572.236	11762
572.294	11644
572.352	13769
572.411	12703
572.469	12450
572.528	11897
572.586	12798
572.644	13200
572.703	19428
572.761	14606
572.819	12169
572.877	11659
572.936	11817
572.994	10356
573.052	12015
573.110	12516
573.169	12889
573.227	11104
573.285	11942
573.343	10961
573.401	12632
573.459	11162
573.517	11803
573.576	11040
573.634	10959
573.692	13142
573.750	12952
573.808	9983
573.866	11077
573.924	12079
573.982	12599
574.040	10363
574.098	10669
574.155	11436
574.213	11099
574.271	9698
574.329	12482
574.387	10596
574.445	9653
574.503	10468
574.560	9194
574.618	9891
574.676	9756
574.734	9657
574.792	10078
574.849	9437
574.907	9997
574.965	9356
575.022	9500
575.080	9865
575.138	10679
575.195	9582
575.253	10190
575.311	9843
575.368	10334
575.426	8524
575.483	9588
575.541	9398
575.598	9354
575.656	9552
575.713	9817
575.771	9571
575.828	9824
575.886	8265
575.943	10028
576.001	9566
576.058	9961
576.115	9516
576.173	10906
576.230	12049
576.287	14659
576.345	11521
576.402	10359
576.459	10145
576.517	10509
576.574	11283
576.631	10458
576.688	9527
576.746	8971
576.803	9823
576.860	9362
576.917	9591
576.974	9479
577.031	9898
577.089	9054
577.146	9373
577.203	10193
577.260	9981
577.317	9872
577.374	9939
577.431	10574
577.488	9341
577.545	9725
577.602	9554
577.659	9698
577.716	8251
577.773	8988
577.830	8393
577.886	10177
577.943	9417
578.000	9244
578.057	9984
578.114	9905
578.171	10011
578.227	10846
578.284	8875
578.341	9423
578.398	9133
578.454	10005
578.511	10154
578.568	11567
578.625	10525
578.681	9455
578.738	8466
578.794	9254
578.851	9417
578.908	9857
578.964	9471
579.021	11236
579.077	9622
579.134	10378
579.190	9054
579.247	8719
579.303	9490
579.360	9054
579.416	8736
579.473	9488
579.529	8173
579.586	9078
579.642	9658
579.698	8710
579.755	9658
579.811	8994
579.867	8975
579.924	10129
579.980	9014
580.036	8807
580.093	9617
580.149	10617
580.205	10230
580.261	10339
580.317	10614
580.374	10183
580.430	11433
580.486	11587
580.542	9381
580.598	9768
580.619	9669
580.654	9500
580.692	10197
580.710	10555
580.765	9990
580.767	9976
580.823	10772
580.838	10542
580.879	9940
580.911	9295
580.935	8821
580.984	9296
580.991	9374
581.047	9258
581.057	9468
581.103	10356
581.130	10329
581.159	10317
581.203	9697
581.215	9531
581.270	10400
581.276	10469
581.326	11242
581.349	10995
581.382	10563
581.422	10426
581.438	10370
581.494	11031
581.494	11024
581.550	10446
581.567	10737
581.606	11312
581.640	10762
581.661	10456
581.713	11252
581.717	11316
581.773	10167
581.786	10219
581.829	10307
581.859	10322
581.885	10382
581.932	11268
581.940	11436
581.996	11738
582.004	11794
582.052	12060
582.077	11520
582.107	10830
582.150	11182
582.163	11310
582.219	10427
582.223	10482
582.274	11147
582.296	10932
582.330	10639
582.368	10998
582.386	11133
582.441	11340
582.441	11338
582.497	11586
582.514	11350
582.552	11117
582.587	11287
582.608	11329
582.659	10954
582.663	10929
582.719	12974
582.732	12726
582.774	11776
582.805	11756
582.830	11799
582.877	11920
582.885	11937
582.941	11430
582.950	11538
582.996	12013
583.023	12185
583.052	12546
583.095	12836
583.107	12853
583.162	12475
583.168	12591
583.218	13514
583.240	13252
583.273	12997
583.313	12704
583.328	12571
583.384	12726
583.385	12710
583.439	12004
583.458	12058
583.494	12327
583.531	12142
583.549	12123
583.603	12755
583.605	12765
583.660	12012
583.676	12428
583.715	13489
583.748	12603
583.770	12165
583.820	13484
583.825	13572
583.881	13193
583.893	13239
583.936	13558
583.965	13152
583.991	12929
584.038	13563
584.046	13637
584.101	13782
584.110	13704
584.156	13316
584.183	13378
584.211	13612
584.255	13797
584.266	13803
584.321	13526
584.328	13619
584.376	14671
584.400	14770
584.431	14679
584.472	14370
584.486	14305
584.541	14870
584.545	14905
584.596	15953
584.617	16018
584.651	15976
584.689	15990
584.706	15995
584.761	16751
584.762	16741
584.816	16988
584.834	17294
584.871	17851
584.906	17908
584.926	17928
584.978	18345
584.980	18387
585.035	19248
585.051	19811
585.090	21646
585.123	22862
585.145	23692
585.195	24510
585.200	24662
585.254	28125
585.267	28892
585.309	31754
585.340	34311
585.364	36613
585.412	40992
585.419	41744
585.473	48051
585.484	49463
585.528	60469
585.556	71389
585.583	99661
585.628	159794
585.637	184985
585.692	382116
585.700	418212
585.747	532348
585.772	482071
585.801	317427
585.845	110549
585.856	89228
585.910	48948
585.917	44608
585.965	35871
585.989	32821
586.019	31307
586.061	29221
586.074	28884
586.128	28589
586.133	28460
586.183	28234
586.205	28690
586.237	28901
586.277	27909
586.292	27687
586.346	27178
586.349	27137
586.401	27358
586.421	27234
586.455	27163
586.493	27421
586.509	28271
586.564	31544
586.565	31624
586.618	38375
586.637	39714
586.672	39556
586.709	36968
586.727	36299
586.781	38030
586.781	38085
586.835	33860
586.853	32910
586.889	31747
586.925	30189
586.944	30037
586.996	31375
586.998	31467
587.052	31500
587.068	31484
587.106	32282
587.140	33021
587.161	33234
587.212	33555
587.215	33674
587.269	34823
587.284	35149
587.323	35912
587.356	36181
587.377	36515
587.427	37777
587.431	38020
587.485	38972
587.499	39615
587.539	41324
587.571	42057
587.593	42749
587.643	43917
587.648	44209
587.702	46594
587.715	47265
587.755	49722
587.786	50884
587.810	51765
587.858	53407
587.864	53851
587.917	57174
587.930	57927
587.971	61937
588.001	64342
588.025	66346
588.073	70595
588.079	71615
588.133	78795
588.145	80407
588.187	87571
588.217	92525
588.241	98499
588.288	109784
588.295	112025
588.348	129333
588.360	132955
588.402	149350
588.431	160618
588.456	172614
588.503	195554
588.510	200713
588.564	240487
588.575	248578
588.617	291761
588.646	321575
588.671	368567
588.718	461692
588.725	491038
588.778	721882
588.789	771616
588.832	1167997
588.861	1451016
588.886	1718099
588.932	2232693
588.939	2245480
588.993	2183561
589.004	2157127
589.047	1871590
589.075	1631280
589.100	1324148
589.147	777912
589.154	749614
589.207	545962
589.218	505024
589.261	466500
589.290	442866
589.314	466390
589.361	514951
589.368	544768
589.421	791925
589.433	846690
589.475	1304730
589.504	1640057
589.528	1824693
589.576	2134170
589.582	2100186
589.635	1649038
589.647	1536385
589.689	977470
589.718	601258
589.742	495189
589.790	298946
589.795	291439
589.849	219003
589.861	202368
589.902	175964
589.932	155684
589.955	145277
590.004	122694
590.009	121842
590.062	109358
590.075	106015
590.115	98787
590.146	92880
590.168	90762
590.218	85212
590.222	85176
590.275	80944
590.289	79812
590.328	77731
590.360	75208
590.381	74071
590.431	70762
590.435	70871
590.488	69031
590.503	68302
590.541	67575
590.574	66676
590.594	66318
590.645	64499
590.647	64675
590.700	63992
590.716	63533
590.753	63288
590.787	62795
590.806	62908
590.859	62611
590.859	62793
590.912	61503
590.930	61025
590.965	61153
591.001	60702
591.018	60651
591.071	60180
591.072	59983
591.124	60742
591.143	60808
591.177	60415
591.214	59523
591.230	60198
591.283	62026
591.285	61890
591.336	62127
591.356	61970
591.389	61749
591.427	60922
591.442	60377
591.495	57727
591.498	57337
591.547	57454
591.569	57311
591.600	57284
591.640	56685
591.653	57079
591.706	58122
591.711	58026
591.759	58436
591.782	58421
591.811	59824
591.853	61378
591.864	61548
591.917	61266
591.924	61015
591.969	60831
591.995	60454
592.022	60118
592.066	58941
592.075	59517
592.127	61954
592.137	62195
592.180	63622
592.208	64218
592.233	63886
592.279	62537
592.285	62776
592.338	63090
592.350	62947
592.390	62538
592.421	61874
592.443	62630
592.491	63598
592.495	63872
592.548	64625
592.562	64609
592.600	63893
592.633	62882
592.653	63198
592.704	63120
592.705	63500
592.775	64291
592.846	66159
592.916	67895
592.987	69367
593.058	67868
593.128	66534
593.199	65002
593.270	66476
593.341	67771
593.411	68613
593.482	70953
593.553	70393
593.623	69928
593.694	72478
593.764	73821
593.835	72223
593.906	71920
593.976	73590
594.047	73888
594.117	78758
594.188	78977
594.258	78186
594.329	78492
594.399	78187
594.470	79325
594.540	82079
594.611	82730
594.681	83022
594.751	83226
594.822	85987
594.892	89242
594.963	90822
595.033	91470
595.103	94555
595.174	95576
595.244	101962
595.314	105105
595.384	100088
595.455	101355
595.525	104174
595.595	107452
595.665	108195
595.736	105608
595.806	108271
595.876	108115
595.946	108457
596.016	112044
596.087	115988
596.157	115386
596.227	115830
596.297	122026
596.367	130724
596.437	136679
596.507	137399
596.577	138910
596.647	137926
596.717	144457
596.787	145913
596.857	145867
596.927	147587
596.997	147102
597.067	147482
597.137	151971
597.207	152279
597.277	152375
597.347	147144
597.417	143019
597.487	144038
597.557	148686
597.626	150762
597.696	153502
597.766	153723
597.836	148157
597.906	137419
597.975	133902
598.045	136768
598.115	140787
598.185	151744
598.254	168309
598.324	183722
598.394	186890
598.464	180017
598.533	176216
598.603	164134
598.672	160341
598.742	163694
598.812	162494
598.881	166824
598.951	165291
599.020	168870
599.090	174133
599.159	177986
599.229	171773
599.299	167770
599.368	173620
599.437	167596
599.507	154942
599.576	150850
599.646	149279
599.715	149137
599.785	147316
599.854	143600
599.924	141565
599.993	141753
600.062	143433
600.132	149857
600.201	158143
600.270	183151
600.340	189699
600.409	185894
600.478	183614
600.547	187485
600.617	170476
600.686	140800
600.755	129596
600.824	126224
600.894	119937
600.963	120000
601.032	119511
601.101	116929
601.170	112284
601.239	109656
601.308	113345
601.378	112930
601.447	111167
601.516	112486
601.585	116794
601.654	122603
601.723	116035
601.792	118915
601.861	122521
601.930	131040
601.999	132842
602.068	130223
602.137	136999
602.206	137279
602.275	133484
602.343	139307
602.412	140214
602.481	136661
602.550	136072
602.619	139025
602.688	141415
602.756	141308
602.825	141011
602.894	147315
602.963	147166
603.032	149912
603.100	151743
603.169	147511
603.238	151620
603.307	152478
603.375	152199
603.444	156568
603.513	155532
603.581	159133
603.650	163912
603.719	155522
603.787	157662
603.856	162937
603.924	170260
603.993	174758
604.061	178346
604.130	187654
604.198	190425
604.267	193433
604.335	196399
604.404	199467
604.472	202297
604.541	202266
604.609	206963
604.678	206690
604.746	208693
604.815	217358
604.883	216257
604.951	215829
605.020	219723
605.088	221793
605.156	224467
605.225	227141
605.293	226272
605.361	227984
605.429	230285
605.498	237821
605.566	242546
605.634	254583
605.702	261726
605.771	269322
605.839	270570
605.907	262131
605.975	254619
606.043	250328
606.111	250789
606.180	249656
606.248	243492
606.316	242852
606.384	246292
606.452	246249
606.520	256590
606.588	257177
606.656	255367
606.724	250159
606.792	235020
606.860	211538
606.928	191993
606.996	185386
607.064	181911
607.132	186013
607.200	200062
607.267	206481
607.335	209816
607.403	213578
607.471	204468
607.539	200183
607.607	200459
607.674	176146
607.742	177821
607.810	178552
607.878	177641
607.946	182384
608.013	190199
608.081	193274
608.149	196809
608.216	202302
608.284	206922
608.352	207020
608.419	205913
608.487	204073
608.555	196798
608.622	203491
608.690	216979
608.757	239769
608.825	244702
608.893	238155
608.960	230794
609.028	222782
609.095	219000
609.163	213381
609.230	189463
609.298	174852
609.365	184276
609.432	199296
609.500	216558
609.567	251122
609.635	287854
609.702	300370
609.769	285787
609.837	220110
609.904	190772
609.971	197800
610.039	222481
610.106	292261
610.173	551393
610.241	1187796
610.308	674510
610.375	267083
610.442	213666
610.509	198687
610.577	197652
610.644	199386
610.711	207322
610.778	213853
610.845	221404
610.912	235368
610.980	244547
611.047	246987
611.114	244031
611.181	231289
611.248	230604
611.315	244465
611.382	248617
611.449	260212
611.516	264360
611.583	259240
611.650	262414
611.717	267090
611.784	271476
611.851	285789
611.918	307975
611.984	354884
612.051	492358
612.118	947347
612.185	2086732
612.252	1324120
612.319	432505
612.386	351975
612.452	320389
612.519	302976
612.586	297960
612.653	301791
612.719	310752
612.786	298959
612.853	274911
612.919	268771
612.986	274378
613.053	257214
613.120	240893
613.186	234035
613.253	235357
613.319	235944
613.386	238464
613.453	243361
613.519	248682
613.586	252195
613.652	269721
613.719	255675
613.785	252745
613.852	245310
613.918	241550
613.985	244404
614.051	259440
614.118	264737
614.184	251337
614.250	241274
614.317	245231
614.383	244046
614.449	249206
614.516	246950
614.582	249201
614.648	242816
614.715	241874
614.781	236150
614.847	239652
614.914	236215
614.980	231255
615.046	231174
615.112	237923
615.179	236986
615.245	244727
615.311	243180
615.377	260306
615.443	264414
615.509	249845
615.575	257310
615.642	252516
615.708	260853
615.774	271909
615.840	290800
615.906	312663
615.972	387948
616.038	589594
616.104	1143447
616.170	2356655
616.236	1939698
616.302	602855
616.368	452008
616.434	335890
616.500	309691
616.565	339379
616.631	415816
616.697	347452
616.763	357914
616.829	530107
616.895	911698
616.961	840630
617.026	385131
617.092	278339
617.158	258889
617.224	250292
617.289	235499
617.355	220561
617.421	217264
617.487	216947
617.552	206167
617.618	204628
617.684	206285
617.749	207541
617.815	196472
617.880	192887
617.946	194057
618.012	199948
618.077	203251
618.143	193470
618.208	194204
618.274	210754
618.339	210173
618.405	173683
618.470	173455
618.536	174656
618.601	172996
618.667	159036
618.732	153083
618.798	151085
618.863	151297
618.928	149485
618.994	151617
619.059	156199
619.124	171201
619.190	156293
619.255	148281
619.320	148497
619.386	147603
619.451	147289
619.516	140705
619.581	145324
619.647	150131
619.712	149716
619.777	143288
619.842	146428
619.907	148988
619.972	149500
620.038	148682
620.103	144632
620.168	143296
620.233	147666
620.298	147270
620.363	149419
620.428	151843
620.493	155025
620.558	158153
620.623	159985
620.688	160633
620.753	157503
620.818	160899
620.883	160319
620.948	159929
621.013	160596
621.078	156561
621.143	157784
621.207	160649
621.272	157654
621.337	155223
621.402	152679
621.467	154267
621.532	154243
621.596	155481
621.661	147661
621.726	146455
621.791	148732
621.855	150974
621.920	150562
621.985	151473
622.049	153949
622.114	151759
622.179	154277
622.243	156769
622.308	163453
622.373	169387
622.437	164618
622.502	156915
622.566	154054
622.631	153744
622.695	157846
622.760	156146
622.824	156509
622.889	158322
622.953	163323
623.018	191075
623.082	185895
623.147	166979
623.211	163698
623.276	163232
623.340	155196
623.404	151392
623.469	149916
623.533	152732
623.597	149067
623.662	147627
623.726	137363
623.790	128895
623.854	127120
623.919	128453
623.983	131734
624.047	133353
624.111	134736
624.176	139911
624.240	143068
624.304	149239
624.368	137104
624.432	137079
624.496	140908
624.560	152163
624.625	154018
624.689	146868
624.753	152982
624.817	144191
624.881	142129
624.945	128381
625.009	125256
625.073	130254
625.137	137036
625.201	150869
625.265	148096
625.329	132737
625.393	137436
625.456	135932
625.520	139482
625.584	141926
625.648	146678
625.712	156046
625.776	173900
625.839	168850
625.903	125340
625.967	111406
626.031	126094
626.095	152967
626.158	128204
626.222	101806
626.286	96242
626.349	92296
626.413	85704
626.477	88480
626.540	88554
626.604	87130
626.668	86279
626.731	83820
626.795	85896
626.858	86541
626.922	82558
626.986	84099
627.049	81677
627.113	86359
627.176	83669
627.240	79763
627.303	81813
627.366	80603
627.430	83339
627.493	82310
627.557	79101
627.620	82073
627.684	84158
627.747	85523
627.810	76707
627.874	71341
627.937	69811
628.000	71887
628.064	70240
628.127	62817
628.190	63053
628.253	61423
628.317	59053
628.380	56474
628.443	55989
628.506	57900
628.569	54383
628.632	51293
628.696	51745
628.759	49757
628.822	48203
628.885	48594
628.948	48215
629.011	47863
629.074	46371
629.137	45635
629.200	44463
629.263	47106
629.326	42867
629.389	43535
629.452	43570
629.515	43823
629.578	43847
629.641	45588
629.704	44591
629.767	45322
629.830	41885
629.892	42238
629.955	41634
630.018	44153
630.081	45622
630.144	50443
630.207	44089
630.269	45384
630.332	40797
630.395	40947
630.458	40394
630.520	39067
630.583	40419
630.646	39414
630.708	38825
630.771	39291
630.834	41757
630.896	39531
630.959	40723
631.021	40337
631.084	39033
631.146	40848
631.209	40970
631.272	38894
631.334	41111
631.397	40153
631.459	41389
631.522	44360
631.584	44101
631.646	46953
631.709	48899
631.771	53561
631.834	47867
631.896	46111
631.958	40557
632.021	40895
632.083	38469
632.145	39087
632.208	38718
632.270	40461
632.332	36667
632.395	37235
632.457	38267
632.519	37418
632.581	37144
632.643	36622
632.706	37876
632.768	35840
632.830	36460
632.892	36724
632.954	37101
633.016	38349
633.078	36882
633.141	36751
633.203	38047
633.265	37581
633.327	38261
633.389	37287
633.451	41171
633.513	44767
633.575	41562
633.637	42621
633.698	41479
633.760	41572
633.822	41737
633.884	42200
633.946	43252
634.008	43342
634.070	44129
634.132	46855
634.193	50521
634.255	54041
634.317	54054
634.379	55258
634.441	48509
634.502	44785
634.564	41965
634.626	39820
634.687	38199
634.749	37339
634.811	36525
634.873	34861
634.934	37548
634.996	36507
635.057	35451
635.119	36235
635.181	37571
635.242	39062
635.304	36201
635.365	39764
635.427	37014
635.488	38500
635.550	35826
635.611	37669
635.673	35526
635.734	40234
635.796	41351
635.857	46644
635.918	47204
635.980	51480
636.041	53273
636.102	58603
636.164	58262
636.225	55887
636.286	47848
636.348	44805
636.409	40297
636.470	36724
636.531	37069
636.593	35728
636.654	35761
636.715	33696
636.776	33301
636.838	32214
636.899	32027
636.960	31242
637.021	30303
637.082	30685
637.143	29873
637.204	29229
637.265	29671
637.326	29820
637.387	31358
637.448	29962
637.509	31077
637.570	30191
637.631	30562
637.692	28060
637.753	27127
637.814	28341
637.875	28357
637.936	29508
637.997	27708
638.058	28720
638.119	28552
638.179	28266
638.240	27548
638.301	27856
638.362	26820
638.423	26725
638.483	27814
638.544	25459
638.605	26503
638.666	25888
638.726	27294
638.787	26062
638.848	25646
638.908	26422
638.969	24765
639.030	24922
639.090	23871
639.151	25336
639.211	27784
639.272	32162
639.332	43356
639.393	31450
639.453	28363
639.514	28457
639.574	25779
639.635	23761
639.695	25505
639.756	23628
639.816	26361
639.877	28902
639.937	39093
639.997	45673
640.058	26938
640.118	23866
640.178	23991
640.239	24321
640.299	24326
640.359	23947
640.420	26186
640.480	27866
640.540	31555
640.600	30932
640.661	29533
640.721	27699
640.781	32522
640.841	25110
640.901	25320
640.961	24891
641.021	26799
641.082	30344
641.142	34607
641.202	27066
641.262	21336
641.322	23611
641.382	21519
641.442	21896
641.502	21789
641.562	22780
641.622	23169
641.682	24573
641.742	27710
641.802	25641
641.861	24657
641.921	23357
641.981	24516
642.041	23809
642.101	28489
642.161	22306
642.221	20420
642.280	19910
642.340	19676
642.400	20017
642.460	21987
642.519	21976
642.579	21395
642.639	21861
642.698	20014
642.758	24127
642.818	22099
642.877	21978
642.937	23022
642.997	26887
643.056	32443
643.116	23647
643.175	23609
643.235	23436
643.294	24032
643.354	25021
643.414	26927
643.473	32429
643.532	37104
643.592	50984
643.651	80783
643.711	142654
643.770	281404
643.830	679607
643.889	1270901
643.948	313867
644.008	67413
644.067	42433
644.126	32499
644.186	28873
644.245	26028
644.304	23281
644.363	24406
644.423	21674
644.482	22625
644.541	23864
644.600	23710
644.659	31829
644.719	38304
644.778	57360
644.837	100106
644.896	210734
644.955	460099
645.014	139083
645.073	35915
645.132	28287
645.191	26096
645.250	23790
645.309	26397
645.368	28523
645.427	36537
645.486	61585
645.545	99202
645.604	32461
645.663	22990
645.722	22787
645.781	24439
645.840	28361
645.898	34573
645.957	48915
646.016	74699
646.075	137567
646.134	269364
646.192	717027
646.251	945682
646.310	151542
646.369	48492
646.427	40019
646.486	30234
646.545	24334
646.603	22797
646.662	21560
646.721	20974
646.779	20953
646.838	21920
646.896	28381
646.955	37828
647.014	59596
647.072	117161
647.131	306900
647.189	134223
647.248	26045
647.306	21117
647.365	19411
647.423	16086
647.481	18629
647.540	15384
647.598	16533
647.657	15542
647.715	15608
647.773	14099
647.832	15823
647.890	13673
647.948	14053
648.007	13903
648.065	13661
648.123	14203
648.181	15424
648.240	14284
648.298	13817
648.356	13475
648.414	14285
648.472	13842
648.531	13271
648.589	12744
648.647	13405
648.705	13772
648.763	13915
648.821	13330
648.879	14292
648.937	17214
648.995	19733
649.053	25131
649.111	40306
649.169	64990
649.227	119149
649.285	253361
649.343	691353
649.401	300249
649.459	68110
649.516	39244
649.574	23261
649.632	28018
649.690	29650
649.748	30940
649.806	44111
649.863	81798
649.921	218526
649.979	131348
650.037	21546
650.094	13832
650.152	14293
650.210	11766
650.268	12794
650.325	12024
650.383	12839
650.440	10228
650.498	11205
650.556	10144
650.613	10324
650.671	10515
650.728	11522
650.786	12184
650.843	15663
650.901	10839
650.958	10495
651.016	10018
651.073	10700
651.131	8805
651.188	9497
651.246	9998
651.303	8273
651.360	9043
651.418	9438
651.475	9537
651.532	8539
651.590	9974
651.647	8802
651.704	9453
651.762	9512
651.819	9538
651.876	9473
651.933	9123
651.990	9203
652.048	7587
652.105	8299
652.162	8982
652.219	8502
652.276	8918
652.333	8768
652.390	8021
652.448	8926
652.505	8285
652.562	7985
652.619	8201
652.676	9333
652.733	10505
652.790	7463
652.847	7089
652.904	8378
652.961	6465
653.017	7609
653.074	9155
653.131	9045
653.188	6924
653.245	7586
653.302	8065
653.359	7565
653.415	8032
653.472	7306
653.529	7442
653.586	6379
653.642	7368
653.699	8711
653.756	7302
653.813	7471
653.869	8344
653.926	7251
653.983	6519
654.039	7739
654.096	7499
654.152	7660
654.209	6441
654.266	7783
654.322	7122
654.379	8767
654.435	9156
654.492	8558
654.548	10805
654.605	12744
654.661	9711
654.717	7978
654.774	7574
654.830	7617
654.887	7707
654.943	7964
655.000	7968
655.056	7828
655.112	7828
655.168	6786
655.225	7655
655.281	8176
655.337	9257
655.394	7882
655.450	8679
655.506	8155
655.562	9091
655.618	9717
655.675	6994
655.731	7497
655.787	6459
655.843	7799
655.899	6450
655.955	7278
656.011	7599
656.067	6190
656.123	7206
656.179	7311
656.235	7737
656.291	6886
656.347	7917
656.403	7299
656.459	7256
656.515	7757
656.571	7184
656.627	7502
656.683	7716
656.739	7895
656.795	7708
656.850	8071
656.906	9410
656.962	8081
657.018	6847
657.074	8488
657.129	11186
657.185	16858
657.241	31435
657.297	17543
657.352	7263
657.408	6839
657.464	8416
657.519	6793
657.575	6497
657.630	6293
657.686	6585
657.742	6181
657.797	7238
657.853	6677
657.908	7452
657.964	5728
658.019	6371
658.075	6936
658.130	6056
658.186	4676
658.241	6705
658.297	5731
658.352	5196
658.407	7376
658.463	5644
658.518	5894
658.573	6364
658.629	5131
658.684	5950
658.739	6625
658.795	6029
658.850	6586
658.905	5373
658.960	6821
659.016	5500
659.071	6807
659.126	6414
659.181	7927
659.236	12681
659.291	12607
659.346	7351
659.401	7444
659.457	6622
659.512	6268
659.567	6841
659.622	6460
659.677	5470
659.732	5371
659.787	5653
659.842	6156
659.897	6363
659.952	7006
660.007	5779
660.061	6433
660.116	5523
660.171	5743
660.226	5397
660.281	6699
660.336	5272
660.391	6342
660.445	5761
660.500	6128
660.555	6329
660.610	5824
660.664	6334
660.719	5656
660.774	6132
660.828	5761
660.883	6439
660.938	6169
660.992	4236
661.047	6357
661.101	4997
661.156	5544
661.211	4624
661.265	5437
661.320	5016
661.374	6501
661.429	5055
661.483	5969
661.538	4824
661.592	4972
661.647	5705
661.701	5647
661.755	5716
661.810	5656
661.864	5261
661.919	5494
661.973	5821
662.027	5404
662.081	4670
662.136	5998
662.190	5930
662.244	5501
662.299	5953
662.353	5277
662.407	5982
662.461	5857
662.515	5483
662.569	5444
662.624	6375
662.678	4960
662.732	4792
662.786	5892
662.840	4995
662.894	5846
662.948	4957
663.002	5316
663.056	5047
663.110	4785
663.164	4412
663.218	6170
663.272	5863
663.326	6134
663.380	5925
663.434	6052
663.488	4144
663.542	5932
663.595	5154
663.649	5377
663.703	6421
663.757	6195
663.811	5255
663.864	5516
663.918	5797
663.972	4450
664.026	4692
664.079	5743
664.133	5254
664.187	5798
664.240	5180
664.294	5397
664.348	4893
664.401	4782
664.455	5563
664.508	4331
664.562	4834
664.615	5022
664.669	4783
664.722	5906
664.776	4707
664.829	5958
664.883	4664
664.936	5006
664.990	5839
665.043	5740
665.097	4699
665.150	7140
665.203	5465
665.257	5039
665.310	5285
665.363	5657
665.417	5572
665.470	5718
665.523	5500
665.576	6131
665.630	4889
665.683	5433
665.736	5129
665.789	5110
665.842	4783
665.895	5893
665.949	5556
666.002	6014
666.055	6009
666.108	6038
666.161	5914
666.214	5763
666.267	6858
666.320	7492
666.373	6040
666.426	6393
666.479	5258
666.532	5941
666.585	6030
666.638	6038
666.691	5828
666.744	6130
666.796	6094
666.849	5116
666.902	5727
666.955	4990
667.008	5579
667.060	5483
667.113	4819
667.166	5608
667.219	6039
667.271	6399
667.324	5357
667.377	5387
667.430	4941
667.482	6507
667.535	5666
667.587	6534
667.640	6567
667.693	7878
667.745	12578
667.798	11647
667.850	6194
667.903	6155
667.955	5753
668.008	6403
668.060	5522
668.113	5853
668.165	6656
668.218	6279
668.270	5566
668.322	5042
668.375	5977
668.427	5903
668.479	5260
668.532	6179
668.584	6225
668.636	5229
668.689	5572
668.741	5134
668.793	5169
668.845	5587
668.898	5953
668.950	5355
669.002	6371
669.054	5016
669.106	5067
669.158	5854
669.211	5080
669.263	6207
669.315	6440
669.367	5452
669.419	5192
669.471	6447
669.523	6159
669.575	8174
669.627	6391
669.679	5253
669.731	5797
669.783	6494
669.835	6126
669.886	6262
669.938	5631
669.990	5902
670.042	5486
670.094	5705
670.146	5455
670.197	6662
670.249	7613
670.301	8106
670.353	9891
670.404	13963
670.456	18065
670.508	28515
670.560	47030
670.611	80966
670.663	141708
670.715	353511
670.766	506927
670.818	114993
670.869	21786
670.921	14248
670.972	11848
671.024	9606
671.075	8396
671.127	7277
671.178	6579
671.230	7605
671.281	6692
671.333	7749
671.384	9051
671.436	9854
671.487	14026
671.538	17995
671.590	27512
671.641	43023
671.692	75916
671.744	139264
671.795	84110
671.846	29748
671.897	15714
671.949	10422
672.000	8964
672.051	8272
672.102	6910
672.153	5761
672.204	5603
672.256	6968
672.307	5910
672.358	5104
672.409	5032
672.460	5681
672.511	4415
672.562	5143
672.613	4774
672.664	4357
672.715	5171
672.766	5362
672.817	4644
672.868	4679
672.919	4416
672.970	4083
673.021	3791
673.071	3807
673.122	4663
673.173	4649
673.224	3881
673.275	3836
673.326	3442
673.376	4205
673.427	4318
673.478	3432
673.528	4489
673.579	4462
673.630	3658
673.680	5254
673.731	3982
673.782	3971
673.832	4405
673.883	3707
673.934	3954
673.984	4077
674.035	3963
674.085	3916
674.136	4085
674.186	4906
674.237	4921
674.287	4863
674.338	5353
674.388	3864
674.438	4420
674.489	4899
674.539	4981
674.589	4583
674.640	4741
674.690	3961
674.740	4693
674.791	4916
674.841	3937
674.891	4154
674.942	3884
674.992	3854
675.042	3482
675.092	3639
675.142	3291
675.193	3301
675.243	3649
675.293	3588
675.343	3656
675.393	4181
675.443	3848
675.493	4084
675.543	4038
675.593	3777
675.643	4460
675.693	3626
675.743	3461
675.793	3335
675.843	2461
675.893	3704
675.943	3359
675.993	3780
676.043	3529
676.093	3648
676.142	2917
676.192	3850
676.242	3928
676.292	3612
676.341	2907
676.391	3112
676.441	2368
676.491	3075
676.540	3057
676.590	4041
676.640	3500
676.689	2276
676.739	2551
676.789	3261
676.838	2627
676.888	2274
676.937	2714
676.987	3126
677.037	2645
677.086	2362
677.136	2530
677.185	3590
677.235	2616
677.284	3316
677.333	3341
677.383	3084
677.432	2412
677.482	3089
677.531	3363
677.580	2859
677.630	3370
677.679	2918
677.728	3298
677.778	3048
677.827	2727
677.876	2924
677.925	2330
677.975	3226
678.024	3116
678.073	3844
678.122	3200
678.171	3179
678.220	2735
678.269	3590
678.319	3977
678.368	3531
678.417	3446
678.466	3551
678.515	3419
678.564	2973
678.613	2672
678.662	3758
678.711	2370
678.760	2308
678.809	3214
678.857	2587
678.906	2824
678.955	3231
679.004	3107
679.053	3370
679.102	3209
679.151	2553
679.199	2803
679.248	2488
679.297	3118
679.346	2819
679.394	2125
679.443	2079
679.492	3037
679.540	2663
679.589	2123
679.638	3288
679.686	2310
679.735	3698
679.784	2740
679.832	3059
679.881	2335
679.929	2700
679.978	2519
680.026	2164
680.075	2779
680.123	2103
680.172	2249
680.220	2611
680.268	1942
680.317	1668
680.365	2622
680.414	2571
680.462	2374
680.510	3102
680.559	1479
680.607	2933
680.655	2015
680.703	2278
680.752	2464
680.800	2294
680.848	1121
680.896	1388
680.945	1950
680.993	1931
681.041	1965
681.089	2116
681.137	1842
681.185	2375
681.233	1888
681.258	2222
681.281	2515
681.329	2259
681.377	1840
681.380	1880
681.425	2154
681.473	3208
681.502	2875
681.521	2606
681.569	3286
681.617	2648
681.624	2689
681.665	2775
681.713	2016
681.745	2714
681.761	3008
681.809	2680
681.857	3221
681.867	3143
681.904	2804
681.952	2900
681.989	3021
682.000	3023
682.048	2680
682.096	3209
682.111	3192
682.143	3072
682.191	2565
682.233	3426
682.239	3531
682.286	2464
682.334	2827
682.354	2779
682.382	2694
682.430	4210
682.476	2852
682.477	2802
682.525	3273
682.572	3274
682.598	3042
682.620	2787
682.667	3391
682.715	4319
682.720	4329
682.763	4221
682.810	4722
682.841	4137
682.857	3789
682.905	3454
682.952	3640
682.963	3714
683.000	3865
683.047	3780
683.085	4661
683.095	4895
683.142	3501
683.190	4806
683.206	4538
683.237	3938
683.284	4622
683.328	4118
683.332	4059
683.379	4226
683.426	4302
683.449	4069
683.473	3809
683.521	4592
683.568	4488
683.571	4465
683.615	3927
683.662	4881
683.693	4305
683.709	3964
683.757	4972
683.804	4365
683.814	4355
683.851	4209
683.898	4866
683.936	4839
683.945	4819
683.992	4465
684.039	5061
684.057	5167
684.086	5346
684.133	5759
684.179	5063
684.180	5018
684.227	5754
684.274	5775
684.300	5753
684.321	5700
684.368	5311
684.415	5625
684.422	5575
684.462	5188
684.509	5101
684.543	5172
684.556	5203
684.603	5771
684.649	4617
684.665	4789
684.696	5188
684.743	5746
684.786	5549
684.790	5507
684.837	5197
684.883	5470
684.908	5693
684.930	5916
684.977	5746
685.023	5915
685.029	6017
685.070	6571
685.117	5812
685.150	5402
685.164	5282
685.210	6259
685.257	7055
685.272	7061
685.303	7036
685.350	6322
685.393	6512
685.396	6521
685.443	7869
685.490	7520
685.514	7328
685.536	6989
685.583	7132
685.629	6745
685.636	6759
685.675	6851
685.722	7194
685.757	6834
685.768	6729
685.815	6794
685.861	7042
685.878	7053
685.908	7038
685.954	6968
686.000	6715
686.000	6705
686.047	6834
686.093	8023
686.121	7541
686.139	7201
686.185	7535
686.232	7534
686.242	7348
686.278	6588
686.324	6814
686.363	7062
686.370	7119
686.416	6754
686.463	7246
686.484	6833
686.509	6397
686.555	6858
686.601	6969
686.606	6992
686.647	7178
686.693	7244
686.727	7478
686.739	7525
686.785	6972
686.831	6874
686.848	6880
686.877	6986
686.923	7359
686.969	8183
686.969	8186
687.015	7206
687.061	7202
687.090	8004
687.107	8419
687.153	7886
687.199	7327
687.211	7155
687.245	6840
687.291	7243
687.332	7561
687.336	7592
687.382	8230
687.428	8005
687.453	7885
687.474	7677
687.520	8038
687.565	7482
687.574	7474
687.611	7727
687.657	7946
687.695	8151
687.702	8242
687.748	9095
687.794	9506
687.816	9755
687.839	9490
687.885	8845
687.931	8301
687.937	8213
687.976	8345
688.022	8924
688.058	9075
688.067	9032
688.113	8610
688.158	8242
688.179	8100
688.204	8161
688.249	8846
688.295	8942
688.300	8919
688.340	8607
688.386	8866
688.421	8590
688.431	8545
688.477	8862
688.522	8771
688.542	8902
688.567	9097
688.613	8991
688.658	9249
688.663	9245
688.703	9127
688.749	9028
688.784	9017
688.794	9022
688.839	8883
688.884	9054
688.905	8918
688.930	8724
688.975	8783
689.020	9005
689.026	8925
689.065	8690
689.110	8182
689.146	8923
689.155	9081
689.201	8982
689.246	8659
689.267	8626
689.291	8687
689.336	8976
689.381	9276
689.388	9355
689.426	9798
689.471	9961
689.509	9691
689.516	9616
689.561	9891
689.606	9094
689.630	8935
689.651	8895
689.696	9201
689.741	9365
689.750	9338
689.785	9324
689.830	9479
689.871	9596
689.875	9602
689.920	9197
689.965	9173
689.992	9196
690.010	9367
690.054	9314
690.099	9365
690.112	9589
690.144	9906
690.189	9595
690.233	9099
690.233	9111
690.278	9079
690.323	9462
690.354	9520
690.367	9599
690.412	9800
690.457	10276
690.474	10343
690.501	10260
690.546	10022
690.590	9710
690.595	9711
690.635	10214
690.680	10133
690.716	10529
690.724	10608
690.769	10988
690.813	10765
690.836	10670
690.857	11051
690.902	12364
690.946	13265
690.957	13630
690.991	15832
691.035	18128
691.077	20948
691.080	20985
691.124	19355
691.168	18899
691.198	17914
691.213	16991
691.257	15254
691.301	13099
691.318	12421
691.346	12461
691.390	11774
691.434	11244
691.439	11164
691.478	11118
691.522	11613
691.559	11550
691.567	11583
691.611	12229
691.655	12268
691.680	12326
691.699	12130
691.743	11952
691.787	11750
691.800	11501
691.831	11236
691.875	11313
691.919	11326
691.921	11302
691.964	11304
692.008	11648
692.041	11324
692.052	11252
692.096	11188
692.139	11595
692.162	11636
692.183	11654
692.227	11726
692.271	11632
692.282	11570
692.315	11459
692.359	11432
692.402	11417
692.403	11439
692.447	11752
692.490	11653
692.523	11598
692.534	11623
692.578	11700
692.622	11437
692.643	11546
692.666	11693
692.709	11668
692.753	12056
692.763	12045
692.797	12039
692.840	11875
692.884	11857
692.884	11882
692.928	11963
692.971	12223
693.004	12407
693.015	12400
693.059	11919
693.102	12006
693.124	11772
693.146	11922
693.189	11961
693.233	12678
693.245	12776
693.276	12760
693.320	13061
693.363	12528
693.365	12499
693.407	12945
693.450	13237
693.485	13553
693.493	13698
693.537	14351
693.580	14945
693.605	15130
693.624	15883
693.667	18095
693.710	20190
693.725	20772
693.753	24374
693.797	30527
693.840	36523
693.845	37078
693.883	34627
693.926	32054
693.966	29927
693.970	29549
694.013	24585
694.056	20124
694.086	16869
694.099	16618
694.142	15646
694.185	14743
694.206	14397
694.229	14597
694.272	14698
694.315	14747
694.326	14764
694.358	15304
694.401	15723
694.444	16386
694.446	16383
694.487	16183
694.530	15530
694.566	15293
694.573	15208
694.616	14152
694.659	13438
694.686	12921
694.702	12934
694.745	12908
694.787	12424
694.806	12385
694.830	12584
694.873	12704
694.916	13032
694.926	12994
694.959	13085
695.002	13375
695.044	13711
695.046	13696
695.087	14111
695.130	14337
695.166	14364
695.172	14380
695.215	14567
695.258	14696
695.286	14531
695.301	14385
695.343	14205
695.386	14191
695.406	13935
695.428	13924
695.471	14087
695.514	14280
695.526	14251
695.556	14668
695.599	15438
695.641	15885
695.646	15914
695.684	15738
695.726	15592
695.766	15401
695.769	15422
695.811	15046
695.854	14801
695.886	14514
695.896	14567
695.938	14692
695.981	14881
696.005	14941
696.023	15095
696.065	15370
696.108	15496
696.125	15544
696.150	15685
696.192	15985
696.235	16211
696.245	16206
696.277	16249
696.319	16239
696.361	16475
696.365	16432
696.404	16411
696.446	16396
696.485	16455
696.488	16504
696.530	16480
696.572	16564
696.604	16516
696.614	16485
696.656	16184
696.698	15951
696.724	15737
696.740	15871
696.783	16187
696.825	16449
696.844	16508
696.867	16520
696.909	16476
696.951	16436
696.964	16389
696.992	16382
697.034	16277
697.076	16205
697.083	16147
697.118	16607
697.160	17163
697.202	17648
697.203	17619
697.244	17392
697.286	17035
697.323	16641
697.327	16718
697.369	17068
697.411	17317
697.442	17640
697.453	17732
697.494	17799
697.536	17863
697.562	17866
697.578	17991
697.620	18189
697.661	18375
697.682	18457
697.703	19022
697.744	19930
697.786	21017
697.801	21295
697.828	21387
697.869	21463
697.911	21587
697.921	21561
697.952	20665
697.994	19414
698.035	18142
698.040	17941
698.077	18081
698.118	18214
698.160	18316
698.160	18268
698.201	18304
698.243	18298
698.279	18285
698.284	18372
698.325	18656
698.367	19025
698.399	19222
698.408	19263
698.449	19252
698.491	19223
698.518	19178
698.532	19270
698.573	19358
698.614	19489
698.638	19481
698.656	19677
698.697	20053
698.738	20421
698.757	20552
698.779	20507
698.820	20284
698.862	20092
698.877	19960
698.903	20293
698.944	20755
698.985	21212
698.996	21284
699.026	20941
699.067	20392
699.116	19684
699.235	20117
699.354	18593
699.474	19205
699.593	19274
699.713	19652
699.832	18446
699.951	21723
700.070	20204
700.190	18845
700.309	18779
700.428	18319
700.547	18120
700.667	18598
700.786	18196
700.905	17159
701.024	19295
701.143	18159
701.262	17945
701.381	18679
701.500	19580
701.619	20996
701.738	19060
701.857	18214
701.976	17441
702.095	17517
702.214	19525
702.333	18325
702.452	19267
702.571	17687
702.690	17928
702.809	18177
702.928	16712
703.047	17459
703.165	16695
703.284	16671
703.403	17189
703.522	17669
703.640	17901
703.759	19007
703.878	18492
703.997	17568
704.115	16689
704.234	16821
704.353	15891
704.471	15956
704.590	15265
704.708	15653
704.827	15319
704.946	15286
705.064	15592
705.183	15672
705.301	16755
705.420	17148
705.538	16819
705.656	16091
705.775	16324
705.893	19549
706.012	20440
706.130	16502
706.249	16872
706.367	16202
706.485	16605
706.604	15341
706.722	16556
706.840	19703
706.958	19965
707.077	16351
707.195	15020
707.313	15072
707.431	15081
707.549	14465
707.668	14453
707.786	15329
707.904	14751
708.022	14592
708.140	14987
708.258	14280
708.376	15514
708.494	15514
708.612	16793
708.730	17386
708.848	18067
708.966	17336
709.084	16911
709.202	16211
709.320	16046
709.438	15410
709.556	16180
709.674	15233
709.791	15141
709.909	14801
710.027	14922
710.145	15297
710.263	15205
710.380	14734
710.498	14828
710.616	14907
710.733	14522
710.851	14695
710.969	15736
711.086	14789
711.204	14725
711.322	14196
711.439	13665
711.557	14149
711.674	14481
711.792	14610
711.909	14306
712.027	13851
712.144	14387
712.262	13269
712.379	13147
712.497	16943
712.614	16903
712.732	16036
712.849	15228
712.966	18020
713.084	20213
713.201	15804
713.318	15908
713.436	16287
713.553	16245
713.670	17283
713.787	16908
713.905	17288
714.022	16434
714.139	17262
714.256	22581
714.373	32359
714.490	61905
714.608	177488
714.725	760035
714.842	657427
714.959	50692
715.076	25318
715.193	19510
715.310	18531
715.427	14791
715.544	15107
715.661	14537
715.778	14692
715.895	14530
716.011	14724
716.128	14313
716.245	14775
716.362	17969
716.479	17533
716.596	13915
716.713	13934
716.829	14361
716.946	13985
717.063	12323
717.180	12055
717.296	11384
717.413	12948
717.530	12724
717.646	12225
717.763	12227
717.880	12173
717.996	12129
718.113	12165
718.229	12970
718.346	12423
718.462	12257
718.579	16907
718.695	29427
718.812	16925
718.928	14163
719.045	12768
719.161	12130
719.277	12263
719.394	11700
719.510	11970
719.626	13689
719.743	18452
719.859	27033
719.975	56361
720.092	240875
720.208	498275
720.324	49709
720.440	17203
720.557	16734
720.673	23240
720.789	21695
720.905	26826
721.021	14030
721.137	11655
721.253	11252
721.369	11780
721.486	11760
721.602	12347
721.718	11339
721.834	10664
721.950	11826
722.066	11168
722.181	11032
722.297	11722
722.413	9961
722.529	10326
722.645	9609
722.761	9668
722.877	10276
722.993	10550
723.108	13033
723.224	11243
723.340	10148
723.456	10362
723.571	9506
723.687	9308
723.803	9774
723.918	9846
724.034	9515
724.150	9275
724.265	9513
724.381	14532
724.497	13133
724.612	9825
724.728	8988
724.843	8286
724.959	10039
725.074	12936
725.190	13391
725.305	8501
725.421	8936
725.536	8729
725.651	8277
725.767	8211
725.882	9000
725.997	8703
726.113	9053
726.228	8158
726.343	8106
726.459	8862
726.574	8631
726.689	8219
726.804	8393
726.920	8213
727.035	8730
727.150	8444
727.265	7990
727.380	8221
727.495	8848
727.610	8440
727.725	8653
727.841	8570
727.956	10442
728.071	9908
728.186	7142
728.301	7609
728.416	9619
728.531	8196
728.645	8004
728.760	9336
728.875	9979
728.990	8287
729.105	8729
729.220	9615
729.335	9811
729.449	8016
729.564	7693
729.679	8089
729.794	7357
729.908	8163
730.023	7368
730.138	7714
730.253	8352
730.367	7622
730.482	7322
730.596	8547
730.711	8724
730.826	9651
730.940	9985
731.055	9556
731.169	8883
731.284	8553
731.398	8357
731.513	10315
731.627	9667
731.742	11386
731.856	11648
731.970	11967
732.085	15984
732.199	21766
732.313	38861
732.428	105838
732.542	323955
732.656	161839
732.771	28503
732.885	16690
732.999	15734
733.113	14003
733.227	13408
733.342	12659
733.456	12232
733.570	12464
733.684	11036
733.798	12080
733.912	11353
734.026	10870
734.140	11484
734.254	11471
734.368	13213
734.482	13074
734.596	10530
734.710	10646
734.824	10470
734.938	10196
735.052	10729
735.166	10496
735.280	11611
735.393	9831
735.507	10231
735.621	10534
735.735	11732
735.849	10333
735.962	10083
736.076	10284
736.190	10769
736.303	10578
736.417	11903
736.531	8956
736.644	9796
736.758	9072
736.872	8601
736.985	9696
737.099	8177
737.212	9665
737.326	9224
737.439	9182
737.553	8935
737.666	9098
737.780	9491
737.893	9218
738.007	9023
738.120	8423
738.233	8585
738.347	9168
738.460	9223
738.573	9658
738.687	9324
738.800	9335
738.913	12285
739.026	9285
739.140	8946
739.253	8659
739.366	7841
739.479	7650
739.592	7927
739.705	7956
739.818	10086
739.932	7853
740.045	9068
740.158	9262
740.271	8965
740.384	8457
740.497	8887
740.610	8990
740.723	8689
740.836	8867
740.949	8964
741.062	12125
741.174	9522
741.287	8488
741.400	8503
741.513	8105
741.626	9195
741.739	8688
741.851	7966
741.964	8164
742.077	7888
742.189	8077
742.302	9074
742.415	8960
742.527	8538
742.640	8394
742.753	7930
742.865	7351
742.978	7713
743.090	7501
743.203	7306
743.316	7674
743.428	7152
743.541	7498
743.653	6579
743.766	7374
743.878	6820
743.990	7413
744.103	8693
744.215	6973
744.327	7799
744.440	10509
744.552	13258
744.664	8275
744.777	7136
744.889	7378
745.001	7755
745.113	7952
745.226	6906
745.338	6849
745.450	7189
745.562	6685
745.674	6361
745.786	7249
745.898	6617
746.010	6970
746.122	6799
746.234	7470
746.347	7050
746.459	7004
746.570	5805
746.682	6743
746.794	7520
746.906	6168
747.018	6113
747.130	6702
747.242	6263
747.354	6390
747.466	6798
747.577	6898
747.689	5640
747.801	6312
747.913	6401
748.024	5689
748.136	6080
748.248	6644
748.359	6470
748.471	6221
748.583	6012
748.694	6219
748.806	6924
748.918	6513
749.029	6501
749.141	7521
749.252	7478
749.364	8239
749.475	14090
749.587	8024
749.698	5915
749.809	6517
749.921	5180
750.032	6403
750.144	6438
750.255	5100
750.366	5835
750.478	6277
750.589	5864
750.700	5743
750.811	6227
750.923	8125
751.034	15822
751.145	14253
751.256	5877
751.367	5589
751.479	5994
751.590	5259
751.701	5271
751.812	5694
751.923	5047
752.034	5770
752.145	5050
752.256	4739
752.367	5548
752.478	5352
752.589	5971
752.700	4960
752.811	5148
752.922	5865
753.032	6144
753.143	6600
753.254	4750
753.365	6665
753.476	5783
753.586	5724
753.697	5344
753.808	5921
753.919	5023
754.029	4574
754.140	4926
754.251	5084
754.361	5046
754.472	5551
754.582	4850
754.693	4938
754.804	5294
754.914	4958
755.025	5036
755.135	4656
755.246	5548
755.356	4680
755.466	4592
755.577	4884
755.687	5275
755.798	4543
755.908	4625
756.018	5048
756.129	5815
756.239	5444
756.349	6033
756.460	5882
756.570	6359
756.680	5695
756.790	5304
756.900	6349
757.011	5838
757.121	4370
757.231	4679
757.341	4690
757.451	4492
757.561	5004
757.671	5300
757.781	4628
757.891	4826
758.001	3886
758.111	5273
758.221	5501
758.331	6755
758.441	6067
758.551	8898
758.661	7123
758.771	6055
758.880	5591
758.990	5239
759.100	5116
759.210	6374
759.320	4838
759.429	5397
759.539	5914
759.649	6924
759.758	6930
759.868	7464
759.978	6289
760.087	7872
760.197	7004
760.307	7210
760.416	6436
760.526	5603
760.635	7421
760.745	7205
760.854	7852
760.964	8949
761.073	8194
761.182	8552
761.292	6733
761.401	6804
761.511	6485
761.620	6235
761.729	5471
761.839	5635
761.948	4942
762.057	5312
762.166	5157
762.276	4456
762.385	6337
762.494	5852
762.603	5338
762.712	5723
762.822	5596
762.931	5201
763.040	4789
763.149	5105
763.258	5221
763.367	6120
763.476	5581
763.585	5826
763.694	5730
763.803	5154
763.912	6061
764.021	5546
764.130	5561
764.238	6264
764.347	6431
764.456	6627
764.565	6850
764.674	7560
764.783	7593
764.891	7509
765.000	8550
765.109	8930
765.217	8576
765.326	11617
765.435	12598
765.543	14675
765.652	16314
765.761	22579
765.869	32538
765.978	48705
766.086	88442
766.195	176457
766.303	456881
766.412	1037298
766.520	811363
766.629	261873
766.737	99439
766.846	55972
766.954	38536
767.062	29281
767.171	21084
767.279	17153
767.387	14722
767.496	13527
767.604	11679
767.712	11303
767.820	10260
767.928	10467
768.037	9017
768.145	8425
768.253	8663
768.361	8179
768.469	7983
768.577	7515
768.685	9726
768.793	9578
768.901	8852
769.009	11864
769.117	11557
769.225	14705
769.333	21913
769.441	35314
769.549	68314
769.657	160765
769.765	505133
769.873	833711
769.981	302638
770.088	76505
770.196	38173
770.304	25542
770.412	20138
770.519	14585
770.627	11604
770.735	11472
770.842	9338
770.950	8868
771.058	9245
771.165	9261
771.273	7989
771.380	9078
771.488	8485
771.595	9529
771.703	8119
771.810	8719
771.918	7691
772.025	9358
772.133	8941
772.240	8921
772.348	9413
772.455	8816
772.562	8372
772.670	8554
772.777	8667
772.884	7758
772.991	7414
773.099	8556
773.206	7483
773.313	7506
773.420	7119
773.528	6797
773.635	7373
773.742	7771
773.849	7858
773.956	7008
774.063	7873
774.170	7234
774.277	7280
774.384	6865
774.491	6738
774.598	7648
774.705	7921
774.812	9007
774.919	7191
775.026	6221
775.133	6549
775.239	6890
775.346	6040
775.453	7069
775.560	5923
775.667	7438
775.773	6225
775.880	7708
775.987	6505
776.093	6474
776.200	6531
776.307	4997
776.413	6654
776.520	6310
776.627	5558
776.733	5986
776.840	5358
776.946	8046
777.053	6432
777.159	7183
777.266	4703
777.372	6614
777.478	6780
777.585	6847
777.691	5159
777.798	6670
777.904	6401
778.010	8154
778.117	7676
778.223	5225
778.329	6077
778.435	4587
778.542	5853
778.648	5708
778.754	5318
778.860	4985
778.966	5819
779.072	4762
779.178	5432
779.284	5064
779.391	4678
779.497	4403
779.603	7311
779.708	5406
779.815	9853
779.920	25428
780.026	37119
780.132	7356
780.238	5174
780.344	4689
780.450	6756
780.556	4318
780.661	4959
780.767	5303
780.873	4410
780.979	5637
781.085	4897
781.190	4686
781.296	4173
781.402	4754
781.507	4281
781.613	4149
781.719	4218
781.824	4653
781.930	4299
782.035	5216
782.141	4966
782.246	3167
782.352	4491
782.457	4053
782.563	3856
782.668	4374
782.773	4630
782.879	4040
782.984	5282
783.090	6019
783.195	7742
783.300	5738
783.405	4854
783.511	3886
783.616	4674
783.721	4891
783.826	3751
783.932	4244
784.037	4326
784.142	4214
784.247	3850
784.352	5358
784.457	3575
784.562	4814
784.667	3697
784.772	3595
784.877	3213
784.982	4561
785.087	3595
785.192	3942
785.297	4162
785.402	3651
785.507	3710
785.611	4152
785.716	4037
785.821	3798
785.926	3532
786.031	3659
786.135	3499
786.240	4124
786.345	2131
786.450	3587
786.554	3838
786.659	2876
786.763	2015
786.868	3942
786.973	4851
787.077	2574
787.182	3271
787.286	3464
787.391	4228
787.495	3049
787.600	3051
787.704	3388
787.809	3964
787.913	2308
788.017	3384
788.122	3608
788.226	3978
788.330	2378
788.435	3743
788.539	3524
788.643	2850
788.747	2952
788.852	2848
788.956	2659
789.060	2830
789.164	3242
789.268	2675
789.372	3505
789.476	3333
789.580	3231
789.684	2224
789.788	3510
789.892	3083
789.996	2650
790.100	2315
790.204	3353
790.308	3328
790.412	3088
790.516	2780
790.620	2886
790.724	3511
790.828	2808
790.931	1572
791.035	4451
791.139	2036
791.242	2633
791.346	3544
791.450	2922
791.554	2230
791.657	1959
791.761	3641
791.864	3612
791.968	2957
792.072	3673
792.175	3360
792.279	2814
792.382	2989
792.486	2730
792.589	2710
792.693	3117
792.796	1729
792.899	3720
793.003	3147
793.106	1642
793.209	3346
793.313	3856
793.416	1992
793.519	3675
793.623	5841
793.726	7124
793.829	3637
793.932	3329
794.035	1679
794.138	4518
794.242	3560
794.345	3500
794.448	3814
794.551	6811
794.654	13972
794.757	17914
794.860	4996
794.963	2864
795.066	2451
795.169	3286
795.272	2428
795.375	3325
795.477	1564
795.580	3227
795.683	1662
795.786	2371
795.889	1857
795.991	2806
796.094	2492
796.197	1444
796.300	4147
796.402	2335
796.505	1931
796.608	2187
796.710	2412
796.813	2683
796.915	1818
797.018	3212
797.120	2511
797.223	1746
797.326	3093
797.428	2014
797.530	1790
797.633	3026
797.735	3928
797.838	2699
797.940	3355
798.042	1377
798.145	1122
798.247	2166
798.349	1009
798.452	3095
798.554	2497
798.656	2125
798.758	3689
798.860	2596
798.962	2149
799.065	2320
799.167	2075
799.269	4108
799.371	3316
799.473	3388
799.575	3165
799.677	3061
799.779	4750
799.881	4955
799.983	4350
800.085	2247
800.187	2469
800.289	885
800.390	2171
800.492	2717
800.594	3236
800.696	1675
800.798	1469
800.899	1786
801.001	1708
801.103	2113
801.205	2010
801.306	2413
801.408	1375
801.509	1801
801.611	1614
801.713	2217
801.814	1259
801.916	1277
802.017	2094
802.119	1356
802.220	1361
802.322	1033
802.423	4030
802.525	1489
802.626	882
802.727	1560
802.829	2447
802.930	130
803.031	3594
803.133	1962
803.234	1907
803.335	1290
803.436	1432
803.538	1439
803.639	548
803.740	2779
803.841	1349
803.942	2576
804.043	2628
804.144	1735
804.245	1949
804.346	937
804.447	1384
804.548	3193
804.649	5064
804.750	1868
804.851	1423
804.952	2534
805.053	1880
805.154	490
805.255	2356
805.355	1925
805.456	1195
805.557	1266
805.658	502
805.758	1512
805.859	1710
805.960	1329
806.061	886
806.161	1414
806.262	1753
806.362	1742
806.463	1287
806.564	1255
806.664	2647
806.765	1440
806.865	1665
806.966	2730
807.066	944
807.166	2382
807.267	1838
807.367	1523
807.468	1512
807.568	435
807.668	2321
807.769	1980
807.869	1723
807.969	2013
808.069	1516
808.170	1573
808.270	476
808.370	1640
808.470	3140
808.570	1712
808.670	1057
808.770	1522
808.870	767
808.970	2799
809.070	1626
809.170	1303
809.271	2290
809.370	1135
809.470	1354
809.570	681
809.670	1476
809.770	1623
809.870	2170
809.970	896
810.070	708
810.169	1650
810.269	-548
810.369	3176
810.469	1187
810.568	986
810.668	829
810.768	976
810.867	1953
810.967	638
811.066	1709
811.166	1104
811.265	1810
811.365	670
811.464	809
811.564	1367
811.663	1851
811.763	-103
811.862	1503
811.962	2403
812.061	1059
812.160	1244
812.260	1965
812.359	1206
812.458	1844
812.557	3742
812.657	3341
812.756	2312
812.855	963
812.954	1147
813.053	1937
813.153	1279
813.252	635
813.351	1499
813.450	1368
813.549	859
813.648	1459
813.747	1163
813.846	1999
813.945	1520
814.044	1242
814.143	1528
814.242	1094
814.341	151
814.439	1480
814.538	1863
814.637	966
814.736	1493
814.835	2425
814.933	1340
815.032	1309
815.131	2996
815.229	3741
815.328	4644
815.427	3074
815.525	3212
815.624	3303
815.722	3074
815.821	4146
815.919	4541
816.018	3962
816.116	4509
816.215	3049
816.313	3913
816.412	5250
816.510	3855
816.609	5998
816.707	5157
816.805	3927
816.904	4795
817.002	5062
817.100	6582
817.198	5316
817.296	5675
817.395	5921
817.493	6957
817.591	6488
817.689	7789
817.787	9765
817.885	14306
817.983	24582
818.081	50972
818.179	123060
818.277	309639
818.375	246146
818.473	62109
818.571	24643
818.669	17246
818.767	15905
818.865	16607
818.963	18430
819.061	27369
819.158	45799
819.256	100241
819.354	236651
819.452	507059
819.549	305613
819.647	83273
819.745	34513
819.842	21644
819.940	16200
820.038	12308
820.135	9579
820.233	9583
820.330	7422
820.428	6469
820.525	7138
820.623	5727
820.720	5436
820.818	5756
820.915	4248
821.012	5006
821.110	2542
821.207	5094
821.304	3286
821.402	3263
821.499	4234
821.596	3798
821.693	4166
821.791	3980
821.888	5404
821.985	9081
822.082	6735
822.179	4241
822.276	3333
822.373	3375
822.470	2306
822.567	3656
822.664	2137
822.761	3215
822.858	2985
822.955	3400
823.052	2647
823.149	2658
823.246	2304
823.343	1974
823.440	3552
823.536	2695
823.633	2764
823.730	2486
823.827	3155
823.923	2994
824.020	3300
824.117	2967
824.213	2485
824.310	2587
824.407	2526
824.503	2798
824.600	2635
824.696	2529
824.793	3648
824.889	2523
824.986	1613
825.082	1555
825.179	2410
825.275	2491
825.371	2260
825.468	2315
825.564	1018
825.660	2831
825.757	3270
825.853	2504
825.949	1086
826.045	1884
826.142	1992
826.238	2770
826.334	2097
826.430	1637
826.526	1939
826.622	1091
826.718	1706
826.814	2197
826.910	2216
827.006	1810
827.102	944
827.198	2731
827.294	1267
827.390	1648
827.486	2165
827.582	-61
827.678	753
827.774	2549
827.869	131
827.965	2342
828.061	367
828.157	2596
828.252	1416
828.348	562
828.444	2383
828.539	1189
828.635	2353
828.731	2622
828.826	555
828.922	1376
829.017	2375
829.113	2696
829.208	1615
829.304	1961
829.399	3257
829.495	1796
829.590	2064
829.685	1596
829.781	2309
829.876	1920
829.971	932
830.066	1359
830.162	858
830.257	1863
830.352	1178
830.447	2717
830.543	1307
830.638	877
830.733	2657
830.828	1165
830.923	1692
831.018	1709
831.113	1679
831.208	255
831.303	805
831.398	904
831.493	1305
831.588	3071
831.683	1011
831.778	1471
831.873	1391
831.967	2140
832.062	734
832.157	290
832.252	1984
832.346	1071
832.441	2573
832.536	3313
832.631	8708
832.725	5857
832.820	1588
832.914	1082
833.009	879
833.104	2390
833.198	2856
833.293	1379
833.387	2032
833.482	1853
833.576	1156
833.670	1696
833.765	1389
833.859	1150
833.954	2838
834.048	999
834.142	807
834.237	1161
834.331	694
834.425	1767
834.519	657
834.613	1503
834.708	1061
834.802	1168
834.896	963
834.990	1198
835.084	1500
835.178	504
835.272	938
835.366	854
835.460	1564
835.554	539
835.648	1357
835.742	70
835.836	980
835.930	262
836.024	1308
836.117	1642
836.211	2111
836.305	309
836.399	1427
836.493	434
836.586	1674
836.680	557
836.774	724
836.867	1543
836.961	606
837.055	259
837.148	882
837.242	811
837.335	24
837.429	1332
837.522	264
837.616	837
837.709	2353
837.803	868
837.896	1019
837.989	317
838.083	836
838.176	1442
838.269	829
838.363	1351
838.456	623
838.549	3433
838.642	3399
838.735	7948
838.829	3330
838.922	559
839.015	1121
839.108	809
839.201	165
839.294	971
839.387	739
839.480	362
839.573	1233
839.666	135
839.759	1023
839.852	-712
839.945	864
840.038	714
840.131	20
840.223	295
840.316	1090
840.409	413
840.502	-43
840.594	1266
840.687	-468
840.780	1211
840.873	177
840.965	-172
841.058	1461
841.150	1939
841.243	764
841.336	454
841.428	40
841.521	701
841.613	264
841.706	304
841.798	477
841.890	167
841.983	-593
842.075	807
842.167	164
842.260	1147
842.352	1178
842.444	1355
842.537	1358
842.629	2158
842.721	809
842.813	222
842.905	-63
842.997	68
843.090	436
843.182	1020
843.274	840
843.366	3781
843.458	5473
843.550	4371
843.642	584
843.734	550
843.826	-470
843.918	409
844.009	89
844.101	-356
844.193	507
844.285	788
844.377	729
844.469	1383
844.560	-647
844.652	-90
844.744	552
844.835	260
844.927	313
845.019	461
845.110	668
845.202	301
845.293	298
845.385	-803
845.476	-419
845.568	1047
845.659	177
845.751	773
845.842	283
845.934	-387
846.025	-597
846.116	448
846.208	-160
846.299	-731
846.390	515
846.482	-284
846.573	515
846.664	1841
846.755	2691
846.846	1903
846.937	-671
847.029	-7
847.120	-238
847.211	112
847.302	975
847.393	-51
847.484	342
847.575	-555
847.666	-384
847.757	-2
847.847	626
847.938	1172
848.029	-362
848.120	-125
848.211	-275
848.302	552
848.392	-111
848.483	-336
848.574	-470
848.664	450
848.755	39
848.846	812
848.936	-900
849.027	494
849.118	179
849.208	1213
849.299	2516
849.389	3873
849.480	8894
849.570	19386
849.661	38435
849.751	64016
849.841	20733
849.932	1904
850.022	812
850.112	1437
850.203	999
850.293	614
850.383	146
850.474	267
850.564	426
850.654	919
850.744	267
850.834	140
850.924	-478
851.014	1121
851.104	751
851.194	115
851.284	906
851.374	914
851.464	335
851.554	1074
851.644	468
851.734	1272
851.824	-245
851.914	-273
852.004	206
852.094	162
852.183	-607
852.273	754
852.363	203
852.452	348
852.542	348
852.632	175
852.721	774
852.811	798
852.901	717
852.990	420
853.080	1093
853.169	609
853.259	1233
853.348	887
853.438	1390
853.527	4106
853.617	5452
853.706	12349
853.795	21169
853.885	52079
853.974	98482
854.063	179083
854.152	265124
854.242	98790
854.331	18347
854.420	7185
854.509	5308
854.598	4750
854.687	2868
854.777	3016
854.866	1814
854.955	1422
855.044	731
855.133	1612
855.222	313
855.311	1050
855.400	1839
855.488	-267
855.577	1435
855.666	237
855.755	755
855.844	845
855.933	157
856.021	246
856.110	53
856.199	-978
856.288	-340
856.376	-163
856.465	-164
856.554	-29
856.642	-175
856.731	26
856.819	-430
856.908	-150
856.996	-121
857.085	-336
857.173	-91
857.262	-107
857.350	-71
857.438	234
857.527	299
857.615	418
857.703	756
857.792	-22
857.880	454
857.968	375
858.056	172
858.145	101
858.233	-240
858.321	-102
858.409	-324
858.497	-503
858.585	-638
858.673	420
858.761	-461
858.849	701
858.937	-581
859.025	-252
859.113	509
859.201	-726
859.289	851
859.377	333
859.465	656
859.552	-69
859.640	-452
859.728	105
859.816	574
859.903	173
859.991	-298
860.079	239
860.166	51
860.254	92
860.342	-83
860.429	-721
860.517	138
860.604	904
860.692	744
860.779	583
860.867	-213
860.954	413
861.042	940
861.129	305
861.216	-211
861.304	388
861.391	30
861.478	236
861.565	49
861.653	81
861.740	-659
861.827	-361
861.914	585
862.001	-917
862.089	672
862.176	-392
862.263	-110
862.350	-8
862.437	-342
862.524	-25
862.611	-153
862.698	239
862.785	-245
862.871	221
862.958	-447
863.045	-418
863.132	-346
863.219	212
863.306	-555
863.392	73
863.479	219
863.566	1351
863.652	279
863.739	-50
863.826	584
863.912	-184
863.999	-273
864.086	483
864.172	555
864.259	-96
864.345	324
864.432	611
864.518	291
864.604	577
864.691	-560
864.777	778
864.863	1588
864.950	2009
865.036	1551
865.122	3661
865.209	3981
865.295	3709
865.381	4125
865.467	4268
865.553	5416
865.639	7439
865.726	13459
865.812	27085
865.898	52271
865.984	77811
866.070	146193
866.156	149741
866.242	39327
866.328	8596
866.414	5657
866.499	4631
866.585	4143
866.671	3213
866.757	3681
866.843	2811
866.928	2869
867.014	1987
867.100	2658
867.186	2750
867.271	2486
867.357	3107
867.442	2745
867.528	2506
867.614	2043
867.699	2305
867.785	2154
867.870	2260
867.956	2562
868.041	2214
868.127	1924
868.212	2003
868.297	1782
868.383	2774
868.468	4205
868.553	4938
868.639	6330
868.724	11406
868.809	9508
868.894	2812
868.979	983
869.065	2081
869.150	1885
869.235	1507
869.320	927
869.405	1468
869.490	1262
869.575	1922
869.660	742
869.745	1237
869.830	1741
869.915	946
870.000	1426
870.085	1653
870.169	2154
870.254	1534
870.339	366
870.424	106
870.509	1308
870.593	1591
870.678	2754
870.763	886
870.847	-105
870.932	1607
871.016	1597
871.101	1422
871.186	1166
871.270	2115
871.355	1201
871.439	1693
871.523	1442
871.608	677
871.692	937
871.777	1494
871.861	691
871.945	806
872.030	1732
872.114	684
872.198	923
872.282	478
872.367	658
872.451	767
872.535	1446
872.619	1110
872.703	582
872.787	1085
872.871	949
872.955	749
873.039	975
873.123	794
873.207	1319
873.291	809
873.375	691
873.459	976
873.543	1082
873.627	512
873.711	506
873.794	1067
873.878	542
873.962	275
874.045	399
874.129	1656
874.137	1568
874.213	688
874.245	793
874.296	970
874.352	293
874.380	-37
874.460	813
874.464	846
874.547	399
874.568	639
874.631	1357
874.676	805
874.714	336
874.784	945
874.798	1069
874.881	970
874.892	937
874.965	729
874.999	917
875.048	1142
875.107	1354
875.131	1435
875.215	1089
875.215	1088
875.298	458
875.323	501
875.381	543
875.430	1149
875.465	1608
875.538	466
875.548	302
875.631	412
875.646	304
875.714	-195
875.753	145
875.798	548
875.861	709
875.881	734
875.964	744
875.968	705
876.047	167
876.076	347
876.130	631
876.183	300
876.213	124
876.291	1109
876.296	1177
876.379	639
876.398	602
876.462	404
876.506	226
876.545	112
876.613	1045
876.628	1257
876.711	948
876.721	984
876.794	1263
876.828	1348
876.877	1275
876.935	582
876.960	425
877.043	1022
877.043	1023
877.125	1039
877.150	1099
877.208	1312
877.258	842
877.291	538
877.365	1091
877.374	1136
877.456	1023
877.472	984
877.539	1083
877.579	1001
877.622	808
877.687	1054
877.704	1111
877.787	1177
877.794	1132
877.869	794
877.901	892
877.952	963
878.008	733
878.034	639
878.115	537
878.117	538
878.199	865
878.222	855
878.282	833
878.329	1198
878.364	1441
878.437	1144
878.447	1067
878.529	-413
878.544	-417
878.611	-89
878.651	261
878.694	612
878.758	850
878.776	901
878.858	806
878.865	813
878.941	780
878.972	612
879.023	389
879.078	310
879.105	337
879.185	1031
879.187	1046
879.269	1265
879.292	1220
879.351	767
879.399	247
879.433	3
879.506	810
879.516	939
879.598	938
879.613	791
879.680	-30
879.720	519
879.762	1053
879.827	277
879.844	111
879.926	637
879.933	706
880.007	1312
880.040	1255
880.089	1234
880.147	1930
880.171	2271
880.253	5306
880.254	5318
880.335	6379
880.360	6895
880.417	8765
880.467	13388
880.499	16192
880.574	17394
880.580	17224
880.662	5231
880.680	4142
880.744	1490
880.787	790
880.825	531
880.893	711
880.907	691
880.989	204
881.000	214
881.070	590
881.106	582
881.152	660
881.213	739
881.233	671
881.315	736
881.319	720
881.396	711
881.426	661
881.478	385
881.532	878
881.559	1263
881.639	662
881.641	642
881.722	615
881.745	699
881.803	1153
881.852	1018
881.885	665
881.958	410
881.966	425
882.047	736
882.064	725
882.129	753
882.171	837
882.210	1149
882.277	2411
882.291	2518
882.372	1444
882.383	1349
882.454	1028
882.489	812
882.535	560
882.596	633
882.616	704
882.697	835
882.702	824
882.778	378
882.808	512
882.859	937
882.914	708
882.940	493
883.020	463
883.021	468
883.102	702
883.127	819
883.183	1239
883.233	1295
883.264	1030
883.339	329
883.345	324
883.426	502
883.445	578
883.507	763
883.551	857
883.587	767
883.657	488
883.668	503
883.749	883
883.763	865
883.830	516
883.869	423
883.910	584
883.975	712
883.991	641
884.072	382
884.081	388
884.152	977
884.187	1128
884.233	1166
884.292	1059
884.314	875
884.394	383
884.398	338
884.475	-206
884.504	-192
884.555	262
884.610	187
884.636	-26
884.716	615
884.716	622
884.797	697
884.821	757
884.877	519
884.927	438
884.958	440
885.033	280
885.038	283
885.118	333
885.139	364
885.199	558
885.244	572
885.279	540
885.350	869
885.359	967
885.439	1575
885.456	1620
885.520	765
885.561	429
885.600	412
885.667	33
885.680	61
885.760	648
885.773	700
885.840	571
885.878	509
885.920	628
885.984	915
886.000	908
886.080	634
886.089	619
886.160	499
886.195	425
886.240	503
886.300	399
886.320	441
886.400	979
886.406	1005
886.480	753
886.511	648
886.560	955
886.616	1197
886.640	1048
886.720	390
886.722	378
886.800	475
886.827	538
886.879	833
886.932	957
886.959	982
887.038	1082
887.039	1082
887.119	732
887.143	657
887.198	761
887.248	841
887.278	737
887.354	363
887.358	398
887.437	970
887.459	1217
887.517	1154
887.564	976
887.596	835
887.669	487
887.676	496
887.755	606
887.774	628
887.835	805
887.880	1013
887.914	903
887.985	453
887.994	457
888.073	590
888.090	618
888.153	1168
888.195	1504
888.232	1382
888.300	1143
888.311	1110
888.391	881
888.405	833
888.470	808
888.510	761
888.549	802
888.615	1002
888.628	1040
888.708	1103
888.720	1129
888.787	1416
888.825	1493
888.866	1130
888.930	644
888.945	653
889.024	712
889.035	710
889.103	751
889.140	768
889.182	1102
889.245	1651
889.261	1517
889.340	796
889.349	713
889.419	770
889.454	792
889.498	493
889.559	87
889.577	309
889.656	1280
889.664	1375
889.735	1004
889.768	825
889.814	784
889.873	725
889.978	794
890.083	1069
890.187	1349
890.292	569
890.397	946
890.501	1055
890.606	238
890.710	1445
890.815	882
890.919	1187
891.024	1015
891.128	1618
891.233	1129
891.337	570
891.442	602
891.546	527
891.650	841
891.755	499
891.859	1955
891.963	1365
892.068	2065
892.172	1318
892.276	-65
892.380	286
892.484	160
892.589	734
892.693	605
892.797	353
892.901	399
893.005	432
893.109	789
893.213	852
893.317	340
893.421	717
893.525	108
893.629	778
893.733	882
893.837	-89
893.941	931
894.045	924
894.148	2
894.252	465
894.356	316
894.460	1562
894.564	714
894.667	676
894.771	50
894.875	14
894.978	915
895.082	214
895.186	1665
895.289	612
895.393	278
895.496	-84
895.600	434
895.703	-23
895.807	-62
895.910	427
896.014	391
896.117	1248
896.221	307
896.324	255
896.427	479
896.531	685
896.634	456
896.737	703
896.840	1137
896.944	601
897.047	868
897.150	1061
897.253	477
897.356	213
897.460	359
897.563	1412
897.666	506
897.769	530
897.872	274
897.975	856
898.078	270
898.181	898
898.284	668
898.387	1101
898.490	130
898.593	561
898.695	117
898.798	1371
898.901	211
899.004	-353
899.107	214
899.209	-572
899.312	179
899.415	213
899.518	-134
899.620	-202
899.723	698
899.826	1370
899.928	1725
900.031	250
900.133	1172
900.236	-331
900.338	-748
900.441	81
900.543	-296
900.646	552
900.748	28
900.851	696
900.953	648
901.055	130
901.158	-906
901.260	-497
901.362	483
901.465	156
901.567	724
901.669	188
901.771	30
901.873	194
901.976	-249
902.078	1237
902.180	-413
902.282	557
902.384	908
902.486	891
902.588	438
902.690	788
902.792	5
902.894	147
902.996	-599
903.098	669
903.200	228
903.302	917
903.404	-36
903.505	138
903.607	489
903.709	529
903.811	769
903.913	174
904.014	-170
904.116	-335
904.218	221
904.319	422
904.421	1097
904.523	647
904.624	-37
904.726	59
904.827	437
904.929	-667
905.030	-566
905.132	770
905.233	433
905.335	703
905.436	105
905.537	143
905.639	-585
905.740	479
905.841	68
905.943	490
906.044	-299
906.145	156
906.247	-19
906.348	-169
906.449	345
906.550	717
906.651	680
906.752	297
906.854	43
906.955	313
907.056	-96
907.157	1557
907.258	35
907.359	-118
907.460	66
907.561	894
907.662	455
907.762	357
907.863	84
907.964	675
908.065	383
908.166	436
908.267	466
908.367	-459
908.468	-325
908.569	-245
908.670	273
908.770	-73
908.871	511
908.971	1065
909.072	530
909.173	188
909.273	469
909.374	533
909.474	740
909.575	219
909.675	401
909.776	374
909.876	-265
909.977	94
910.077	998
910.177	-227
910.278	656
910.378	199
910.478	549
910.579	549
910.679	145
910.779	1168
910.879	162
910.980	-345
911.080	-354
911.180	549
911.280	299
911.380	556
911.480	374
911.580	316
911.680	1064
911.780	113
911.880	652
911.980	347
912.080	-202
912.180	358
912.280	-182
912.380	47
912.480	886
912.580	772
912.679	-708
912.779	1146
912.879	752
912.979	136
913.078	-297
913.178	481
913.278	646
913.377	152
913.477	22
913.577	-887
913.676	903
913.776	558
913.875	-48
913.975	598
914.074	-222
914.174	744
914.273	-3
914.373	487
914.472	-105
914.572	-790
914.671	376
914.770	-87
914.870	343
914.969	179
915.068	670
915.167	1533
915.267	-489
915.366	494
915.465	652
915.564	464
915.663	-81
915.763	-458
915.862	167
915.961	269
916.060	-5
916.159	-234
916.258	-304
916.357	135
916.456	519
916.555	-254
916.654	-167
916.752	528
916.851	-143
916.950	119
917.049	-151
917.148	-360
917.247	507
917.345	-1
917.444	562
917.543	3
917.642	219
917.740	348
917.839	377
917.937	1387
918.036	-383
918.135	157
918.233	1
918.332	366
918.430	-165
918.529	235
918.627	-461
918.726	607
918.824	148
918.923	264
919.021	87
919.119	-157
919.218	769
919.316	-396
919.414	-166
919.512	861
919.611	622
919.709	-193
919.807	724
919.905	-65
920.003	566
920.102	503
920.200	-839
920.298	239
920.396	34
920.494	-144
920.592	48
920.690	227
920.788	15
920.886	699
920.984	735
921.082	998
921.180	1450
921.277	788
921.375	823
921.473	1512
921.571	1187
921.669	529
921.766	-96
921.864	814
921.962	653
922.060	824
922.157	1717
922.255	1560
922.352	672
922.450	1412
922.548	1051
922.645	806
922.743	1689
922.840	3400
922.938	3873
923.035	2498
923.133	2716
923.230	2700
923.327	4359
923.425	3304
923.522	2855
923.619	3525
923.717	2905
923.814	3357
923.911	2450
924.008	3890
924.106	2670
924.203	2425
924.300	2845
924.397	2796
924.494	2870
924.591	2658
924.688	2427
924.786	2669
924.883	2547
924.979	2930
925.077	3413
925.173	2548
925.270	2866
925.367	3170
925.464	3103
925.561	1829
925.658	3039
925.755	2663
925.852	4005
925.948	2833
926.045	3075
926.142	2048
926.239	3189
926.335	2038
926.432	2771
926.529	3367
926.625	4169
926.722	1928
926.818	2049
926.915	2430
927.011	1751
927.108	2510
927.204	2432
927.301	2010
927.397	2758
927.494	3348
927.590	1941
927.687	1456
927.783	3119
927.879	2337
927.976	1632
928.072	2109
928.168	2894
928.264	2214
928.361	1790
928.457	2732
928.553	1739
928.649	1841
928.745	2579
928.841	2840
928.937	2384
929.033	1342
929.129	2069
929.225	2522
929.321	2468
929.417	2010
929.513	1922
929.609	1373
929.705	1637
929.801	2051
929.897	1087
929.993	2029
930.089	1998
930.184	1833
930.280	2159
930.376	2439
930.471	1871
930.567	2479
930.663	2365
930.758	1124
930.854	1573
930.950	2084
931.045	1805
931.141	1518
931.236	2301
931.332	1615
931.427	1762
931.523	2072
931.618	1394
931.714	1200
931.809	1437
931.905	2004
932.000	1134
932.095	1563
932.191	2073
932.286	2543
932.381	1672
932.476	1494
932.572	754
932.667	1143
932.762	1750
932.857	1876
932.952	2122
933.047	1616
933.142	1255
933.237	2052
933.332	1387
933.427	2453
933.522	1646
933.617	996
933.712	1363
933.807	1695
933.902	2197
933.997	2595
934.092	1276
934.187	1775
934.282	2207
934.376	1870
934.471	1977
934.566	858
934.661	2055
934.755	1530
934.850	1392
934.945	1083
935.039	581
935.134	1501
935.228	1607
935.323	1943
935.417	1103
935.512	813
935.606	1080
935.701	1610
935.795	1830
935.890	894
935.984	723
936.079	629
936.173	1643
936.267	1119
936.362	808
936.456	1751
936.550	2612
936.644	1910
936.738	333
936.833	924
936.927	324
937.021	545
937.115	1247
937.209	1080
937.303	1540
937.397	655
937.491	1308
937.585	1343
937.679	997
937.773	1686
937.867	761
937.961	825
938.055	933
938.149	1714
938.243	1099
938.337	829
938.430	709
938.524	1297
938.618	1357
938.712	815
938.805	902
938.899	1287
938.993	2508
939.086	173
939.180	163
939.274	1471
939.367	2045
939.461	1605
939.554	908
939.648	1138
939.741	762
939.835	1089
939.928	1600
940.022	1515
940.115	1365
940.208	1114
940.302	1980
940.395	2231
940.488	235
940.582	1397
940.675	972
940.768	1253
940.861	1729
940.954	1657
941.048	719
941.141	222
941.234	866
941.327	726
941.420	1660
941.513	1479
941.606	947
941.699	1604
941.792	1381
941.885	976
941.978	1744
942.071	864
942.164	4
942.257	863
942.349	1067
942.442	671
942.535	479
942.628	754
942.721	1193
942.813	-329
942.906	1208
942.999	932
943.091	-22
943.184	810
943.277	649
943.369	912
943.462	224
943.554	510
943.647	-317
943.739	1737
943.832	1652
943.924	166
944.017	632
944.109	-64
944.201	540
944.294	796
944.386	661
944.478	354
944.571	1162
944.663	962
944.755	1210
944.847	1339
944.940	1280
945.032	-56
945.124	-333
945.216	1105
945.308	141
945.400	515
945.492	282
945.584	850
945.676	907
945.768	930
945.860	920
945.952	1638
946.044	1295
946.136	117
946.228	1208
946.320	587
946.412	1159
946.503	887
946.595	648
946.687	694
946.779	296
946.870	336
946.962	382
947.054	685
947.145	818
947.237	26
947.329	1027
947.420	317
947.512	921
947.603	-576
947.695	1094
947.786	-93
947.878	-344
947.969	876
948.061	-41
948.152	130
948.243	194
948.335	-249
948.426	-734
948.517	244
948.609	-131
948.700	924
948.791	-445
948.882	-663
948.973	-170
949.065	184
949.156	650
949.247	341
949.338	322
949.429	-162
949.520	303
949.611	392
949.702	649
949.793	-137
949.884	500
949.975	621
950.066	116
950.157	81
950.247	344
950.338	393
950.429	-356
950.520	301
950.611	388
950.701	493
950.792	1341
950.883	1405
950.973	750
951.064	572
951.155	465
951.245	522
951.336	576
951.427	453
951.517	484
951.608	779
951.698	-35
951.788	873
951.879	-202
951.969	-75
952.060	-157
952.150	-394
952.240	1451
952.331	132
952.421	1235
952.511	-708
952.602	553
952.692	-226
952.782	32
952.872	-172
952.962	597
953.052	206
953.143	628
953.233	981
953.323	82
953.413	255
953.503	570
953.593	136
953.683	596
953.773	38
953.863	-399
953.953	-29
954.042	-408
954.132	233
954.222	786
954.312	312
954.402	-85
954.492	348
954.581	343
954.671	-282
954.761	48
954.850	894
954.940	-789
955.030	-225
955.119	54
955.209	405
955.298	132
955.388	-158
955.477	713
955.567	-795
955.656	355
955.746	79
955.835	113
955.925	650
956.014	432
956.103	149
956.193	615
956.282	341
956.371	702
956.461	731
956.550	-129
956.639	372
956.728	-452
956.817	44
956.906	407
956.995	714
957.085	134
957.174	-313
957.263	-421
957.352	-17
957.441	474
957.530	332
957.619	-317
957.708	243
957.796	478
957.885	338
957.974	-397
958.063	965
958.152	-327
958.241	420
958.329	163
958.418	169
958.507	-842
958.596	1021
958.684	-1089
958.773	1272
958.861	123
958.950	-49
959.039	190
959.127	-211
959.216	73
959.304	-416
959.393	79
959.481	862
959.570	-84
959.658	-512
959.746	-168
959.835	316
959.923	806
960.011	-212
960.100	641
960.188	468
960.276	62
960.365	331
960.453	-294
960.541	-415
960.629	196
960.717	65
960.805	-602
960.893	-27
960.981	-440
961.069	727
961.158	420
961.245	579
961.333	570
961.421	-422
961.509	454
961.597	166
961.685	-256
961.773	-85
961.861	-98
961.949	539
962.036	309
962.124	443
962.212	-4
962.299	-621
962.387	122
962.475	-536
962.562	-779
962.650	840
962.738	449
962.825	288
962.913	-35
963.000	180
963.088	417
963.175	796
963.263	-671
963.350	69
963.438	-189
963.525	-809
963.612	462
963.700	536
963.787	2442
963.874	90
963.962	158
964.049	-442
964.136	155
964.223	-511
964.310	-177
964.398	-163
964.485	-346
964.572	-145
964.659	129
964.746	430
964.833	-77
964.920	348
965.007	1063
965.094	80
965.181	-153
965.268	187
965.355	-83
965.441	771
965.528	-683
965.615	530
965.702	-247
965.789	-7
965.875	84
965.962	191
966.049	-627
966.136	282
966.222	-511
966.309	-237
966.395	-581
966.482	169
966.569	-664
966.655	-157
966.742	-106
966.828	-124
966.915	87
967.001	-232
967.087	-649
967.174	-139
967.260	731
967.347	-209
967.433	932
967.519	450
967.605	14
967.692	167
967.778	186
967.864	-109
967.950	-32
968.036	157
968.123	-206
968.209	559
968.295	-1571
968.381	821
968.467	-73
968.553	-881
968.639	1449
968.725	-799
968.811	510
968.897	-153
968.983	561
969.069	-227
969.154	47
969.240	-21
969.326	-1123
969.412	-488
969.497	-621
969.583	112
969.669	142
969.755	858
969.840	35
969.926	664
970.012	601
970.097	948
970.183	10
970.268	-90
970.354	116
970.439	-281
970.525	1066
970.610	-751
970.696	87
970.781	461
970.866	-798
970.952	524
971.037	-1020
971.122	-455
971.208	-262
971.293	244
971.378	-1104
971.463	-620
971.549	802
971.634	-744
971.719	385
971.804	-109
971.889	-99
971.974	-300
972.059	-202
972.144	182
972.229	-638
972.314	-1128
972.399	440
972.484	16
972.569	180
972.654	-706
972.739	1299
972.824	124
972.908	45
972.993	150
973.078	-362
973.163	-517
973.247	379
973.332	-1397
973.417	218
973.501	-613
973.586	79
973.671	-128
973.755	-183
973.840	422
973.924	95
974.009	50
974.093	420
974.178	735
974.262	1080
974.346	145
974.431	82
974.515	149
974.600	67
974.684	317
974.768	-367
974.852	-62
974.937	-1158
975.021	1283
975.105	-253
975.189	332
975.273	-11
975.358	-891
975.442	-1020
975.526	1305
975.610	-452
975.694	-488
975.778	785
975.862	426
975.946	-2130
976.030	1259
976.114	-174
976.198	-508
976.281	-859
976.365	1366
976.449	-234
976.533	-80
976.617	40
976.700	134
976.784	691
976.868	-559
976.951	37
977.035	-161
977.119	342
977.202	-19
977.286	514
977.369	405
977.453	449
977.536	383
977.620	-420
977.703	121
977.787	384
977.870	329
977.953	646
978.037	-965
978.120	758
978.203	-393
978.287	1496
978.370	488
978.453	-454
978.536	-849
978.620	409
978.703	128
978.786	-797
978.869	-909
978.952	-597
979.035	1043
979.118	385
979.201	-362
979.284	-102
979.367	-82
979.450	-105
979.533	213
979.616	-405
979.699	-190
979.782	1283
979.865	-382
979.948	-5
980.030	-130
980.113	-205
980.196	103
980.279	-251
980.361	576
980.444	-487
980.526	899
980.609	688
980.692	807
980.774	583
980.857	37
980.939	1188
981.022	-154
981.104	-707
981.187	-162
981.269	149
981.352	-68
981.434	17
981.516	-716
981.599	902
981.681	606
981.763	519
981.846	670
981.928	-59
982.010	207
982.092	-151
982.174	132
982.256	-642
982.339	-387
982.421	514
982.503	171
982.585	-590
982.667	190
982.749	189
982.831	268
982.913	106
982.995	1257
983.077	159
983.158	624
983.240	-935
983.322	950
983.404	1468
983.486	538
983.568	1171
983.649	-167
983.731	411
983.813	495
983.894	-139
983.976	116
984.058	613
984.139	211
984.221	-1190
984.302	222
984.384	71
984.465	-985
984.547	548
984.628	-653
984.710	188
984.791	-325
984.872	47
984.954	-37
985.035	450
985.116	-328
985.198	40
985.279	1176
985.360	139
985.441	-8
985.522	409
985.604	-231
985.685	-1140
985.766	1728
985.847	506
985.928	-541
986.009	50
986.090	-186
986.171	530
986.252	702
986.333	298
986.414	-817
986.495	713
986.576	112
986.656	446
986.737	-270
986.818	89
986.899	-580
986.980	197
987.060	901
987.141	-505
987.222	371
987.302	907
987.383	353
987.464	676
987.544	-14
987.625	489
987.705	518
987.786	156
987.866	595
987.947	313
988.027	541
988.108	-14
988.188	720
988.268	303
988.349	865
988.429	515
988.509	466
988.589	-145
988.670	-1283
988.750	1433
988.830	-161
988.910	285
988.990	443
989.070	80
989.151	349
989.231	-87
989.311	924
989.391	630
989.471	559
989.551	344
989.631	141
989.711	931
989.791	-230
989.870	-209
989.950	834
990.030	154
990.110	458
990.190	-47
990.269	-360
990.349	748
990.429	119
990.509	1189
990.588	-369
990.668	660
990.747	-141
990.827	-133
990.907	247
990.986	-82
991.066	65
991.145	-399
991.225	437
991.304	54
991.383	386
991.463	-698
991.542	205
991.622	342
991.701	-284
991.780	-358
991.859	-312
991.939	-1
992.018	727
992.097	608
992.176	-353
992.256	-185
992.335	-574
992.414	175
992.493	-55
992.572	-836
992.651	634
992.730	-125
992.809	149
992.888	-1236
992.967	-574
993.046	609
993.125	-200
993.203	245
993.282	344
993.361	530
993.440	277
993.519	-541
993.597	-229
993.676	-565
993.755	184
993.834	190
993.912	-587
993.991	862
994.069	-905
994.148	-388
994.226	-447
994.305	-296
994.384	26
994.462	12
994.540	-792
994.619	-644
994.697	-110
994.776	-504
994.854	97
994.932	-859
995.011	86
995.089	-766
995.167	-983
995.245	-957
995.324	-594
995.402	-308
995.480	-1016
995.558	187
995.636	-941
995.714	-288
995.792	672
995.870	-1483
995.948	-226
996.026	-23
996.104	-1233
996.182	-45
996.260	-609
996.338	-642
996.416	-1625
996.494	-668
996.572	28
996.649	-469
996.727	-1589
996.805	-727
996.883	-1357
996.960	-423
997.038	75
997.116	-129
997.193	-794
997.271	-341
997.348	-1000
997.426	-812
997.504	-740
997.581	-378
997.658	351
997.736	-1139
997.813	-1437
997.891	397
997.968	-793
998.046	-247
998.123	-813
998.200	605
998.277	-595
998.355	-268
998.432	-1306
998.509	-1085
998.586	-651
998.663	142
998.741	-51
998.818	-810
998.895	-898
998.972	14
999.049	-282
999.126	-1228
999.203	-524
999.280	-766
999.357	-926
999.434	-483
999.511	290
999.587	-698
999.664	-1705
999.741	-450
999.818	297
999.895	-438
999.971	-961
1000.048	-911
1000.125	-584
1000.202	-684
1000.278	-648
1000.355	-874
1000.431	-621
1000.508	-1615
1000.584	-523
1000.661	-1003
1000.738	-1093
1000.814	-1468
1000.890	-1201
1000.967	-822
1001.043	-697
1001.120	-1753
1001.196	-281
1001.272	-766
1001.349	-763
1001.425	-422
1001.501	-448
1001.577	-1117
1001.654	-764
1001.730	-1022
1001.806	-787
1001.882	-1097
1001.958	-748
1002.034	-934
1002.110	-782
1002.186	-969
1002.262	-576
1002.338	-1260
1002.414	-177
1002.490	-681
1002.566	-1211
1002.642	-1373
1002.718	876
1002.794	-570
1002.870	-604
1002.945	-537
1003.021	-581
1003.097	-1197
1003.173	213
1003.248	-1946
1003.324	-1067
1003.400	-774
1003.475	-1235
1003.551	-531
1003.626	-823
1003.702	-1015
1003.777	138
1003.853	-1175
1003.928	-1825
1004.004	-488
1004.079	-321
1004.155	-1607
1004.230	-2186
1004.305	62
1004.381	-1208
1004.456	-381
1004.531	-1052
1004.607	-1535
1004.682	-984
1004.757	-865
1004.832	-891
1004.907	-1003
1004.982	-513
1005.057	-1231
1005.133	-1374
1005.208	-1042
1005.283	-1428
1005.358	-102
1005.433	-1336
1005.508	176
1005.583	-1535
1005.657	-696
1005.732	-473
1005.807	-1744
1005.882	-689
1005.957	-1237
1006.032	-408
1006.106	-941
1006.181	15
1006.256	-1151
1006.331	-1870
1006.405	-1241
1006.480	-807
1006.554	-817
1006.629	-705
1006.704	-1620
1006.778	-506
1006.853	-1059
1006.927	-1170
1007.002	-798
1007.076	-1221
1007.150	-1208
1007.225	-1170
1007.299	-358
1007.373	-894
1007.448	-481
1007.522	-960
1007.596	-536
1007.671	-641
1007.745	-852
1007.819	-745
1007.893	-1219
1007.967	-458
1008.041	-1450
1008.115	-531
1008.190	-1191
1008.264	-349
1008.338	-1615
1008.412	-1892
1008.486	-1284
1008.560	-1457
1008.633	-1654
1008.707	-405
1008.781	-1028
1008.855	-615
1008.929	-1503
1009.003	-731
1009.076	-943
1009.150	-1661
1009.224	-962
1009.298	65
1009.371	-1246
1009.445	332
1009.519	-1026
1009.592	-913
1009.666	-1007
1009.739	-675
1009.813	-1783
1009.886	-120
1009.960	-1966
1010.033	-826
1010.107	-1059
1010.180	-1229
1010.253	-1254
1010.327	-1010
1010.400	-1445
1010.473	-904
1010.547	-208
1010.620	-624
1010.693	-1114
1010.766	-1385
1010.840	-277
1010.913	-407
1010.986	-1657
1011.059	-1317
1011.132	-835
1011.205	-144
1011.278	-1143
1011.351	-884
1011.424	-548
1011.497	-2174
1011.570	-729
1011.643	-540
1011.716	-1101
1011.789	-810
1011.862	-1096
1011.934	-88
1012.007	-1784
1012.080	77
1012.153	-1112
1012.225	-276
1012.298	-2060
1012.371	-632
1012.443	-665
1012.516	-1478
1012.588	-1078
1012.661	-729
1012.733	-2376
1012.806	-716
1012.879	-1354
1012.951	-1176
1013.023	-826
1013.096	-356
1013.168	-929
1013.241	-323
1013.313	-1043
1013.385	-1116
1013.458	-1326
1013.530	-660
1013.602	-1292
1013.674	-450
1013.746	-1712
1013.819	-1869
1013.891	-253
1013.963	-1585
1014.035	-583
1014.107	-411
1014.179	-560
1014.251	-1871
1014.323	-406
1014.395	-439
1014.467	-1441
1014.539	-715
1014.611	-1104
1014.683	-871
1014.754	-1357
1014.826	-1220
1014.898	-617
1014.970	-524
1015.042	-663
1015.113	-1200
1015.185	-1722
1015.257	-1203
1015.328	-292
1015.400	-1578
1015.471	-1237
1015.543	-1824
1015.615	-1470
1015.686	-1301
1015.757	-1227
1015.829	-611
1015.901	-337
1015.972	-1112
1016.043	-776
1016.115	-1348
1016.186	-697
1016.257	-1151
1016.328	-150
1016.400	-637
1016.471	-1344
1016.542	-486
1016.613	-995
1016.685	-630
1016.756	-562
1016.827	-1357
1016.898	-1560
1016.969	27
1017.040	-1276
1017.111	-1715
1017.182	-1240
1017.253	-785
1017.324	-629
1017.395	-676
1017.466	-434
1017.537	-830
1017.608	-925
1017.678	-1512
1017.749	-1605
1017.820	-500
1017.891	-1464
1017.961	-1065
1018.032	-989
1018.103	-1165
1018.173	-496
1018.244	-1455
1018.315	-1596
1018.385	-629
1018.456	-968
1018.526	-1090
1018.597	-1053
1018.667	-1204
1018.738	-1707
1018.808	-900
1018.878	-920
1018.949	-1631
1019.019	-743
1019.089	-328
1019.160	-809
1019.230	-1097
1019.300	-175
1019.371	-1710
1019.441	-1338
1019.511	-775
1019.581	-739
1019.651	-852
1019.721	-527
1019.791	-1383
1019.861	-607
1019.931	-1018
1020.001	-1041
1020.071	-1635
1020.141	-1418
1020.211	-1769
1020.281	-857
1020.351	-1408
1020.421	-1348
1020.491	-807
1020.560	-805
1020.630	-1031
1020.700	-1096
1020.770	-1087
1020.839	-2053
1020.909	-838
1020.979	-1403
1021.048	-1723
1021.118	-889
1021.187	-2029
1021.257	-982
1021.326	-709
1021.396	-2283
1021.465	-1146
1021.535	-930
1021.604	-1661
1021.674	-1500
1021.743	-839
1021.812	-1328
1021.882	-713
1021.951	-1873
1022.020	-1473
1022.089	-941
1022.159	-1234
1022.228	-1069
1022.297	-851
1022.366	-1386
1022.435	-1733
1022.504	-810
1022.573	-1421
1022.642	-1043
1022.711	-1759
1022.781	-1577
1022.849	-845
1022.918	-1906
1022.987	-1503
1023.056	-571
1023.125	-1497
1023.194	-1656
1023.263	-948
1023.331	-1033
1023.400	-1522
1023.469	-1362
1023.538	-422
1023.606	-1788
1023.675	-838
1023.744	-1044
1023.812	-1703
1023.881	-704
1023.949	-1231
1024.018	-1973
1024.086	-1016
1024.155	-1498
1024.223	-1300
1024.292	-902
1024.360	-1165
1024.429	-1931
1024.497	-2193
1024.565	-1662
1024.634	-1148
1024.702	-1275
1024.770	-984
1024.838	-1312
1024.907	-1335
1024.975	-2194
1025.043	-1140
1025.111	-1262
1025.179	-1161
1025.247	-1364
1025.315	-1598
1025.383	-1394
1025.451	-1432
1025.519	-1236
1025.587	-1515
1025.655	-1839
1025.723	-1858
1025.791	-1054
1025.859	-678
1025.927	-523
1025.995	-1552
1026.062	-1265
1026.130	-1544
1026.198	-2082
1026.266	-1751
1026.333	-1390
1026.401	-1935
1026.469	-1068
1026.536	-1061
1026.604	-1589
1026.671	-1128
1026.739	-630
1026.806	-1607
1026.874	-2159
1026.941	-1943
1027.009	-1626
1027.076	-1888
1027.144	-1097
1027.211	-2297
1027.278	-2183
1027.345	-1356
1027.413	-1333
1027.480	-1409
1027.547	-1031
1027.614	-1894
1027.682	-686
1027.749	-1511
1027.816	-1906
1027.883	-1410
1027.950	-1583
1028.017	-1846
1028.084	-1036
1028.151	-1233
1028.218	-1539
1028.285	-1283
1028.352	-1279
1028.419	-1860
1028.486	-1419
1028.553	-1068
1028.619	-1170
1028.686	-1940
1028.753	-2125
1028.820	-1212
1028.886	-2384
1028.953	-1109
1029.020	-1295
1029.086	-1502
1029.153	-1491
1029.220	-1659
1029.286	-1348
1029.353	-1737
1029.419	-1226
1029.486	-1387
1029.552	-1938
1029.619	-1377
1029.685	-1753
1029.751	-1328
1029.818	-1208
1029.884	-1480
1029.951	-1264
1030.017	-1980
1030.083	-2070
1030.149	-1644
1030.216	-1197
1030.282	-697
1030.348	-932
1030.414	-1815
1030.480	-2607
1030.546	-1879
1030.612	-640
1030.678	-1499
1030.744	-2872
1030.810	-1297
1030.876	-1167
1030.942	-1430
1031.008	-1665
1031.074	-2086
1031.140	-1642
1031.206	-1271
1031.272	-1755
1031.337	-2044
1031.403	-1184
1031.469	-1437
1031.534	-1712
1031.600	-815
1031.666	-2093
1031.731	-2032
1031.797	-1812
1031.863	-1377
1031.928	-1956
1031.994	-1540
1032.059	-1767
1032.125	-1551
1032.190	-1393
1032.256	-2226
1032.321	-2358
1032.386	-1809
1032.452	-1880
1032.517	-2004
1032.582	-1516
1032.647	-1853
1032.713	-1959
1032.778	-1827
1032.843	-1855
1032.908	-1675
1032.974	-2102
1033.039	-2160
1033.104	-1298
1033.169	-2369
1033.234	-1767
1033.299	-1585
1033.364	-2068
1033.429	-1461
1033.494	-1680
1033.559	-1918
1033.624	-2171
1033.688	-1562
1033.753	-2593
1033.818	-1421
1033.883	-1300
1033.948	-1275
1034.013	-2425
1034.077	-726
1034.142	-635
1034.207	-1892
1034.271	-420
1034.336	-713
1034.400	-1045
1034.465	-1624
1034.530	-2243
1034.594	-2302
1034.658	-1125
1034.723	-2012
1034.787	-2403
1034.852	-1109
1034.916	-2275
1034.981	-1363
1035.045	-808
1035.109	-2475
1035.173	-1677
1035.238	-1209
1035.302	-1288
1035.366	-2093
1035.430	-1636
1035.495	-2133
1035.559	-2316
1035.623	-1700
1035.687	-2054
1035.751	-1449
1035.815	-1517
1035.879	-2185
1035.943	-2032
1036.007	-2026
1036.071	-2449
1036.135	-1946
1036.198	-1823
1036.262	-1831
1036.326	-1773
1036.390	-1383
1036.454	-1961
1036.517	-1251
1036.581	-1604
1036.645	-1558
1036.709	-1515
1036.772	-1431
1036.836	-1263
1036.900	-2498
1036.963	-1905
1037.026	-1621
1037.090	-2337
1037.154	-1858
1037.217	-1463
1037.280	-2044
1037.344	-1887
1037.407	-2452
1037.471	-1972
1037.534	-2089
1037.597	-2365
1037.661	-2049
1037.724	-2401
1037.787	-1997
1037.850	-2372
1037.913	-1429
1037.977	-1915
1038.040	-2354
1038.103	-1736
1038.166	-2608
1038.229	-1873
1038.292	-2368
1038.355	-1960
1038.418	-2053
1038.481	-1547
1038.544	-2742
1038.607	-2028
1038.670	-1926
1038.732	-2429
1038.795	-2154
1038.858	-2174
1038.921	-1935
1038.984	-2043
1039.046	-1374
1039.109	-2572
1039.172	-1745
1039.234	-1579
1039.297	-2015
1039.360	-2398
1039.422	-2421
1039.485	-2245
1039.547	-1996
1039.610	-2095
1039.672	-2683
1039.734	-2496
1039.797	-2129
1039.859	-2285
1039.922	-2301
1039.984	-2473
1040.046	-1184
1040.109	-1985
1040.171	-2793
1040.233	-2258
1040.295	-2375
1040.358	-2025
1040.420	-2009
1040.482	-2211
1040.544	-1803
1040.606	-1663
1040.668	-1512
1040.730	-2753
1040.792	-2465
1040.854	-2014
1040.916	-2497
1040.978	-2284
1041.040	-1161
1041.102	-1954
1041.164	-2289
1041.225	-2258
1041.287	-2158
1041.349	-1854
1041.411	-1884
1041.472	-1772
1041.534	-1775
1041.596	-2998
1041.657	-1897
1041.719	-1080
1041.781	-1754
1041.842	-3082
1041.904	-2191
1041.965	-2246
1042.027	-2074
1042.088	-2760
1042.150	-2729
1042.211	-2356
1042.272	-1851
1042.334	-1645
1042.395	-2450
1042.456	-2263
1042.518	-1736
1042.579	-1707
1042.640	-2183
1042.701	-2607
1042.763	-1963
1042.824	-2200
1042.885	-1770
1042.946	-2686
1043.007	-2852
1043.068	-2461
1043.129	-2179
1043.190	-1235
1043.251	-1928
1043.312	-2132
1043.373	-1393
1043.434	-2401
1043.495	-1934
1043.556	-2338
1043.616	-1572
1043.677	-2542
1043.738	-2079
1043.799	-1862
1043.859	-1840
1043.920	-2605
1043.981	-1255
1044.041	-1733
1044.102	-2097
1044.162	-2645
1044.223	-1696
1044.284	-2529
1044.344	-1743
1044.405	-1891
1044.465	-2534
1044.525	-2755
1044.586	-1984
1044.646	-2717
1044.707	-1895
1044.767	-1891
1044.827	-2467
1044.887	-1219
1044.948	-2156
1045.008	-2574
1045.068	-2494
1045.128	-1962
1045.188	-2557
1045.249	-1458
1045.309	-1742
1045.369	-2167
1045.429	-2027
1045.489	-2138
1045.549	-2134
1045.609	-2192
1045.669	-2345
1045.729	-2045
1045.789	-2108
1045.848	-1594
1045.908	-1876
1045.968	-1317
1046.028	-1293
1046.088	-2435
1046.147	-1769
1046.207	-2162
1046.267	-2058
1046.326	-1949
1046.386	-1876
1046.446	-498
1046.505	-1124
1046.565	-1604
1046.624	-1929
1046.684	-890
1046.743	-512
1046.803	-1202
1046.862	-918
1046.922	0
