'Start Wavelength	183.907
'End Wavelength	1046.922
'Gate Delay	5.000
'Gate Width (ms)	1.050
'Laser Output Level	0.000
'X Position	0.000
'Y Position	0.000
'Z Position	0.000
'Grid Point Number	1.000
'Shot Number	100.000
183.907	905.000
183.977	48.000
184.047	39
184.116	55
184.186	424
184.256	287
184.325	282
184.395	-634
184.465	1317
184.534	-407
184.604	14
184.674	565
184.743	-74
184.813	712
184.883	305
184.952	-87
185.022	390
185.092	731
185.161	523
185.231	130
185.301	805
185.370	1172
185.440	442
185.509	-448
185.579	444
185.649	-263
185.718	753
185.788	487
185.857	90
185.927	255
185.996	1195
186.066	-192
186.136	-265
186.205	581
186.275	1184
186.344	187
186.414	139
186.483	-124
186.553	1797
186.622	2587
186.692	1015
186.761	-45
186.831	709
186.900	656
186.970	1225
187.039	1484
187.109	2191
187.178	154
187.248	1482
187.317	574
187.387	600
187.456	-255
187.526	1635
187.595	1695
187.664	1273
187.734	783
187.803	2103
187.873	1957
187.942	2263
188.012	761
188.081	1279
188.150	1123
188.220	2752
188.289	2571
188.358	2449
188.428	1030
188.497	271
188.567	1304
188.636	136
188.705	184
188.775	1325
188.844	116
188.913	1635
188.983	672
189.052	1028
189.121	712
189.191	1683
189.260	2555
189.329	2711
189.399	1375
189.468	1933
189.537	-13
189.606	2157
189.676	1817
189.745	2118
189.814	1541
189.883	1051
189.953	961
190.022	2733
190.091	8106
190.161	12181
190.230	4422
190.299	2296
190.368	2349
190.437	2080
190.507	1242
190.576	1233
190.645	1566
190.714	912
190.783	788
190.853	2312
190.922	1663
190.991	2211
191.060	2533
191.129	1339
191.198	1359
191.268	1620
191.337	969
191.406	1717
191.475	956
191.544	1033
191.613	1418
191.682	1235
191.752	1228
191.821	1693
191.890	1923
191.959	1231
192.028	1187
192.097	1687
192.166	1351
192.235	1539
192.304	1212
192.373	1073
192.442	802
192.511	1386
192.580	242
192.650	1141
192.719	1717
192.788	2692
192.857	2025
192.926	1755
192.995	2241
193.064	3301
193.133	4036
193.202	6544
193.271	5510
193.340	5080
193.409	4815
193.478	6536
193.547	7849
193.615	10967
193.684	10619
193.753	5987
193.822	5356
193.891	3083
193.960	3658
194.029	2971
194.098	2714
194.167	1748
194.236	2324
194.305	1457
194.374	1805
194.443	1369
194.512	3186
194.580	2493
194.649	3192
194.718	3310
194.787	1844
194.856	1645
194.925	3234
194.994	2225
195.062	2458
195.131	3015
195.200	3472
195.269	5233
195.338	3438
195.407	2101
195.475	2820
195.544	4242
195.613	4028
195.682	2661
195.751	4750
195.819	4572
195.888	3298
195.957	4594
196.026	5162
196.094	4513
196.163	4704
196.232	4915
196.301	3708
196.369	3334
196.438	3119
196.507	2650
196.576	2236
196.644	2092
196.713	1870
196.782	1918
196.850	2324
196.919	2386
196.988	2354
197.056	2167
197.125	2828
197.194	2662
197.262	1905
197.331	2099
197.400	2514
197.468	2089
197.537	2655
197.606	3012
197.674	5275
197.743	11294
197.812	5028
197.880	10469
197.949	7589
198.017	9749
198.086	7343
198.155	4320
198.223	4767
198.292	11801
198.360	6597
198.429	3521
198.497	2949
198.566	7542
198.635	11777
198.703	4667
198.772	4603
198.840	12740
198.909	14233
198.977	4927
199.046	4631
199.114	4721
199.183	3973
199.251	3164
199.320	2971
199.388	2819
199.457	2970
199.525	3064
199.594	2591
199.662	3088
199.731	3157
199.799	4051
199.867	2984
199.936	3919
200.004	3151
200.073	3478
200.141	3101
200.210	3201
200.278	2598
200.346	3512
200.415	3563
200.483	4315
200.552	3158
200.620	3293
200.688	3789
200.757	3558
200.825	2605
200.893	3787
200.962	3255
201.030	2608
201.098	3855
201.167	4823
201.235	3782
201.303	3501
201.372	2923
201.440	2021
201.508	3611
201.577	3999
201.645	4923
201.713	3439
201.781	3189
201.850	4268
201.918	3901
201.986	4238
202.055	3405
202.123	3691
202.191	3469
202.259	3223
202.327	3135
202.396	3479
202.464	3662
202.532	4416
202.600	10617
202.669	7235
202.737	3827
202.805	3245
202.873	3859
202.941	4354
203.009	3503
203.078	2959
203.146	2637
203.214	3285
203.282	3715
203.350	3872
203.418	3447
203.487	4176
203.555	3538
203.623	3943
203.691	3864
203.759	3147
203.827	3379
203.895	4565
203.963	4424
204.031	3868
204.099	3871
204.168	4180
204.236	4304
204.304	4569
204.372	4943
204.440	3732
204.508	3635
204.576	3291
204.644	3922
204.712	3277
204.780	3735
204.848	4680
204.916	3275
204.984	4018
205.052	4731
205.120	4893
205.188	4435
205.256	2812
205.324	4495
205.392	4268
205.460	5410
205.528	5372
205.596	4631
205.664	4369
205.732	5369
205.799	15277
205.867	24718
205.935	7233
206.003	6131
206.071	4789
206.139	5563
206.207	5521
206.275	4745
206.343	4617
206.411	4345
206.478	5334
206.546	4462
206.614	5127
206.682	4720
206.750	4186
206.818	6377
206.885	6260
206.953	4123
207.021	5394
207.089	4664
207.157	3366
207.225	4774
207.292	4683
207.360	4860
207.428	6483
207.496	4683
207.563	4690
207.631	4491
207.699	4693
207.767	5975
207.834	4443
207.902	5519
207.970	5050
208.038	5026
208.105	5161
208.173	5611
208.241	8429
208.309	7807
208.376	7279
208.444	12498
208.512	8690
208.579	4623
208.647	7228
208.715	7291
208.782	5666
208.850	5229
208.918	5608
208.985	5401
209.053	6591
209.120	6067
209.188	5443
209.256	5430
209.323	5321
209.391	9179
209.459	6890
209.526	5912
209.594	5255
209.661	5282
209.729	5648
209.796	6123
209.864	6501
209.932	5514
209.999	6776
210.067	7591
210.134	7461
210.202	6386
210.269	9924
210.337	8802
210.404	6178
210.472	5356
210.539	6557
210.607	6712
210.674	8583
210.742	6820
210.809	6833
210.877	7905
210.944	9817
211.012	6328
211.079	8983
211.146	6189
211.214	6893
211.281	9351
211.349	10002
211.416	7241
211.484	8662
211.551	6705
211.618	7600
211.686	6647
211.753	5618
211.821	6238
211.888	6323
211.955	6767
212.023	6834
212.090	6523
212.157	7402
212.225	7978
212.292	14370
212.359	26599
212.427	66438
212.494	33088
212.561	13575
212.629	9857
212.696	8730
212.763	8459
212.831	7978
212.898	7703
212.965	6740
213.032	7504
213.100	8748
213.167	9142
213.234	10686
213.301	7677
213.369	7121
213.436	7066
213.503	7725
213.570	8403
213.638	10014
213.705	7045
213.772	6470
213.839	8978
213.906	11189
213.973	9497
214.041	7037
214.108	7474
214.175	7337
214.242	7793
214.309	7196
214.376	7290
214.444	7246
214.511	9733
214.578	8808
214.645	8483
214.712	9275
214.779	9000
214.846	8164
214.913	11255
214.980	11279
215.048	11555
215.115	12497
215.182	11559
215.249	10072
215.316	8177
215.383	8083
215.450	7596
215.517	7172
215.584	6498
215.651	7301
215.718	7745
215.785	9929
215.852	9420
215.919	9330
215.986	9354
216.053	7953
216.120	6008
216.187	8457
216.254	8403
216.321	7718
216.388	7781
216.455	9014
216.522	9156
216.589	11795
216.656	18413
216.722	20516
216.789	14707
216.856	15095
216.923	12363
216.990	11238
217.057	11198
217.124	13794
217.191	13246
217.258	16150
217.324	20222
217.391	21644
217.458	16368
217.525	12766
217.592	10663
217.659	10480
217.725	11127
217.792	15177
217.859	15269
217.926	8386
217.993	6951
218.059	6867
218.126	6822
218.193	6471
218.260	5315
218.327	5619
218.393	5740
218.460	5580
218.527	4496
218.594	7246
218.660	16091
218.727	17707
218.794	8233
218.860	5907
218.927	5205
218.994	5271
219.061	4954
219.127	8337
219.194	14918
219.261	7529
219.327	5056
219.394	5174
219.461	3791
219.527	4855
219.594	10793
219.661	8143
219.727	3895
219.794	6558
219.860	5194
219.927	6288
219.994	9996
220.060	21401
220.127	13616
220.193	10358
220.260	9890
220.326	15199
220.393	24785
220.460	33477
220.526	22312
220.593	14703
220.659	14262
220.726	14954
220.792	32860
220.859	33183
220.925	41521
220.992	55830
221.058	51372
221.125	48447
221.191	36495
221.258	17032
221.324	11566
221.391	10298
221.457	8189
221.524	8164
221.590	10941
221.657	37671
221.723	27874
221.789	25834
221.856	22900
221.922	13568
221.989	7716
222.055	8079
222.121	6420
222.188	7239
222.254	6792
222.321	5556
222.387	4872
222.453	5007
222.520	4468
222.586	4615
222.652	3908
222.719	4989
222.785	5198
222.851	4384
222.918	4210
222.984	3923
223.050	4852
223.116	5029
223.183	4553
223.249	3598
223.315	3572
223.382	4053
223.448	4375
223.514	3350
223.580	2653
223.647	3342
223.713	3154
223.779	4169
223.845	3604
223.911	3842
223.978	3511
224.044	4572
224.110	3476
224.176	4244
224.242	2494
224.309	2745
224.375	3170
224.441	3206
224.507	3589
224.573	3444
224.639	4453
224.705	2555
224.772	2652
224.838	3809
224.904	6612
224.970	4725
225.036	4753
225.102	5960
225.168	5873
225.234	5019
225.300	5383
225.366	4697
225.432	5205
225.499	4469
225.565	5601
225.631	5940
225.697	5479
225.763	6976
225.829	8689
225.895	9715
225.961	16057
226.027	14367
226.093	12144
226.159	14297
226.225	20597
226.291	52459
226.357	87644
226.423	45970
226.489	25905
226.554	17347
226.620	14395
226.686	20175
226.752	30586
226.818	50353
226.884	110887
226.950	99355
227.016	41377
227.082	23694
227.148	15985
227.214	17242
227.279	13148
227.345	9983
227.411	9254
227.477	10693
227.543	19196
227.609	23541
227.674	12855
227.740	9104
227.806	8522
227.872	7474
227.938	6645
228.003	14104
228.069	7402
228.135	5045
228.201	6086
228.267	6029
228.332	7805
228.398	13130
228.464	9265
228.530	5570
228.595	4467
228.661	5474
228.727	13489
228.792	11015
228.858	5625
228.924	7374
228.990	9682
229.055	8648
229.121	11077
229.187	6287
229.252	8698
229.318	5066
229.384	6298
229.449	9575
229.515	3807
229.581	2469
229.646	6189
229.712	7294
229.777	19909
229.843	24573
229.909	13899
229.974	12732
230.040	12118
230.105	8144
230.171	10056
230.236	12765
230.302	19664
230.368	18336
230.433	9358
230.499	8784
230.564	8434
230.630	6238
230.695	5069
230.761	5862
230.826	4288
230.892	12582
230.957	6742
231.023	3966
231.088	4685
231.154	5028
231.219	5325
231.284	11107
231.350	12566
231.415	4494
231.481	4814
231.546	4456
231.612	4717
231.677	4120
231.742	2991
231.808	6115
231.873	5352
231.939	4211
232.004	11251
232.069	13415
232.135	6584
232.200	6031
232.265	5107
232.331	3872
232.396	4075
232.461	2875
232.527	3358
232.592	3445
232.657	5788
232.723	17925
232.788	14365
232.853	5698
232.918	4364
232.984	3981
233.049	4972
233.114	16865
233.179	15408
233.245	20709
233.310	30387
233.375	7775
233.440	6419
233.506	5886
233.571	5528
233.636	5469
233.701	6391
233.766	17337
233.832	26269
233.897	10355
233.962	10241
234.027	11671
234.092	10550
234.157	8620
234.222	9309
234.288	15119
234.353	56260
234.418	55477
234.483	27823
234.548	17464
234.613	11722
234.678	11356
234.743	14243
234.808	58328
234.873	40483
234.938	14672
235.004	10212
235.069	9679
235.134	9142
235.199	8722
235.264	6685
235.329	6017
235.394	7999
235.459	13871
235.524	14652
235.589	8848
235.654	6553
235.719	6696
235.784	7857
235.849	11451
235.913	31895
235.978	37437
236.043	48088
236.108	16486
236.173	15210
236.238	16891
236.303	9972
236.368	10706
236.433	19167
236.498	40811
236.563	22771
236.627	41343
236.692	140099
236.757	122208
236.822	52030
236.887	43655
236.952	28664
237.017	24544
237.081	24585
237.146	29311
237.211	63336
237.276	135549
237.341	236300
237.405	125717
237.470	49434
237.535	40698
237.600	22362
237.664	17214
237.729	13131
237.794	18697
237.859	39319
237.923	36548
237.988	20710
238.053	29111
238.118	31767
238.182	72258
238.247	70044
238.312	41329
238.376	26303
238.441	22689
238.506	18385
238.570	9668
238.635	9589
238.700	8297
238.764	9978
238.829	30746
238.893	44050
238.958	17175
239.023	16884
239.087	9751
239.152	12458
239.216	8668
239.281	7786
239.346	8042
239.410	8644
239.475	13793
239.539	70628
239.604	64253
239.668	16424
239.733	10487
239.797	13398
239.862	33106
239.926	59289
239.991	26098
240.055	12511
240.120	9873
240.184	9717
240.249	10042
240.313	8470
240.378	10490
240.442	43169
240.507	73028
240.571	24104
240.635	32811
240.700	45998
240.764	15555
240.829	9481
240.893	7598
240.957	9655
241.022	36412
241.086	76246
241.151	38600
241.215	12632
241.279	17467
241.344	41705
241.408	16923
241.472	11322
241.537	10663
241.601	10184
241.665	7786
241.730	7812
241.794	10990
241.858	8958
241.922	8481
241.987	8281
242.051	7439
242.115	7003
242.179	8006
242.244	6857
242.308	9027
242.372	11205
242.436	16626
242.501	9957
242.565	7812
242.629	7339
242.693	8042
242.757	7328
242.822	9694
242.886	10578
242.950	11215
243.014	13544
243.078	14053
243.142	14080
243.206	11535
243.271	14947
243.335	12880
243.399	18788
243.463	73226
243.527	205473
243.591	68082
243.655	27185
243.719	16353
243.783	16060
243.847	25122
243.911	36597
243.975	47996
244.040	34828
244.104	15754
244.168	12197
244.232	21552
244.296	30347
244.360	31356
244.424	21087
244.488	18378
244.552	16492
244.615	11848
244.679	11221
244.743	15281
244.807	16922
244.871	10362
244.935	8744
244.999	8579
245.063	10830
245.127	12287
245.191	21227
245.255	22986
245.319	16953
245.383	16747
245.446	12973
245.510	10266
245.574	12258
245.638	12611
245.702	13686
245.766	37196
245.829	20816
245.893	18754
245.957	13081
246.021	13736
246.085	15030
246.149	22048
246.212	46095
246.276	73240
246.340	32288
246.404	23158
246.467	21757
246.531	40604
246.595	22419
246.659	20029
246.722	19243
246.786	21675
246.850	23220
246.913	33982
246.977	15690
247.041	15285
247.104	18247
247.168	15905
247.232	43018
247.295	95603
247.359	49364
247.423	20287
247.486	41519
247.550	25614
247.614	17466
247.677	24815
247.741	16725
247.804	14338
247.868	18120
247.932	37529
247.995	89602
248.059	35447
248.122	16530
248.186	20851
248.249	37882
248.313	140152
248.376	150650
248.440	97444
248.503	36726
248.567	27136
248.630	40394
248.694	56339
248.757	63082
248.821	152734
248.884	84955
248.948	80479
249.011	114186
249.075	179391
249.138	153594
249.202	57787
249.265	38210
249.328	61643
249.392	38147
249.455	26414
249.519	19314
249.582	25636
249.645	44424
249.709	32075
249.772	22204
249.835	21423
249.899	30233
249.962	22713
250.025	20053
250.089	53140
250.152	76761
250.215	35943
250.279	28765
250.342	28162
250.405	27297
250.468	22457
250.532	30204
250.595	47936
250.658	166812
250.721	288034
250.785	105055
250.848	53015
250.911	33512
250.974	28954
251.038	38435
251.101	88748
251.164	50695
251.227	48498
251.290	40879
251.354	57798
251.417	230841
251.480	244160
251.543	155233
251.606	424675
251.669	336726
251.732	126156
251.795	127049
251.859	127745
251.922	274781
251.985	167900
252.048	60638
252.111	46803
252.174	43368
252.237	76702
252.300	179915
252.363	186666
252.426	364997
252.489	167059
252.552	93006
252.615	65756
252.678	59700
252.741	129668
252.804	168584
252.867	360586
252.930	236234
252.993	133425
253.056	73961
253.119	58110
253.182	44385
253.245	72780
253.308	56072
253.371	63024
253.434	57038
253.497	49999
253.559	89753
253.622	67067
253.685	85699
253.748	85605
253.811	42880
253.874	61803
253.937	61325
254.000	35598
254.062	59116
254.125	97183
254.188	79177
254.251	77897
254.314	39119
254.376	70262
254.439	76616
254.502	62407
254.565	63559
254.628	111706
254.690	72899
254.753	41810
254.816	34499
254.878	41302
254.941	71476
255.004	77888
255.067	35787
255.129	35801
255.192	19420
255.255	17643
255.317	23437
255.380	17173
255.443	12540
255.505	13961
255.568	14618
255.631	14612
255.693	14911
255.756	12684
255.819	11974
255.881	11587
255.944	10668
256.006	12313
256.069	14109
256.132	12484
256.194	20728
256.257	72926
256.319	55259
256.382	51812
256.444	21786
256.507	15922
256.569	13105
256.632	16211
256.694	36247
256.757	71512
256.819	210676
256.882	90323
256.944	36018
257.007	28301
257.069	34493
257.132	22825
257.194	15961
257.257	14749
257.319	16323
257.381	20358
257.444	56857
257.506	236919
257.569	271580
257.631	126026
257.693	70548
257.756	38641
257.818	42535
257.880	22518
257.943	17552
258.005	15392
258.067	13748
258.130	13478
258.192	18686
258.254	54219
258.317	33903
258.379	16270
258.441	48369
258.503	51082
258.566	71037
258.628	102305
258.690	25865
258.753	21740
258.815	40235
258.877	24683
258.939	13461
259.001	12516
259.064	12442
259.126	22530
259.188	38236
259.250	18689
259.312	22830
259.375	51924
259.437	37279
259.499	16535
259.561	13051
259.623	13536
259.685	13476
259.747	17999
259.809	64597
259.872	139014
259.934	184330
259.996	165369
260.058	42102
260.120	23016
260.182	16579
260.244	14457
260.306	11748
260.368	12622
260.430	12322
260.492	24560
260.554	45405
260.616	41476
260.678	89473
260.740	145951
260.802	37093
260.864	24878
260.926	21278
260.988	18408
261.050	17284
261.112	38299
261.174	117944
261.236	113173
261.298	32890
261.359	61117
261.421	95731
261.483	27323
261.545	19553
261.607	13300
261.669	14763
261.731	37380
261.793	101808
261.854	41065
261.916	22394
261.978	17545
262.040	22522
262.102	21577
262.164	42982
262.225	35062
262.287	16176
262.349	43152
262.411	36447
262.472	16888
262.534	40573
262.596	103070
262.658	29552
262.719	18340
262.781	25987
262.843	94024
262.904	41573
262.966	25686
263.028	33745
263.090	142326
263.151	368319
263.213	115891
263.275	54193
263.336	28138
263.398	18722
263.459	14072
263.521	15866
263.583	38745
263.644	27748
263.706	13575
263.767	10038
263.829	10043
263.891	7264
263.952	8636
264.014	7959
264.075	12906
264.137	31876
264.198	18801
264.260	9374
264.321	10048
264.383	26096
264.444	57836
264.506	17862
264.567	12341
264.629	18150
264.690	41276
264.752	18384
264.813	13448
264.875	10165
264.936	10354
264.998	8739
265.059	9042
265.120	9488
265.182	20498
265.243	102592
265.305	108853
265.366	26327
265.427	15243
265.489	13005
265.550	9683
265.611	13495
265.673	13899
265.734	8696
265.795	8293
265.857	8307
265.918	11866
265.979	28135
266.040	169045
266.102	147022
266.163	38341
266.224	29712
266.286	18637
266.347	12380
266.408	13748
266.469	18553
266.530	13834
266.592	9011
266.653	24600
266.714	46334
266.775	14994
266.836	10073
266.898	7985
266.959	14401
267.020	10151
267.081	7854
267.142	6833
267.203	6573
267.264	6499
267.326	8601
267.387	7145
267.448	5773
267.509	7477
267.570	7076
267.631	6560
267.692	6198
267.753	7081
267.814	7273
267.875	19945
267.936	54552
267.997	21832
268.058	18289
268.119	11900
268.180	12530
268.241	10788
268.302	8120
268.363	7431
268.424	11136
268.485	12639
268.546	9165
268.607	6474
268.668	6529
268.729	6625
268.790	8125
268.851	10495
268.912	31296
268.972	40930
269.033	20064
269.094	10602
269.155	7656
269.216	8026
269.277	13464
269.338	9782
269.398	8003
269.459	11583
269.520	16389
269.581	23208
269.642	27833
269.702	18686
269.763	11991
269.824	9136
269.885	14579
269.945	24955
270.006	9931
270.067	7479
270.128	6722
270.188	7759
270.249	8356
270.310	7098
270.370	7766
270.431	12293
270.492	8271
270.553	10633
270.613	26471
270.674	52779
270.734	24750
270.795	13366
270.856	19930
270.916	18678
270.977	10597
271.038	13868
271.098	14228
271.159	24270
271.219	26520
271.280	12269
271.340	9880
271.401	17311
271.462	60738
271.522	29025
271.583	13274
271.643	16693
271.704	11948
271.764	15112
271.825	34318
271.885	118066
271.946	170663
272.006	53583
272.066	68834
272.127	133450
272.187	39130
272.248	22893
272.308	25864
272.369	91653
272.429	54505
272.489	39430
272.550	40991
272.610	36416
272.671	32091
272.731	35484
272.791	72902
272.852	31200
272.912	24030
272.972	14508
273.033	14006
273.093	32833
273.153	23392
273.214	14093
273.274	17214
273.334	59290
273.394	139467
273.455	52920
273.515	47704
273.575	119098
273.635	48011
273.696	70404
273.756	142151
273.816	52971
273.876	29733
273.936	82420
273.997	158378
274.057	38694
274.117	26207
274.177	36286
274.237	153353
274.297	152923
274.358	131423
274.418	113782
274.478	83477
274.538	35496
274.598	35278
274.658	135495
274.718	184137
274.778	67309
274.838	34121
274.898	76556
274.958	255992
275.018	165675
275.078	95956
275.138	41729
275.198	25498
275.258	20472
275.318	27722
275.378	46818
275.438	42158
275.498	31613
275.558	94808
275.618	200397
275.678	108840
275.738	56118
275.798	42887
275.858	22408
275.918	14753
275.978	18255
276.038	16690
276.098	13612
276.157	30919
276.217	92242
276.277	41914
276.337	29211
276.397	17321
276.457	21072
276.517	14914
276.576	11557
276.636	11082
276.696	22739
276.756	56751
276.815	45298
276.875	19765
276.935	26892
276.995	20172
277.055	12347
277.114	12201
277.174	19523
277.234	69550
277.293	32049
277.353	18153
277.413	12906
277.472	13737
277.532	14575
277.592	13857
277.651	32687
277.711	57764
277.771	25219
277.830	84006
277.890	72021
277.950	52327
278.009	141754
278.069	52517
278.128	40747
278.188	58723
278.248	29284
278.307	58803
278.367	44083
278.426	21622
278.486	13242
278.545	11534
278.605	10391
278.664	10271
278.724	14641
278.783	42845
278.843	133677
278.902	38364
278.962	21197
279.021	21564
279.081	23565
279.140	22850
279.199	20304
279.259	16987
279.318	16287
279.378	21951
279.437	41379
279.496	151608
279.556	425348
279.615	358993
279.675	88231
279.734	53195
279.793	79570
279.853	121936
279.912	45770
279.971	25636
280.031	22618
280.090	40741
280.149	78725
280.208	61290
280.268	282627
280.327	321546
280.386	75446
280.445	60452
280.505	62365
280.564	28057
280.623	22608
280.682	35870
280.742	62757
280.801	18622
280.860	14524
280.919	11831
280.978	10420
281.037	11824
281.097	10808
281.156	10228
281.215	11064
281.274	16515
281.333	82505
281.392	68824
281.451	15886
281.510	12153
281.569	11671
281.628	9330
281.688	9221
281.747	10204
281.806	12020
281.865	8150
281.924	8707
281.983	9514
282.042	7001
282.101	6297
282.160	7579
282.219	7117
282.278	10603
282.337	40917
282.396	30914
282.454	10937
282.513	16111
282.572	63020
282.631	38180
282.690	12487
282.749	10538
282.808	13289
282.867	13878
282.926	13897
282.985	7871
283.043	5832
283.102	8405
283.161	13270
283.220	35402
283.279	81487
283.338	24110
283.396	13411
283.455	11994
283.514	12831
283.573	20551
283.631	16091
283.690	10356
283.749	9647
283.808	25653
283.866	32377
283.925	11634
283.984	10135
284.043	15415
284.101	17910
284.160	11828
284.219	17766
284.277	13931
284.336	21759
284.395	85103
284.453	77282
284.512	21807
284.570	26843
284.629	21237
284.688	14530
284.746	13818
284.805	14874
284.863	18557
284.922	21002
284.981	20700
285.039	28433
285.098	56171
285.156	156930
285.215	515066
285.273	486817
285.332	174961
285.390	84621
285.449	54138
285.507	37078
285.566	27722
285.624	22236
285.683	16196
285.741	13064
285.799	14031
285.858	15023
285.916	13194
285.975	8950
286.033	7816
286.091	8154
286.150	7796
286.208	9055
286.267	13677
286.325	12215
286.383	21224
286.442	17369
286.500	8170
286.558	7665
286.616	7854
286.675	11932
286.733	11142
286.791	11026
286.850	13554
286.908	19141
286.966	33761
287.024	13951
287.083	9306
287.141	7838
287.199	9285
287.257	16808
287.315	13068
287.374	14563
287.432	34071
287.490	23418
287.548	15370
287.606	11568
287.664	11216
287.723	17691
287.781	25202
287.839	13618
287.897	15670
287.955	21277
288.013	35610
288.071	86987
288.129	310285
288.187	840328
288.245	407212
288.303	127672
288.361	73686
288.419	58400
288.477	39879
288.535	28187
288.593	20457
288.651	16385
288.709	12408
288.767	12355
288.825	12714
288.883	9636
288.941	9145
288.999	8664
289.057	9293
289.115	9525
289.173	9860
289.231	9936
289.289	10871
289.346	9138
289.404	11899
289.462	21905
289.520	22428
289.578	11698
289.636	6757
289.694	5315
289.751	7324
289.809	6560
289.867	7824
289.925	10411
289.983	13328
290.040	6883
290.098	6286
290.156	9407
290.214	12539
290.271	8419
290.329	5632
290.387	5391
290.444	5713
290.502	4702
290.560	5241
290.617	5975
290.675	7384
290.733	6881
290.790	9841
290.848	6280
290.906	8993
290.963	9054
291.021	7959
291.078	7748
291.136	9778
291.194	28180
291.251	67855
291.309	20054
291.366	9422
291.424	7484
291.481	7937
291.539	5678
291.596	6886
291.654	5577
291.711	5913
291.769	9215
291.826	26771
291.884	15965
291.941	8591
291.999	8003
292.056	11217
292.114	10781
292.171	7317
292.228	9056
292.286	12580
292.343	25154
292.401	29979
292.458	17320
292.515	11700
292.573	14387
292.630	15485
292.687	20666
292.745	13716
292.802	16075
292.859	36257
292.917	76403
292.974	49478
293.031	15880
293.089	10731
293.146	9709
293.203	8407
293.260	7295
293.318	10355
293.375	13495
293.432	7857
293.489	6846
293.546	7822
293.604	15730
293.661	46660
293.718	131731
293.775	63897
293.832	28437
293.889	21360
293.947	21407
294.004	16556
294.061	16879
294.118	32000
294.175	61916
294.232	59490
294.289	24182
294.346	15017
294.403	13604
294.460	18288
294.517	14005
294.574	11581
294.631	11213
294.688	14555
294.745	40120
294.802	140350
294.859	131640
294.916	52105
294.973	32042
295.030	27044
295.087	23318
295.144	16458
295.201	12953
295.258	13690
295.315	17690
295.372	56580
295.429	118229
295.486	47810
295.542	24181
295.599	44334
295.656	74555
295.713	60211
295.770	99241
295.827	38850
295.883	19476
295.940	18465
295.997	30522
296.054	31786
296.111	15190
296.167	10806
296.224	8361
296.281	7225
296.338	7910
296.394	9521
296.451	16020
296.508	42737
296.564	83347
296.621	53452
296.678	103318
296.734	161999
296.791	55316
296.848	29258
296.904	31164
296.961	65127
297.018	112818
297.074	87306
297.131	32204
297.187	24599
297.244	38059
297.301	114621
297.357	222464
297.414	77311
297.470	29388
297.527	20152
297.583	16379
297.640	17889
297.696	13130
297.753	10700
297.809	8435
297.866	7277
297.922	8198
297.979	9317
298.035	12147
298.092	22845
298.148	64360
298.204	65926
298.261	32453
298.317	48057
298.374	136150
298.430	86718
298.486	48032
298.543	39736
298.599	28486
298.656	23361
298.712	41754
298.768	106447
298.824	80701
298.881	27632
298.937	15625
298.993	14348
299.050	20825
299.106	16550
299.162	14349
299.218	14247
299.275	10945
299.331	16326
299.387	31972
299.443	114034
299.500	129067
299.556	47226
299.612	23669
299.668	21114
299.724	24358
299.780	26181
299.837	18345
299.893	30204
299.949	97975
300.005	122512
300.061	93135
300.117	166761
300.173	84757
300.229	36562
300.285	41608
300.341	46098
300.397	23706
300.453	15225
300.510	12886
300.566	15228
300.622	19860
300.678	47842
300.734	96342
300.790	94321
300.845	127444
300.901	76594
300.957	98419
301.013	81419
301.069	30778
301.125	22665
301.181	24973
301.237	17142
301.293	11494
301.349	10331
301.405	9182
301.461	8030
301.516	9270
301.572	12654
301.628	27679
301.684	25896
301.740	38369
301.796	64817
301.851	41952
301.907	70979
301.963	78783
302.019	122956
302.074	336609
302.130	332991
302.186	141013
302.242	57974
302.297	38885
302.353	38413
302.409	67035
302.464	63357
302.520	50744
302.576	121041
302.631	145195
302.687	77603
302.743	32886
302.798	20299
302.854	16492
302.910	17035
302.965	21482
303.021	39533
303.076	38049
303.132	45227
303.187	53593
303.243	27809
303.299	15393
303.354	12759
303.410	11924
303.465	10548
303.521	10201
303.576	12547
303.632	17550
303.687	34533
303.743	106150
303.798	95345
303.853	34471
303.909	19546
303.964	17064
304.020	26313
304.075	38402
304.130	32352
304.186	60060
304.241	61800
304.297	47345
304.352	24852
304.358	23816
304.407	15417
304.449	14357
304.463	14014
304.518	13991
304.539	14033
304.573	14113
304.629	15515
304.630	15803
304.684	29614
304.720	59071
304.739	73851
304.794	126597
304.811	107005
304.850	60147
304.902	28729
304.905	26746
304.960	18165
304.992	19643
305.015	20562
305.071	16957
305.083	15912
305.126	12190
305.173	9269
305.181	8826
305.236	8459
305.264	9144
305.292	9842
305.347	13191
305.354	13109
305.402	12907
305.445	15704
305.457	16414
305.512	22708
305.535	22704
305.567	22639
305.622	22982
305.626	23946
305.678	46371
305.716	96440
305.733	114306
305.788	136109
305.807	115850
305.843	81378
305.897	102342
305.898	102519
305.953	111086
305.988	73153
306.008	52172
306.063	27685
306.078	24907
306.118	19101
306.168	14167
306.173	13752
306.228	11296
306.259	10847
306.283	10605
306.338	9959
306.349	10203
306.393	12108
306.440	17353
306.448	17981
306.503	15857
306.530	17469
306.558	22096
306.613	49287
306.620	52952
306.668	76465
306.711	96651
306.723	99022
306.778	82520
306.801	62321
306.833	38234
306.888	20154
306.892	19523
306.943	14456
306.982	13014
306.997	12613
307.052	11907
307.072	12320
307.107	13818
307.162	18134
307.163	18260
307.217	29711
307.253	35579
307.272	37328
307.327	42195
307.343	37955
307.381	28853
307.434	26454
307.436	26869
307.491	50658
307.524	77119
307.546	87871
307.600	88416
307.614	78579
307.655	46886
307.704	26077
307.710	24864
307.765	27932
307.795	34729
307.819	41682
307.874	73278
307.885	72279
307.929	58077
307.975	42090
307.984	41950
308.038	58187
308.065	74879
308.093	135126
308.148	288323
308.156	323295
308.202	511144
308.246	641475
308.257	624534
308.312	326378
308.336	215956
308.366	156174
308.421	95940
308.426	90329
308.475	56994
308.517	40430
308.530	37178
308.585	31037
308.607	29184
308.639	28498
308.694	30178
308.697	30675
308.748	51195
308.787	79035
308.803	82467
308.857	66438
308.877	55745
308.912	43397
308.967	39520
308.967	39547
309.021	52166
309.058	65584
309.076	85412
309.130	160589
309.148	192670
309.185	387679
309.238	716896
309.239	719066
309.293	791631
309.328	723979
309.348	619035
309.402	278278
309.418	196500
309.457	129497
309.508	73093
309.511	71366
309.566	55382
309.598	48740
309.620	48984
309.674	52840
309.688	54677
309.729	51371
309.778	41969
309.783	41198
309.837	33735
309.868	31664
309.892	39858
309.946	64871
309.959	73786
310.001	99777
310.049	120619
310.055	117375
310.109	69173
310.139	41904
310.163	31157
310.218	18162
310.229	16382
310.272	14342
310.319	12648
310.326	12326
310.381	11284
310.409	10852
310.435	10644
310.489	10030
310.499	10043
310.543	10281
310.589	10641
310.598	10494
310.652	10140
310.679	9445
310.706	8554
310.760	6947
310.769	6766
310.814	6229
310.859	5903
310.868	5942
310.923	6418
310.948	6609
310.977	6977
311.031	8149
311.038	8308
311.085	8208
311.128	7692
311.139	7560
311.193	7185
311.218	6978
311.247	6746
311.301	6476
311.308	6443
311.356	5936
311.398	5534
311.410	5455
311.464	5235
311.488	5062
311.518	5195
311.572	5674
311.578	5743
311.626	8312
311.668	10743
311.680	10560
311.734	9415
311.758	8952
311.788	8705
311.842	8267
311.847	8249
311.896	10322
311.937	12289
311.950	12090
312.004	11232
312.027	10830
312.058	9303
312.112	6708
312.117	6472
312.165	6386
312.207	6365
312.297	7210
312.386	5930
312.476	7171
312.566	16174
312.656	7504
312.745	5109
312.835	5536
312.925	6733
313.015	6998
313.104	7930
313.194	5746
313.284	6050
313.374	7234
313.463	7025
313.553	5442
313.643	5724
313.732	5200
313.822	5546
313.912	5721
314.001	7814
314.091	8176
314.180	8758
314.270	9777
314.360	12367
314.449	10561
314.539	6328
314.628	5311
314.718	7114
314.808	10179
314.897	6677
314.987	6880
315.076	9966
315.166	13166
315.255	11920
315.345	12949
315.434	12601
315.524	12805
315.613	18144
315.703	27790
315.792	69052
315.881	316762
315.971	99578
316.060	30449
316.150	33513
316.239	32662
316.328	13547
316.418	7344
316.507	8337
316.597	11547
316.686	10477
316.775	16458
316.865	34670
316.954	9055
317.043	7083
317.133	8180
317.222	7988
317.311	8040
317.400	8895
317.490	15902
317.579	20287
317.668	24194
317.757	44759
317.847	127909
317.936	532852
318.025	154062
318.114	96123
318.203	42205
318.293	18464
318.382	20534
318.471	20427
318.560	26231
318.649	52601
318.738	14240
318.828	13193
318.917	13137
319.006	16011
319.095	39073
319.184	72211
319.273	44648
319.362	26023
319.451	10753
319.540	10133
319.629	23714
319.718	38859
319.807	15555
319.896	29332
319.985	92806
320.074	36110
320.163	10410
320.252	19316
320.341	13076
320.430	10166
320.519	17832
320.608	11025
320.697	7060
320.786	8634
320.875	13553
320.964	18513
321.053	27575
321.142	40642
321.230	40394
321.319	31138
321.408	65025
321.497	27829
321.586	29138
321.675	33634
321.764	30381
321.852	19426
321.941	37482
322.030	27955
322.119	26635
322.207	71592
322.296	47799
322.385	24140
322.474	31481
322.562	88225
322.651	41115
322.740	33248
322.829	43381
322.917	44793
323.006	25756
323.095	22237
323.183	17006
323.272	27163
323.361	49946
323.449	151011
323.538	49151
323.626	97605
323.715	59033
323.804	25216
323.892	88709
323.981	47590
324.069	17490
324.158	48350
324.246	43575
324.335	15407
324.424	24824
324.512	9888
324.601	13808
324.689	33295
324.778	64369
324.866	34530
324.954	9933
325.043	10396
325.131	20778
325.220	35963
325.308	39052
325.397	28355
325.485	18641
325.574	6099
325.662	6005
325.750	7675
325.839	5571
325.927	5633
326.015	9109
326.104	15803
326.192	22328
326.280	6365
326.369	6041
326.457	9895
326.545	18622
326.634	8459
326.722	4012
326.810	6912
326.898	5497
326.987	6855
327.075	18057
327.163	21226
327.251	11329
327.340	19397
327.428	29737
327.516	7345
327.604	6099
327.692	7278
327.781	9105
327.869	15772
327.957	9621
328.045	10324
328.133	5054
328.221	8086
328.309	6891
328.397	6051
328.485	8148
328.574	14400
328.662	46852
328.750	26350
328.838	9149
328.926	6153
329.014	4326
329.102	8231
329.190	18767
329.278	13788
329.366	3886
329.454	3652
329.542	4261
329.630	4061
329.718	5093
329.806	6089
329.893	5036
329.981	5773
330.069	9817
330.157	36919
330.245	105802
330.333	50967
330.421	9769
330.509	14493
330.597	53390
330.684	32628
330.772	10250
330.860	11723
330.948	13009
331.036	6752
331.123	3241
331.211	4346
331.299	5166
331.387	12073
331.475	20274
331.562	8443
331.650	4470
331.738	6372
331.825	8794
331.913	4550
332.001	4127
332.089	7715
332.176	16584
332.264	43420
332.352	31033
332.439	8949
332.527	5760
332.614	5743
332.702	8306
332.790	7413
332.877	19636
332.965	37674
333.052	7913
333.140	9209
333.228	17791
333.315	6002
333.403	6673
333.490	24207
333.578	19306
333.665	15974
333.753	10472
333.840	6062
333.928	9008
334.015	27339
334.103	42377
334.190	113477
334.278	28163
334.365	15421
334.452	12949
334.540	8272
334.627	10680
334.715	16901
334.802	38706
334.889	184418
334.977	180587
335.064	26893
335.151	10610
335.239	9401
335.326	13257
335.413	48666
335.501	58429
335.588	11407
335.675	7478
335.762	9784
335.850	14335
335.937	16203
336.024	47672
336.111	179833
336.199	74901
336.286	16768
336.373	8455
336.460	6527
336.547	6096
336.635	7862
336.722	6939
336.809	5790
336.896	10969
336.983	30183
337.070	68299
337.157	103656
337.245	106089
337.332	75184
337.419	9655
337.506	6304
337.593	7491
337.680	20835
337.767	48289
337.854	18831
337.941	19833
338.028	33226
338.115	12025
338.202	11848
338.289	29591
338.376	106896
338.463	31187
338.550	33503
338.637	31447
338.724	20184
338.811	28670
338.898	7240
338.984	4620
339.071	5733
339.158	9757
339.245	24477
339.332	14270
339.419	21405
339.506	18840
339.593	3264
339.679	5196
339.766	3816
339.853	7513
339.940	17703
340.027	5275
340.113	6423
340.200	9434
340.287	6457
340.374	8666
340.460	16056
340.547	6670
340.634	15147
340.720	54420
340.807	30783
340.894	5167
340.980	5871
341.067	5482
341.154	6221
341.240	10514
341.327	23970
341.414	6568
341.500	4466
341.587	5638
341.674	6584
341.760	16816
341.847	19023
341.933	5900
342.020	2746
342.106	3408
342.193	6762
342.279	13648
342.366	8986
342.452	16426
342.539	9809
342.625	23757
342.712	57963
342.798	22599
342.885	9233
342.971	2954
343.058	3538
343.144	3642
343.230	4256
343.317	3874
343.403	3212
343.490	2777
343.576	4058
343.662	4955
343.749	6685
343.835	11643
343.921	24722
344.008	145128
344.094	314242
344.180	61855
344.267	22090
344.353	72921
344.439	71279
344.525	26140
344.612	8765
344.698	8057
344.784	6262
344.870	4034
344.957	4553
345.043	9368
345.129	7868
345.215	14663
345.301	8280
345.387	4216
345.474	3582
345.560	4344
345.646	6334
345.732	4940
345.818	5207
345.904	5620
345.990	7195
346.076	6778
346.162	12798
346.249	6144
346.335	4768
346.421	9639
346.507	36436
346.593	109289
346.679	23550
346.765	6256
346.851	7092
346.937	6109
347.023	5322
347.108	6371
347.194	5054
347.280	4625
347.366	9331
347.452	36279
347.538	144694
347.624	90399
347.710	63981
347.796	10193
347.882	5805
347.967	5100
348.053	5984
348.139	5076
348.225	4572
348.311	5034
348.397	4546
348.482	6616
348.568	8119
348.654	4395
348.740	8151
348.825	8964
348.911	15194
348.997	67746
349.083	124485
349.168	18174
349.254	5258
349.340	4584
349.425	4713
349.511	8047
349.597	9354
349.682	21088
349.768	65476
349.854	27614
349.939	5125
350.025	3504
350.110	4168
350.196	2753
350.282	2116
350.367	4873
350.453	10481
350.538	10182
350.624	6469
350.709	5958
350.795	4203
350.880	4204
350.966	6475
351.051	9221
351.137	8302
351.222	6138
351.308	20605
351.393	51232
351.479	10858
351.564	4016
351.649	4697
351.735	3663
351.820	3489
351.906	3779
351.991	8218
352.076	36985
352.162	49464
352.247	10294
352.332	7398
352.418	11231
352.503	16848
352.588	74850
352.673	56831
352.759	13464
352.844	6741
352.929	8079
353.014	10220
353.100	6212
353.185	9242
353.270	19673
353.355	18970
353.441	6114
353.526	7127
353.611	18806
353.696	21095
353.781	11217
353.866	5405
353.952	6979
354.037	18861
354.122	42791
354.207	36481
354.292	12804
354.377	5618
354.462	5031
354.547	7830
354.632	6331
354.717	7561
354.802	8077
354.887	4536
354.972	3712
355.057	2655
355.142	3006
355.227	7392
355.312	11973
355.397	28964
355.482	67647
355.567	30865
355.652	22573
355.737	26547
355.822	81935
355.907	61038
355.991	9663
356.076	4212
356.161	5400
356.246	4551
356.331	6083
356.416	23314
356.501	161316
356.585	154828
356.670	18184
356.755	12037
356.840	20026
356.924	102544
357.009	379125
357.094	126852
357.179	23961
357.263	14364
357.348	15046
357.433	13662
357.517	12636
357.602	10442
357.687	7411
357.771	8443
357.856	8817
357.941	14839
358.025	81769
358.110	366092
358.195	152396
358.279	20666
358.364	14676
358.448	56307
358.533	141771
358.617	99529
358.702	99547
358.787	34702
358.871	19155
358.956	14224
359.040	5284
359.125	5113
359.209	4361
359.294	5227
359.378	7823
359.462	14292
359.547	8100
359.631	6289
359.716	3920
359.800	4148
359.885	7709
359.969	5845
360.053	6358
360.138	6973
360.222	10053
360.306	21135
360.391	13850
360.475	17003
360.559	38785
360.644	56457
360.728	40969
360.812	85943
360.896	236889
360.981	79310
361.065	33456
361.149	10705
361.233	9615
361.318	7569
361.402	8100
361.486	8314
361.570	6705
361.654	12006
361.739	32553
361.823	156729
361.907	231651
361.991	33976
362.075	19815
362.159	41753
362.243	29380
362.327	28660
362.411	37931
362.495	19509
362.580	9425
362.664	6564
362.748	6543
362.832	9667
362.916	17538
363.000	66292
363.084	204536
363.168	281933
363.252	57422
363.336	18869
363.420	25541
363.503	71466
363.587	69626
363.671	15726
363.755	11642
363.839	18511
363.923	8361
364.007	21972
364.091	23897
364.175	33367
364.258	114249
364.342	92879
364.426	133556
364.510	70249
364.594	29653
364.677	42684
364.761	211739
364.845	136673
364.929	36434
365.013	27981
365.096	23539
365.180	28691
365.264	33599
365.347	110448
365.431	40254
365.515	10945
365.598	7417
365.682	7539
365.766	9574
365.849	10524
365.933	7429
366.017	11026
366.100	4794
366.184	4246
366.267	5900
366.351	5502
366.435	3511
366.518	3370
366.602	3267
366.685	5110
366.769	6743
366.852	10364
366.936	18615
367.019	12707
367.103	6567
367.186	10883
367.270	4788
367.353	3118
367.436	4936
367.520	4805
367.603	7458
367.687	12977
367.770	24033
367.853	15256
367.937	53221
368.020	79811
368.104	18121
368.187	18116
368.270	23424
368.353	18898
368.437	32134
368.520	70761
368.603	41272
368.687	60657
368.770	101936
368.853	22682
368.936	20634
369.020	16136
369.103	7618
369.186	3743
369.269	5510
369.352	15217
369.436	20071
369.519	12861
369.602	4523
369.685	8004
369.768	7615
369.851	6454
369.934	4114
370.018	7247
370.101	18916
370.184	14749
370.267	8687
370.350	15573
370.433	29313
370.516	112727
370.599	195188
370.682	71186
370.765	54246
370.848	71370
370.931	138519
371.014	45373
371.097	9367
371.180	7319
371.263	4715
371.346	2667
371.429	4163
371.511	5029
371.594	11521
371.677	17863
371.760	14321
371.843	20380
371.926	120235
372.009	274429
372.091	70735
372.174	53787
372.257	136191
372.340	44798
372.423	23618
372.505	23151
372.588	12270
372.671	42638
372.754	138234
372.836	61337
372.919	32834
373.002	49824
373.085	18397
373.167	19564
373.250	57751
373.332	129516
373.415	189327
373.498	404284
373.580	145693
373.663	302111
373.746	354163
373.828	62776
373.911	22530
373.993	22232
374.076	56041
374.159	49769
374.241	35842
374.324	109736
374.406	68935
374.489	118222
374.571	325868
374.654	113497
374.736	61949
374.819	201132
374.901	290755
374.983	292886
375.066	43916
375.148	16703
375.231	51758
375.313	84103
375.395	30174
375.478	9456
375.560	8858
375.643	13723
375.725	62048
375.807	265959
375.890	185562
375.972	65643
376.054	36145
376.136	56969
376.219	26459
376.301	73218
376.383	218117
376.465	73426
376.548	43022
376.630	58516
376.712	175203
376.794	72753
376.877	9041
376.959	5554
377.041	6657
377.123	10409
377.205	8722
377.287	3362
377.369	4936
377.452	6081
377.534	4253
377.616	5443
377.698	5392
377.780	3449
377.862	5017
377.944	6529
378.026	2891
378.108	4379
378.190	3675
378.272	4357
378.354	3093
378.436	2927
378.518	8086
378.600	24719
378.682	26672
378.764	73695
378.846	51791
378.928	14252
379.010	17591
379.091	9657
379.173	6336
379.255	5047
379.337	8870
379.419	38153
379.501	104590
379.583	36994
379.664	9667
379.746	26231
379.828	70349
379.910	96418
379.991	80793
380.073	12840
380.155	8267
380.237	6472
380.318	4232
380.400	5066
380.482	15686
380.564	23873
380.645	19659
380.727	18140
380.809	11053
380.890	7144
380.972	5361
381.053	6016
381.135	7544
381.217	24745
381.298	70062
381.380	31046
381.461	34299
381.543	181531
381.624	209244
381.706	33543
381.787	12987
381.869	17473
381.951	79236
382.032	320091
382.113	172985
382.195	27341
382.276	15859
382.358	48135
382.439	150600
382.521	177724
382.602	289045
382.684	109927
382.765	193146
382.846	145933
382.928	117477
383.009	59374
383.090	44657
383.172	177546
383.253	267173
383.334	123573
383.416	220343
383.497	96848
383.578	26979
383.659	43167
383.741	161382
383.822	441680
383.903	211199
383.984	124659
384.066	257121
384.147	146448
384.228	25826
384.309	19625
384.390	14321
384.471	8893
384.553	11117
384.634	16304
384.715	17409
384.796	8676
384.877	13221
384.958	65707
385.039	73326
385.120	22184
385.201	9352
385.282	12417
385.363	11411
385.444	10354
385.525	27979
385.606	116565
385.687	96371
385.768	18387
385.849	24604
385.930	137067
386.011	232622
386.092	54080
386.173	12088
386.254	9633
386.335	8549
386.416	11699
386.496	42685
386.577	64667
386.658	20620
386.739	12696
386.820	11059
386.901	8021
386.981	9864
387.062	8727
387.143	18716
387.224	71778
387.304	59269
387.385	20584
387.466	10502
387.547	12522
387.627	11898
387.708	31922
387.789	133618
387.869	161712
387.950	39004
388.031	9003
388.111	6388
388.192	15119
388.273	20541
388.353	13600
388.434	10912
388.514	30667
388.595	150627
388.676	172841
388.756	66361
388.837	64586
388.917	36768
388.998	8044
389.078	8523
389.159	8712
389.239	7873
389.320	14787
389.400	11285
389.480	28078
389.561	73701
389.641	33334
389.722	13723
389.802	20059
389.883	35011
389.963	95853
390.043	52713
390.124	16352
390.204	25558
390.284	80548
390.365	51174
390.445	70947
390.525	301075
390.605	270937
390.686	52374
390.766	15787
390.846	10150
390.927	7592
391.007	7750
391.087	9850
391.167	7558
391.247	7603
391.328	15289
391.408	16805
391.488	11592
391.568	7496
391.648	13308
391.728	16742
391.808	17395
391.888	20243
391.969	45722
392.049	66531
392.129	29037
392.209	39629
392.289	92774
392.369	47853
392.449	30652
392.529	26920
392.609	28464
392.689	40618
392.769	104768
392.849	90512
392.929	71889
393.009	150115
393.089	144686
393.169	192847
393.248	626054
393.328	2047119
393.408	2102932
393.488	636688
393.568	185450
393.648	90457
393.728	55661
393.807	42090
393.887	36095
393.967	31809
394.047	32080
394.127	37114
394.206	60044
394.286	212186
394.366	936342
394.446	966920
394.525	214697
394.605	55014
394.685	36950
394.764	48139
394.844	67683
394.924	49116
395.003	24424
395.083	20211
395.163	19248
395.242	17900
395.322	18878
395.402	15869
395.481	20936
395.561	38754
395.640	82195
395.720	77312
395.799	92851
395.879	77465
395.958	83902
396.038	313298
396.117	1229471
396.197	1294050
396.276	345370
396.356	103982
396.435	66797
396.515	60938
396.594	78842
396.673	160924
396.753	628408
396.832	1834542
396.912	1283255
396.991	292876
397.070	88596
397.150	47365
397.229	34123
397.308	37760
397.388	52401
397.467	27832
397.546	16252
397.625	13068
397.705	17295
397.784	16439
397.863	10145
397.942	9412
398.022	10107
398.101	26767
398.180	59708
398.259	27028
398.338	11415
398.417	10697
398.497	6733
398.576	8208
398.655	5624
398.734	5572
398.813	6633
398.892	25302
398.971	65250
399.050	28656
399.129	5805
399.208	4783
399.287	5013
399.366	3751
399.445	4024
399.524	5007
399.603	4332
399.682	11231
399.761	30741
399.840	78686
399.919	49247
399.998	8103
400.077	3323
400.156	3753
400.235	7028
400.313	4435
400.392	7008
400.471	37875
400.550	55010
400.629	14382
400.708	6953
400.786	5679
400.865	13162
400.944	12565
401.023	8742
401.102	2524
401.180	3456
401.259	3144
401.338	4698
401.416	7375
401.495	5289
401.574	4862
401.652	3839
401.731	6776
401.810	4450
401.888	3276
401.967	850
402.046	2672
402.124	5666
402.203	7233
402.281	4256
402.360	5382
402.438	15381
402.517	9677
402.596	4071
402.674	3740
402.753	3748
402.831	3266
402.910	5240
402.988	15614
403.066	42781
403.145	21619
403.223	15416
403.302	31998
403.380	21973
403.459	20863
403.537	7563
403.615	5079
403.694	1741
403.772	3412
403.850	2813
403.929	1757
404.007	2683
404.085	6978
404.164	5555
404.242	3617
404.320	6728
404.398	15841
404.477	49150
404.555	231381
404.633	184439
404.711	25538
404.789	6766
404.868	4093
404.946	2793
405.024	2041
405.102	2277
405.180	2429
405.258	1282
405.336	3452
405.415	2153
405.493	7095
405.571	5377
405.649	2820
405.727	2002
405.805	5473
405.883	4667
405.961	5250
406.039	5647
406.117	3866
406.195	9062
406.273	51221
406.351	183709
406.429	92922
406.507	11312
406.585	4700
406.663	6146
406.740	8361
406.818	7517
406.896	3986
406.974	5344
407.052	16487
407.130	103543
407.208	135611
407.285	24060
407.363	4879
407.441	5220
407.519	5224
407.596	8130
407.674	36148
407.752	156309
407.830	113601
407.907	18245
407.985	5894
408.063	4254
408.141	3640
408.218	5352
408.296	3819
408.373	4105
408.451	5651
408.529	5336
408.606	2642
408.684	2290
408.762	2438
408.839	1530
408.917	1797
408.994	1822
409.072	2110
409.149	2204
409.227	6204
409.304	7564
409.382	7274
409.459	7578
409.537	12153
409.614	9250
409.692	6535
409.769	6178
409.846	13235
409.924	14577
410.001	7941
410.079	5810
410.156	6009
410.233	5360
410.311	6269
410.388	4112
410.465	3696
410.543	2169
410.620	3217
410.697	4167
410.775	5962
410.852	1710
410.929	5450
411.006	6057
411.083	2916
411.161	4419
411.238	5935
411.315	3781
411.392	2797
411.469	4490
411.547	3229
411.624	829
411.701	2375
411.778	4652
411.855	12380
411.932	6272
412.009	3097
412.086	2620
412.163	3102
412.240	3155
412.317	4827
412.394	3302
412.471	2229
412.548	1866
412.625	2719
412.702	4428
412.779	7372
412.856	3746
412.933	1280
413.010	2724
413.087	8076
413.164	33184
413.241	42998
413.318	8877
413.395	5877
413.471	9418
413.548	3729
413.625	2450
413.702	3589
413.779	2753
413.855	1890
413.932	229
414.009	981
414.086	621
414.162	2436
414.239	6152
414.316	35257
414.393	72798
414.469	23102
414.546	2174
414.623	1162
414.699	2239
414.776	3410
414.853	2327
414.929	2806
415.006	2830
415.082	2903
415.159	2045
415.236	2262
415.312	3316
415.389	8185
415.465	10271
415.542	5430
415.618	3109
415.695	6616
415.771	5052
415.848	4147
415.924	3268
416.000	2518
416.077	2385
416.153	120
416.230	-326
416.306	1024
416.383	1668
416.459	1540
416.535	1004
416.612	733
416.688	1189
416.764	1430
416.841	1348
416.917	1660
416.993	1752
417.069	3698
417.146	4156
417.222	6446
417.298	3413
417.374	2713
417.451	2603
417.527	4874
417.603	4373
417.679	3718
417.755	3245
417.831	1606
417.908	1005
417.984	1807
418.060	565
418.136	10676
418.212	11501
418.288	3871
418.364	2394
418.440	3162
418.516	5190
418.592	5925
418.668	13727
418.744	21564
418.820	14769
418.896	4216
418.972	1178
419.048	2739
419.124	10580
419.200	6341
419.276	1897
419.352	741
419.428	1668
419.504	3653
419.579	4780
419.655	3482
419.731	4016
419.807	15701
419.883	27275
419.959	18800
420.034	5321
420.110	11479
420.186	46716
420.262	32885
420.337	5652
420.413	4304
420.489	2627
420.565	2761
420.640	1481
420.716	2458
420.792	957
420.867	2899
420.943	1789
421.019	6573
421.094	4622
421.170	2626
421.245	1958
421.321	3264
421.397	5064
421.472	24441
421.548	83456
421.623	45442
421.699	8009
421.774	5944
421.850	5461
421.925	10688
422.001	9158
422.076	7104
422.152	8391
422.227	14707
422.302	16110
422.378	25129
422.453	46693
422.529	124746
422.604	412194
422.679	683116
422.755	394410
422.830	116309
422.905	42886
422.981	22970
423.056	15203
423.131	11333
423.207	8833
423.282	9704
423.357	15535
423.432	10436
423.508	10140
423.583	24101
423.658	16179
423.733	6345
423.808	7188
423.883	8525
423.959	7087
424.034	6902
424.109	5623
424.184	3248
424.259	1732
424.334	2399
424.409	1635
424.484	2305
424.559	2853
424.634	2732
424.709	4583
424.784	5931
424.859	4080
424.934	7295
425.009	32553
425.084	50443
425.159	15395
425.234	3154
425.309	-168
425.384	2171
425.459	-16
425.534	1558
425.609	1847
425.683	1088
425.758	1579
425.833	1699
425.908	4279
425.983	21042
426.058	54356
426.132	20841
426.207	3057
426.282	4659
426.357	3409
426.431	2010
426.506	1807
426.581	1872
426.655	2769
426.730	1993
426.805	1879
426.879	2845
426.954	2306
427.029	9766
427.103	59695
427.178	143800
427.253	55975
427.327	6172
427.402	4088
427.476	4810
427.551	1552
427.625	2259
427.700	2186
427.774	1526
427.849	2784
427.923	1461
427.998	1927
428.072	2161
428.147	9467
428.221	52677
428.296	155202
428.370	74406
428.444	8634
428.519	6628
428.593	10560
428.667	8963
428.742	11885
428.816	18390
428.890	87138
428.965	127333
429.039	32479
429.113	14185
429.188	4121
429.262	2853
429.336	7471
429.410	23600
429.485	13550
429.559	10219
429.633	7164
429.707	3785
429.781	15861
429.855	89944
429.930	128330
430.004	52881
430.078	58082
430.152	69196
430.226	218771
430.300	203691
430.374	28340
430.448	9000
430.522	23784
430.596	57834
430.670	46452
430.744	175431
430.818	229385
430.892	41404
430.966	6131
431.040	3977
431.114	756
431.188	1706
431.262	1813
431.336	2149
431.410	7141
431.484	16718
431.557	11402
431.631	2812
431.705	4949
431.779	31190
431.853	138099
431.927	86557
432.000	10043
432.074	3197
432.148	2172
432.222	2630
432.295	1707
432.369	2077
432.443	7650
432.516	58558
432.590	146065
432.664	46094
432.737	4515
432.811	1175
432.885	483
432.958	1713
433.032	410
433.106	151
433.179	342
433.253	617
433.326	-302
433.400	-430
433.473	618
433.547	-544
433.620	1290
433.694	4204
433.767	3934
433.841	1501
433.914	93
433.988	-467
434.061	629
434.134	1289
434.208	-183
434.281	142
434.355	646
434.428	896
434.501	120
434.575	710
434.648	522
434.721	910
434.795	96
434.868	-263
434.941	-610
435.014	-2
435.088	326
435.161	1014
435.234	3953
435.307	5188
435.381	2769
435.454	3081
435.527	5412
435.600	4991
435.673	3765
435.746	2290
435.819	1289
435.892	1513
435.966	316
436.039	631
436.112	1613
436.185	30
436.258	-523
436.331	-240
436.404	-189
436.477	-217
436.550	-241
436.623	652
436.696	-458
436.769	1140
436.842	346
436.915	1316
436.987	1808
437.060	656
437.133	343
437.206	406
437.279	1217
437.352	538
437.425	27
437.498	1610
437.570	4293
437.643	3426
437.716	695
437.789	1064
437.861	1375
437.934	4495
438.007	1568
438.080	504
438.152	2154
438.225	10391
438.298	87872
438.370	225937
438.443	77821
438.516	9106
438.588	2061
438.661	1282
438.734	668
438.806	1704
438.879	2744
438.951	1721
439.024	2754
439.096	1127
439.169	572
439.241	-21
439.314	714
439.386	1941
439.459	5168
439.531	6440
439.604	2353
439.676	617
439.749	-14
439.821	473
439.893	759
439.966	913
440.038	1409
440.110	2472
440.183	1235
440.255	1393
440.327	4063
440.400	30921
440.472	124493
440.544	74653
440.617	8215
440.689	4369
440.761	4220
440.833	5573
440.905	2958
440.978	347
441.050	432
441.122	1246
441.194	533
441.266	1453
441.338	305
441.411	5244
441.483	34651
441.555	46907
441.627	8863
441.699	3573
441.771	3063
441.843	1680
441.915	718
441.987	1336
442.059	529
442.131	1254
442.203	2835
442.275	4854
442.347	4052
442.419	9844
442.491	59128
442.563	138137
442.635	52380
442.706	19810
442.778	12497
442.850	3189
442.922	806
442.994	2921
443.066	4345
443.137	4334
443.209	2848
443.281	6542
443.353	16069
443.425	76369
443.496	276338
443.568	242289
443.640	78900
443.711	14300
443.783	4932
443.855	3017
443.926	1789
443.998	2597
444.070	3009
444.141	2993
444.213	4917
444.285	6954
444.356	6319
444.428	4465
444.499	1119
444.571	948
444.642	1161
444.714	2430
444.785	5454
444.857	5525
444.928	10108
445.000	5969
445.071	7907
445.143	8472
445.214	7040
445.285	13406
445.357	41226
445.428	184291
445.500	421806
445.571	231221
445.642	110089
445.714	35270
445.785	19505
445.856	6989
445.928	7731
445.999	4552
446.070	2604
446.141	3705
446.213	4735
446.284	2523
446.355	1779
446.426	1328
446.497	1119
446.569	3761
446.640	6131
446.711	5680
446.782	1954
446.853	3991
446.924	3789
446.995	1239
447.066	2259
447.138	3365
447.209	997
447.280	-198
447.351	-461
447.422	222
447.493	928
447.564	3195
447.635	6152
447.706	1712
447.777	-298
447.847	383
447.918	-339
447.989	1843
448.060	1595
448.131	6240
448.202	6138
448.273	4773
448.344	2228
448.414	876
448.485	1018
448.556	1269
448.627	-243
448.698	984
448.768	187
448.839	607
448.910	1461
448.981	3157
449.051	1675
449.122	186
449.193	-67
449.263	290
449.334	204
449.405	3029
449.475	7002
449.546	4539
449.616	3745
449.687	2081
449.758	312
449.828	218
449.899	-95
449.969	116
450.040	402
450.110	2703
450.181	2188
450.251	1302
450.322	665
450.392	1252
450.463	646
450.533	210
450.604	361
450.674	875
450.744	407
450.815	681
450.885	917
450.955	644
451.026	135
451.096	609
451.166	335
451.237	3985
451.307	9798
451.377	3655
451.447	913
451.518	240
451.588	769
451.658	1162
451.728	2563
451.799	11090
451.869	9697
451.939	1412
452.009	363
452.079	375
452.149	434
452.219	2773
452.289	11938
452.360	7912
452.430	1137
452.500	2663
452.570	3423
452.640	6324
452.710	17666
452.780	20802
452.850	17068
452.920	14210
452.990	4525
453.060	2056
453.129	2707
453.199	4711
453.269	18420
453.339	34320
453.409	50278
453.479	50343
453.549	67406
453.619	65596
453.688	24535
453.758	4854
453.828	1876
453.898	1692
453.968	1049
454.037	557
454.087	591
454.107	577
454.168	927
454.177	953
454.247	498
454.249	517
454.316	187
454.330	552
454.386	1833
454.411	3466
454.456	5657
454.492	6434
454.525	7058
454.574	3814
454.595	2457
454.655	939
454.665	719
454.734	2917
454.736	3036
454.804	4925
454.817	6749
454.873	12707
454.898	13398
454.943	13775
454.979	10421
455.013	7655
455.060	4742
455.082	3886
455.141	4478
455.152	4470
455.221	11863
455.222	12111
455.291	21199
455.303	23162
455.360	29728
455.384	43288
455.430	64709
455.465	49185
455.499	34948
455.546	21150
455.569	14409
455.627	8356
455.638	7395
455.707	2606
455.708	2632
455.777	2120
455.789	2092
455.846	1690
455.869	1536
455.916	1226
455.950	1376
455.985	1484
456.031	1633
456.054	1616
456.112	1920
456.124	2011
456.193	1520
456.193	1492
456.262	2615
456.274	2859
456.332	3740
456.355	4277
456.401	4467
456.436	3690
456.470	2915
456.516	2336
456.540	2196
456.597	1185
456.609	920
456.678	1220
456.678	1198
456.747	1358
456.759	1281
456.817	1317
456.840	1455
456.886	1213
456.920	1486
456.955	2065
457.001	2336
457.024	2707
457.082	3603
457.093	3803
457.162	6756
457.163	6811
457.232	7389
457.243	7137
457.301	4678
457.324	3587
457.370	2543
457.405	2295
457.439	2375
457.485	2828
457.508	2977
457.566	3210
457.577	3322
457.646	4934
457.647	4970
457.715	8433
457.727	9308
457.784	15852
457.808	20845
457.853	26498
457.889	29552
457.922	27745
457.969	17902
457.991	18525
458.050	25086
458.060	26274
458.129	44266
458.130	44798
458.198	42506
458.211	38121
458.267	20111
458.292	13622
458.336	9132
458.372	8802
458.405	12618
458.453	19501
458.474	25140
458.533	45886
458.543	47425
458.611	73067
458.614	73375
458.680	40981
458.694	31689
458.749	15150
458.775	10908
458.818	6594
458.855	5695
458.887	5351
458.936	4348
458.955	4027
459.016	4502
459.024	4549
459.093	4633
459.097	4652
459.162	4893
459.177	4952
459.230	5748
459.257	6464
459.299	6195
459.338	5506
459.368	5542
459.418	6036
459.437	5873
459.499	4766
459.505	4743
459.574	4930
459.579	4937
459.643	3977
459.659	3922
459.711	4745
459.740	5271
459.780	5482
459.820	5337
459.849	5403
459.900	5407
459.917	5204
459.981	5430
459.986	5418
460.054	4195
460.061	4121
460.123	5036
460.141	5526
460.191	7931
460.222	9193
460.260	9405
460.302	9872
460.328	8913
460.382	6764
460.397	6838
460.462	6520
460.465	6681
460.534	11611
460.543	12229
460.602	37210
460.623	46776
460.671	73559
460.703	98596
460.739	92517
460.783	74305
460.808	59810
460.864	12861
460.876	9825
460.944	6205
460.945	6171
461.013	6555
461.024	6580
461.081	6813
461.104	7282
461.150	6612
461.184	5967
461.218	6221
461.264	6205
461.286	6128
461.345	5979
461.355	5876
461.423	5440
461.425	5424
461.491	5314
461.505	5431
461.559	10316
461.585	12560
461.628	20818
461.665	28720
461.696	31437
461.745	37096
461.764	31897
461.825	10345
461.832	10064
461.901	7792
461.905	7770
461.969	6619
461.985	6285
462.037	6007
462.065	5852
462.105	6619
462.145	7739
462.173	10840
462.225	16246
462.241	17755
462.305	25090
462.310	24425
462.378	12912
462.385	11499
462.446	8790
462.465	7970
462.514	7400
462.545	7496
462.582	7144
462.625	6511
462.650	6034
462.705	4954
462.718	5286
462.785	6847
462.786	6886
462.854	9528
462.865	9905
462.922	12515
462.945	13862
462.990	10899
463.025	7832
463.058	6962
463.104	5721
463.126	5621
463.184	5740
463.194	5957
463.262	7500
463.264	7552
463.330	6915
463.344	6825
463.398	7956
463.424	8187
463.466	7638
463.504	7579
463.533	7928
463.583	8058
463.601	8311
463.663	9312
463.669	9612
463.737	13163
463.743	13497
463.805	18547
463.823	19948
463.873	29363
463.903	35286
463.940	36859
463.982	38642
464.008	31070
464.062	13875
464.076	12834
464.142	7132
464.144	7134
464.211	7820
464.221	7994
464.279	8580
464.301	8733
464.347	9228
464.381	9544
464.414	9890
464.461	10409
464.482	10999
464.540	12636
464.550	12228
464.617	9053
464.620	8931
464.685	12544
464.699	13349
464.753	16526
464.779	18103
464.820	19328
464.859	20483
464.888	19545
464.938	17604
464.956	17773
465.018	18203
465.023	17920
465.091	13910
465.098	13487
465.158	13455
465.177	13425
465.226	13753
465.257	13933
465.293	15096
465.336	16423
465.361	17823
465.416	20927
465.428	21793
465.495	26295
465.496	26405
465.563	36822
465.575	38618
465.631	45804
465.654	48931
465.698	32194
465.734	17619
465.765	16080
465.813	13924
465.833	13918
465.893	14096
465.900	14054
465.968	13481
465.972	13415
466.035	13525
466.052	13552
466.102	14122
466.131	14351
466.170	14555
466.210	14771
466.237	15287
466.290	16202
466.304	16324
466.369	16660
466.372	16725
466.439	17732
466.449	17845
466.506	19176
466.528	19648
466.573	25759
466.607	30274
466.641	42501
466.687	59326
466.708	65026
466.766	80672
466.775	75451
466.842	34838
466.845	32839
466.909	24566
466.925	22595
466.977	21004
467.004	20131
467.044	21150
467.083	22072
467.111	24279
467.163	28312
467.178	29357
467.242	33434
467.245	33282
467.312	28715
467.321	28051
467.379	27234
467.400	26852
467.446	26794
467.480	26654
467.559	25506
467.638	22142
467.717	23540
467.796	26456
467.875	30353
467.955	26429
468.034	31628
468.113	64831
468.192	91213
468.271	32887
468.350	24895
468.429	28112
468.508	30741
468.588	24490
468.667	22082
468.746	23211
468.825	21512
468.904	19261
468.983	21617
469.062	31025
469.141	36072
469.220	19381
469.299	18368
469.378	20931
469.456	27140
469.535	24410
469.614	23309
469.693	22179
469.772	27658
469.851	33584
469.930	27436
470.009	21541
470.088	21324
470.166	21037
470.245	25312
470.324	27875
470.403	22710
470.482	21584
470.560	19972
470.639	22613
470.718	27686
470.797	20627
470.875	23545
470.954	29922
471.033	32139
471.111	16767
471.190	17067
471.269	15576
471.347	16842
471.426	16971
471.505	19850
471.583	23353
471.662	21233
471.740	17719
471.819	19420
471.898	16525
471.976	17817
472.055	17875
472.133	19459
472.212	24866
472.290	25143
472.369	17407
472.447	17316
472.526	14689
472.604	18010
472.683	18522
472.761	19970
472.839	18820
472.918	18027
472.996	16505
473.075	19481
473.153	18754
473.231	17140
473.310	20371
473.388	20634
473.466	17549
473.545	23107
473.623	32182
473.701	31086
473.780	17831
473.858	15942
473.936	20031
474.014	18618
474.093	20096
474.171	25902
474.249	33610
474.327	24419
474.405	15070
474.484	16251
474.562	17378
474.640	17155
474.718	17761
474.796	17499
474.874	15707
474.952	14939
475.030	15286
475.108	15264
475.187	17819
475.265	18328
475.343	20486
475.421	24279
475.499	15026
475.577	17458
475.655	19721
475.733	37125
475.811	61542
475.889	57347
475.966	41646
476.044	15753
476.122	17050
476.200	21289
476.278	17925
476.356	14957
476.434	15390
476.512	17539
476.590	20036
476.667	18192
476.745	13307
476.823	16745
476.901	15176
476.979	14772
477.056	14114
477.134	16786
477.212	16268
477.290	15066
477.367	12370
477.445	13037
477.523	12454
477.601	13122
477.678	12409
477.756	16299
477.834	17355
477.911	13145
477.989	13242
478.066	12271
478.144	13219
478.222	15704
478.299	19893
478.377	20738
478.454	11708
478.532	11221
478.609	12776
478.687	15605
478.764	11507
478.842	14788
478.919	16266
478.997	15276
479.074	10994
479.152	14937
479.229	17574
479.307	12962
479.384	10116
479.461	10813
479.539	10429
479.616	13712
479.694	11125
479.771	12930
479.848	13368
479.926	17280
480.003	20770
480.080	13343
480.157	10020
480.235	11240
480.312	11236
480.389	12093
480.467	20690
480.544	27006
480.621	14317
480.698	13229
480.775	14662
480.853	15891
480.930	11566
481.007	12180
481.084	14531
481.161	18367
481.238	15393
481.315	11074
481.392	9836
481.470	11419
481.547	11348
481.624	11589
481.701	10456
481.778	11529
481.855	12886
481.932	19056
482.009	31339
482.086	23947
482.163	13130
482.240	16592
482.317	25144
482.393	20465
482.470	12222
482.547	12196
482.624	11301
482.701	11514
482.778	11350
482.855	10285
482.932	9169
483.009	9207
483.085	12157
483.162	15816
483.239	15710
483.316	12037
483.393	12419
483.469	11979
483.546	12825
483.623	15022
483.699	11714
483.776	12725
483.853	14060
483.930	19785
484.006	50697
484.083	87051
484.160	58522
484.236	84846
484.313	65732
484.389	48188
484.466	41526
484.543	39598
484.619	42077
484.696	45301
484.772	44014
484.849	44927
484.925	37317
485.002	37658
485.078	38383
485.155	37843
485.231	34192
485.308	34301
485.384	35969
485.461	40804
485.537	61414
485.614	76477
485.690	37040
485.766	33985
485.843	37185
485.919	56811
485.995	61827
486.072	33048
486.148	30702
486.224	29732
486.301	32659
486.377	36859
486.453	34408
486.530	36006
486.606	47860
486.682	55382
486.758	60440
486.835	68500
486.911	55372
486.987	84466
487.063	111498
487.139	153488
487.215	104743
487.292	49764
487.368	37828
487.444	41867
487.520	46884
487.596	52131
487.672	73278
487.748	192303
487.824	297467
487.900	106067
487.976	43079
488.052	38049
488.128	42094
488.204	38869
488.280	33103
488.356	38364
488.432	68048
488.508	106220
488.584	46930
488.660	34396
488.736	33824
488.812	36938
488.888	45945
488.964	61670
489.039	138224
489.115	229964
489.191	138884
489.267	36621
489.343	30061
489.418	27235
489.494	24808
489.570	23907
489.646	26682
489.722	26316
489.797	27015
489.873	36988
489.949	75036
490.024	71958
490.100	25141
490.176	26399
490.251	33380
490.327	49008
490.403	27052
490.478	23154
490.554	19405
490.629	21620
490.705	20246
490.781	23953
490.856	22770
490.932	29279
491.007	29353
491.083	28261
491.158	23153
491.234	28800
491.309	54617
491.385	63370
491.460	24090
491.536	25280
491.611	24152
491.686	28333
491.762	39667
491.837	89571
491.913	150424
491.988	209221
492.063	287781
492.139	69924
492.214	32555
492.289	20312
492.365	20270
492.440	25724
492.515	22484
492.590	22743
492.666	16430
492.741	25421
492.816	35414
492.891	23769
492.967	18480
493.042	17965
493.117	18550
493.192	20357
493.267	34266
493.342	116511
493.418	169917
493.493	35527
493.568	14835
493.643	15644
493.718	20208
493.793	32912
493.868	44398
493.943	27385
494.018	17900
494.093	14601
494.168	15308
494.243	15249
494.318	12434
494.393	12467
494.468	13271
494.543	13833
494.618	18741
494.693	15847
494.768	12881
494.842	14933
494.917	11189
494.992	14495
495.067	13472
495.142	12695
495.217	14890
495.292	16739
495.366	19479
495.441	25769
495.516	32472
495.591	45839
495.665	183094
495.740	488261
495.815	214793
495.890	26317
495.964	14459
496.039	18687
496.114	15308
496.188	19995
496.263	19796
496.338	14100
496.412	16450
496.487	21842
496.561	25458
496.636	29052
496.710	18471
496.785	20888
496.860	24473
496.934	19129
497.009	19570
497.083	18043
497.158	16351
497.232	21234
497.307	28155
497.381	22751
497.455	25052
497.530	35431
497.604	26254
497.679	26916
497.753	44311
497.827	63048
497.902	59285
497.976	63094
498.050	126405
498.125	525994
498.199	612924
498.273	117466
498.348	78447
498.422	58438
498.496	51531
498.570	45246
498.645	29848
498.719	29538
498.793	35990
498.867	53216
498.941	67836
499.016	189872
499.090	570750
499.164	240326
499.238	24665
499.312	19606
499.386	26640
499.460	24458
499.534	20449
499.609	25401
499.683	37727
499.757	39625
499.831	75732
499.905	346259
499.979	371935
500.053	55084
500.127	54675
500.201	49539
500.275	24246
500.349	22375
500.422	25358
500.496	42822
500.570	99002
500.644	201992
500.718	376524
500.792	102086
500.866	22043
500.940	26468
501.013	23166
501.087	24065
501.161	45089
501.235	58181
501.309	96775
501.382	291358
501.456	294957
501.530	63116
501.603	91514
501.677	42826
501.751	16144
501.825	23512
501.898	36844
501.972	111654
502.046	81337
502.119	22150
502.193	50643
502.266	126736
502.340	67356
502.413	49150
502.487	106481
502.561	67448
502.634	23640
502.708	21602
502.781	18715
502.855	15313
502.928	9386
503.002	11027
503.075	9004
503.149	11955
503.222	12206
503.295	14617
503.369	17808
503.442	24136
503.516	76396
503.589	218232
503.662	154315
503.736	44842
503.809	97219
503.882	89815
503.956	113916
504.029	126039
504.102	114169
504.175	160324
504.249	55088
504.322	25193
504.395	18993
504.468	13841
504.542	12360
504.615	9670
504.688	10591
504.761	9183
504.834	14769
504.907	20647
504.980	39893
505.053	18504
505.127	20435
505.200	24716
505.273	18679
505.346	13214
505.419	8737
505.492	8468
505.565	5470
505.638	7824
505.711	6524
505.784	7630
505.857	7197
505.930	8852
506.003	6995
506.076	10937
506.149	12679
506.221	16151
506.294	15910
506.367	38701
506.440	153297
506.513	100388
506.586	20340
506.659	12901
506.731	10944
506.804	14901
506.877	25383
506.950	15093
507.022	8835
507.095	10973
507.168	18158
507.241	13433
507.313	8790
507.386	12918
507.459	23817
507.531	13930
507.604	9095
507.677	9306
507.749	7001
507.822	15232
507.894	33529
507.967	40608
508.040	20558
508.112	16096
508.185	13929
508.257	14302
508.330	24038
508.402	15351
508.475	12350
508.547	14611
508.620	13992
508.692	21378
508.765	15981
508.837	11838
508.909	11245
508.982	12046
509.054	15486
509.127	13886
509.199	10049
509.271	9465
509.344	10857
509.416	11309
509.488	9487
509.560	11415
509.633	13430
509.705	16969
509.777	15311
509.849	24864
509.922	15336
509.994	11552
510.066	10926
510.138	13141
510.210	30359
510.283	26782
510.355	20434
510.427	19680
510.499	17449
510.571	17137
510.643	16172
510.715	29671
510.787	27645
510.859	17973
510.931	20483
511.003	29202
511.076	26370
511.148	15034
511.219	13493
511.291	21764
511.363	26672
511.435	15622
511.507	11555
511.579	13855
511.651	14274
511.723	12635
511.795	12015
511.867	13728
511.939	15849
512.010	31959
512.082	30049
512.154	16755
512.226	16226
512.298	24686
512.369	38418
512.441	30931
512.513	33014
512.585	23509
512.656	21081
512.728	23903
512.800	18237
512.871	19164
512.943	17910
513.015	15895
513.086	17955
513.158	20471
513.230	21160
513.301	35952
513.373	45368
513.444	23800
513.516	16106
513.588	18234
513.659	18693
513.731	28794
513.802	22963
513.874	49389
513.945	101215
514.016	34011
514.088	16678
514.159	20309
514.231	27074
514.302	37441
514.374	24894
514.445	21233
514.516	37093
514.588	30994
514.659	19155
514.730	33913
514.802	32699
514.873	25709
514.944	23253
515.016	21190
515.087	23118
515.158	26162
515.229	36267
515.301	23454
515.372	30779
515.443	19786
515.514	15529
515.585	13876
515.656	15975
515.728	14546
515.799	13657
515.870	16863
515.941	16677
516.012	17249
516.083	23996
516.154	27936
516.225	41430
516.296	36998
516.367	25537
516.438	27826
516.509	33656
516.580	43703
516.651	100819
516.722	401545
516.793	237773
516.864	47576
516.935	41501
517.006	41285
517.077	54385
517.148	121533
517.219	313593
517.289	549261
517.360	206617
517.431	77148
517.502	20749
517.573	20720
517.643	19115
517.714	23649
517.785	24055
517.856	23760
517.926	28167
517.997	33052
518.068	38712
518.138	49178
518.209	61223
518.280	198679
518.350	838040
518.421	387273
518.492	48530
518.562	33826
518.633	34685
518.703	36402
518.774	63810
518.845	171980
518.915	191076
518.986	61101
519.056	41634
519.127	73527
519.197	106485
519.268	194778
519.338	125833
519.408	33239
519.479	44730
519.549	36839
519.620	22010
519.690	15501
519.760	15331
519.831	17551
519.901	17516
519.971	14008
520.042	13591
520.112	17148
520.182	22206
520.253	28110
520.323	14888
520.393	14815
520.463	18678
520.534	13099
520.604	21860
520.674	18125
520.744	17658
520.814	27354
520.885	32098
520.955	48528
521.025	195008
521.095	92768
521.165	17533
521.235	15741
521.305	12960
521.375	13541
521.445	16227
521.515	26353
521.585	28188
521.655	27776
521.725	22858
521.795	20083
521.865	11466
521.935	19905
522.005	18004
522.075	12619
522.145	14607
522.215	15429
522.285	22555
522.355	29524
522.424	56569
522.494	53904
522.564	30278
522.634	64448
522.704	211509
522.774	90447
522.843	18436
522.913	18404
522.983	25726
523.053	19529
523.122	17995
523.192	26851
523.262	113193
523.331	125773
523.401	21918
523.471	12375
523.540	13283
523.610	10203
523.680	9118
523.749	9085
523.819	12802
523.888	14013
523.958	10648
524.027	11173
524.097	10294
524.166	11215
524.236	14593
524.305	15259
524.375	11060
524.444	9467
524.514	11943
524.583	11403
524.653	13581
524.722	16293
524.791	10718
524.861	12298
524.930	8673
524.999	11302
525.069	18926
525.138	13991
525.207	14759
525.277	12398
525.346	12249
525.415	12323
525.484	11283
525.554	14021
525.623	16045
525.692	15829
525.761	17210
525.830	19403
525.900	23295
525.969	35964
526.038	57368
526.107	106091
526.176	345110
526.245	319384
526.314	102855
526.383	173681
526.452	255000
526.522	399244
526.591	479142
526.660	153740
526.729	77223
526.797	73406
526.867	133748
526.935	598374
527.004	1057539
527.073	648628
527.142	62090
527.211	24924
527.280	22713
527.349	24846
527.418	11226
527.487	13076
527.555	9265
527.624	9098
527.693	8042
527.762	10252
527.831	7262
527.899	9765
527.968	8186
528.037	8599
528.106	14181
528.174	33040
528.243	23695
528.312	33136
528.380	53172
528.449	14869
528.518	9739
528.586	6344
528.655	6892
528.723	6821
528.792	6167
528.861	8008
528.929	5548
528.998	7967
529.066	5499
529.135	6142
529.203	5484
529.272	5815
529.340	6742
529.409	7587
529.477	6012
529.545	8571
529.614	11312
529.682	9432
529.751	13736
529.819	13157
529.887	9936
529.956	6136
530.024	8661
530.092	5614
530.161	9787
530.229	24242
530.297	11449
530.365	7184
530.434	5099
530.502	4940
530.570	5281
530.638	4514
530.707	8057
530.775	10122
530.843	4836
530.911	6567
530.979	5053
531.047	5631
531.115	6207
531.183	7276
531.252	6385
531.320	6203
531.388	4898
531.456	6344
531.524	3834
531.592	7490
531.660	9601
531.728	6317
531.796	5123
531.864	6819
531.932	6937
532.000	7463
532.067	8889
532.135	10109
532.203	12793
532.271	12937
532.339	25398
532.407	92626
532.475	59241
532.542	21539
532.610	22358
532.678	29455
532.746	128306
532.814	393070
532.881	103212
532.949	16331
533.017	11559
533.084	7894
533.152	6647
533.220	8069
533.287	10251
533.355	8266
533.423	6602
533.490	6778
533.558	6260
533.625	8734
533.693	10480
533.761	9876
533.828	9317
533.896	10041
533.963	25636
534.031	32913
534.098	43252
534.166	21560
534.233	9157
534.300	9690
534.368	10627
534.435	8693
534.503	9663
534.570	11264
534.637	12316
534.705	15600
534.772	18797
534.840	29807
534.907	142763
534.974	232605
535.041	32060
535.109	15684
535.176	9128
535.243	9178
535.310	9911
535.378	10221
535.445	7700
535.512	8370
535.579	7435
535.646	7226
535.714	8364
535.781	11578
535.848	10863
535.915	11620
535.982	9267
536.049	10075
536.116	11333
536.183	9527
536.250	9891
536.317	11991
536.384	15057
536.451	28534
536.518	31045
536.585	17649
536.652	21671
536.719	39472
536.786	32471
536.853	21697
536.920	30538
536.987	59973
537.053	50404
537.120	174740
537.187	174306
537.254	19407
537.321	12153
537.388	13432
537.454	8367
537.521	9418
537.588	8381
537.654	12322
537.721	14018
537.788	13520
537.855	10574
537.921	12293
537.988	12184
538.055	13042
538.121	12043
538.188	14715
538.254	23958
538.321	63678
538.388	39960
538.454	14590
538.521	12457
538.587	10768
538.654	9453
538.720	9847
538.787	9855
538.853	10956
538.920	16328
538.986	16853
539.053	12687
539.119	14561
539.185	14306
539.252	17133
539.318	31894
539.385	22729
539.451	17176
539.517	18914
539.583	19046
539.650	42779
539.716	135086
539.782	41799
539.849	14287
539.915	14400
539.981	14897
540.047	21698
540.114	18077
540.180	18190
540.246	16157
540.312	25499
540.378	58317
540.444	65588
540.510	48407
540.576	155335
540.643	54249
540.709	14142
540.775	12071
540.841	12235
540.907	16899
540.973	25326
541.039	28353
541.105	38017
541.171	17826
541.237	14491
541.303	14520
541.369	18540
541.435	24796
541.500	56637
541.566	35355
541.632	13657
541.698	10659
541.764	11844
541.830	10955
541.896	11117
541.961	11618
542.027	12316
542.093	12733
542.159	14475
542.224	15798
542.290	27116
542.356	49467
542.421	68865
542.487	25760
542.553	16076
542.618	16498
542.684	14958
542.750	14389
542.815	17754
542.881	30081
542.947	126977
543.012	104741
543.078	15165
543.143	12082
543.209	14507
543.274	13816
543.340	17902
543.405	41812
543.471	80601
543.536	20112
543.602	12859
543.667	11188
543.732	11411
543.798	9774
543.863	11859
543.928	9884
543.994	9609
544.059	10487
544.124	11782
544.190	11479
544.255	13002
544.320	13391
544.386	15062
544.451	23545
544.516	31364
544.581	25035
544.646	74144
544.712	135953
544.777	28102
544.842	15871
544.907	17017
544.972	14028
545.037	13619
545.102	14749
545.168	15095
545.233	16999
545.298	19097
545.363	21563
545.428	25165
545.493	44444
545.558	112810
545.623	45302
545.688	17141
545.753	15939
545.818	15259
545.883	15795
545.947	15637
546.012	17125
546.077	17139
546.142	18063
546.207	18969
546.272	27987
546.337	31396
546.401	21434
546.466	19074
546.531	17178
546.596	20893
546.661	21896
546.725	20260
546.790	17446
546.855	19632
546.919	18533
546.984	21913
547.049	22091
547.113	28243
547.178	26541
547.243	31167
547.307	36202
547.372	42838
547.436	43970
547.501	39070
547.565	41084
547.630	46918
547.695	46674
547.759	43805
547.823	40703
547.888	37257
547.952	37064
548.017	40443
548.081	45810
548.146	49914
548.210	46241
548.274	41872
548.339	40577
548.403	38985
548.468	35137
548.532	34742
548.596	36660
548.660	36148
548.725	41699
548.789	49047
548.853	48685
548.917	40894
548.982	45560
549.046	45316
549.110	33376
549.174	33143
549.238	36561
549.303	39399
549.367	42149
549.431	40772
549.495	37329
549.559	37584
549.623	42598
549.687	48448
549.751	59215
549.815	57716
549.879	53885
549.943	50507
550.007	53855
550.071	54931
550.135	56471
550.199	50475
550.263	47737
550.327	46073
550.391	53967
550.455	53381
550.519	51260
550.582	56591
550.646	69817
550.710	74149
550.774	61260
550.838	62509
550.901	64210
550.965	69831
551.029	71324
551.093	78375
551.156	90619
551.220	128370
551.284	168637
551.347	107070
551.411	107263
551.475	119600
551.538	68378
551.602	62396
551.666	56692
551.729	52340
551.793	51048
551.856	50914
551.920	49747
551.983	49862
552.047	48926
552.110	49479
552.174	49465
552.237	50382
552.301	46555
552.364	44735
552.428	42981
552.491	45193
552.554	47754
552.618	46758
552.681	47344
552.745	47141
552.808	54727
552.871	65699
552.934	54030
552.998	47225
553.061	47352
553.124	45560
553.187	43910
553.251	45978
553.314	47183
553.377	47194
553.440	53756
553.503	81252
553.567	112925
553.630	55684
553.693	46322
553.756	47192
553.819	43957
553.882	43020
553.945	43347
554.008	44011
554.071	43219
554.134	43351
554.197	40413
554.260	39725
554.323	43539
554.386	43170
554.449	44077
554.512	43136
554.575	39349
554.638	41330
554.701	40699
554.764	40178
554.827	39080
554.889	36599
554.952	33699
555.015	34794
555.078	34272
555.141	36397
555.203	33871
555.266	34662
555.329	35801
555.391	34662
555.454	36085
555.517	37184
555.580	32322
555.642	30610
555.705	30694
555.768	32541
555.830	30988
555.893	27565
555.955	27619
556.018	28679
556.080	28127
556.143	28421
556.206	28322
556.268	30010
556.330	30115
556.393	29644
556.455	27795
556.518	35008
556.580	37881
556.643	26092
556.705	24164
556.767	24729
556.830	25661
556.892	28647
556.955	45550
557.017	35405
557.079	24816
557.142	24095
557.204	29334
557.266	58717
557.328	52608
557.391	22607
557.453	20286
557.515	21680
557.577	26999
557.639	31769
557.701	22278
557.764	21220
557.826	23577
557.888	26179
557.950	27835
558.012	31057
558.074	38232
558.136	88594
558.198	262521
558.260	106137
558.322	35357
558.384	37676
558.446	43615
558.508	53545
558.570	67781
558.632	105917
558.694	155969
558.756	157581
558.818	464377
558.880	1381018
558.942	470638
559.003	282039
559.065	157160
559.127	56519
559.189	54794
559.251	61465
559.312	83941
559.374	205232
559.436	813343
559.498	464121
559.559	69692
559.621	54827
559.683	58759
559.744	93217
559.806	330746
559.868	599592
559.929	116501
559.991	54294
560.052	76932
560.114	242888
560.176	172568
560.237	127055
560.299	250501
560.360	60226
560.422	20464
560.483	16927
560.545	15083
560.606	14895
560.667	12454
560.729	12846
560.790	11520
560.852	13436
560.913	12276
560.974	11998
561.036	12074
561.097	13313
561.158	12203
561.220	14797
561.281	14208
561.342	15398
561.403	17794
561.465	24037
561.526	67012
561.587	107101
561.648	25495
561.709	14002
561.771	13479
561.832	12470
561.893	11639
561.954	10913
562.015	11139
562.076	11371
562.137	11279
562.198	11066
562.259	11406
562.320	11832
562.381	13602
562.442	24513
562.503	18207
562.564	11175
562.625	10651
562.686	10579
562.747	10497
562.808	11703
562.869	9968
562.930	12441
562.991	11542
563.051	12202
563.112	10118
563.173	10427
563.234	9893
563.294	10400
563.355	11035
563.416	12272
563.477	11572
563.537	11721
563.598	11103
563.659	11171
563.720	11966
563.780	11799
563.841	12873
563.901	10483
563.962	10126
564.023	10986
564.083	11156
564.144	12548
564.204	10849
564.265	10966
564.325	12695
564.386	26326
564.446	26243
564.507	11401
564.567	9939
564.628	10472
564.688	9080
564.749	8799
564.809	11406
564.869	15548
564.930	10627
564.990	11199
565.050	9041
565.111	10228
565.171	9618
565.231	10577
565.292	10171
565.352	9471
565.412	10417
565.472	12158
565.532	13875
565.593	10986
565.653	9423
565.713	10303
565.773	12105
565.833	16384
565.893	25069
565.953	13305
566.013	10263
566.074	11950
566.134	14660
566.194	25102
566.254	30270
566.314	18321
566.374	11515
566.434	10921
566.494	10707
566.554	11268
566.614	10903
566.673	12411
566.733	12752
566.793	13129
566.853	13082
566.913	13171
566.973	13631
567.033	13858
567.092	13525
567.152	13401
567.212	13530
567.272	14756
567.331	14841
567.391	15287
567.451	16691
567.511	23867
567.570	23332
567.630	15447
567.690	14341
567.749	14653
567.809	16194
567.868	18329
567.928	21216
567.988	25096
568.047	26774
568.107	32612
568.166	46799
568.226	79197
568.285	116484
568.345	91858
568.404	64468
568.464	53398
568.523	46844
568.582	50289
568.642	54882
568.701	70619
568.761	111807
568.820	200584
568.879	187329
568.939	121808
568.998	78880
569.057	56477
569.116	42707
569.176	33478
569.235	26505
569.294	24018
569.353	21045
569.413	19428
569.472	16753
569.531	15327
569.590	13804
569.649	13859
569.708	12093
569.767	12502
569.827	13410
569.886	12993
569.945	10594
570.004	11889
570.063	11346
570.122	13174
570.181	13238
570.240	13643
570.299	12776
570.358	12244
570.417	9909
570.475	10500
570.534	11102
570.593	12695
570.652	10977
570.711	11319
570.770	10827
570.829	14296
570.887	14272
570.946	16154
571.005	9978
571.064	9738
571.122	10135
571.181	12286
571.240	9606
571.299	9151
571.357	9363
571.416	11004
571.475	11131
571.533	13255
571.592	9398
571.650	9752
571.709	9632
571.768	11020
571.826	9198
571.885	8484
571.943	7057
572.002	9031
572.060	7936
572.119	7957
572.177	6571
572.236	7227
572.294	7564
572.352	7388
572.411	7671
572.469	6750
572.528	5892
572.586	7264
572.644	7905
572.703	10340
572.761	7174
572.819	7356
572.877	5952
572.936	7515
572.994	6833
573.052	7302
573.110	6620
573.169	9178
573.227	6757
573.285	7457
573.343	6266
573.401	7240
573.459	7206
573.517	7291
573.576	8281
573.634	7681
573.692	7576
573.750	7132
573.808	6092
573.866	6825
573.924	10101
573.982	11080
574.040	6956
574.098	7569
574.155	6666
574.213	7281
574.271	6651
574.329	8236
574.387	5655
574.445	6675
574.503	5835
574.560	4693
574.618	4682
574.676	6841
574.734	5333
574.792	6561
574.849	5481
574.907	5285
574.965	5453
575.022	5559
575.080	4569
575.138	5515
575.195	5963
575.253	7104
575.311	9411
575.368	6252
575.426	5278
575.483	6417
575.541	6320
575.598	6178
575.656	5782
575.713	7312
575.771	5701
575.828	6264
575.886	5395
575.943	6920
576.001	5726
576.058	6957
576.115	6366
576.173	9684
576.230	10476
576.287	14484
576.345	10328
576.402	7602
576.459	6238
576.517	6297
576.574	7390
576.631	9219
576.688	6940
576.746	5722
576.803	5348
576.860	6382
576.917	6465
576.974	6698
577.031	5691
577.089	6140
577.146	5685
577.203	6731
577.260	6290
577.317	7520
577.374	9178
577.431	7404
577.488	7349
577.545	6174
577.602	5748
577.659	6590
577.716	5534
577.773	6853
577.830	5188
577.886	5577
577.943	5109
578.000	5324
578.057	6355
578.114	6084
578.171	6275
578.227	7468
578.284	6157
578.341	6213
578.398	5787
578.454	6692
578.511	7620
578.568	9271
578.625	7149
578.681	6278
578.738	5039
578.794	6260
578.851	4964
578.908	5521
578.964	5898
579.021	6099
579.077	4500
579.134	4921
579.190	4554
579.247	5914
579.303	4504
579.360	5313
579.416	4553
579.473	4069
579.529	4651
579.586	5198
579.642	4735
579.698	5271
579.755	6259
579.811	6464
579.867	5691
579.924	5806
579.980	4904
580.036	6101
580.093	5252
580.149	7308
580.205	6558
580.261	7199
580.317	5821
580.374	7739
580.430	9041
580.486	8026
580.542	6323
580.598	6989
580.619	6653
580.654	6073
580.692	5967
580.710	5925
580.765	6061
580.767	6070
580.823	5386
580.838	5629
580.879	6297
580.911	6681
580.935	6968
580.984	5283
580.991	5062
581.047	7363
581.057	6985
581.103	5304
581.130	5654
581.159	6013
581.203	5591
581.215	5489
581.270	6542
581.276	6417
581.326	5276
581.349	5345
581.382	5391
581.422	5457
581.438	5515
581.494	6009
581.494	6009
581.550	6318
581.567	6476
581.606	6808
581.640	6349
581.661	6078
581.713	6714
581.717	6767
581.773	5181
581.786	5304
581.829	5805
581.859	5663
581.885	5550
581.932	5840
581.940	5869
581.996	6351
582.004	6328
582.052	6264
582.077	5939
582.107	5571
582.150	5950
582.163	6063
582.219	6108
582.223	6100
582.274	6033
582.296	5978
582.330	5931
582.368	6142
582.386	6264
582.441	5696
582.441	5695
582.497	6293
582.514	6065
582.552	5868
582.587	6381
582.608	6589
582.659	5579
582.663	5495
582.719	6327
582.732	6195
582.774	5941
582.805	6135
582.830	6239
582.877	6252
582.885	6255
582.941	6473
582.950	6396
582.996	5941
583.023	6136
583.052	6632
583.095	6768
583.107	6715
583.162	7471
583.168	7441
583.218	6945
583.240	7064
583.273	7369
583.313	6275
583.328	5916
583.384	6574
583.385	6573
583.439	6050
583.458	6243
583.494	6887
583.531	6141
583.549	5751
583.603	6442
583.605	6459
583.660	5910
583.676	6182
583.715	6996
583.748	7011
583.770	6987
583.820	7382
583.825	7400
583.881	6407
583.893	6398
583.936	6542
583.965	6342
583.991	6163
584.038	7044
584.046	7215
584.101	7541
584.110	7453
584.156	6803
584.183	6917
584.211	7117
584.255	6983
584.266	6934
584.321	6674
584.328	6779
584.376	7845
584.400	7830
584.431	7784
584.472	7635
584.486	7523
584.541	7669
584.545	7686
584.596	7710
584.617	7570
584.651	7876
584.689	8796
584.706	8993
584.761	8709
584.762	8712
584.816	9345
584.834	9239
584.871	8893
584.906	9421
584.926	9708
584.978	9334
584.980	9326
585.035	10976
585.051	11133
585.090	11727
585.123	12775
585.145	13618
585.195	14872
585.200	15021
585.254	18019
585.267	18993
585.309	22522
585.340	25908
585.364	28134
585.412	28146
585.419	28146
585.473	30758
585.484	31596
585.528	38109
585.556	46472
585.583	64106
585.628	105328
585.637	121248
585.692	265904
585.700	293877
585.747	392134
585.772	328449
585.801	200436
585.845	63287
585.856	46692
585.910	26002
585.917	24026
585.965	19819
585.989	18434
586.019	16819
586.061	15083
586.074	14715
586.128	15203
586.133	15190
586.183	15484
586.205	15679
586.237	15693
586.277	15039
586.292	14897
586.346	14358
586.349	14372
586.401	14614
586.421	14905
586.455	15515
586.493	16239
586.509	16905
586.564	19437
586.565	19630
586.618	28826
586.637	29163
586.672	27549
586.709	22494
586.727	20457
586.781	21409
586.781	21413
586.835	18307
586.853	17575
586.889	17102
586.925	16633
586.944	16487
586.996	17164
586.998	17197
587.052	17334
587.068	17540
587.106	17983
587.140	18195
587.161	18351
587.212	19085
587.215	19148
587.269	19840
587.284	20167
587.323	20913
587.356	21328
587.377	21781
587.427	22822
587.431	22870
587.485	23653
587.499	23923
587.539	25351
587.571	26134
587.593	26684
587.643	28421
587.648	28624
587.702	30152
587.715	30769
587.755	32877
587.786	33952
587.810	34801
587.858	37278
587.864	37663
587.917	41505
587.930	42333
587.971	46049
588.001	48883
588.025	51252
588.073	56561
588.079	57467
588.133	65590
588.145	67465
588.187	73922
588.217	79166
588.241	85349
588.288	98469
588.295	100449
588.348	117265
588.360	121490
588.402	139308
588.431	152097
588.456	164660
588.503	191751
588.510	196468
588.564	237393
588.575	247000
588.617	294292
588.646	330189
588.671	375551
588.718	474252
588.725	499944
588.778	724412
588.789	778576
588.832	1145494
588.861	1429805
588.886	1699358
588.932	2198928
588.939	2210256
588.993	2069291
589.004	2045994
589.047	1810086
589.075	1560364
589.100	1263388
589.147	753323
589.154	718613
589.207	521695
589.218	487699
589.261	448842
589.290	431832
589.314	449872
589.361	500277
589.368	524105
589.421	748502
589.433	805453
589.475	1210671
589.504	1526600
589.528	1710090
589.576	1962587
589.582	1928985
589.635	1502892
589.647	1389384
589.689	869629
589.718	542395
589.742	433962
589.790	261744
589.795	252536
589.849	182003
589.861	167344
589.902	141727
589.932	123816
589.955	113334
590.004	92228
590.009	90935
590.062	78906
590.075	76124
590.115	69352
590.146	64297
590.168	61363
590.218	55147
590.222	54881
590.275	50956
590.289	50063
590.328	47860
590.360	45984
590.381	44555
590.431	41027
590.435	40901
590.488	38336
590.503	37726
590.541	36930
590.574	36076
590.594	35194
590.645	33072
590.647	33048
590.700	31419
590.716	31024
590.753	29906
590.787	28698
590.806	28692
590.859	28960
590.859	28981
590.912	28093
590.930	28024
590.965	28105
591.001	27824
591.018	27431
591.071	26191
591.072	26150
591.124	25492
591.143	25241
591.177	24954
591.214	24555
591.230	24848
591.283	25936
591.285	25943
591.336	25646
591.356	25566
591.389	25413
591.427	24863
591.442	24398
591.495	22608
591.498	22455
591.547	22143
591.569	22092
591.600	22071
591.640	21737
591.653	21899
591.706	22619
591.711	22669
591.759	22493
591.782	22410
591.811	22855
591.853	23339
591.864	23161
591.917	21991
591.924	21799
591.969	21391
591.995	21194
592.022	21285
592.066	21297
592.075	21455
592.127	22329
592.137	22473
592.180	23084
592.208	23412
592.233	22646
592.279	21036
592.285	21064
592.338	21250
592.350	21254
592.390	20664
592.421	20237
592.443	20451
592.491	20823
592.495	20850
592.548	20918
592.562	20915
592.600	21330
592.633	21651
592.653	21566
592.704	21160
592.705	21294
592.775	21989
592.846	21444
592.916	21012
592.987	22747
593.058	22394
593.128	20597
593.199	21361
593.270	20655
593.341	20736
593.411	21853
593.482	22424
593.553	21915
593.623	21427
593.694	22304
593.764	22199
593.835	22031
593.906	21592
593.976	23366
594.047	23727
594.117	25645
594.188	24820
594.258	23691
594.329	23676
594.399	23192
594.470	23863
594.540	24841
594.611	24472
594.681	25846
594.751	26568
594.822	29678
594.892	29839
594.963	29505
595.033	28121
595.103	28830
595.174	29938
595.244	33055
595.314	34436
595.384	30355
595.455	29454
595.525	30904
595.595	31420
595.665	32784
595.736	31040
595.806	32621
595.876	31869
595.946	32261
596.016	33400
596.087	33824
596.157	34252
596.227	34706
596.297	36217
596.367	38145
596.437	41621
596.507	42540
596.577	45681
596.647	40676
596.717	42053
596.787	42841
596.857	42500
596.927	43460
596.997	43407
597.067	43917
597.137	44901
597.207	44577
597.277	45174
597.347	42498
597.417	41067
597.487	41968
597.557	42459
597.626	44548
597.696	44723
597.766	45695
597.836	44869
597.906	40028
597.975	38299
598.045	39648
598.115	41662
598.185	42796
598.254	48611
598.324	52557
598.394	54838
598.464	53104
598.533	50064
598.603	46960
598.672	46311
598.742	47189
598.812	47779
598.881	48686
598.951	47360
599.020	47525
599.090	49889
599.159	49964
599.229	48101
599.299	46821
599.368	48421
599.437	48830
599.507	43360
599.576	43982
599.646	43300
599.715	42146
599.785	41547
599.854	39818
599.924	40162
599.993	39696
600.062	39707
600.132	40505
600.201	42841
600.270	50810
600.340	53181
600.409	50392
600.478	50957
600.547	51005
600.617	47285
600.686	38715
600.755	34188
600.824	34285
600.894	31691
600.963	31368
601.032	31525
601.101	30034
601.170	27880
601.239	27399
601.308	28409
601.378	27919
601.447	27736
601.516	27264
601.585	28559
601.654	28874
601.723	28053
601.792	29554
601.861	30226
601.930	33468
601.999	33861
602.068	31547
602.137	31337
602.206	32667
602.275	33305
602.343	36205
602.412	35758
602.481	33341
602.550	32998
602.619	34578
602.688	35310
602.756	34497
602.825	34105
602.894	36698
602.963	36677
603.032	37106
603.100	36686
603.169	38037
603.238	36581
603.307	38194
603.375	38486
603.444	39212
603.513	39691
603.581	40708
603.650	41531
603.719	41341
603.787	41346
603.856	42743
603.924	43579
603.993	45761
604.061	46245
604.130	49759
604.198	50429
604.267	50736
604.335	51375
604.404	52141
604.472	52586
604.541	53564
604.609	54494
604.678	54757
604.746	54225
604.815	55661
604.883	56025
604.951	57224
605.020	57885
605.088	60083
605.156	60225
605.225	60871
605.293	61140
605.361	63091
605.429	62268
605.498	64286
605.566	66540
605.634	69671
605.702	71142
605.771	73982
605.839	73914
605.907	72575
605.975	68112
606.043	68766
606.111	68173
606.180	67344
606.248	67795
606.316	68874
606.384	65932
606.452	69340
606.520	72870
606.588	73125
606.656	70517
606.724	68995
606.792	66473
606.860	59271
606.928	52107
606.996	51527
607.064	50151
607.132	52834
607.200	54214
607.267	57317
607.335	58193
607.403	60102
607.471	58026
607.539	56225
607.607	56130
607.674	50045
607.742	49633
607.810	51136
607.878	49884
607.946	50312
608.013	52636
608.081	53868
608.149	53793
608.216	55476
608.284	57932
608.352	58587
608.419	56174
608.487	59059
608.555	55102
608.622	56982
608.690	61369
608.757	68153
608.825	68367
608.893	67309
608.960	63879
609.028	61893
609.095	62234
609.163	60782
609.230	53190
609.298	49155
609.365	51237
609.432	56004
609.500	61396
609.567	69691
609.635	80189
609.702	83297
609.769	81376
609.837	62719
609.904	56204
609.971	60242
610.039	73409
610.106	106759
610.173	226028
610.241	550664
610.308	256127
610.375	75851
610.442	60120
610.509	56071
610.577	56705
610.644	56380
610.711	57593
610.778	60908
610.845	62353
610.912	65789
610.980	70315
611.047	72287
611.114	68553
611.181	63820
611.248	63647
611.315	68431
611.382	69643
611.449	72383
611.516	75282
611.583	72540
611.650	75012
611.717	76152
611.784	80094
611.851	87856
611.918	100782
611.984	132137
612.051	211340
612.118	485735
612.185	1277320
612.252	660220
612.319	135261
612.386	104375
612.452	92905
612.519	87437
612.586	85418
612.653	85608
612.719	87448
612.786	81979
612.853	75179
612.919	73103
612.986	76459
613.053	71296
613.120	65855
613.186	64521
613.253	66042
613.319	64405
613.386	64440
613.453	66222
613.519	68248
613.586	69450
613.652	75319
613.719	71357
613.785	70706
613.852	68800
613.918	67293
613.985	72573
614.051	84525
614.118	119766
614.184	108793
614.250	70418
614.317	68985
614.383	66778
614.449	68088
614.516	68632
614.582	67696
614.648	66023
614.715	64722
614.781	64799
614.847	63331
614.914	63335
614.980	61139
615.046	63135
615.112	65313
615.179	65684
615.245	69026
615.311	72140
615.377	88042
615.443	87824
615.509	72453
615.575	73988
615.642	71576
615.708	76442
615.774	83605
615.840	95750
615.906	116562
615.972	169072
616.038	302246
616.104	651004
616.170	1613584
616.236	1183244
616.302	216230
616.368	148458
616.434	99892
616.500	92865
616.565	109048
616.631	141578
616.697	106851
616.763	115618
616.829	193782
616.895	368243
616.961	318745
617.026	111873
617.092	73780
617.158	68882
617.224	66469
617.289	59093
617.355	55692
617.421	55112
617.487	55348
617.552	53335
617.618	51292
617.684	49889
617.749	52906
617.815	49405
617.880	48712
617.946	47664
618.012	49498
618.077	50145
618.143	48006
618.208	47665
618.274	51670
618.339	52479
618.405	42019
618.470	43402
618.536	40825
618.601	41770
618.667	38432
618.732	36888
618.798	36886
618.863	36106
618.928	35925
618.994	37130
619.059	38176
619.124	43534
619.190	37913
619.255	34838
619.320	34841
619.386	35055
619.451	33521
619.516	33658
619.581	33852
619.647	34658
619.712	34709
619.777	32448
619.842	33010
619.907	33363
619.972	34230
620.038	35068
620.103	33144
620.168	32214
620.233	32952
620.298	32745
620.363	34015
620.428	35577
620.493	35220
620.558	36604
620.623	36741
620.688	36623
620.753	36747
620.818	36961
620.883	37337
620.948	36770
621.013	36015
621.078	35498
621.143	35709
621.207	38813
621.272	36218
621.337	36243
621.402	35444
621.467	37647
621.532	35169
621.596	35409
621.661	33898
621.726	33512
621.791	33769
621.855	34886
621.920	33991
621.985	35682
622.049	36608
622.114	35446
622.179	36203
622.243	36157
622.308	36378
622.373	40056
622.437	38124
622.502	34912
622.566	35523
622.631	34571
622.695	36558
622.760	35987
622.824	35885
622.889	37496
622.953	37140
623.018	47378
623.082	44451
623.147	39196
623.211	37602
623.276	37351
623.340	34057
623.404	34528
623.469	34334
623.533	34520
623.597	33011
623.662	34180
623.726	29896
623.790	29224
623.854	27247
623.919	28011
623.983	29429
624.047	29962
624.111	29846
624.176	29979
624.240	30212
624.304	32945
624.368	31413
624.432	32284
624.496	33185
624.560	35873
624.625	35948
624.689	34159
624.753	35207
624.817	33079
624.881	33019
624.945	29738
625.009	28017
625.073	30225
625.137	31144
625.201	35288
625.265	36267
625.329	32008
625.393	31451
625.456	33026
625.520	31841
625.584	33661
625.648	36492
625.712	40700
625.776	53936
625.839	54309
625.903	31722
625.967	27493
626.031	33632
626.095	42605
626.158	31014
626.222	22182
626.286	22034
626.349	20956
626.413	19036
626.477	20137
626.540	19582
626.604	18954
626.668	19834
626.731	19149
626.795	18955
626.858	18512
626.922	17813
626.986	19617
627.049	16534
627.113	20442
627.176	18533
627.240	18512
627.303	18742
627.366	18550
627.430	18573
627.493	18572
627.557	17289
627.620	19223
627.684	19397
627.747	20589
627.810	16898
627.874	16674
627.937	14582
628.000	18177
628.064	16175
628.127	13144
628.190	15197
628.253	15141
628.317	13034
628.380	12161
628.443	12080
628.506	12014
628.569	12286
628.632	11309
628.696	11566
628.759	11026
628.822	10555
628.885	10319
628.948	11587
629.011	10913
629.074	10741
629.137	9597
629.200	8923
629.263	11442
629.326	8501
629.389	10252
629.452	9301
629.515	10607
629.578	9136
629.641	11155
629.704	9526
629.767	11093
629.830	9641
629.892	9707
629.955	9093
630.018	11700
630.081	10878
630.144	14311
630.207	8944
630.269	11532
630.332	9233
630.395	9647
630.458	8544
630.520	8013
630.583	9190
630.646	9246
630.708	9390
630.771	8442
630.834	10895
630.896	9611
630.959	9548
631.021	9211
631.084	8919
631.146	10176
631.209	9504
631.272	9184
631.334	10006
631.397	10184
631.459	9833
631.522	11871
631.584	12516
631.646	14707
631.709	14736
631.771	16524
631.834	14194
631.896	13135
631.958	10467
632.021	11355
632.083	8733
632.145	10635
632.208	10001
632.270	10796
632.332	8390
632.395	8787
632.457	9352
632.519	8475
632.581	9481
632.643	8066
632.706	9606
632.768	7439
632.830	9779
632.892	9058
632.954	9268
633.016	9609
633.078	8473
633.141	9131
633.203	8775
633.265	9124
633.327	8879
633.389	8774
633.451	9892
633.513	10585
633.575	10670
633.637	11198
633.698	10701
633.760	10689
633.822	11236
633.884	11088
633.946	10806
634.008	12003
634.070	13819
634.132	15163
634.193	15989
634.255	18807
634.317	18925
634.379	19969
634.441	15743
634.502	14058
634.564	13356
634.626	12708
634.687	13264
634.749	9896
634.811	9304
634.873	8413
634.934	8928
634.996	9699
635.057	8902
635.119	8968
635.181	9148
635.242	10458
635.304	8199
635.365	12684
635.427	8685
635.488	10380
635.550	9522
635.611	10511
635.673	8416
635.734	12647
635.796	11416
635.857	14404
635.918	14679
635.980	19194
636.041	17920
636.102	22057
636.164	20566
636.225	20576
636.286	15992
636.348	14776
636.409	12093
636.470	11265
636.531	10913
636.593	9799
636.654	9911
636.715	9233
636.776	7731
636.838	7598
636.899	8350
636.960	8427
637.021	6866
637.082	8748
637.143	8281
637.204	6765
637.265	6368
637.326	7453
637.387	7050
637.448	6309
637.509	7760
637.570	7111
637.631	7773
637.692	5489
637.753	5923
637.814	6948
637.875	6115
637.936	7553
637.997	6204
638.058	6959
638.119	6428
638.179	6258
638.240	6317
638.301	5795
638.362	5152
638.423	5635
638.483	7100
638.544	5356
638.605	7008
638.666	4829
638.726	6307
638.787	6398
638.848	5475
638.908	5994
638.969	5762
639.030	6116
639.090	4358
639.151	5646
639.211	7090
639.272	7741
639.332	11420
639.393	7585
639.453	6231
639.514	7645
639.574	7014
639.635	5452
639.695	6388
639.756	4525
639.816	5675
639.877	7369
639.937	12335
639.997	13958
640.058	5299
640.118	4915
640.178	6684
640.239	5086
640.299	4280
640.359	5756
640.420	5926
640.480	8429
640.540	8964
640.600	9128
640.661	7652
640.721	6786
640.781	11586
640.841	8400
640.901	6639
640.961	6354
641.021	6919
641.082	8494
641.142	9147
641.202	7346
641.262	3034
641.322	5770
641.382	3902
641.442	5249
641.502	4942
641.562	5744
641.622	5043
641.682	6853
641.742	8490
641.802	6714
641.861	6624
641.921	5445
641.981	5913
642.041	5789
642.101	6780
642.161	3823
642.221	4529
642.280	4275
642.340	3789
642.400	4148
642.460	5059
642.519	4562
642.579	4202
642.639	5148
642.698	2424
642.758	6854
642.818	5514
642.877	4777
642.937	4954
642.997	6900
643.056	8080
643.116	5700
643.175	7455
643.235	5918
643.294	6699
643.354	8406
643.414	9833
643.473	14285
643.532	19356
643.592	31554
643.651	55028
643.711	100960
643.770	203764
643.830	508016
643.889	1066118
643.948	215848
644.008	31738
644.067	17299
644.126	12342
644.186	9986
644.245	8980
644.304	5683
644.363	8513
644.423	6065
644.482	6479
644.541	8047
644.600	6769
644.659	11754
644.719	14023
644.778	24945
644.837	45446
644.896	98642
644.955	229967
645.014	65951
645.073	12636
645.132	8635
645.191	7236
645.250	6941
645.309	8986
645.368	8932
645.427	12016
645.486	20621
645.545	38535
645.604	10834
645.663	7371
645.722	7320
645.781	9488
645.840	12359
645.898	17296
645.957	29176
646.016	47584
646.075	91183
646.134	183246
646.192	511706
646.251	726198
646.310	89572
646.369	20362
646.427	16267
646.486	9865
646.545	8372
646.603	7257
646.662	6833
646.721	6683
646.779	6842
646.838	6463
646.896	10775
646.955	14608
647.014	25530
647.072	50060
647.131	141491
647.189	61156
647.248	7973
647.306	5905
647.365	5684
647.423	3314
647.481	5395
647.540	2023
647.598	3977
647.657	3574
647.715	3790
647.773	2243
647.832	4339
647.890	2530
647.948	2751
648.007	4111
648.065	2484
648.123	2988
648.181	4589
648.240	4618
648.298	3022
648.356	2669
648.414	3460
648.472	2874
648.531	3004
648.589	3618
648.647	3075
648.705	3109
648.763	4085
648.821	3875
648.879	4506
648.937	5877
648.995	8120
649.053	12880
649.111	22230
649.169	37850
649.227	68105
649.285	147358
649.343	429073
649.401	188293
649.459	29063
649.516	18542
649.574	14547
649.632	29788
649.690	32399
649.748	14950
649.806	19000
649.863	37762
649.921	97894
649.979	60435
650.037	7388
650.094	3440
650.152	3982
650.210	3540
650.268	4186
650.325	3164
650.383	4526
650.440	1928
650.498	3224
650.556	2466
650.613	1276
650.671	2008
650.728	2754
650.786	2179
650.843	4769
650.901	847
650.958	2984
651.016	2689
651.073	2337
651.131	1573
651.188	1659
651.246	1761
651.303	1457
651.360	2604
651.418	1966
651.475	2646
651.532	701
651.590	1638
651.647	665
651.704	1124
651.762	1419
651.819	2640
651.876	1627
651.933	2054
651.990	2401
652.048	403
652.105	1900
652.162	1441
652.219	1906
652.276	986
652.333	2119
652.390	589
652.448	1277
652.505	1486
652.562	1705
652.619	1831
652.676	3352
652.733	3259
652.790	1388
652.847	368
652.904	2370
652.961	381
653.017	1374
653.074	1311
653.131	1662
653.188	649
653.245	1738
653.302	920
653.359	1185
653.415	1864
653.472	1420
653.529	1790
653.586	955
653.642	909
653.699	1974
653.756	411
653.813	661
653.869	2196
653.926	1425
653.983	808
654.039	1824
654.096	886
654.152	2708
654.209	347
654.266	2109
654.322	-67
654.379	1742
654.435	2303
654.492	1210
654.548	2902
654.605	3863
654.661	2686
654.717	1941
654.774	1889
654.830	1764
654.887	1665
654.943	965
655.000	2624
655.056	2031
655.112	1472
655.168	325
655.225	1427
655.281	2463
655.337	1753
655.394	2155
655.450	2235
655.506	2182
655.562	2541
655.618	3530
655.675	492
655.731	1860
655.787	1736
655.843	2991
655.899	724
655.955	1844
656.011	1040
656.067	1615
656.123	2092
656.179	2549
656.235	3234
656.291	1669
656.347	2599
656.403	2640
656.459	1734
656.515	1562
656.571	2218
656.627	1785
656.683	1384
656.739	2036
656.795	1574
656.850	1844
656.906	2180
656.962	1832
657.018	1684
657.074	1958
657.129	1926
657.185	4379
657.241	9467
657.297	5106
657.352	2228
657.408	856
657.464	2739
657.519	1300
657.575	280
657.630	321
657.686	771
657.742	844
657.797	460
657.853	1162
657.908	1780
657.964	955
658.019	1177
658.075	1389
658.130	954
658.186	243
658.241	1256
658.297	355
658.352	558
658.407	1466
658.463	113
658.518	735
658.573	597
658.629	846
658.684	307
658.739	1729
658.795	234
658.850	2153
658.905	519
658.960	1321
659.016	727
659.071	250
659.126	1768
659.181	1528
659.236	3611
659.291	4388
659.346	1299
659.401	1693
659.457	1837
659.512	1694
659.567	1803
659.622	703
659.677	904
659.732	842
659.787	509
659.842	1086
659.897	1054
659.952	1491
660.007	1284
660.061	859
660.116	-66
660.171	550
660.226	796
660.281	2188
660.336	389
660.391	1502
660.445	15
660.500	1199
660.555	1297
660.610	543
660.664	1003
660.719	1248
660.774	1264
660.828	263
660.883	650
660.938	1010
660.992	-206
661.047	983
661.101	-2
661.156	987
661.211	-386
661.265	326
661.320	255
661.374	1403
661.429	-467
661.483	1239
661.538	245
661.592	487
661.647	289
661.701	2775
661.755	911
661.810	405
661.864	132
661.919	574
661.973	807
662.027	319
662.081	266
662.136	281
662.190	827
662.244	1438
662.299	300
662.353	732
662.407	9
662.461	611
662.515	392
662.569	840
662.624	577
662.678	599
662.732	244
662.786	407
662.840	-144
662.894	541
662.948	162
663.002	353
663.056	1035
663.110	66
663.164	700
663.218	1256
663.272	774
663.326	1289
663.380	950
663.434	1269
663.488	-9
663.542	176
663.595	835
663.649	-388
663.703	1190
663.757	1006
663.811	118
663.864	870
663.918	1246
663.972	551
664.026	1019
664.079	1250
664.133	559
664.187	540
664.240	90
664.294	1425
664.348	1081
664.401	484
664.455	202
664.508	674
664.562	584
664.615	1176
664.669	-728
664.722	1103
664.776	-176
664.829	382
664.883	420
664.936	376
664.990	646
665.043	623
665.097	114
665.150	1644
665.203	683
665.257	547
665.310	540
665.363	704
665.417	740
665.470	775
665.523	249
665.576	771
665.630	1067
665.683	1382
665.736	130
665.789	921
665.842	-248
665.895	658
665.949	678
666.002	931
666.055	469
666.108	799
666.161	360
666.214	1380
666.267	582
666.320	1763
666.373	1228
666.426	926
666.479	640
666.532	844
666.585	1141
666.638	1776
666.691	1107
666.744	1596
666.796	426
666.849	1032
666.902	1531
666.955	525
667.008	172
667.060	1035
667.113	-63
667.166	530
667.219	683
667.271	798
667.324	267
667.377	1320
667.430	555
667.482	646
667.535	1172
667.587	1343
667.640	1347
667.693	1379
667.745	3539
667.798	3491
667.850	613
667.903	868
667.955	466
668.008	922
668.060	107
668.113	760
668.165	46
668.218	627
668.270	1158
668.322	163
668.375	640
668.427	1738
668.479	609
668.532	1054
668.584	717
668.636	838
668.689	958
668.741	821
668.793	909
668.845	794
668.898	-16
668.950	669
669.002	648
669.054	1430
669.106	801
669.158	1436
669.211	227
669.263	1421
669.315	1296
669.367	2107
669.419	1646
669.471	3802
669.523	6271
669.575	8943
669.627	4594
669.679	2783
669.731	2097
669.783	2872
669.835	4976
669.886	3233
669.938	1497
669.990	1299
670.042	-65
670.094	1477
670.146	450
670.197	1043
670.249	2064
670.301	1613
670.353	2647
670.404	4195
670.456	4284
670.508	8255
670.560	12647
670.611	20461
670.663	33760
670.715	83426
670.766	138672
670.818	43019
670.869	5918
670.921	2959
670.972	2871
671.024	2159
671.075	813
671.127	1350
671.178	532
671.230	1937
671.281	1387
671.333	1547
671.384	1167
671.436	3170
671.487	5732
671.538	6692
671.590	10647
671.641	17605
671.692	33836
671.744	68832
671.795	39995
671.846	10510
671.897	4765
671.949	3000
672.000	1766
672.051	1476
672.102	1838
672.153	1544
672.204	1208
672.256	1274
672.307	1111
672.358	925
672.409	345
672.460	886
672.511	644
672.562	-28
672.613	481
672.664	1042
672.715	261
672.766	636
672.817	132
672.868	518
672.919	386
672.970	765
673.021	-187
673.071	686
673.122	670
673.173	-340
673.224	618
673.275	1323
673.326	262
673.376	91
673.427	-249
673.478	-32
673.528	1089
673.579	832
673.630	421
673.680	932
673.731	-97
673.782	207
673.832	-215
673.883	248
673.934	-354
673.984	742
674.035	38
674.085	208
674.136	487
674.186	611
674.237	1169
674.287	1668
674.338	252
674.388	588
674.438	1026
674.489	808
674.539	130
674.589	703
674.640	964
674.690	796
674.740	471
674.791	330
674.841	-21
674.891	501
674.942	413
674.992	298
675.042	635
675.092	228
675.142	-760
675.193	95
675.243	89
675.293	110
675.343	177
675.393	356
675.443	405
675.493	76
675.543	-706
675.593	347
675.643	562
675.693	50
675.743	74
675.793	1193
675.843	108
675.893	111
675.943	-161
675.993	-35
676.043	31
676.093	324
676.142	-858
676.192	150
676.242	120
676.292	5
676.341	-463
676.391	547
676.441	-386
676.491	48
676.540	-319
676.590	362
676.640	-542
676.689	485
676.739	-1054
676.789	-445
676.838	-305
676.888	-390
676.937	56
676.987	228
677.037	-962
677.086	-610
677.136	684
677.185	58
677.235	-423
677.284	-274
677.333	-1066
677.383	-768
677.432	-1241
677.482	-248
677.531	-357
677.580	-878
677.630	-94
677.679	41
677.728	390
677.778	943
677.827	-896
677.876	-292
677.925	-806
677.975	-133
678.024	-685
678.073	238
678.122	-244
678.171	479
678.220	-330
678.269	741
678.319	559
678.368	509
678.417	-42
678.466	338
678.515	237
678.564	-163
678.613	-441
678.662	-328
678.711	-364
678.760	-373
678.809	-542
678.857	-370
678.906	-833
678.955	-39
679.004	-305
679.053	-242
679.102	-135
679.151	-531
679.199	-327
679.248	283
679.297	-622
679.346	-124
679.394	-996
679.443	-234
679.492	-241
679.540	-588
679.589	-856
679.638	-8
679.686	45
679.735	-544
679.784	455
679.832	29
679.881	-1202
679.929	-661
679.978	-378
680.026	-824
680.075	-727
680.123	-626
680.172	-660
680.220	-583
680.268	-181
680.317	-613
680.365	87
680.414	-1036
680.462	-195
680.510	95
680.559	-1255
680.607	-723
680.655	-174
680.703	166
680.752	-647
680.800	-829
680.848	-865
680.896	-1001
680.945	-530
680.993	203
681.041	-1049
681.089	-503
681.137	-370
681.185	-283
681.233	-1198
681.258	-955
681.281	-736
681.329	-596
681.377	-944
681.380	-927
681.425	-787
681.473	374
681.502	-542
681.521	-1201
681.569	75
681.617	-1017
681.624	-926
681.665	-391
681.713	-388
681.745	110
681.761	327
681.809	-823
681.857	413
681.867	296
681.904	-132
681.952	-300
681.989	-713
682.000	-850
682.048	-417
682.096	-747
682.111	-562
682.143	-189
682.191	-571
682.233	-44
682.239	25
682.286	-480
682.334	-632
682.354	-396
682.382	-88
682.430	-39
682.476	-495
682.477	-513
682.525	-570
682.572	161
682.598	-224
682.620	-546
682.667	-559
682.715	231
682.720	214
682.763	-66
682.810	-80
682.841	17
682.857	48
682.905	384
682.952	-290
682.963	-224
683.000	-32
683.047	-430
683.085	539
683.095	805
683.142	-321
683.190	612
683.206	404
683.237	-29
683.284	-191
683.328	440
683.332	491
683.379	536
683.426	-602
683.449	-333
683.473	-84
683.521	-519
683.568	152
683.571	152
683.615	39
683.662	368
683.693	104
683.709	-39
683.757	-269
683.804	69
683.814	127
683.851	335
683.898	491
683.936	443
683.945	409
683.992	497
684.039	724
684.057	779
684.086	896
684.133	616
684.179	-128
684.180	-161
684.227	640
684.274	460
684.300	511
684.321	539
684.368	61
684.415	1068
684.422	1025
684.462	667
684.509	359
684.543	280
684.556	284
684.603	1136
684.649	74
684.665	365
684.696	942
684.743	1141
684.786	658
684.790	608
684.837	20
684.883	1111
684.908	956
684.930	796
684.977	690
685.023	222
685.029	311
685.070	1056
685.117	1102
685.150	705
685.164	504
685.210	671
685.257	1292
685.272	1171
685.303	975
685.350	1103
685.393	887
685.396	872
685.443	1424
685.490	1530
685.514	1646
685.536	1600
685.583	1429
685.629	773
685.636	829
685.675	1244
685.722	1206
685.757	1575
685.768	1683
685.815	804
685.861	849
685.878	930
685.908	1175
685.954	945
686.000	1623
686.000	1629
686.047	1135
686.093	1698
686.121	1743
686.139	1702
686.185	1458
686.232	1083
686.242	1215
686.278	1806
686.324	1382
686.363	1281
686.370	1245
686.416	1625
686.463	1450
686.484	1190
686.509	983
686.555	1130
686.601	1288
686.606	1330
686.647	1567
686.693	998
686.727	1102
686.739	1154
686.785	576
686.831	1290
686.848	1410
686.877	1560
686.923	1243
686.969	1202
686.969	1202
687.015	1219
687.061	1039
687.090	1095
687.107	1020
687.153	1007
687.199	1409
687.211	1114
687.245	571
687.291	1100
687.332	1491
687.336	1509
687.382	1128
687.428	950
687.453	1319
687.474	1685
687.520	1123
687.565	1792
687.574	1741
687.611	1417
687.657	1739
687.695	2036
687.702	2189
687.748	2810
687.794	3733
687.816	3913
687.839	3506
687.885	2181
687.931	1667
687.937	1546
687.976	1377
688.022	1432
688.058	1799
688.067	1869
688.113	1515
688.158	1560
688.179	1701
688.204	1960
688.249	1721
688.295	1776
688.300	1781
688.340	1714
688.386	2369
688.421	1619
688.431	1435
688.477	1572
688.522	2163
688.542	2152
688.567	2219
688.613	2035
688.658	2611
688.663	2583
688.703	2197
688.749	2482
688.784	1967
688.794	1807
688.839	2299
688.884	1877
688.905	1760
688.930	1735
688.975	2733
689.020	2366
689.026	2341
689.065	2014
689.110	1893
689.146	1939
689.155	1998
689.201	2119
689.246	1654
689.267	1947
689.291	2234
689.336	2113
689.381	2264
689.388	2255
689.426	2129
689.471	1946
689.509	1862
689.516	1880
689.561	2345
689.606	2219
689.630	2334
689.651	2408
689.696	2233
689.741	2058
689.750	2017
689.785	1931
689.830	2352
689.871	2187
689.875	2162
689.920	2303
689.965	2137
689.992	2011
690.010	1993
690.054	2085
690.099	1843
690.112	1916
690.144	2164
690.189	2299
690.233	2633
690.233	2639
690.278	2495
690.323	2530
690.354	2302
690.367	2255
690.412	2685
690.457	2556
690.474	2620
690.501	2646
690.546	2418
690.590	2492
690.595	2498
690.635	2770
690.680	2450
690.716	2415
690.724	2409
690.769	2547
690.813	3312
690.836	3100
690.857	3063
690.902	3300
690.946	3783
690.957	3871
690.991	4328
691.035	4918
691.077	5895
691.080	5920
691.124	5278
691.168	5558
691.198	5010
691.213	4652
691.257	4471
691.301	3170
691.318	3200
691.346	3574
691.390	3536
691.434	3283
691.439	3295
691.478	3274
691.522	3160
691.559	2732
691.567	2745
691.611	3434
691.655	3649
691.680	3700
691.699	3482
691.743	3243
691.787	2949
691.800	2801
691.831	2854
691.875	3330
691.919	3137
691.921	3141
691.964	3322
692.008	3084
692.041	3133
692.052	3177
692.096	3084
692.139	3516
692.162	3461
692.183	3307
692.227	2994
692.271	2863
692.282	2867
692.315	3139
692.359	3012
692.402	3191
692.403	3201
692.447	3118
692.490	3091
692.523	3143
692.534	3142
692.578	3239
692.622	3076
692.643	3166
692.666	3157
692.709	2974
692.753	2904
692.763	2781
692.797	2747
692.840	2965
692.884	3153
692.884	3163
692.928	2941
692.971	3089
693.004	3027
693.015	3020
693.059	3160
693.102	3117
693.124	3089
693.146	3077
693.189	3069
693.233	3117
693.245	3089
693.276	3337
693.320	3874
693.363	4067
693.365	4059
693.407	3847
693.450	4184
693.485	4073
693.493	4128
693.537	4567
693.580	4789
693.605	5152
693.624	5584
693.667	6101
693.710	6957
693.725	7212
693.753	8501
693.797	10670
693.840	12603
693.845	12814
693.883	11833
693.926	10240
693.966	8984
693.970	8863
694.013	7574
694.056	6174
694.086	5284
694.099	5171
694.142	4776
694.185	4422
694.206	4060
694.229	4043
694.272	4520
694.315	4690
694.326	4676
694.358	4578
694.401	4841
694.444	4783
694.446	4778
694.487	4805
694.530	4398
694.566	4463
694.573	4450
694.616	3955
694.659	3662
694.686	3398
694.702	3486
694.745	3728
694.787	3704
694.806	3822
694.830	3957
694.873	4094
694.916	4344
694.926	4334
694.959	4295
695.002	4441
695.044	4386
695.046	4380
695.087	4465
695.130	4174
695.166	4121
695.172	4138
695.215	4132
695.258	4078
695.286	3990
695.301	3991
695.343	3857
695.386	3989
695.406	3974
695.428	4112
695.471	4503
695.514	4822
695.526	4838
695.556	4668
695.599	4711
695.641	4421
695.646	4397
695.684	4334
695.726	4393
695.766	4218
695.769	4224
695.811	4101
695.854	3997
695.886	3996
695.896	4065
695.938	4099
695.981	4330
696.005	4363
696.023	4487
696.065	4838
696.108	5224
696.125	5242
696.150	4982
696.192	4965
696.235	4606
696.245	4570
696.277	4637
696.319	4609
696.361	4471
696.365	4451
696.404	4753
696.446	5070
696.485	5271
696.488	5272
696.530	4988
696.572	4874
696.604	4814
696.614	4832
696.656	4605
696.698	4700
696.724	4688
696.740	4778
696.783	4711
696.825	4972
696.844	4977
696.867	4956
696.909	4995
696.951	4847
696.964	4866
696.992	4954
697.034	4872
697.076	4812
697.083	4802
697.118	5167
697.160	5446
697.202	5929
697.203	5919
697.244	5517
697.286	5148
697.323	4697
697.327	4728
697.369	4945
697.411	5204
697.442	5279
697.453	5291
697.494	5332
697.536	5363
697.562	5396
697.578	5484
697.620	5647
697.661	5801
697.682	5848
697.703	5851
697.744	5765
697.786	5935
697.801	5866
697.828	6043
697.869	6440
697.911	6743
697.921	6815
697.952	6458
697.994	5957
698.035	5463
698.040	5380
698.077	5304
698.118	5280
698.160	5117
698.160	5097
698.201	5572
698.243	5960
698.279	6358
698.284	6389
698.325	6397
698.367	6491
698.399	6498
698.408	6487
698.449	6361
698.491	6219
698.518	6153
698.532	6162
698.573	6046
698.614	5988
698.638	5917
698.656	5936
698.697	5953
698.738	5960
698.757	5952
698.779	6118
698.820	6372
698.862	6648
698.877	6725
698.903	7040
698.944	7514
698.985	7995
698.996	8104
699.026	7806
699.067	7365
699.116	6821
699.235	6365
699.354	6973
699.474	6450
699.593	6915
699.713	7941
699.832	7078
699.951	8132
700.070	7741
700.190	7617
700.309	6631
700.428	6212
700.547	6957
700.667	6225
700.786	7364
700.905	6411
701.024	6595
701.143	6502
701.262	6618
701.381	5488
701.500	6864
701.619	6640
701.738	5704
701.857	6475
701.976	6409
702.095	5799
702.214	6899
702.333	6564
702.452	6711
702.571	6461
702.690	6567
702.809	5659
702.928	6554
703.047	5999
703.165	5741
703.284	5436
703.403	5715
703.522	5712
703.640	6679
703.759	7574
703.878	7910
703.997	6379
704.115	6043
704.234	6356
704.353	5747
704.471	6099
704.590	5146
704.708	5577
704.827	5511
704.946	5045
705.064	5455
705.183	4532
705.301	6306
705.420	6518
705.538	6010
705.656	4852
705.775	6149
705.893	10392
706.012	10477
706.130	5221
706.249	6706
706.367	4801
706.485	6077
706.604	5258
706.722	7314
706.840	8302
706.958	10781
707.077	6490
707.195	5043
707.313	4696
707.431	5543
707.549	5047
707.668	5745
707.786	5663
707.904	5142
708.022	4977
708.140	5379
708.258	5002
708.376	5506
708.494	5108
708.612	6182
708.730	5994
708.848	6211
708.966	6696
709.084	6473
709.202	5762
709.320	5634
709.438	4743
709.556	6084
709.674	5658
709.791	5722
709.909	5043
710.027	5600
710.145	5530
710.263	5592
710.380	4330
710.498	5202
710.616	5564
710.733	6069
710.851	4462
710.969	5550
711.086	4615
711.204	5539
711.322	4884
711.439	4820
711.557	4988
711.674	5140
711.792	4855
711.909	5855
712.027	4482
712.144	4065
712.262	4704
712.379	4942
712.497	6433
712.614	6111
712.732	5372
712.849	6152
712.966	6602
713.084	7755
713.201	5486
713.318	5966
713.436	6290
713.553	6393
713.670	6082
713.787	6312
713.905	5868
714.022	5472
714.139	6385
714.256	9205
714.373	15575
714.490	33080
714.608	107706
714.725	483825
714.842	329077
714.959	18943
715.076	9482
715.193	8220
715.310	7238
715.427	6766
715.544	5609
715.661	6576
715.778	5412
715.895	5283
716.011	6057
716.128	5760
716.245	5880
716.362	7347
716.479	6843
716.596	6147
716.713	5147
716.829	6044
716.946	4899
717.063	4998
717.180	4719
717.296	5017
717.413	5119
717.530	5118
717.646	4697
717.763	4426
717.880	4487
717.996	4303
718.113	4779
718.229	4571
718.346	3764
718.462	5333
718.579	6821
718.695	11691
718.812	7007
718.928	5383
719.045	4107
719.161	4818
719.277	5332
719.394	4724
719.510	4924
719.626	5566
719.743	6933
719.859	11485
719.975	28871
720.092	132644
720.208	220180
720.324	18394
720.440	6185
720.557	6183
720.673	9731
720.789	9923
720.905	14057
721.021	5431
721.137	3706
721.253	4216
721.369	4092
721.486	4383
721.602	5286
721.718	4166
721.834	3075
721.950	4076
722.066	3010
722.181	3909
722.297	4071
722.413	4492
722.529	4023
722.645	4816
722.761	3849
722.877	3176
722.993	3487
723.108	5536
723.224	3827
723.340	4629
723.456	4412
723.571	3569
723.687	2983
723.803	4170
723.918	3451
724.034	3134
724.150	3338
724.265	3545
724.381	6952
724.497	6435
724.612	3146
724.728	3041
724.843	2165
724.959	4717
725.074	7318
725.190	6780
725.305	4091
725.421	3692
725.536	3111
725.651	3416
725.767	2941
725.882	2813
725.997	2472
726.113	3181
726.228	2664
726.343	3259
726.459	2024
726.574	3704
726.689	2206
726.804	2699
726.920	2852
727.035	3470
727.150	3145
727.265	3234
727.380	3862
727.495	4408
727.610	2889
727.725	3384
727.841	4212
727.956	6833
728.071	3977
728.186	3342
728.301	2671
728.416	3553
728.531	3516
728.645	4019
728.760	4403
728.875	6272
728.990	6471
729.105	4469
729.220	4343
729.335	3646
729.449	3326
729.564	3135
729.679	2644
729.794	3113
729.908	2084
730.023	2932
730.138	2517
730.253	3039
730.367	2764
730.482	2367
730.596	2257
730.711	2679
730.826	4848
730.940	4243
731.055	2850
731.169	3455
731.284	1684
731.398	3027
731.513	3312
731.627	3633
731.742	3739
731.856	3064
731.970	4279
732.085	5711
732.199	8294
732.313	16180
732.428	46433
732.542	144057
732.656	56188
732.771	9114
732.885	6048
732.999	5439
733.113	4942
733.227	4340
733.342	4281
733.456	4001
733.570	3519
733.684	3862
733.798	3685
733.912	3894
734.026	3175
734.140	3338
734.254	4628
734.368	6349
734.482	4778
734.596	4093
734.710	3374
734.824	3168
734.938	3428
735.052	4012
735.166	4128
735.280	4014
735.393	3755
735.507	3326
735.621	4394
735.735	5609
735.849	3936
735.962	4364
736.076	3631
736.190	3532
736.303	4158
736.417	5168
736.531	3291
736.644	4156
736.758	3150
736.872	3569
736.985	3136
737.099	4386
737.212	2527
737.326	3515
737.439	4325
737.553	3777
737.666	3314
737.780	2597
737.893	3653
738.007	3575
738.120	3036
738.233	2669
738.347	3130
738.460	2961
738.573	2926
738.687	3727
738.800	3054
738.913	4956
739.026	3837
739.140	3563
739.253	3274
739.366	3017
739.479	2574
739.592	3059
739.705	2260
739.818	3064
739.932	2167
740.045	3181
740.158	3373
740.271	3371
740.384	2350
740.497	4658
740.610	4251
740.723	5097
740.836	5075
740.949	5408
741.062	5141
741.174	4730
741.287	3289
741.400	4017
741.513	4798
741.626	6038
741.739	3750
741.851	4291
741.964	2685
742.077	3096
742.189	4627
742.302	7385
742.415	6196
742.527	3776
742.640	3161
742.753	2637
742.865	1789
742.978	1460
743.090	2248
743.203	2306
743.316	2403
743.428	1638
743.541	1576
743.653	2696
743.766	1897
743.878	2097
743.990	2578
744.103	4110
744.215	5145
744.327	2902
744.440	3773
744.552	4809
744.664	2350
744.777	2907
744.889	1456
745.001	2800
745.113	1286
745.226	1932
745.338	1967
745.450	2206
745.562	1001
745.674	2932
745.786	2303
745.898	1989
746.010	2194
746.122	1556
746.234	1135
746.347	2632
746.459	2488
746.570	2240
746.682	3428
746.794	7939
746.906	3209
747.018	2425
747.130	1856
747.242	2293
747.354	1917
747.466	2397
747.577	1393
747.689	1609
747.801	1983
747.913	1785
748.024	1375
748.136	1674
748.248	1285
748.359	1461
748.471	1646
748.583	906
748.694	1840
748.806	2791
748.918	1968
749.029	2414
749.141	2156
749.252	2740
749.364	2951
749.475	4708
749.587	2731
749.698	1467
749.809	1770
749.921	1038
750.032	1528
750.144	1571
750.255	1522
750.366	1803
750.478	842
750.589	2496
750.700	1726
750.811	2265
750.923	3064
751.034	6526
751.145	5147
751.256	1430
751.367	1766
751.479	1841
751.590	1301
751.701	1089
751.812	721
751.923	1855
752.034	1335
752.145	1401
752.256	572
752.367	1104
752.478	597
752.589	2226
752.700	886
752.811	874
752.922	971
753.032	1293
753.143	1721
753.254	794
753.365	2230
753.476	1651
753.586	1066
753.697	2257
753.808	1010
753.919	989
754.029	879
754.140	1224
754.251	1546
754.361	1609
754.472	1764
754.582	1189
754.693	1293
754.804	2078
754.914	288
755.025	1343
755.135	482
755.246	1190
755.356	1135
755.466	1832
755.577	757
755.687	1904
755.798	1703
755.908	1641
756.018	740
756.129	1284
756.239	867
756.349	1122
756.460	1438
756.570	2643
756.680	1137
756.790	1171
756.900	1512
757.011	900
757.121	1324
757.231	1117
757.341	821
757.451	845
757.561	834
757.671	1567
757.781	196
757.891	1451
758.001	987
758.111	2156
758.221	1013
758.331	1921
758.441	2102
758.551	3048
758.661	2652
758.771	2085
758.880	1376
758.990	1779
759.100	759
759.210	1922
759.320	765
759.429	1918
759.539	1221
759.649	1930
759.758	1901
759.868	2868
759.978	1667
760.087	3051
760.197	2041
760.307	2244
760.416	1382
760.526	1903
760.635	2656
760.745	2387
760.854	2952
760.964	3562
761.073	1869
761.182	2012
761.292	1964
761.401	2384
761.511	692
761.620	1547
761.729	2474
761.839	1852
761.948	2399
762.057	1242
762.166	913
762.276	628
762.385	2649
762.494	985
762.603	1621
762.712	1556
762.822	819
762.931	1619
763.040	964
763.149	1996
763.258	915
763.367	1523
763.476	1364
763.585	1367
763.694	1420
763.803	1956
763.912	1572
764.021	1878
764.130	532
764.238	2311
764.347	1922
764.456	2171
764.565	2063
764.674	1672
764.783	997
764.891	1083
765.000	2711
765.109	2486
765.217	2894
765.326	4411
765.435	3646
765.543	4432
765.652	4414
765.761	5834
765.869	10910
765.978	18391
766.086	35037
766.195	77719
766.303	225713
766.412	564875
766.520	373258
766.629	81952
766.737	30008
766.846	17982
766.954	12224
767.062	10429
767.171	7546
767.279	6791
767.387	4451
767.496	4036
767.604	3915
767.712	3165
767.820	2918
767.928	2923
768.037	3021
768.145	3413
768.253	3206
768.361	2000
768.469	2621
768.577	2840
768.685	3426
768.793	2771
768.901	2441
769.009	3740
769.117	3633
769.225	4977
769.333	8008
769.441	13524
769.549	29128
769.657	74866
769.765	265324
769.873	422551
769.981	106960
770.088	23443
770.196	10808
770.304	8051
770.412	6942
770.519	4470
770.627	4199
770.735	2388
770.842	2688
770.950	3027
771.058	1632
771.165	2661
771.273	1665
771.380	2665
771.488	2560
771.595	2901
771.703	2196
771.810	2382
771.918	1915
772.025	2745
772.133	2346
772.240	2746
772.348	2836
772.455	2888
772.562	1777
772.670	2352
772.777	2655
772.884	2829
772.991	2194
773.099	2323
773.206	2362
773.313	2151
773.420	2156
773.528	2262
773.635	2044
773.742	2796
773.849	1805
773.956	2493
774.063	1317
774.170	1597
774.277	1464
774.384	1970
774.491	988
774.598	2156
774.705	2437
774.812	2211
774.919	2377
775.026	1729
775.133	2033
775.239	1725
775.346	1370
775.453	923
775.560	1971
775.667	1872
775.773	139
775.880	2765
775.987	1549
776.093	1509
776.200	1191
776.307	1718
776.413	2445
776.520	1839
776.627	1583
776.733	2688
776.840	743
776.946	3759
777.053	4955
777.159	13756
777.266	5513
777.372	11215
777.478	8698
777.585	5237
777.691	1607
777.798	2233
777.904	2556
778.010	3859
778.117	3224
778.223	1215
778.329	549
778.435	1291
778.542	1558
778.648	1322
778.754	538
778.860	1445
778.966	829
779.072	1570
779.178	1226
779.284	1233
779.391	1065
779.497	736
779.603	2854
779.708	615
779.815	3714
779.920	9211
780.026	10922
780.132	2676
780.238	911
780.344	1593
780.450	1279
780.556	1084
780.661	592
780.767	2114
780.873	641
780.979	1988
781.085	-183
781.190	1830
781.296	1701
781.402	1009
781.507	1237
781.613	1641
781.719	875
781.824	1961
781.930	1037
782.035	1687
782.141	1230
782.246	1154
782.352	915
782.457	1425
782.563	848
782.668	816
782.773	1571
782.879	1464
782.984	2191
783.090	3390
783.195	3335
783.300	1865
783.405	1085
783.511	1668
783.616	1747
783.721	2199
783.826	1399
783.932	2027
784.037	1498
784.142	2381
784.247	1924
784.352	1709
784.457	1679
784.562	2056
784.667	1222
784.772	750
784.877	1032
784.982	1932
785.087	1200
785.192	2011
785.297	253
785.402	1450
785.507	1187
785.611	1221
785.716	831
785.821	1006
785.926	656
786.031	1111
786.135	383
786.240	1551
786.345	-641
786.450	1195
786.554	355
786.659	478
786.763	-398
786.868	779
786.973	1419
787.077	456
787.182	890
787.286	591
787.391	58
787.495	-118
787.600	39
787.704	435
787.809	730
787.913	53
788.017	57
788.122	1000
788.226	1185
788.330	-21
788.435	587
788.539	1018
788.643	592
788.747	339
788.852	-398
788.956	164
789.060	905
789.164	341
789.268	-361
789.372	1547
789.476	-47
789.580	81
789.684	492
789.788	1345
789.892	-42
789.996	330
790.100	-108
790.204	643
790.308	142
790.412	341
790.516	-74
790.620	1233
790.724	69
790.828	652
790.931	-347
791.035	2137
791.139	-798
791.242	-419
791.346	340
791.450	62
791.554	-283
791.657	-835
791.761	772
791.864	1225
791.968	437
792.072	891
792.175	-257
792.279	1189
792.382	475
792.486	420
792.589	-384
792.693	1244
792.796	-357
792.899	1260
793.003	1032
793.106	-421
793.209	-540
793.313	2473
793.416	-606
793.519	2021
793.623	2007
793.726	2751
793.829	404
793.932	142
794.035	-38
794.138	2221
794.242	2070
794.345	1392
794.448	1348
794.551	2581
794.654	4920
794.757	4904
794.860	451
794.963	2026
795.066	281
795.169	393
795.272	504
795.375	1415
795.477	-856
795.580	956
795.683	-1259
795.786	792
795.889	-1090
795.991	540
796.094	629
796.197	-942
796.300	993
796.402	316
796.505	-344
796.608	-533
796.710	1009
796.813	234
796.915	-548
797.018	239
797.120	690
797.223	-1317
797.326	705
797.428	-163
797.530	-154
797.633	205
797.735	1117
797.838	747
797.940	994
798.042	-1047
798.145	-154
798.247	802
798.349	-1217
798.452	-53
798.554	-227
798.656	-90
798.758	1346
798.860	-21
798.962	-881
799.065	-153
799.167	-931
799.269	993
799.371	1236
799.473	944
799.575	124
799.677	488
799.779	1685
799.881	769
799.983	256
800.085	222
800.187	409
800.289	-281
800.390	-953
800.492	661
800.594	22
800.696	-150
800.798	-343
800.899	-386
801.001	-313
801.103	15
801.205	-265
801.306	488
801.408	-1608
801.509	-539
801.611	-105
801.713	-648
801.814	-797
801.916	-109
802.017	-145
802.119	-1092
802.220	-70
802.322	-1304
802.423	1014
802.525	-1200
802.626	265
802.727	187
802.829	283
802.930	-1544
803.031	1444
803.133	-551
803.234	-337
803.335	483
803.436	-853
803.538	-272
803.639	-1255
803.740	323
803.841	-731
803.942	-73
804.043	558
804.144	-597
804.245	-867
804.346	-850
804.447	-129
804.548	268
804.649	1346
804.750	-381
804.851	-1025
804.952	-638
805.053	245
805.154	-438
805.255	729
805.355	-265
805.456	-805
805.557	-1024
805.658	-956
805.758	166
805.859	-390
805.960	35
806.061	-897
806.161	-165
806.262	219
806.362	-55
806.463	-1472
806.564	481
806.664	-230
806.765	-470
806.865	-566
806.966	989
807.066	-695
807.166	667
807.267	754
807.367	-432
807.468	297
807.568	-1301
807.668	229
807.769	290
807.869	-1225
807.969	-704
808.069	-34
808.170	-288
808.270	-559
808.370	44
808.470	370
808.570	-859
808.670	-437
808.770	375
808.870	-691
808.970	481
809.070	-611
809.170	-426
809.271	-57
809.370	-498
809.470	-385
809.570	-406
809.670	-1586
809.770	-198
809.870	-1347
809.970	-390
810.070	-40
810.169	234
810.269	-1388
810.369	284
810.469	-883
810.568	477
810.668	-1248
810.768	-771
810.867	-447
810.967	-278
811.066	-1290
811.166	-1031
811.265	22
811.365	-884
811.464	-650
811.564	-26
811.663	185
811.763	-1590
811.862	-472
811.962	-50
812.061	-859
812.160	-779
812.260	-428
812.359	-748
812.458	-998
812.557	601
812.657	-551
812.756	-602
812.855	-788
812.954	-765
813.053	-70
813.153	109
813.252	-1405
813.351	-1013
813.450	-454
813.549	-955
813.648	357
813.747	-479
813.846	75
813.945	-269
814.044	-984
814.143	-652
814.242	317
814.341	-516
814.439	-342
814.538	322
814.637	-27
814.736	-720
814.835	-77
814.933	-139
815.032	637
815.131	-349
815.229	494
815.328	1262
815.427	120
815.525	732
815.624	-359
815.722	553
815.821	374
815.919	584
816.018	-270
816.116	1647
816.215	513
816.313	780
816.412	-392
816.510	825
816.609	2040
816.707	1164
816.805	875
816.904	505
817.002	1927
817.100	2359
817.198	2427
817.296	2311
817.395	2671
817.493	2842
817.591	2801
817.689	5363
817.787	7193
817.885	13764
817.983	26100
818.081	63060
818.179	159159
818.277	374692
818.375	232133
818.473	53947
818.571	20771
818.669	15119
818.767	14240
818.865	14245
818.963	17218
819.061	28180
819.158	52523
819.256	126683
819.354	320832
819.452	605983
819.549	292474
819.647	71400
819.745	29130
819.842	18647
819.940	11901
820.038	8142
820.135	6419
820.233	6636
820.330	4125
820.428	2613
820.525	3165
820.623	3147
820.720	2045
820.818	2491
820.915	1577
821.012	2693
821.110	1105
821.207	2013
821.304	394
821.402	1820
821.499	2026
821.596	5037
821.693	3063
821.791	1849
821.888	1555
821.985	4096
822.082	1455
822.179	1795
822.276	1266
822.373	1222
822.470	227
822.567	1075
822.664	23
822.761	945
822.858	-894
822.955	1137
823.052	496
823.149	729
823.246	2
823.343	631
823.440	-61
823.536	-76
823.633	-313
823.730	560
823.827	-639
823.923	58
824.020	950
824.117	1186
824.213	1476
824.310	813
824.407	-80
824.503	1002
824.600	276
824.696	92
824.793	1201
824.889	23
824.986	-539
825.082	-745
825.179	615
825.275	-408
825.371	-823
825.468	464
825.564	-816
825.660	1173
825.757	-394
825.853	480
825.949	-837
826.045	496
826.142	-1392
826.238	348
826.334	-456
826.430	-880
826.526	214
826.622	-677
826.718	-199
826.814	-195
826.910	-217
827.006	-430
827.102	-225
827.198	67
827.294	-936
827.390	-242
827.486	-382
827.582	-1118
827.678	-858
827.774	175
827.869	-1386
827.965	397
828.061	-1062
828.157	-183
828.252	-72
828.348	-540
828.444	-1178
828.539	-455
828.635	-340
828.731	-8
828.826	-1213
828.922	80
829.017	-92
829.113	-544
829.208	86
829.304	-579
829.399	1278
829.495	-986
829.590	655
829.685	-937
829.781	-116
829.876	-550
829.971	-1030
830.066	-860
830.162	-401
830.257	398
830.352	-1009
830.447	563
830.543	-233
830.638	-1102
830.733	-328
830.828	-479
830.923	480
831.018	-17
831.113	-438
831.208	-710
831.303	-530
831.398	-730
831.493	-990
831.588	-211
831.683	-1172
831.778	-298
831.873	-552
831.967	632
832.062	-835
832.157	-1127
832.252	-303
832.346	-11
832.441	65
832.536	-79
832.631	2091
832.725	646
832.820	-493
832.914	-801
833.009	-770
833.104	-266
833.198	-161
833.293	-1165
833.387	-935
833.482	-105
833.576	-1298
833.670	-32
833.765	-852
833.859	-191
833.954	-403
834.048	277
834.142	171
834.237	-58
834.331	-499
834.425	-77
834.519	-1592
834.613	351
834.708	-1638
834.802	-184
834.896	-1144
834.990	-287
835.084	-508
835.178	-248
835.272	-546
835.366	-1720
835.460	-309
835.554	-247
835.648	-1349
835.742	-1382
835.836	-695
835.930	-2216
836.024	-439
836.117	122
836.211	-1080
836.305	-422
836.399	6
836.493	-1451
836.586	262
836.680	-1199
836.774	-923
836.867	367
836.961	-1321
837.055	-1350
837.148	-880
837.242	-171
837.335	-1513
837.429	-841
837.522	-1741
837.616	-744
837.709	-623
837.803	-580
837.896	-746
837.989	-722
838.083	-271
838.176	148
838.269	-724
838.363	54
838.456	-1262
838.549	590
838.642	-40
838.735	2296
838.829	-86
838.922	-1408
839.015	-1312
839.108	-788
839.201	-485
839.294	-37
839.387	-545
839.480	-1164
839.573	-1438
839.666	-526
839.759	-1320
839.852	-562
839.945	-1084
840.038	-722
840.131	-797
840.223	-747
840.316	44
840.409	-546
840.502	-2234
840.594	-391
840.687	-1928
840.780	15
840.873	-948
840.965	-587
841.058	-998
841.150	601
841.243	-727
841.336	256
841.428	-1147
841.521	-1312
841.613	-2107
841.706	-932
841.798	-884
841.890	-667
841.983	-1606
842.075	-297
842.167	-869
842.260	-528
842.352	-720
842.444	-434
842.537	737
842.629	1306
842.721	-836
842.813	-1398
842.905	-1617
842.997	-704
843.090	-1185
843.182	562
843.274	-522
843.366	2571
843.458	3894
843.550	2238
843.642	-1419
843.734	364
843.826	-1188
843.918	-205
844.009	-404
844.101	-1392
844.193	-1322
844.285	-271
844.377	71
844.469	1438
844.560	2163
844.652	2111
844.744	124
844.835	-714
844.927	-1621
845.019	-745
845.110	-1863
845.202	-254
845.293	-1176
845.385	-1779
845.476	306
845.568	-553
845.659	-1580
845.751	-841
845.842	-1738
845.934	-1293
846.025	-708
846.116	-679
846.208	-879
846.299	-1222
846.390	161
846.482	-1011
846.573	-408
846.664	-499
846.755	-696
846.846	118
846.937	-2706
847.029	-1366
847.120	-1277
847.211	-726
847.302	-347
847.393	-1261
847.484	-4
847.575	-1138
847.666	-1779
847.757	-260
847.847	-73
847.938	550
848.029	-913
848.120	-914
848.211	-532
848.302	-569
848.392	-1658
848.483	-429
848.574	-1204
848.664	-1075
848.755	-911
848.846	-767
848.936	-607
849.027	199
849.118	-755
849.208	-89
849.299	1787
849.389	3965
849.480	10074
849.570	22260
849.661	46280
849.751	70289
849.841	19755
849.932	1484
850.022	-419
850.112	376
850.203	-996
850.293	5
850.383	-924
850.474	-524
850.564	-1277
850.654	-934
850.744	-708
850.834	-1172
850.924	-208
851.014	-683
851.104	-1032
851.194	-35
851.284	-1126
851.374	497
851.464	-703
851.554	-362
851.644	-1193
851.734	402
851.824	-913
851.914	-423
852.004	-476
852.094	-444
852.183	-28
852.273	71
852.363	-1374
852.452	-779
852.542	-838
852.632	-897
852.721	-228
852.811	-612
852.901	10
852.990	-284
853.080	542
853.169	-604
853.259	-131
853.348	732
853.438	2154
853.527	3419
853.617	6446
853.706	14430
853.795	30121
853.885	69657
853.974	131216
854.063	250960
854.152	348279
854.242	109620
854.331	17126
854.420	6492
854.509	3927
854.598	3704
854.687	2865
854.777	2111
854.866	1205
854.955	583
855.044	-144
855.133	-573
855.222	-639
855.311	-25
855.400	690
855.488	-347
855.577	-278
855.666	-1
855.755	-658
855.844	210
855.933	-968
856.021	-422
856.110	-210
856.199	-1261
856.288	-1314
856.376	-124
856.465	-1345
856.554	-249
856.642	-647
856.731	-373
856.819	-761
856.908	-785
856.996	-887
857.085	-687
857.173	-1012
857.262	-1034
857.350	-487
857.438	-303
857.527	-947
857.615	-494
857.703	-275
857.792	-1043
857.880	-1763
857.968	-415
858.056	-1680
858.145	-1106
858.233	-782
858.321	-1531
858.409	-858
858.497	-1104
858.585	-1379
858.673	-255
858.761	-1104
858.849	-1163
858.937	-884
859.025	-141
859.113	-1329
859.201	-48
859.289	-792
859.377	142
859.465	-1121
859.552	-400
859.640	-1808
859.728	171
859.816	-915
859.903	101
859.991	-1077
860.079	-672
860.166	-465
860.254	-404
860.342	-1076
860.429	-1107
860.517	-1980
860.604	-580
860.692	-990
860.779	-571
860.867	-1943
860.954	-970
861.042	100
861.129	-789
861.216	-479
861.304	-1262
861.391	-853
861.478	-113
861.565	-1016
861.653	-43
861.740	-1353
861.827	-828
861.914	-582
862.001	-1004
862.089	-1074
862.176	-1044
862.263	-1546
862.350	-289
862.437	-1168
862.524	-717
862.611	-911
862.698	-216
862.785	-101
862.871	905
862.958	-1209
863.045	-433
863.132	-809
863.219	-729
863.306	-2462
863.392	-259
863.479	-1094
863.566	-765
863.652	-270
863.739	-843
863.826	-845
863.912	-544
863.999	-970
864.086	-633
864.172	-622
864.259	-514
864.345	-1302
864.432	-574
864.518	-1390
864.604	-349
864.691	-1054
864.777	165
864.863	-131
864.950	1015
865.036	-500
865.122	1231
865.209	1109
865.295	2013
865.381	1027
865.467	2234
865.553	3299
865.639	6582
865.726	14884
865.812	33511
865.898	64611
865.984	95735
866.070	187400
866.156	176265
866.242	39393
866.328	7953
866.414	2742
866.499	3634
866.585	1726
866.671	1326
866.757	1780
866.843	716
866.928	531
867.014	395
867.100	426
867.186	-12
867.271	-230
867.357	904
867.442	364
867.528	1092
867.614	738
867.699	1485
867.785	1679
867.870	2470
867.956	2715
868.041	2391
868.127	1046
868.212	2202
868.297	1775
868.383	788
868.468	1181
868.553	2311
868.639	1674
868.724	4033
868.809	2889
868.894	334
868.979	-392
869.065	220
869.150	-747
869.235	-625
869.320	-752
869.405	-669
869.490	-1072
869.575	-934
869.660	-1053
869.745	475
869.830	-1228
869.915	-127
870.000	-106
870.085	156
870.169	88
870.254	667
870.339	-939
870.424	-709
870.509	-214
870.593	-817
870.678	512
870.763	-109
870.847	-645
870.932	350
871.016	29
871.101	22
871.186	-752
871.270	-615
871.355	-137
871.439	109
871.523	-972
871.608	-122
871.692	-274
871.777	925
871.861	239
871.945	-305
872.030	-1113
872.114	-490
872.198	-1333
872.282	-872
872.367	-1543
872.451	-1171
872.535	141
872.619	-634
872.703	-1472
872.787	167
872.871	-1264
872.955	-74
873.039	-1022
873.123	-849
873.207	247
873.291	-726
873.375	-1357
873.459	224
873.543	-215
873.627	-354
873.711	-637
873.794	832
873.878	-796
873.962	192
874.045	-318
874.129	82
874.137	14
874.213	-669
874.245	-585
874.296	-445
874.352	-947
874.380	-1201
874.460	-456
874.464	-425
874.547	-1005
874.568	-805
874.631	-237
874.676	-144
874.714	-48
874.784	-155
874.798	-184
874.881	105
874.892	25
874.965	-491
874.999	-391
875.048	-290
875.107	-133
875.131	-61
875.215	-945
875.215	-944
875.298	-325
875.323	-425
875.381	-593
875.430	-38
875.465	337
875.538	-582
875.548	-705
875.631	-32
875.646	-122
875.714	-651
875.753	-615
875.798	-526
875.861	-388
875.881	-330
875.964	-848
875.968	-825
876.047	-485
876.076	-477
876.130	-436
876.183	-579
876.213	-651
876.291	-221
876.296	-199
876.379	-584
876.398	-475
876.462	-67
876.506	-220
876.545	-326
876.613	-402
876.628	-427
876.711	-150
876.721	-22
876.794	993
876.828	504
876.877	-261
876.935	-272
876.960	-208
877.043	470
877.043	475
877.125	1388
877.150	1379
877.208	1437
877.258	1919
877.291	2257
877.365	1483
877.374	1393
877.456	2240
877.472	2110
877.539	1335
877.579	1477
877.622	1749
877.687	1189
877.704	1021
877.787	1013
877.794	949
877.869	310
877.901	388
877.952	498
878.008	134
878.034	-53
878.115	648
878.117	667
878.199	-302
878.222	-66
878.282	395
878.329	490
878.364	609
878.437	413
878.447	380
878.529	-94
878.544	-28
878.611	311
878.651	84
878.694	-130
878.758	-16
878.776	16
878.858	156
878.865	125
878.941	-270
878.972	-207
879.023	-91
879.078	47
879.105	232
879.185	524
879.187	523
879.269	339
879.292	143
879.351	-347
879.399	-209
879.433	6
879.506	-191
879.516	-264
879.598	-351
879.613	-483
879.680	-462
879.720	277
879.762	840
879.827	-262
879.844	-531
879.926	-66
879.933	-45
880.007	8
880.040	-138
880.089	-8
880.147	320
880.171	331
880.253	695
880.254	694
880.335	1330
880.360	1523
880.417	2337
880.467	2708
880.499	3081
880.574	4786
880.580	4717
880.662	1644
880.680	1097
880.744	203
880.787	-24
880.825	-41
880.893	-145
880.907	-140
880.989	-120
881.000	-83
881.070	303
881.106	200
881.152	-143
881.213	-122
881.233	-116
881.315	-593
881.319	-586
881.396	51
881.426	12
881.478	-33
881.532	244
881.559	291
881.639	173
881.641	173
881.722	640
881.745	572
881.803	623
881.852	416
881.885	127
881.958	167
881.966	219
882.047	1109
882.064	1083
882.129	818
882.171	1038
882.210	1904
882.277	2871
882.291	2740
882.372	1922
882.383	1835
882.454	1001
882.489	468
882.535	308
882.596	203
882.616	221
882.697	205
882.702	196
882.778	-240
882.808	-309
882.859	-72
882.914	-196
882.940	-383
883.020	5
883.021	14
883.102	-147
883.127	-38
883.183	477
883.233	634
883.264	564
883.339	505
883.345	487
883.426	-178
883.445	-144
883.507	446
883.551	342
883.587	141
883.657	452
883.668	549
883.749	735
883.763	790
883.830	421
883.869	278
883.910	576
883.975	931
883.991	916
884.072	245
884.081	224
884.152	579
884.187	659
884.233	242
884.292	59
884.314	191
884.394	70
884.398	69
884.475	76
884.504	162
884.555	424
884.610	662
884.636	721
884.716	198
884.716	203
884.797	562
884.821	553
884.877	542
884.927	643
884.958	629
885.033	659
885.038	657
885.118	27
885.139	-56
885.199	35
885.244	332
885.279	549
885.350	281
885.359	272
885.439	771
885.456	726
885.520	310
885.561	328
885.600	321
885.667	202
885.680	235
885.760	392
885.773	391
885.840	814
885.878	1137
885.920	1115
885.984	848
886.000	792
886.080	867
886.089	828
886.160	299
886.195	113
886.240	278
886.300	407
886.320	564
886.400	1366
886.406	1394
886.480	1139
886.511	1153
886.560	1474
886.616	1456
886.640	1455
886.720	1822
886.722	1818
886.800	726
886.827	347
886.879	512
886.932	572
886.959	656
887.038	928
887.039	932
887.119	595
887.143	569
887.198	593
887.248	397
887.278	482
887.354	885
887.358	880
887.437	512
887.459	445
887.517	860
887.564	1035
887.596	779
887.669	456
887.676	506
887.755	828
887.774	927
887.835	670
887.880	518
887.914	770
887.985	1139
887.994	1091
888.073	554
888.090	468
888.153	807
888.195	960
888.232	817
888.300	618
888.311	695
888.391	1102
888.405	1189
888.470	616
888.510	174
888.549	322
888.615	695
888.628	801
888.708	1308
888.720	1391
888.787	1056
888.825	789
888.866	685
888.930	605
888.945	663
889.024	916
889.035	937
889.103	824
889.140	793
889.182	704
889.245	520
889.261	584
889.340	891
889.349	925
889.419	704
889.454	569
889.498	406
889.559	203
889.577	390
889.656	1201
889.664	1278
889.735	1413
889.768	1471
889.814	1498
889.873	1521
889.978	512
890.083	722
890.187	851
890.292	1179
890.397	465
890.501	1346
890.606	506
890.710	1128
890.815	496
890.919	1414
891.024	1288
891.128	1532
891.233	1925
891.337	1776
891.442	797
891.546	923
891.650	568
891.755	982
891.859	2145
891.963	1354
892.068	1867
892.172	380
892.276	904
892.380	1607
892.484	864
892.589	1813
892.693	1333
892.797	743
892.901	493
893.005	865
893.109	374
893.213	1478
893.317	740
893.421	1132
893.525	673
893.629	916
893.733	651
893.837	1178
893.941	154
894.045	1487
894.148	610
894.252	1364
894.356	965
894.460	2305
894.564	236
894.667	1374
894.771	930
894.875	719
894.978	840
895.082	1201
895.186	1156
895.289	850
895.393	647
895.496	1013
895.600	929
895.703	54
895.807	631
895.910	1318
896.014	159
896.117	621
896.221	908
896.324	1890
896.427	478
896.531	932
896.634	854
896.737	507
896.840	862
896.944	967
897.047	927
897.150	377
897.253	210
897.356	1249
897.460	883
897.563	768
897.666	610
897.769	323
897.872	435
897.975	1011
898.078	1324
898.181	1125
898.284	-477
898.387	1326
898.490	1878
898.593	1467
898.695	791
898.798	1086
898.901	92
899.004	997
899.107	362
899.209	945
899.312	1328
899.415	661
899.518	-155
899.620	438
899.723	802
899.826	3266
899.928	3359
900.031	1464
900.133	447
900.236	589
900.338	-269
900.441	402
900.543	-172
900.646	724
900.748	285
900.851	1098
900.953	605
901.055	984
901.158	1347
901.260	2048
901.362	490
901.465	1025
901.567	89
901.669	1553
901.771	644
901.873	1634
901.976	763
902.078	1189
902.180	375
902.282	614
902.384	613
902.486	1398
902.588	1299
902.690	1447
902.792	695
902.894	883
902.996	-3
903.098	1342
903.200	341
903.302	391
903.404	-167
903.505	215
903.607	638
903.709	1208
903.811	959
903.913	575
904.014	27
904.116	837
904.218	320
904.319	1509
904.421	1289
904.523	1529
904.624	158
904.726	547
904.827	209
904.929	700
905.030	201
905.132	648
905.233	262
905.335	-411
905.436	566
905.537	458
905.639	265
905.740	72
905.841	1033
905.943	1253
906.044	1100
906.145	81
906.247	203
906.348	710
906.449	303
906.550	-24
906.651	146
906.752	475
906.854	19
906.955	696
907.056	696
907.157	196
907.258	676
907.359	715
907.460	122
907.561	452
907.662	338
907.762	656
907.863	460
907.964	1154
908.065	1019
908.166	860
908.267	392
908.367	336
908.468	330
908.569	358
908.670	764
908.770	1109
908.871	2202
908.971	890
909.072	911
909.173	132
909.273	-19
909.374	905
909.474	128
909.575	1153
909.675	354
909.776	466
909.876	897
909.977	926
910.077	650
910.177	1178
910.278	317
910.378	492
910.478	-136
910.579	795
910.679	664
910.779	588
910.879	268
910.980	269
911.080	966
911.180	708
911.280	128
911.380	254
911.480	95
911.580	384
911.680	612
911.780	658
911.880	615
911.980	100
912.080	-430
912.180	802
912.280	-14
912.380	647
912.480	-55
912.580	360
912.679	402
912.779	1094
912.879	270
912.979	222
913.078	-55
913.178	719
913.278	112
913.377	770
913.477	507
913.577	-428
913.676	115
913.776	1480
913.875	-154
913.975	1149
914.074	-211
914.174	470
914.273	462
914.373	1001
914.472	338
914.572	379
914.671	61
914.770	150
914.870	91
914.969	-19
915.068	-26
915.167	-32
915.267	221
915.366	665
915.465	420
915.564	1017
915.663	-12
915.763	724
915.862	-247
915.961	291
916.060	-150
916.159	330
916.258	577
916.357	32
916.456	67
916.555	742
916.654	586
916.752	325
916.851	-38
916.950	648
917.049	966
917.148	902
917.247	482
917.345	423
917.444	-158
917.543	147
917.642	176
917.740	154
917.839	419
917.937	402
918.036	-364
918.135	769
918.233	426
918.332	301
918.430	-8
918.529	402
918.627	991
918.726	249
918.824	830
918.923	414
919.021	320
919.119	-212
919.218	17
919.316	718
919.414	706
919.512	975
919.611	1122
919.709	417
919.807	441
919.905	1012
920.003	1044
920.102	460
920.200	140
920.298	586
920.396	-278
920.494	623
920.592	1149
920.690	656
920.788	1182
920.886	685
920.984	786
921.082	257
921.180	1011
921.277	858
921.375	735
921.473	872
921.571	658
921.669	1608
921.766	856
921.864	1343
921.962	1170
922.060	1108
922.157	755
922.255	1091
922.352	858
922.450	1482
922.548	998
922.645	955
922.743	1423
922.840	3260
922.938	2313
923.035	2564
923.133	1762
923.230	2471
923.327	3042
923.425	3060
923.522	3080
923.619	2497
923.717	1422
923.814	2329
923.911	1898
924.008	3005
924.106	1656
924.203	1462
924.300	2492
924.397	2033
924.494	2966
924.591	2637
924.688	2447
924.786	1891
924.883	1595
924.979	2484
925.077	2322
925.173	2139
925.270	1242
925.367	2680
925.464	2868
925.561	2582
925.658	3449
925.755	2601
925.852	2086
925.948	3643
926.045	2107
926.142	2697
926.239	2439
926.335	2628
926.432	2175
926.529	2339
926.625	1790
926.722	2375
926.818	1734
926.915	2243
927.011	2488
927.108	1755
927.204	1959
927.301	1782
927.397	2186
927.494	2326
927.590	1549
927.687	1840
927.783	1887
927.879	2085
927.976	1434
928.072	1490
928.168	2524
928.264	2241
928.361	1648
928.457	1997
928.553	1684
928.649	1452
928.745	1390
928.841	2038
928.937	1449
929.033	2043
929.129	2005
929.225	1947
929.321	1290
929.417	1912
929.513	1679
929.609	769
929.705	1673
929.801	1866
929.897	1009
929.993	2290
930.089	1370
930.184	1271
930.280	1805
930.376	2897
930.471	984
930.567	1027
930.663	1787
930.758	840
930.854	1833
930.950	1586
931.045	871
931.141	1467
931.236	1147
931.332	1480
931.427	1329
931.523	1933
931.618	1342
931.714	1103
931.809	1691
931.905	1945
932.000	628
932.095	1045
932.191	842
932.286	2202
932.381	1235
932.476	939
932.572	901
932.667	702
932.762	640
932.857	1006
932.952	1562
933.047	353
933.142	383
933.237	888
933.332	1165
933.427	1641
933.522	882
933.617	1158
933.712	1520
933.807	1110
933.902	844
933.997	1397
934.092	605
934.187	1274
934.282	1297
934.376	1040
934.471	960
934.566	995
934.661	1217
934.755	1485
934.850	327
934.945	2139
935.039	842
935.134	1521
935.228	1351
935.323	1436
935.417	552
935.512	966
935.606	898
935.701	845
935.795	853
935.890	1264
935.984	1368
936.079	877
936.173	1213
936.267	444
936.362	1214
936.456	1319
936.550	1432
936.644	1116
936.738	1039
936.833	1125
936.927	292
937.021	962
937.115	1193
937.209	640
937.303	1814
937.397	1070
937.491	913
937.585	1363
937.679	380
937.773	531
937.867	183
937.961	606
938.055	1125
938.149	1334
938.243	139
938.337	680
938.430	559
938.524	864
938.618	694
938.712	962
938.805	1286
938.899	1289
938.993	680
939.086	1231
939.180	672
939.274	1436
939.367	650
939.461	845
939.554	641
939.648	655
939.741	1066
939.835	832
939.928	884
940.022	1364
940.115	596
940.208	1225
940.302	987
940.395	1341
940.488	-255
940.582	649
940.675	-434
940.768	1043
940.861	840
940.954	1403
941.048	1364
941.141	1747
941.234	961
941.327	2264
941.420	3809
941.513	2301
941.606	615
941.699	995
941.792	1007
941.885	611
941.978	353
942.071	728
942.164	386
942.257	-119
942.349	743
942.442	925
942.535	-166
942.628	466
942.721	705
942.813	24
942.906	1273
942.999	143
943.091	1203
943.184	279
943.277	1128
943.369	238
943.462	86
943.554	678
943.647	267
943.739	1066
943.832	698
943.924	278
944.017	508
944.109	-261
944.201	757
944.294	448
944.386	731
944.478	335
944.571	-41
944.663	-345
944.755	462
944.847	748
944.940	-215
945.032	-678
945.124	-117
945.216	1496
945.308	-47
945.400	907
945.492	123
945.584	740
945.676	-135
945.768	588
945.860	70
945.952	657
946.044	778
946.136	569
946.228	187
946.320	32
946.412	-148
946.503	468
946.595	581
946.687	-494
946.779	-813
946.870	-449
946.962	-166
947.054	488
947.145	271
947.237	893
947.329	-7
947.420	310
947.512	-339
947.603	-299
947.695	-374
947.786	171
947.878	-482
947.969	824
948.061	-344
948.152	1059
948.243	-294
948.335	-282
948.426	95
948.517	59
948.609	411
948.700	-976
948.791	239
948.882	566
948.973	-452
949.065	709
949.156	736
949.247	-73
949.338	-491
949.429	-485
949.520	486
949.611	-808
949.702	-16
949.793	72
949.884	-115
949.975	-124
950.066	-627
950.157	-497
950.247	328
950.338	-376
950.429	-396
950.520	835
950.611	-347
950.701	175
950.792	644
950.883	453
950.973	-22
951.064	682
951.155	-96
951.245	625
951.336	238
951.427	211
951.517	255
951.608	991
951.698	-451
951.788	-458
951.879	-747
951.969	-232
952.060	583
952.150	30
952.240	44
952.331	-579
952.421	949
952.511	-259
952.602	-817
952.692	-255
952.782	-769
952.872	80
952.962	-901
953.052	490
953.143	-791
953.233	201
953.323	-940
953.413	297
953.503	16
953.593	189
953.683	-34
953.773	-663
953.863	-168
953.953	-841
954.042	-547
954.132	-719
954.222	1070
954.312	-98
954.402	-169
954.492	631
954.581	1550
954.671	-614
954.761	-778
954.850	485
954.940	-676
955.030	-457
955.119	-953
955.209	-346
955.298	-688
955.388	-814
955.477	223
955.567	-383
955.656	123
955.746	697
955.835	-845
955.925	-171
956.014	-102
956.103	25
956.193	63
956.282	323
956.371	498
956.461	-911
956.550	-190
956.639	-295
956.728	-871
956.817	-39
956.906	-604
956.995	45
957.085	-594
957.174	-140
957.263	-645
957.352	123
957.441	-485
957.530	229
957.619	-177
957.708	-672
957.796	-1180
957.885	8
957.974	-575
958.063	132
958.152	-1298
958.241	271
958.329	-407
958.418	-484
958.507	-841
958.596	227
958.684	-946
958.773	483
958.861	-657
958.950	-146
959.039	-541
959.127	-428
959.216	12
959.304	-491
959.393	241
959.481	-192
959.570	-38
959.658	-271
959.746	-371
959.835	1241
959.923	1227
960.011	20
960.100	274
960.188	180
960.276	-571
960.365	-752
960.453	-990
960.541	-1238
960.629	-314
960.717	-458
960.805	-1116
960.893	-230
960.981	-736
961.069	199
961.158	-774
961.245	-298
961.333	477
961.421	-548
961.509	-245
961.597	-538
961.685	-193
961.773	209
961.861	-328
961.949	1169
962.036	-1185
962.124	-185
962.212	-715
962.299	-1000
962.387	-1818
962.475	243
962.562	-568
962.650	-102
962.738	-110
962.825	-676
962.913	-812
963.000	-231
963.088	-476
963.175	444
963.263	-528
963.350	-406
963.438	-525
963.525	-811
963.612	995
963.700	5270
963.787	10096
963.874	2988
963.962	-276
964.049	-503
964.136	-1176
964.223	-823
964.310	-211
964.398	-574
964.485	-870
964.572	506
964.659	1255
964.746	32
964.833	-178
964.920	-555
965.007	-486
965.094	-18
965.181	-717
965.268	14
965.355	-497
965.441	-937
965.528	-1403
965.615	-665
965.702	-657
965.789	-587
965.875	-72
965.962	-807
966.049	-2236
966.136	25
966.222	-794
966.309	394
966.395	-1039
966.482	-965
966.569	-1567
966.655	-290
966.742	-852
966.828	10
966.915	-978
967.001	60
967.087	-1462
967.174	-116
967.260	377
967.347	1122
967.433	3227
967.519	5834
967.605	1066
967.692	-832
967.778	-963
967.864	-260
967.950	-865
968.036	-1031
968.123	-331
968.209	-306
968.295	-1998
968.381	853
968.467	-403
968.553	-1607
968.639	-775
968.725	-643
968.811	1144
968.897	956
968.983	-246
969.069	-1396
969.154	341
969.240	-298
969.326	-1747
969.412	-205
969.497	-1618
969.583	-915
969.669	-97
969.755	-260
969.840	-1131
969.926	332
970.012	49
970.097	1057
970.183	935
970.268	-68
970.354	453
970.439	1365
970.525	3966
970.610	468
970.696	11
970.781	-553
970.866	-1365
970.952	256
971.037	-1699
971.122	-844
971.208	-1125
971.293	-362
971.378	-1360
971.463	-1194
971.549	-692
971.634	180
971.719	-676
971.804	-61
971.889	-277
971.974	-1804
972.059	-1631
972.144	241
972.229	-1176
972.314	236
972.399	-264
972.484	-613
972.569	-756
972.654	-261
972.739	1481
972.824	1009
972.908	-936
972.993	-285
973.078	-937
973.163	-809
973.247	-956
973.332	-1249
973.417	308
973.501	-850
973.586	94
973.671	-1381
973.755	-191
973.840	1332
973.924	-76
974.009	-420
974.093	-790
974.178	1349
974.262	1073
974.346	1333
974.431	-1118
974.515	-1147
974.600	-1120
974.684	-577
974.768	-965
974.852	800
974.937	-1056
975.021	499
975.105	-663
975.189	-518
975.273	-769
975.358	-796
975.442	-925
975.526	-669
975.610	-1523
975.694	-1360
975.778	1023
975.862	-731
975.946	-2094
976.030	689
976.114	-1323
976.198	387
976.281	-355
976.365	-972
976.449	-1427
976.533	-1161
976.617	-1510
976.700	28
976.784	-629
976.868	-840
976.951	-223
977.035	-532
977.119	-216
977.202	109
977.286	-433
977.369	-878
977.453	189
977.536	253
977.620	-1362
977.703	-346
977.787	-1530
977.870	-192
977.953	442
978.037	-1257
978.120	186
978.203	1157
978.287	1336
978.370	362
978.453	-1422
978.536	-733
978.620	1432
978.703	210
978.786	-267
978.869	-1423
978.952	-1104
979.035	254
979.118	81
979.201	-994
979.284	-552
979.367	-1492
979.450	-370
979.533	-1107
979.616	-73
979.699	-666
979.782	-1016
979.865	-507
979.948	-664
980.030	-631
980.113	-911
980.196	-940
980.279	229
980.361	371
980.444	-1372
980.526	-358
980.609	-140
980.692	-531
980.774	-460
980.857	-1251
980.939	-748
981.022	-1036
981.104	-820
981.187	-563
981.269	-260
981.352	-661
981.434	-1399
981.516	-944
981.599	213
981.681	-382
981.763	-884
981.846	-603
981.928	-494
982.010	-1158
982.092	-1438
982.174	-628
982.256	-830
982.339	-883
982.421	-531
982.503	-239
982.585	-1116
982.667	-305
982.749	-633
982.831	-742
982.913	-1793
982.995	29
983.077	-1560
983.158	881
983.240	-1542
983.322	-258
983.404	-618
983.486	-865
983.568	-958
983.649	-708
983.731	-236
983.813	-266
983.894	-1001
983.976	-1006
984.058	-410
984.139	-83
984.221	-1121
984.302	-317
984.384	-557
984.465	-1132
984.547	-520
984.628	-760
984.710	-682
984.791	-1354
984.872	-1284
984.954	-174
985.035	-495
985.116	-1066
985.198	-925
985.279	-175
985.360	-1140
985.441	-1126
985.522	205
985.604	-434
985.685	-2109
985.766	478
985.847	160
985.928	-1744
986.009	-1165
986.090	-879
986.171	-678
986.252	-1005
986.333	-951
986.414	-685
986.495	-1152
986.576	-546
986.656	-246
986.737	224
986.818	-1303
986.899	-364
986.980	-733
987.060	488
987.141	-1312
987.222	-1039
987.302	-362
987.383	-228
987.464	-429
987.544	-43
987.625	-972
987.705	-27
987.786	-9
987.866	-475
987.947	-1392
988.027	-48
988.108	-926
988.188	-239
988.268	-307
988.349	-601
988.429	-865
988.509	-334
988.589	-1107
988.670	-1044
988.750	-313
988.830	-175
988.910	-190
988.990	-12
989.070	-312
989.151	-318
989.231	-1986
989.311	135
989.391	-1270
989.471	-764
989.551	-1352
989.631	-763
989.711	-337
989.791	-1215
989.870	-1553
989.950	591
990.030	-1267
990.110	-843
990.190	-1598
990.269	-439
990.349	-864
990.429	-1125
990.509	-609
990.588	-1708
990.668	-572
990.747	-1175
990.827	-1381
990.907	-214
990.986	-1610
991.066	103
991.145	-980
991.225	-262
991.304	-1637
991.383	-653
991.463	-1417
991.542	-93
991.622	-1024
991.701	-2050
991.780	-1298
991.859	-850
991.939	-1303
992.018	-386
992.097	-987
992.176	-375
992.256	-1194
992.335	-1954
992.414	-211
992.493	-1470
992.572	-1457
992.651	756
992.730	-641
992.809	-710
992.888	-1432
992.967	-1120
993.046	-564
993.125	-1269
993.203	-831
993.282	-836
993.361	-1251
993.440	-709
993.519	-1509
993.597	-1378
993.676	-1445
993.755	-518
993.834	-1591
993.912	-2114
993.991	-530
994.069	-1343
994.148	-562
994.226	-1388
994.305	-947
994.384	-469
994.462	187
994.540	-1875
994.619	-1976
994.697	-739
994.776	-1748
994.854	-477
994.932	-1275
995.011	-840
995.089	-1378
995.167	-966
995.245	-1007
995.324	-2475
995.402	-1442
995.480	-1771
995.558	-1249
995.636	-2451
995.714	-1924
995.792	-826
995.870	-1758
995.948	-888
996.026	-1192
996.104	-1889
996.182	-389
996.260	-1070
996.338	-1129
996.416	-2020
996.494	-1853
996.572	103
996.649	-2318
996.727	-2092
996.805	-1315
996.883	-1789
996.960	-1589
997.038	-1173
997.116	-1244
997.193	-2148
997.271	-1068
997.348	-1637
997.426	-1487
997.504	-1617
997.581	-1343
997.658	-738
997.736	-2636
997.813	-2059
997.891	-697
997.968	-1624
998.046	-1540
998.123	-803
998.200	-599
998.277	-2222
998.355	-1168
998.432	-2287
998.509	-1730
998.586	-539
998.663	-1351
998.741	-1450
998.818	-1917
998.895	-1389
998.972	-937
999.049	-923
999.126	-2319
999.203	-871
999.280	-1312
999.357	-2455
999.434	-1623
999.511	-616
999.587	-903
999.664	-2058
999.741	-1491
999.818	-500
999.895	-1215
999.971	-1796
1000.048	-1825
1000.125	-662
1000.202	-2542
1000.278	-1221
1000.355	-1088
1000.431	-1250
1000.508	-1982
1000.584	-1526
1000.661	-1503
1000.738	-1844
1000.814	-1974
1000.890	-1800
1000.967	-1787
1001.043	-514
1001.120	-2662
1001.196	-764
1001.272	-2358
1001.349	-1503
1001.425	-935
1001.501	-1451
1001.577	-1829
1001.654	-1763
1001.730	-2227
1001.806	-1515
1001.882	-2342
1001.958	-1090
1002.034	-1700
1002.110	-716
1002.186	-2535
1002.262	-1372
1002.338	-2205
1002.414	-940
1002.490	-1718
1002.566	-1361
1002.642	-2205
1002.718	-1750
1002.794	-1794
1002.870	-2275
1002.945	-1722
1003.021	-1935
1003.097	-1919
1003.173	-937
1003.248	-2142
1003.324	-1264
1003.400	-2078
1003.475	-2188
1003.551	-1755
1003.626	-1297
1003.702	-2031
1003.777	-1378
1003.853	-2299
1003.928	-1968
1004.004	-1639
1004.079	-1319
1004.155	-1816
1004.230	-2742
1004.305	-1259
1004.381	-2264
1004.456	-1415
1004.531	-1372
1004.607	-1456
1004.682	-2075
1004.757	-2074
1004.832	-1353
1004.907	-1931
1004.982	-833
1005.057	-1369
1005.133	-1944
1005.208	-2107
1005.283	-1797
1005.358	-1579
1005.433	-1365
1005.508	-1236
1005.583	-2475
1005.657	-2173
1005.732	-764
1005.807	-2422
1005.882	-1471
1005.957	-1686
1006.032	-1306
1006.106	-1373
1006.181	-1417
1006.256	-2042
1006.331	-2130
1006.405	-2304
1006.480	-1239
1006.554	-1764
1006.629	-703
1006.704	-2254
1006.778	-1291
1006.853	-1726
1006.927	-1428
1007.002	-2597
1007.076	-1318
1007.150	-1757
1007.225	-1674
1007.299	-1806
1007.373	-1758
1007.448	-1769
1007.522	-878
1007.596	-2024
1007.671	-2042
1007.745	-2064
1007.819	-2853
1007.893	-2066
1007.967	-1343
1008.041	-3017
1008.115	-1437
1008.190	-2016
1008.264	-1159
1008.338	-2941
1008.412	-1739
1008.486	-1347
1008.560	-2556
1008.633	-1546
1008.707	-1808
1008.781	-1239
1008.855	-2345
1008.929	-2196
1009.003	-1979
1009.076	-2191
1009.150	-1476
1009.224	-1538
1009.298	-1025
1009.371	-2576
1009.445	-277
1009.519	-1818
1009.592	-2047
1009.666	-1338
1009.739	-1597
1009.813	-2383
1009.886	-1232
1009.960	-1986
1010.033	-1029
1010.107	-1502
1010.180	-2431
1010.253	-2009
1010.327	-1403
1010.400	-2153
1010.473	-1317
1010.547	-1154
1010.620	-1702
1010.693	-1416
1010.766	-2434
1010.840	-1807
1010.913	-1808
1010.986	-1530
1011.059	-1751
1011.132	-2717
1011.205	-635
1011.278	-2763
1011.351	-2671
1011.424	-1738
1011.497	-1860
1011.570	-2011
1011.643	-1906
1011.716	-2700
1011.789	-1479
1011.862	-1570
1011.934	-1815
1012.007	-2882
1012.080	-1568
1012.153	-1991
1012.225	-1029
1012.298	-2061
1012.371	-1816
1012.443	-699
1012.516	-2384
1012.588	-1600
1012.661	-1262
1012.733	-1703
1012.806	-443
1012.879	-2816
1012.951	-1944
1013.023	-1423
1013.096	-1351
1013.168	-2144
1013.241	-1758
1013.313	-1796
1013.385	-1812
1013.458	-2554
1013.530	-819
1013.602	-2047
1013.674	-1344
1013.746	-2562
1013.819	-1853
1013.891	-1257
1013.963	-2177
1014.035	-2000
1014.107	-1187
1014.179	-2174
1014.251	-2135
1014.323	-1107
1014.395	-2263
1014.467	-1614
1014.539	-1517
1014.611	-2132
1014.683	-1699
1014.754	-2292
1014.826	-2483
1014.898	-1617
1014.970	-2174
1015.042	-998
1015.113	-2177
1015.185	-1755
1015.257	-2194
1015.328	-1383
1015.400	-1766
1015.471	-2067
1015.543	-2469
1015.615	-1363
1015.686	-1758
1015.757	-1635
1015.829	-1667
1015.901	-1954
1015.972	-1221
1016.043	-2245
1016.115	-794
1016.186	-1957
1016.257	-1957
1016.328	-1851
1016.400	-1551
1016.471	-2276
1016.542	-1962
1016.613	-1763
1016.685	-1242
1016.756	-1245
1016.827	-1482
1016.898	-2190
1016.969	-957
1017.040	-2173
1017.111	-1526
1017.182	-1823
1017.253	-1919
1017.324	-1432
1017.395	-1934
1017.466	-1252
1017.537	-1310
1017.608	-1688
1017.678	-1596
1017.749	-1916
1017.820	-1222
1017.891	-1749
1017.961	-792
1018.032	-1987
1018.103	-1805
1018.173	-1816
1018.244	-2396
1018.315	-2023
1018.385	-983
1018.456	-2440
1018.526	-2174
1018.597	-2307
1018.667	-1336
1018.738	-2428
1018.808	-1636
1018.878	-2226
1018.949	-1685
1019.019	-1289
1019.089	-1280
1019.160	-1390
1019.230	-1656
1019.300	-1688
1019.371	-2140
1019.441	-1657
1019.511	-1162
1019.581	-2197
1019.651	-1052
1019.721	-1642
1019.791	-1509
1019.861	-2560
1019.931	-1457
1020.001	-2324
1020.071	-1761
1020.141	-1640
1020.211	-1548
1020.281	-2118
1020.351	-1979
1020.421	-1624
1020.491	-1843
1020.560	-1599
1020.630	-1444
1020.700	-1695
1020.770	-2211
1020.839	-1546
1020.909	-1566
1020.979	-1207
1021.048	-1260
1021.118	-1285
1021.187	-1645
1021.257	-1518
1021.326	-1378
1021.396	-1220
1021.465	-667
1021.535	-1375
1021.604	-2313
1021.674	-1895
1021.743	-1212
1021.812	-1343
1021.882	-1869
1021.951	-2284
1022.020	-1677
1022.089	-2254
1022.159	-2020
1022.228	-2140
1022.297	-2226
1022.366	-2358
1022.435	-1199
1022.504	-1780
1022.573	-1710
1022.642	-1313
1022.711	-1954
1022.781	-2178
1022.849	-1337
1022.918	-1801
1022.987	-2155
1023.056	-1841
1023.125	-2289
1023.194	-838
1023.263	-1311
1023.331	-1710
1023.400	-2142
1023.469	-1818
1023.538	-1796
1023.606	-2009
1023.675	-1192
1023.744	-2649
1023.812	-2252
1023.881	-2240
1023.949	-1793
1024.018	-2136
1024.086	-1508
1024.155	-1510
1024.223	-2014
1024.292	-1316
1024.360	-1388
1024.429	-1411
1024.497	-2629
1024.565	-1988
1024.634	-1078
1024.702	-1125
1024.770	-1094
1024.838	-1715
1024.907	-1038
1024.975	-1677
1025.043	-1046
1025.111	-1875
1025.179	-1456
1025.247	-2473
1025.315	-1735
1025.383	-2178
1025.451	-1590
1025.519	-2038
1025.587	-1726
1025.655	-1657
1025.723	-1738
1025.791	-1896
1025.859	-1030
1025.927	-1153
1025.995	-1339
1026.062	-2214
1026.130	-1883
1026.198	-1962
1026.266	-1906
1026.333	-2007
1026.401	-1237
1026.469	-1605
1026.536	-1727
1026.604	-1723
1026.671	-2131
1026.739	-1645
1026.806	-1938
1026.874	-1948
1026.941	-1823
1027.009	-1739
1027.076	-2036
1027.144	-1247
1027.211	-1932
1027.278	-2082
1027.345	-1363
1027.413	-2051
1027.480	-2239
1027.547	-1668
1027.614	-1634
1027.682	-1061
1027.749	-1302
1027.816	-1570
1027.883	-871
1027.950	-1821
1028.017	-1964
1028.084	-1134
1028.151	-2014
1028.218	-2074
1028.285	-2109
1028.352	-2491
1028.419	-1920
1028.486	-1921
1028.553	-1440
1028.619	-2444
1028.686	-1413
1028.753	-2238
1028.820	-1742
1028.886	-1657
1028.953	-1461
1029.020	-2043
1029.086	-2221
1029.153	-1878
1029.220	-2192
1029.286	-2096
1029.353	-1750
1029.419	-2419
1029.486	-2422
1029.552	-2701
1029.619	-2181
1029.685	-2358
1029.751	-2917
1029.818	-1743
1029.884	-2760
1029.951	-966
1030.017	-1807
1030.083	-2052
1030.149	-1584
1030.216	-1888
1030.282	-2026
1030.348	-2036
1030.414	-2775
1030.480	-2325
1030.546	-2830
1030.612	-1641
1030.678	-1571
1030.744	-2957
1030.810	-2084
1030.876	-2281
1030.942	-2682
1031.008	-2017
1031.074	-2182
1031.140	-1940
1031.206	-1092
1031.272	-1754
1031.337	-2064
1031.403	-2271
1031.469	-1802
1031.534	-2114
1031.600	-858
1031.666	-2053
1031.731	-2396
1031.797	-2090
1031.863	-1645
1031.928	-2185
1031.994	-1744
1032.059	-2424
1032.125	-1922
1032.190	-2047
1032.256	-2065
1032.321	-2586
1032.386	-1969
1032.452	-2003
1032.517	-1683
1032.582	-2220
1032.647	-1679
1032.713	-1698
1032.778	-1918
1032.843	-1861
1032.908	-2044
1032.974	-1826
1033.039	-1725
1033.104	-1693
1033.169	-1772
1033.234	-2444
1033.299	-720
1033.364	-2541
1033.429	-1296
1033.494	-1101
1033.559	-1799
1033.624	-1729
1033.688	-2337
1033.753	-2284
1033.818	-2280
1033.883	-2084
1033.948	-1775
1034.013	-2351
1034.077	-1718
1034.142	-839
1034.207	-1184
1034.271	-696
1034.336	-328
1034.400	-894
1034.465	-470
1034.530	-1611
1034.594	-2268
1034.658	-1557
1034.723	-2085
1034.787	-2285
1034.852	-1786
1034.916	-2369
1034.981	-2276
1035.045	-1951
1035.109	-1646
1035.173	-1517
1035.238	-1981
1035.302	-1971
1035.366	-1633
1035.430	-2055
1035.495	-1698
1035.559	-1896
1035.623	-1787
1035.687	-2682
1035.751	-2243
1035.815	-2314
1035.879	-1706
1035.943	-1205
1036.007	-1982
1036.071	-2337
1036.135	-1308
1036.198	-1513
1036.262	-1477
1036.326	-2736
1036.390	-1033
1036.454	-1405
1036.517	-1515
1036.581	-2137
1036.645	-1268
1036.709	-1527
1036.772	-1584
1036.836	-1574
1036.900	-2197
1036.963	-1943
1037.026	-1434
1037.090	-1506
1037.154	-1795
1037.217	-2143
1037.280	-2190
1037.344	-1528
1037.407	-2180
1037.471	-1609
1037.534	-1847
1037.597	-2451
1037.661	-2514
1037.724	-1902
1037.787	-1532
1037.850	-1908
1037.913	-1673
1037.977	-2118
1038.040	-2785
1038.103	-1820
1038.166	-1609
1038.229	-1678
1038.292	-968
1038.355	-1719
1038.418	-1960
1038.481	-1831
1038.544	-1852
1038.607	-1991
1038.670	-2122
1038.732	-1777
1038.795	-1933
1038.858	-2993
1038.921	-823
1038.984	-2109
1039.046	-2415
1039.109	-2845
1039.172	-2775
1039.234	-2666
1039.297	-1903
1039.360	-2158
1039.422	-2659
1039.485	-2195
1039.547	-1325
1039.610	-2409
1039.672	-1836
1039.734	-2090
1039.797	-2750
1039.859	-2401
1039.922	-2199
1039.984	-2501
1040.046	-2525
1040.109	-1129
1040.171	-2338
1040.233	-1301
1040.295	-2112
1040.358	-2496
1040.420	-2022
1040.482	-2162
1040.544	-2570
1040.606	-1775
1040.668	-1452
1040.730	-2107
1040.792	-1751
1040.854	-2560
1040.916	-1831
1040.978	-1950
1041.040	-1675
1041.102	-1785
1041.164	-1637
1041.225	-2407
1041.287	-2085
1041.349	-2111
1041.411	-1672
1041.472	-1746
1041.534	-1685
1041.596	-2226
1041.657	-1729
1041.719	-1502
1041.781	-2385
1041.842	-1928
1041.904	-2126
1041.965	-1433
1042.027	-2018
1042.088	-1857
1042.150	-2508
1042.211	-2320
1042.272	-1774
1042.334	-1851
1042.395	-1451
1042.456	-2226
1042.518	-2027
1042.579	-2314
1042.640	-1736
1042.701	-2202
1042.763	-1567
1042.824	-2527
1042.885	-2476
1042.946	-2338
1043.007	-1769
1043.068	-1873
1043.129	-2317
1043.190	-2613
1043.251	-1380
1043.312	-1884
1043.373	-1726
1043.434	-2289
1043.495	-2087
1043.556	-2380
1043.616	-2017
1043.677	-2509
1043.738	-1369
1043.799	-1066
1043.859	-1944
1043.920	-2111
1043.981	-1802
1044.041	-2339
1044.102	-1661
1044.162	-2277
1044.223	-2156
1044.284	-1865
1044.344	-1832
1044.405	-1381
1044.465	-1393
1044.525	-1738
1044.586	-1939
1044.646	-1005
1044.707	-435
1044.767	-2211
1044.827	-1735
1044.887	-1540
1044.948	-1442
1045.008	-1720
1045.068	-1913
1045.128	-1853
1045.188	-1623
1045.249	-1788
1045.309	-1268
1045.369	-1013
1045.429	-2060
1045.489	-1883
1045.549	-1659
1045.609	-1774
1045.669	-1851
1045.729	-1445
1045.789	-1378
1045.848	-1452
1045.908	-1458
1045.968	-1922
1046.028	-1589
1046.088	-1140
1046.147	-1012
1046.207	-2007
1046.267	-1361
1046.326	-1689
1046.386	-1069
1046.446	-1303
1046.505	-729
1046.565	-1129
1046.624	-575
1046.684	-662
1046.743	-590
1046.803	-321
1046.862	300
1046.922	0
