'Start Wavelength	183.907
'End Wavelength	1046.922
'Gate Delay	5.000
'Gate Width (ms)	1.050
'Laser Output Level	0.000
'X Position	0.000
'Y Position	0.000
'Z Position	0.000
'Grid Point Number	1.000
'Shot Number	100.000
183.907	211.000
183.977	-21.000
184.047	29
184.116	139
184.186	-203
184.256	-258
184.325	-205
184.395	-222
184.465	820
184.534	97
184.604	-374
184.674	-432
184.743	-633
184.813	764
184.883	62
184.952	-20
185.022	-300
185.092	158
185.161	178
185.231	171
185.301	236
185.370	805
185.440	-679
185.509	-526
185.579	93
185.649	875
185.718	183
185.788	448
185.857	-241
185.927	-40
185.996	605
186.066	115
186.136	-131
186.205	263
186.275	541
186.344	415
186.414	-281
186.483	-144
186.553	1329
186.622	1593
186.692	833
186.761	154
186.831	165
186.900	132
186.970	451
187.039	693
187.109	1241
187.178	1099
187.248	540
187.317	944
187.387	-171
187.456	-128
187.526	868
187.595	1523
187.664	8
187.734	637
187.803	909
187.873	47
187.942	899
188.012	350
188.081	-315
188.150	823
188.220	1212
188.289	1670
188.358	437
188.428	970
188.497	138
188.567	553
188.636	536
188.705	381
188.775	526
188.844	-102
188.913	1171
188.983	95
189.052	-65
189.121	175
189.191	165
189.260	1206
189.329	825
189.399	716
189.468	189
189.537	668
189.606	385
189.676	685
189.745	889
189.814	200
189.883	573
189.953	275
190.022	335
190.091	1897
190.161	2449
190.230	1450
190.299	266
190.368	11
190.437	535
190.507	894
190.576	-290
190.645	-27
190.714	487
190.783	-96
190.853	585
190.922	570
190.991	946
191.060	386
191.129	428
191.198	893
191.268	292
191.337	-92
191.406	1323
191.475	513
191.544	116
191.613	1305
191.682	331
191.752	872
191.821	804
191.890	423
191.959	610
192.028	949
192.097	770
192.166	719
192.235	312
192.304	299
192.373	-711
192.442	526
192.511	951
192.580	28
192.650	669
192.719	380
192.788	489
192.857	507
192.926	877
192.995	530
193.064	435
193.133	1331
193.202	1449
193.271	1667
193.340	1206
193.409	1233
193.478	1415
193.547	2540
193.615	3680
193.684	2322
193.753	1566
193.822	1316
193.891	847
193.960	1075
194.029	741
194.098	1138
194.167	920
194.236	1290
194.305	880
194.374	807
194.443	-66
194.512	562
194.580	-5
194.649	1591
194.718	1102
194.787	1117
194.856	146
194.925	1099
194.994	315
195.062	765
195.131	1010
195.200	1932
195.269	2235
195.338	233
195.407	678
195.475	404
195.544	1390
195.613	1530
195.682	1114
195.751	1770
195.819	1299
195.888	1374
195.957	2017
196.026	2033
196.094	2267
196.163	1494
196.232	2117
196.301	1549
196.369	1342
196.438	686
196.507	731
196.576	976
196.644	790
196.713	202
196.782	-67
196.850	1018
196.919	427
196.988	612
197.056	1770
197.125	791
197.194	1359
197.262	1127
197.331	870
197.400	379
197.468	920
197.537	1091
197.606	1138
197.674	1874
197.743	2541
197.812	1635
197.880	1739
197.949	1526
198.017	2523
198.086	1429
198.155	1931
198.223	1662
198.292	3392
198.360	1957
198.429	716
198.497	1212
198.566	1447
198.635	2899
198.703	1046
198.772	2262
198.840	3082
198.909	3887
198.977	1776
199.046	1320
199.114	1380
199.183	1611
199.251	1107
199.320	790
199.388	-124
199.457	974
199.525	863
199.594	1171
199.662	620
199.731	1092
199.799	1338
199.867	1453
199.936	1213
200.004	1341
200.073	1083
200.141	540
200.210	411
200.278	754
200.346	1508
200.415	1596
200.483	1449
200.552	1275
200.620	1634
200.688	822
200.757	1112
200.825	1065
200.893	1022
200.962	1346
201.030	566
201.098	732
201.167	2835
201.235	1130
201.303	428
201.372	1190
201.440	1360
201.508	1696
201.577	1809
201.645	2426
201.713	753
201.781	754
201.850	2361
201.918	1434
201.986	1360
202.055	1720
202.123	1439
202.191	970
202.259	1780
202.327	1380
202.396	1105
202.464	891
202.532	1728
202.600	4757
202.669	3772
202.737	1223
202.805	1059
202.873	988
202.941	1053
203.009	1359
203.078	1174
203.146	1281
203.214	774
203.282	498
203.350	1244
203.418	1322
203.487	1915
203.555	956
203.623	1742
203.691	1271
203.759	1469
203.827	1290
203.895	690
203.963	200
204.031	947
204.099	1081
204.168	908
204.236	1500
204.304	2139
204.372	1551
204.440	1715
204.508	1409
204.576	481
204.644	1123
204.712	490
204.780	1359
204.848	1924
204.916	1791
204.984	1212
205.052	1217
205.120	1309
205.188	1437
205.256	1214
205.324	1253
205.392	950
205.460	1044
205.528	1200
205.596	1348
205.664	1275
205.732	1410
205.799	3735
205.867	6994
205.935	1408
206.003	2131
206.071	1545
206.139	1259
206.207	1662
206.275	1249
206.343	1696
206.411	2226
206.478	1356
206.546	2090
206.614	899
206.682	1532
206.750	740
206.818	2301
206.885	2314
206.953	1245
207.021	1918
207.089	1541
207.157	1254
207.225	1697
207.292	1282
207.360	1448
207.428	1241
207.496	713
207.563	1290
207.631	1964
207.699	2060
207.767	1843
207.834	1272
207.902	1185
207.970	1628
208.038	1129
208.105	1704
208.173	2133
208.241	2199
208.309	2311
208.376	2417
208.444	4700
208.512	2582
208.579	996
208.647	2170
208.715	3412
208.782	1748
208.850	1745
208.918	1399
208.985	1868
209.053	2281
209.120	2032
209.188	1510
209.256	1834
209.323	1199
209.391	2998
209.459	2648
209.526	1552
209.594	970
209.661	1698
209.729	1959
209.796	1872
209.864	1753
209.932	264
209.999	3048
210.067	2516
210.134	2131
210.202	2127
210.269	4131
210.337	3556
210.404	2560
210.472	1827
210.539	2411
210.607	2812
210.674	3099
210.742	2094
210.809	1450
210.877	2485
210.944	2743
211.012	1926
211.079	3239
211.146	1915
211.214	2696
211.281	3909
211.349	3204
211.416	2574
211.484	2775
211.551	2186
211.618	2472
211.686	2494
211.753	1508
211.821	2538
211.888	3008
211.955	2345
212.023	2268
212.090	2173
212.157	2135
212.225	2006
212.292	4349
212.359	7417
212.427	15770
212.494	8807
212.561	3965
212.629	2747
212.696	2479
212.763	2463
212.831	2140
212.898	3041
212.965	2299
213.032	2319
213.100	3337
213.167	2930
213.234	3563
213.301	2527
213.369	1941
213.436	2602
213.503	2539
213.570	3704
213.638	3393
213.705	1557
213.772	1171
213.839	3247
213.906	3715
213.973	3007
214.041	1429
214.108	2488
214.175	2799
214.242	2505
214.309	2146
214.376	2591
214.444	2795
214.511	3378
214.578	2243
214.645	3202
214.712	3523
214.779	2969
214.846	2620
214.913	4090
214.980	3705
215.048	4050
215.115	4820
215.182	4759
215.249	3660
215.316	2879
215.383	3059
215.450	2795
215.517	2765
215.584	1912
215.651	2593
215.718	2285
215.785	3503
215.852	3043
215.919	4219
215.986	3465
216.053	2615
216.120	2486
216.187	2608
216.254	4123
216.321	2655
216.388	2862
216.455	3313
216.522	3107
216.589	4381
216.656	6881
216.722	6649
216.789	4532
216.856	5003
216.923	3972
216.990	3631
217.057	4116
217.124	4845
217.191	4671
217.258	6374
217.324	6815
217.391	6983
217.458	5381
217.525	4207
217.592	4186
217.659	3102
217.725	3893
217.792	4396
217.859	5401
217.926	3299
217.993	2195
218.059	3144
218.126	2623
218.193	1941
218.260	2400
218.327	2215
218.393	2954
218.460	2626
218.527	1990
218.594	3446
218.660	4983
218.727	6367
218.794	2301
218.860	2061
218.927	1890
218.994	1697
219.061	2748
219.127	3036
219.194	4731
219.261	2397
219.327	2174
219.394	2453
219.461	1774
219.527	1568
219.594	3865
219.661	2177
219.727	1471
219.794	2243
219.860	1924
219.927	2159
219.994	4012
220.060	7543
220.127	5914
220.193	3332
220.260	2912
220.326	4993
220.393	8232
220.460	11313
220.526	7946
220.593	4477
220.659	5003
220.726	4584
220.792	9071
220.859	9471
220.925	13354
220.992	17999
221.058	16131
221.125	14022
221.191	9864
221.258	5195
221.324	4406
221.391	3717
221.457	2368
221.524	2830
221.590	3880
221.657	10541
221.723	8188
221.789	7318
221.856	6869
221.922	4000
221.989	3688
222.055	2034
222.121	2005
222.188	4233
222.254	3157
222.321	2495
222.387	1817
222.453	2411
222.520	1757
222.586	1997
222.652	2074
222.719	2027
222.785	2529
222.851	1912
222.918	1648
222.984	1829
223.050	1584
223.116	1026
223.183	3219
223.249	1781
223.315	1109
223.382	1903
223.448	1497
223.514	912
223.580	1224
223.647	1522
223.713	1284
223.779	2017
223.845	1837
223.911	2239
223.978	1623
224.044	1587
224.110	1402
224.176	1949
224.242	1185
224.309	1123
224.375	2184
224.441	1621
224.507	2285
224.573	999
224.639	2159
224.705	822
224.772	1814
224.838	1437
224.904	2427
224.970	1772
225.036	1632
225.102	1896
225.168	2355
225.234	1794
225.300	1882
225.366	1814
225.432	1765
225.499	1783
225.565	2182
225.631	2673
225.697	2529
225.763	2754
225.829	3800
225.895	3533
225.961	5701
226.027	4678
226.093	4195
226.159	5040
226.225	7668
226.291	16779
226.357	27736
226.423	15309
226.489	8966
226.554	6144
226.620	4954
226.686	6823
226.752	10527
226.818	15540
226.884	33702
226.950	30618
227.016	12963
227.082	8165
227.148	5917
227.214	6495
227.279	4944
227.345	4043
227.411	4568
227.477	4703
227.543	10175
227.609	9544
227.674	5169
227.740	3857
227.806	4131
227.872	3096
227.938	3470
228.003	4803
228.069	2800
228.135	2122
228.201	2556
228.267	2195
228.332	3290
228.398	4330
228.464	4316
228.530	1974
228.595	1898
228.661	1775
228.727	4632
228.792	4793
228.858	2542
228.924	1948
228.990	4209
229.055	3523
229.121	4941
229.187	2711
229.252	3140
229.318	2522
229.384	2494
229.449	4285
229.515	2079
229.581	117
229.646	3750
229.712	3092
229.777	7155
229.843	7541
229.909	5850
229.974	6095
230.040	5353
230.105	4076
230.171	3671
230.236	5546
230.302	8004
230.368	6945
230.433	3399
230.499	4042
230.564	4314
230.630	3475
230.695	2900
230.761	3344
230.826	1816
230.892	5090
230.957	2684
231.023	2210
231.088	2784
231.154	2844
231.219	3011
231.284	4430
231.350	5035
231.415	1947
231.481	2955
231.546	1989
231.612	2899
231.677	1776
231.742	931
231.808	4145
231.873	1724
231.939	1387
232.004	4990
232.069	6327
232.135	2795
232.200	2427
232.265	2154
232.331	2565
232.396	1635
232.461	1247
232.527	1509
232.592	1737
232.657	2672
232.723	4431
232.788	3058
232.853	2697
232.918	2474
232.984	1145
233.049	1353
233.114	3406
233.179	3885
233.245	5091
233.310	6941
233.375	2015
233.440	3546
233.506	1524
233.571	1527
233.636	2750
233.701	2184
233.766	4349
233.832	5869
233.897	3150
233.962	2859
234.027	5731
234.092	3548
234.157	3465
234.222	3040
234.288	5340
234.353	11548
234.418	12312
234.483	7691
234.548	6161
234.613	5017
234.678	4601
234.743	4704
234.808	13963
234.873	8142
234.938	5338
235.004	4379
235.069	3645
235.134	3013
235.199	3875
235.264	2768
235.329	2229
235.394	3399
235.459	4417
235.524	3755
235.589	3689
235.654	3354
235.719	2273
235.784	3232
235.849	2919
235.913	7492
235.978	8364
236.043	8886
236.108	3679
236.173	3014
236.238	4761
236.303	2612
236.368	3707
236.433	5135
236.498	7642
236.563	6634
236.627	12635
236.692	41686
236.757	35679
236.822	14341
236.887	9874
236.952	9691
237.017	5871
237.081	7920
237.146	9327
237.211	18958
237.276	39270
237.341	67192
237.405	33633
237.470	14584
237.535	9874
237.600	6295
237.664	6166
237.729	5068
237.794	6180
237.859	13543
237.923	8311
237.988	5046
238.053	7165
238.118	7797
238.182	14224
238.247	16101
238.312	7059
238.376	6951
238.441	4375
238.506	5571
238.570	2837
238.635	4994
238.700	2785
238.764	3192
238.829	7324
238.893	8939
238.958	6231
239.023	5181
239.087	3763
239.152	4501
239.216	2708
239.281	3072
239.346	3178
239.410	3953
239.475	3631
239.539	15435
239.604	12447
239.668	4727
239.733	4057
239.797	6270
239.862	16023
239.926	16985
239.991	7185
240.055	3446
240.120	3595
240.184	4228
240.249	2237
240.313	2657
240.378	3212
240.442	9504
240.507	15517
240.571	5661
240.635	7166
240.700	10180
240.764	5170
240.829	3806
240.893	1992
240.957	3798
241.022	8289
241.086	15401
241.151	7687
241.215	3392
241.279	6007
241.344	8737
241.408	5862
241.472	4398
241.537	5869
241.601	5414
241.665	2578
241.730	3159
241.794	4883
241.858	3496
241.922	4377
241.987	4922
242.051	3223
242.115	2852
242.179	3524
242.244	2819
242.308	4889
242.372	4039
242.436	4234
242.501	4050
242.565	3160
242.629	3208
242.693	3201
242.757	2225
242.822	3847
242.886	4044
242.950	3579
243.014	3857
243.078	5277
243.142	5963
243.206	4350
243.271	4393
243.335	3595
243.399	6560
243.463	20752
243.527	56882
243.591	20239
243.655	10361
243.719	5490
243.783	6774
243.847	10392
243.911	12448
243.975	15768
244.040	12253
244.104	7244
244.168	4526
244.232	8152
244.296	12434
244.360	11617
244.424	6373
244.488	5270
244.552	4753
244.615	2662
244.679	3751
244.743	5281
244.807	6381
244.871	4106
244.935	4458
244.999	3736
245.063	4146
245.127	5757
245.191	8874
245.255	8954
245.319	8027
245.383	6531
245.446	5232
245.510	3095
245.574	5159
245.638	5082
245.702	4403
245.766	12660
245.829	8766
245.893	5193
245.957	4157
246.021	5570
246.085	5982
246.149	6827
246.212	16436
246.276	23796
246.340	12296
246.404	7704
246.467	8773
246.531	11790
246.595	8885
246.659	7807
246.722	6797
246.786	10030
246.850	9171
246.913	11589
246.977	4811
247.041	5299
247.104	6855
247.168	6602
247.232	15961
247.295	31677
247.359	16758
247.423	7309
247.486	14506
247.550	9809
247.614	7899
247.677	10257
247.741	7208
247.804	5135
247.868	6518
247.932	13377
247.995	30676
248.059	12747
248.122	5936
248.186	9824
248.249	13433
248.313	46189
248.376	51412
248.440	32769
248.503	13361
248.567	12714
248.630	15523
248.694	23189
248.757	27381
248.821	50863
248.884	34674
248.948	28354
249.011	41319
249.075	57300
249.138	52324
249.202	22519
249.265	14344
249.328	15178
249.392	11638
249.455	10822
249.519	7974
249.582	10417
249.645	16801
249.709	12590
249.772	6733
249.835	7765
249.899	8107
249.962	7189
250.025	6815
250.089	18493
250.152	28306
250.215	14327
250.279	9870
250.342	9878
250.405	8993
250.468	8007
250.532	11619
250.595	17899
250.658	53407
250.721	86143
250.785	36448
250.848	20287
250.911	11865
250.974	11408
251.038	14556
251.101	31255
251.164	16001
251.227	17245
251.290	15866
251.354	19959
251.417	71767
251.480	75635
251.543	52962
251.606	125883
251.669	103548
251.732	43119
251.795	43989
251.859	42750
251.922	83864
251.985	54785
252.048	21577
252.111	16447
252.174	15268
252.237	28333
252.300	60935
252.363	63095
252.426	110010
252.489	52473
252.552	26898
252.615	17850
252.678	19428
252.741	43895
252.804	55453
252.867	109964
252.930	74472
252.993	39653
253.056	26770
253.119	19858
253.182	14103
253.245	24251
253.308	19406
253.371	18565
253.434	17192
253.497	15432
253.559	29660
253.622	21281
253.685	28893
253.748	31964
253.811	14724
253.874	16943
253.937	15308
254.000	12945
254.062	21504
254.125	32576
254.188	26702
254.251	26047
254.314	12524
254.376	23673
254.439	28089
254.502	24755
254.565	22255
254.628	39272
254.690	26827
254.753	16105
254.816	13142
254.878	13061
254.941	21544
255.004	23546
255.067	11172
255.129	12883
255.192	7638
255.255	6919
255.317	9147
255.380	6402
255.443	4462
255.505	5227
255.568	4626
255.631	5112
255.693	6019
255.756	3858
255.819	5855
255.881	4528
255.944	3891
256.006	3920
256.069	4263
256.132	3811
256.194	7045
256.257	14971
256.319	10916
256.382	10425
256.444	7266
256.507	5862
256.569	4975
256.632	5368
256.694	8921
256.757	22257
256.819	67522
256.882	27551
256.944	12827
257.007	11051
257.069	12459
257.132	6849
257.194	6578
257.257	6344
257.319	6548
257.381	6258
257.444	16152
257.506	72571
257.569	87774
257.631	44263
257.693	25620
257.756	12623
257.818	11098
257.880	6273
257.943	6821
258.005	5837
258.067	5806
258.130	5771
258.192	7489
258.254	17143
258.317	9079
258.379	6132
258.441	17943
258.503	16353
258.566	16682
258.628	23930
258.690	6824
258.753	8189
258.815	17469
258.877	9696
258.939	6565
259.001	5206
259.064	4666
259.126	6648
259.188	8876
259.250	7058
259.312	8265
259.375	20452
259.437	15554
259.499	6561
259.561	5835
259.623	5992
259.685	5151
259.747	6190
259.809	16385
259.872	31409
259.934	44059
259.996	43322
260.058	13032
260.120	6610
260.182	5800
260.244	5149
260.306	4783
260.368	5264
260.430	4615
260.492	9344
260.554	17213
260.616	16621
260.678	25554
260.740	35941
260.802	10359
260.864	9083
260.926	7136
260.988	7657
261.050	6569
261.112	10964
261.174	30152
261.236	26489
261.298	9440
261.359	14680
261.421	22256
261.483	6372
261.545	6891
261.607	3876
261.669	5460
261.731	10119
261.793	25945
261.854	13522
261.916	8088
261.978	5983
262.040	6697
262.102	5797
262.164	9345
262.225	8384
262.287	5914
262.349	17127
262.411	13915
262.472	6629
262.534	8384
262.596	21579
262.658	7927
262.719	4975
262.781	8008
262.843	19373
262.904	9866
262.966	6921
263.028	7793
263.090	33711
263.151	91876
263.213	32057
263.275	18824
263.336	9123
263.398	5970
263.459	3940
263.521	4909
263.583	15558
263.644	12268
263.706	4863
263.767	2970
263.829	3724
263.891	2804
263.952	2051
264.014	2841
264.075	4856
264.137	12200
264.198	8945
264.260	2908
264.321	3382
264.383	11011
264.444	21206
264.506	6706
264.567	6085
264.629	7736
264.690	13224
264.752	8242
264.813	5905
264.875	3465
264.936	3945
264.998	2947
265.059	3901
265.120	4383
265.182	7359
265.243	34376
265.305	35448
265.366	8504
265.427	5717
265.489	5050
265.550	3365
265.611	5415
265.673	4621
265.734	2989
265.795	3285
265.857	2763
265.918	4091
265.979	10171
266.040	55283
266.102	48450
266.163	14924
266.224	12440
266.286	7288
266.347	5037
266.408	5163
266.469	6033
266.530	3871
266.592	3648
266.653	10630
266.714	19264
266.775	6768
266.836	4553
266.898	4302
266.959	6521
267.020	4242
267.081	4583
267.142	3847
267.203	3721
267.264	2937
267.326	5205
267.387	3431
267.448	3690
267.509	3576
267.570	4128
267.631	3611
267.692	2832
267.753	4170
267.814	3082
267.875	8653
267.936	21930
267.997	8664
268.058	8164
268.119	6309
268.180	5884
268.241	4235
268.302	3196
268.363	3238
268.424	5260
268.485	4591
268.546	3020
268.607	3147
268.668	2907
268.729	3143
268.790	3224
268.851	4506
268.912	12664
268.972	18452
269.033	10461
269.094	3689
269.155	3320
269.216	3404
269.277	4029
269.338	3545
269.398	3426
269.459	5402
269.520	7535
269.581	11322
269.642	13708
269.702	9301
269.763	5304
269.824	4942
269.885	7145
269.945	11936
270.006	5537
270.067	2486
270.128	2658
270.188	3120
270.249	3674
270.310	3037
270.370	3678
270.431	2950
270.492	3279
270.553	4784
270.613	11355
270.674	22998
270.734	10571
270.795	4818
270.856	9157
270.916	7051
270.977	5107
271.038	6587
271.098	6411
271.159	10873
271.219	11791
271.280	4831
271.340	3928
271.401	4884
271.462	12857
271.522	8238
271.583	4717
271.643	5108
271.704	4745
271.764	6345
271.825	16417
271.885	49351
271.946	65860
272.006	22996
272.066	28520
272.127	49714
272.187	17590
272.248	9919
272.308	9312
272.369	30535
272.429	19553
272.489	15783
272.550	16887
272.610	17635
272.671	13894
272.731	9280
272.791	17563
272.852	12155
272.912	10210
272.972	5676
273.033	5202
273.093	9091
273.153	9626
273.214	6037
273.274	7044
273.334	21298
273.394	49222
273.455	22479
273.515	20027
273.575	45074
273.635	20203
273.696	24264
273.756	46219
273.816	20910
273.876	11999
273.936	19969
273.997	35112
274.057	10702
274.117	9489
274.177	14384
274.237	56887
274.297	50408
274.358	34184
274.418	37976
274.478	33439
274.538	12500
274.598	10382
274.658	28679
274.718	38252
274.778	17026
274.838	8662
274.898	15949
274.958	49895
275.018	46744
275.078	32630
275.138	14448
275.198	7586
275.258	5913
275.318	8389
275.378	16642
275.438	19469
275.498	12079
275.558	22712
275.618	48216
275.678	35775
275.738	23074
275.798	17688
275.858	8241
275.918	5119
275.978	8591
276.038	7863
276.098	5357
276.157	12572
276.217	39664
276.277	18786
276.337	14013
276.397	7604
276.457	10226
276.517	6245
276.576	5054
276.636	5004
276.696	10009
276.756	23463
276.815	17447
276.875	8787
276.935	9574
276.995	8851
277.055	5769
277.114	5983
277.174	8627
277.234	30998
277.293	14864
277.353	7803
277.413	6169
277.472	6290
277.532	7076
277.592	7932
277.651	24598
277.711	47361
277.771	16161
277.830	57271
277.890	48137
277.950	28411
278.009	77537
278.069	32076
278.128	33070
278.188	49783
278.248	21528
278.307	49931
278.367	32863
278.426	10606
278.486	8017
278.545	5680
278.605	5584
278.664	5615
278.724	6826
278.783	17179
278.843	45938
278.902	14108
278.962	9591
279.021	10334
279.081	9532
279.140	10576
279.199	9629
279.259	9395
279.318	10123
279.378	12432
279.437	20910
279.496	73525
279.556	183445
279.615	156774
279.675	45131
279.734	26969
279.793	38627
279.853	56804
279.912	24045
279.971	13159
280.031	12959
280.090	21410
280.149	41928
280.208	31245
280.268	117075
280.327	133017
280.386	35959
280.445	29112
280.505	29242
280.564	12946
280.623	10340
280.682	16944
280.742	28022
280.801	8889
280.860	7576
280.919	6039
280.978	5329
281.037	6429
281.097	5268
281.156	6370
281.215	4829
281.274	7687
281.333	28758
281.392	25720
281.451	6584
281.510	6279
281.569	5310
281.628	4374
281.688	4217
281.747	5294
281.806	6006
281.865	4406
281.924	4767
281.983	5017
282.042	2531
282.101	3052
282.160	4003
282.219	3894
282.278	5263
282.337	19528
282.396	14900
282.454	6092
282.513	8347
282.572	30662
282.631	19773
282.690	6162
282.749	5558
282.808	7394
282.867	6649
282.926	8259
282.985	3501
283.043	3843
283.102	4155
283.161	5452
283.220	12906
283.279	31792
283.338	11210
283.396	6036
283.455	6355
283.514	6674
283.573	12220
283.631	8990
283.690	6173
283.749	5586
283.808	13746
283.866	17539
283.925	6652
283.984	5830
284.043	9243
284.101	10074
284.160	6966
284.219	8182
284.277	8144
284.336	13209
284.395	41701
284.453	36288
284.512	13792
284.570	18224
284.629	16697
284.688	13975
284.746	15782
284.805	18187
284.863	23685
284.922	29796
284.981	34156
285.039	48535
285.098	82605
285.156	172735
285.215	239955
285.273	241053
285.332	193421
285.390	107943
285.449	66517
285.507	46200
285.566	33595
285.624	26080
285.683	20188
285.741	14951
285.799	13800
285.858	12182
285.916	11736
285.975	8930
286.033	8479
286.091	7107
286.150	6253
286.208	6569
286.267	7226
286.325	7557
286.383	13786
286.442	12344
286.500	6485
286.558	5409
286.616	5667
286.675	8805
286.733	7593
286.791	7502
286.850	6873
286.908	9860
286.966	18409
287.024	8181
287.083	5335
287.141	4999
287.199	6032
287.257	9575
287.315	6928
287.374	6754
287.432	18882
287.490	12143
287.548	7834
287.606	5751
287.664	5658
287.723	7997
287.781	10523
287.839	5650
287.897	7730
287.955	8177
288.013	12619
288.071	30016
288.129	101757
288.187	269258
288.245	130668
288.303	42913
288.361	24138
288.419	18343
288.477	12764
288.535	9421
288.593	7342
288.651	6171
288.709	5002
288.767	4948
288.825	4801
288.883	3550
288.941	3418
288.999	3122
289.057	3787
289.115	3053
289.173	4056
289.231	4349
289.289	4138
289.346	3657
289.404	5161
289.462	11114
289.520	10975
289.578	5607
289.636	3637
289.694	2876
289.751	2336
289.809	3100
289.867	4034
289.925	5204
289.983	7524
290.040	3357
290.098	3083
290.156	5185
290.214	6989
290.271	3392
290.329	3090
290.387	2092
290.444	3647
290.502	2081
290.560	2808
290.617	2332
290.675	3343
290.733	3189
290.790	4365
290.848	3537
290.906	3410
290.963	3726
291.021	3074
291.078	3244
291.136	4153
291.194	11755
291.251	29439
291.309	9752
291.366	4122
291.424	4110
291.481	4495
291.539	3874
291.596	3788
291.654	2674
291.711	2712
291.769	4738
291.826	11397
291.884	7362
291.941	4129
291.999	4010
292.056	4804
292.114	5877
292.171	3202
292.228	3942
292.286	6892
292.343	11853
292.401	13904
292.458	7660
292.515	5932
292.573	7238
292.630	7308
292.687	6436
292.745	4902
292.802	5637
292.859	14289
292.917	33414
292.974	22239
293.031	6649
293.089	4574
293.146	4331
293.203	2728
293.260	3160
293.318	4477
293.375	5613
293.432	3537
293.489	2747
293.546	4118
293.604	6936
293.661	18195
293.718	48955
293.775	25606
293.832	13641
293.889	10711
293.947	9863
294.004	6907
294.061	8238
294.118	15528
294.175	30717
294.232	27675
294.289	12277
294.346	6287
294.403	6159
294.460	6084
294.517	5557
294.574	4881
294.631	3466
294.688	6408
294.745	13853
294.802	49712
294.859	49788
294.916	20987
294.973	13238
295.030	12899
295.087	10293
295.144	7427
295.201	6088
295.258	5487
295.315	6778
295.372	21376
295.429	41139
295.486	18280
295.542	9600
295.599	16367
295.656	29049
295.713	24004
295.770	38563
295.827	16505
295.883	8231
295.940	7480
295.997	13955
296.054	15493
296.111	7257
296.167	5129
296.224	3869
296.281	3394
296.338	4083
296.394	3358
296.451	6012
296.508	16541
296.564	34446
296.621	21943
296.678	43111
296.734	64543
296.791	24141
296.848	13327
296.904	15320
296.961	33115
297.018	47029
297.074	33737
297.131	12860
297.187	10412
297.244	15599
297.301	40625
297.357	75154
297.414	27865
297.470	11313
297.527	7790
297.583	6469
297.640	8224
297.696	5647
297.753	4343
297.809	3285
297.866	3358
297.922	3257
297.979	3930
298.035	4617
298.092	8839
298.148	26374
298.204	27251
298.261	13607
298.317	18768
298.374	52540
298.430	33030
298.486	14349
298.543	11120
298.599	9035
298.656	10799
298.712	19723
298.768	47483
298.824	34063
298.881	11710
298.937	7526
298.993	5751
299.050	9088
299.106	7522
299.162	6321
299.218	6508
299.275	5328
299.331	7125
299.387	14167
299.443	46425
299.500	56357
299.556	23587
299.612	10878
299.668	10036
299.724	13456
299.780	15995
299.837	10300
299.893	13491
299.949	43760
300.005	55461
300.061	42973
300.117	67778
300.173	34576
300.229	16393
300.285	19485
300.341	25485
300.397	11915
300.453	7723
300.510	7059
300.566	7513
300.622	10566
300.678	27766
300.734	55279
300.790	46513
300.845	51118
300.901	35160
300.957	49920
301.013	40398
301.069	15009
301.125	12066
301.181	11430
301.237	8270
301.293	5733
301.349	4901
301.405	4146
301.461	4075
301.516	5236
301.572	7454
301.628	15167
301.684	14299
301.740	18095
301.796	30815
301.851	21676
301.907	36060
301.963	37801
302.019	51022
302.074	127101
302.130	131304
302.186	57964
302.242	24643
302.297	16724
302.353	16625
302.409	29759
302.464	28402
302.520	22916
302.576	51190
302.631	60919
302.687	36919
302.743	15480
302.798	8919
302.854	7129
302.910	7778
302.965	9540
303.021	17751
303.076	19674
303.132	24086
303.187	29019
303.243	15165
303.299	8200
303.354	6104
303.410	6291
303.465	5101
303.521	5485
303.576	5456
303.632	7691
303.687	13189
303.743	40534
303.798	36654
303.853	14926
303.909	8688
303.964	8797
304.020	13123
304.075	22113
304.130	18527
304.186	36052
304.241	37441
304.297	29207
304.352	15677
304.358	14905
304.407	8643
304.449	8639
304.463	8646
304.518	8821
304.539	8843
304.573	8871
304.629	7669
304.630	7765
304.684	12433
304.720	23776
304.739	29489
304.794	48334
304.811	41218
304.850	24184
304.902	11634
304.905	10831
304.960	7359
304.992	7163
305.015	7041
305.071	7538
305.083	7136
305.126	5660
305.173	4155
305.181	3916
305.236	3498
305.264	4133
305.292	4774
305.347	6387
305.354	6362
305.402	6302
305.445	7279
305.457	7533
305.512	10159
305.535	10319
305.567	10502
305.622	10257
305.626	10529
305.678	17102
305.716	34754
305.733	41303
305.788	51765
305.807	44400
305.843	31292
305.897	37830
305.898	37883
305.953	41222
305.988	27410
306.008	19722
306.063	11853
306.078	10734
306.118	8288
306.168	5724
306.173	5503
306.228	4826
306.259	4336
306.283	3981
306.338	4161
306.349	4177
306.393	4271
306.440	5111
306.448	5259
306.503	5168
306.530	5648
306.558	6908
306.613	13885
306.620	15172
306.668	25284
306.711	39076
306.723	41199
306.778	34949
306.801	26970
306.833	17466
306.888	8458
306.892	8179
306.943	6172
306.982	5157
306.997	4820
307.052	4984
307.072	4931
307.107	4793
307.162	4679
307.163	4696
307.217	6823
307.253	8092
307.272	8379
307.327	9247
307.343	8704
307.381	7734
307.434	8259
307.436	8455
307.491	15239
307.524	23748
307.546	27697
307.600	35258
307.614	32166
307.655	19722
307.704	9457
307.710	8824
307.765	8365
307.795	9959
307.819	11303
307.874	16205
307.885	16002
307.929	13893
307.975	12292
307.984	12487
308.038	17283
308.065	22573
308.093	38290
308.148	80222
308.156	91074
308.202	151682
308.246	189848
308.257	186948
308.312	100922
308.336	72344
308.366	55495
308.421	38173
308.426	36421
308.475	22873
308.517	16098
308.530	14578
308.585	11091
308.607	10295
308.639	10082
308.694	9849
308.697	9970
308.748	14196
308.787	19210
308.803	19711
308.857	16728
308.877	14907
308.912	13214
308.967	14033
308.967	14084
309.021	21413
309.058	28242
309.076	35196
309.130	62825
309.148	74148
309.185	127295
309.238	217612
309.239	218306
309.293	252324
309.328	236583
309.348	205435
309.402	100674
309.418	75540
309.457	51865
309.508	32513
309.511	32068
309.566	32279
309.598	34492
309.620	42168
309.674	65294
309.688	71757
309.729	68948
309.778	55167
309.783	53646
309.837	35245
309.868	26778
309.892	29584
309.946	40656
309.959	45182
310.001	59588
310.049	70887
310.055	68805
310.109	40664
310.139	24634
310.163	18482
310.218	10511
310.229	9372
310.272	7858
310.319	6731
310.326	6504
310.381	4990
310.409	4526
310.435	4402
310.489	4144
310.499	4142
310.543	4057
310.589	3879
310.598	3794
310.652	3546
310.679	3376
310.706	3088
310.760	2584
310.769	2504
310.814	2817
310.859	3194
310.868	3203
310.923	3225
310.948	3243
310.977	3419
311.031	4039
311.038	4115
311.085	3536
311.128	2752
311.139	2809
311.193	3368
311.218	3615
311.247	3563
311.301	3345
311.308	3328
311.356	3211
311.398	3120
311.410	3106
311.464	3128
311.488	3078
311.518	3150
311.572	3424
311.578	3458
311.626	4917
311.668	6294
311.680	6035
311.734	4656
311.758	4050
311.788	4017
311.842	4059
311.847	4069
311.896	5013
311.937	5907
311.950	5803
312.004	5332
312.027	5125
312.058	4648
312.112	3818
312.117	3742
312.165	3168
312.207	2695
312.297	3659
312.386	2442
312.476	4161
312.566	10027
312.656	4992
312.745	2450
312.835	3421
312.925	3713
313.015	2618
313.104	3242
313.194	3151
313.284	3028
313.374	5560
313.463	5103
313.553	3536
313.643	2705
313.732	3118
313.822	2973
313.912	4329
314.001	4301
314.091	4680
314.180	4569
314.270	6862
314.360	5293
314.449	4875
314.539	2902
314.628	3651
314.718	3885
314.808	4613
314.897	3891
314.987	4325
315.076	5507
315.166	6681
315.255	5336
315.345	6125
315.434	4880
315.524	4283
315.613	6097
315.703	9280
315.792	15105
315.881	50203
315.971	16587
316.060	10918
316.150	9376
316.239	9066
316.328	4537
316.418	3437
316.507	4082
316.597	6213
316.686	5132
316.775	5112
316.865	9460
316.954	3783
317.043	2856
317.133	3987
317.222	3313
317.311	3211
317.400	3049
317.490	6580
317.579	7330
317.668	6111
317.757	9810
317.847	24259
317.936	85921
318.025	33128
318.114	19349
318.203	12002
318.293	11155
318.382	21654
318.471	17164
318.560	18733
318.649	24147
318.738	7467
318.828	5973
318.917	6204
319.006	6444
319.095	12386
319.184	34644
319.273	24782
319.362	16134
319.451	5576
319.540	5305
319.629	12497
319.718	22236
319.807	8468
319.896	12636
319.985	43885
320.074	18780
320.163	4522
320.252	5935
320.341	5652
320.430	4704
320.519	9671
320.608	5503
320.697	4960
320.786	4854
320.875	7782
320.964	9621
321.053	15736
321.142	21836
321.230	23633
321.319	16104
321.408	38423
321.497	16113
321.586	16328
321.675	12114
321.764	12410
321.852	8551
321.941	21454
322.030	13996
322.119	13395
322.207	38622
322.296	17559
322.385	12214
322.474	17425
322.562	50587
322.651	24351
322.740	18517
322.829	22168
322.917	13717
323.006	11643
323.095	11422
323.183	7185
323.272	9550
323.361	16052
323.449	36992
323.538	13691
323.626	25411
323.715	16434
323.804	7023
323.892	22555
323.981	16694
324.069	5115
324.158	10552
324.246	10314
324.335	7149
324.424	14106
324.512	6350
324.601	7534
324.689	14256
324.778	27848
324.866	11522
324.954	4153
325.043	3340
325.131	7127
325.220	9179
325.308	10681
325.397	8675
325.485	6588
325.574	3231
325.662	3041
325.750	3556
325.839	3707
325.927	2172
326.015	4965
326.104	3111
326.192	4891
326.280	2512
326.369	2959
326.457	5396
326.545	11100
326.634	4046
326.722	2483
326.810	2984
326.898	3894
326.987	4280
327.075	9578
327.163	8356
327.251	3888
327.340	9720
327.428	16172
327.516	4114
327.604	3675
327.692	2866
327.781	2189
327.869	4079
327.957	3510
328.045	4968
328.133	2926
328.221	1995
328.309	2553
328.397	3313
328.485	4899
328.574	7271
328.662	26272
328.750	10684
328.838	3369
328.926	2323
329.014	2713
329.102	4378
329.190	9393
329.278	7424
329.366	2605
329.454	1202
329.542	1448
329.630	1308
329.718	2218
329.806	3116
329.893	3103
329.981	2011
330.069	3734
330.157	12091
330.245	37218
330.333	18401
330.421	5291
330.509	7576
330.597	30222
330.684	16971
330.772	4549
330.860	4425
330.948	5204
331.036	2729
331.123	2343
331.211	1781
331.299	2518
331.387	3855
331.475	9739
331.562	3501
331.650	2515
331.738	2800
331.825	2620
331.913	1435
332.001	1829
332.089	2742
332.176	4448
332.264	9365
332.352	9343
332.439	3110
332.527	2868
332.614	2240
332.702	3230
332.790	2695
332.877	6740
332.965	12074
333.052	7321
333.140	6141
333.228	20076
333.315	5230
333.403	3253
333.490	7179
333.578	9773
333.665	27821
333.753	11490
333.840	2740
333.928	4388
334.015	7384
334.103	12554
334.190	36788
334.278	11698
334.365	8384
334.452	7946
334.540	4201
334.627	4341
334.715	6369
334.802	12253
334.889	42270
334.977	50915
335.064	15589
335.151	6827
335.239	5305
335.326	6205
335.413	20153
335.501	28096
335.588	4844
335.675	5042
335.762	4345
335.850	7418
335.937	9218
336.024	18977
336.111	58266
336.199	40267
336.286	12324
336.373	5677
336.460	2577
336.547	3666
336.635	4255
336.722	3837
336.809	2383
336.896	5111
336.983	13930
337.070	29394
337.157	42966
337.245	25391
337.332	17454
337.419	3660
337.506	2247
337.593	3240
337.680	7469
337.767	23059
337.854	7826
337.941	8597
338.028	10416
338.115	4270
338.202	4283
338.289	7726
338.376	24236
338.463	8983
338.550	12904
338.637	15011
338.724	4857
338.811	6699
338.898	2627
338.984	1540
339.071	2515
339.158	4982
339.245	13026
339.332	7635
339.419	6006
339.506	6093
339.593	1767
339.679	2869
339.766	2238
339.853	4417
339.940	10409
340.027	4171
340.113	3914
340.200	4753
340.287	3058
340.374	4887
340.460	10426
340.547	3122
340.634	7924
340.720	30104
340.807	17294
340.894	2900
340.980	2796
341.067	2748
341.154	4212
341.240	7519
341.327	15324
341.414	4938
341.500	4106
341.587	4098
341.674	2171
341.760	9879
341.847	11584
341.933	4016
342.020	713
342.106	2427
342.193	3563
342.279	7922
342.366	5631
342.452	10507
342.539	5755
342.625	14055
342.712	32708
342.798	14035
342.885	6082
342.971	1439
343.058	736
343.144	2322
343.230	2638
343.317	2191
343.403	2057
343.490	2247
343.576	1119
343.662	2482
343.749	2986
343.835	5426
343.921	9884
344.008	54934
344.094	129297
344.180	28874
344.267	11320
344.353	37625
344.439	36787
344.525	15581
344.612	6263
344.698	5547
344.784	2965
344.870	2698
344.957	3361
345.043	6853
345.129	3771
345.215	10126
345.301	5191
345.387	3238
345.474	1550
345.560	1964
345.646	2541
345.732	2348
345.818	3624
345.904	3179
345.990	3047
346.076	2837
346.162	4192
346.249	3151
346.335	1813
346.421	4094
346.507	14752
346.593	57005
346.679	12542
346.765	3590
346.851	3114
346.937	3625
347.023	2971
347.108	4322
347.194	2702
347.280	2950
347.366	5058
347.452	18694
347.538	67251
347.624	47579
347.710	37308
347.796	4883
347.882	2731
347.967	2378
348.053	3007
348.139	2547
348.225	2164
348.311	2565
348.397	2713
348.482	3857
348.568	4038
348.654	2829
348.740	7249
348.825	6286
348.911	8465
348.997	29159
349.083	57271
349.168	8922
349.254	4072
349.340	3411
349.425	1933
349.511	4654
349.597	4042
349.682	11373
349.768	40678
349.854	18883
349.939	3564
350.025	2513
350.110	2336
350.196	1647
350.282	1604
350.367	2346
350.453	2801
350.538	3169
350.624	3776
350.709	3911
350.795	1940
350.880	3097
350.966	3305
351.051	3428
351.137	2935
351.222	3865
351.308	12755
351.393	35381
351.479	8805
351.564	2867
351.649	2438
351.735	2418
351.820	2077
351.906	3124
351.991	3821
352.076	21386
352.162	33265
352.247	6357
352.332	4392
352.418	8374
352.503	11186
352.588	50237
352.673	39217
352.759	8506
352.844	3886
352.929	5199
353.014	6980
353.100	4869
353.185	8693
353.270	12579
353.355	11078
353.441	4179
353.526	3035
353.611	10244
353.696	12126
353.781	6823
353.866	2615
353.952	4118
354.037	10081
354.122	24087
354.207	20540
354.292	8416
354.377	3749
354.462	2808
354.547	4255
354.632	4459
354.717	6027
354.802	9587
354.887	4500
354.972	2542
355.057	1686
355.142	1968
355.227	4261
355.312	7811
355.397	15508
355.482	38381
355.567	16997
355.652	12441
355.737	14603
355.822	45961
355.907	37048
355.991	7137
356.076	3074
356.161	3544
356.246	2752
356.331	4203
356.416	10061
356.501	69675
356.585	72523
356.670	10525
356.755	7373
356.840	10420
356.924	47913
357.009	165813
357.094	61815
357.179	14024
357.263	9120
357.348	8331
357.433	8230
357.517	8206
357.602	6054
357.687	5257
357.771	7903
357.856	18477
357.941	13613
358.025	34271
358.110	152993
358.195	70280
358.279	11125
358.364	8916
358.448	31014
358.533	87513
358.617	60754
358.702	62494
358.787	21726
358.871	12419
358.956	10325
359.040	3522
359.125	2551
359.209	3455
359.294	8192
359.378	15427
359.462	9511
359.547	6018
359.631	3487
359.716	2170
359.800	2756
359.885	5223
359.969	3078
360.053	3792
360.138	2840
360.222	6774
360.306	11148
360.391	8623
360.475	12204
360.559	29879
360.644	31021
360.728	22356
360.812	36795
360.896	105503
360.981	40536
361.065	19045
361.149	6080
361.233	6063
361.318	4724
361.402	7451
361.486	4874
361.570	4152
361.654	5626
361.739	15731
361.823	65892
361.907	102943
361.991	18553
362.075	11615
362.159	23134
362.243	18650
362.327	20520
362.411	34646
362.495	13932
362.580	7095
362.664	4742
362.748	5287
362.832	7584
362.916	12617
363.000	49813
363.084	130062
363.168	134405
363.252	30506
363.336	11491
363.420	12507
363.503	31095
363.587	34604
363.671	8608
363.755	6732
363.839	12142
363.923	5342
364.007	12913
364.091	13020
364.175	14429
364.258	57229
364.342	64372
364.426	125302
364.510	68302
364.594	20834
364.677	20947
364.761	91198
364.845	64414
364.929	22073
365.013	17210
365.096	14492
365.180	16521
365.264	15207
365.347	48779
365.431	20186
365.515	5869
365.598	4834
365.682	5204
365.766	4115
365.849	5305
365.933	5663
366.017	5575
366.100	3519
366.184	2328
366.267	4192
366.351	3159
366.435	2997
366.518	2539
366.602	3429
366.685	4114
366.769	4747
366.852	5280
366.936	11633
367.019	7232
367.103	3930
367.186	6667
367.270	3474
367.353	2832
367.436	4204
367.520	2630
367.603	6283
367.687	7623
367.770	13994
367.853	9152
367.937	29251
368.020	48419
368.104	11006
368.187	11112
368.270	16254
368.353	12735
368.437	13175
368.520	18133
368.603	16409
368.687	31937
368.770	64204
368.853	14411
368.936	11777
369.020	9890
369.103	4139
369.186	3406
369.269	4552
369.352	9268
369.436	12476
369.519	8151
369.602	3943
369.685	5373
369.768	4533
369.851	3959
369.934	2631
370.018	3775
370.101	11968
370.184	8899
370.267	6274
370.350	10467
370.433	16171
370.516	50102
370.599	72016
370.682	22954
370.765	34711
370.848	40984
370.931	77439
371.014	26633
371.097	5349
371.180	4889
371.263	3571
371.346	2555
371.429	4172
371.511	3417
371.594	6967
371.677	10236
371.760	9927
371.843	11298
371.926	54618
372.009	127800
372.091	43262
372.174	27875
372.257	71487
372.340	27458
372.423	16150
372.505	14281
372.588	8158
372.671	22356
372.754	77998
372.836	37168
372.919	15616
373.002	25610
373.085	11999
373.167	13314
373.250	31644
373.332	70914
373.415	85035
373.498	172546
373.580	63521
373.663	94747
373.746	122123
373.828	26081
373.911	11059
373.993	9481
374.076	26024
374.159	23144
374.241	18486
374.324	64884
374.406	40663
374.489	50532
374.571	149186
374.654	60886
374.736	28755
374.819	87440
374.901	124250
374.983	127610
375.066	22833
375.148	7849
375.231	22040
375.313	40442
375.395	17266
375.478	6260
375.560	5066
375.643	7582
375.725	25009
375.807	110788
375.890	74304
375.972	19673
376.054	14994
376.136	14536
376.219	9276
376.301	31344
376.383	101437
376.465	36143
376.548	23756
376.630	27714
376.712	87999
376.794	39761
376.877	5844
376.959	2987
377.041	4231
377.123	5257
377.205	6306
377.287	1844
377.369	3603
377.452	3366
377.534	3502
377.616	3432
377.698	3447
377.780	2614
377.862	3847
377.944	4040
378.026	2008
378.108	2872
378.190	1796
378.272	3135
378.354	2207
378.436	2187
378.518	4411
378.600	13475
378.682	15449
378.764	45458
378.846	34315
378.928	8163
379.010	13700
379.091	7779
379.173	3847
379.255	2616
379.337	6397
379.419	20847
379.501	66074
379.583	23776
379.664	6530
379.746	14867
379.828	44307
379.910	60445
379.991	52809
380.073	9679
380.155	4550
380.237	3843
380.318	3371
380.400	3078
380.482	9261
380.564	13553
380.645	14071
380.727	13228
380.809	8069
380.890	5448
380.972	4017
381.053	3976
381.135	6367
381.217	14754
381.298	47415
381.380	21195
381.461	16650
381.543	82381
381.624	101446
381.706	18155
381.787	9565
381.869	9994
381.951	32532
382.032	132562
382.113	83895
382.195	17088
382.276	13885
382.358	28602
382.439	78150
382.521	82895
382.602	128705
382.684	58129
382.765	110870
382.846	132311
382.928	229604
383.009	122715
383.090	75252
383.172	288228
383.253	446041
383.334	143170
383.416	127092
383.497	65697
383.578	33115
383.659	61508
383.741	235654
383.822	605751
383.903	313278
383.984	101814
384.066	153040
384.147	93075
384.228	20909
384.309	14874
384.390	12570
384.471	9615
384.553	9996
384.634	11764
384.715	12042
384.796	7449
384.877	9480
384.958	41954
385.039	51367
385.120	17780
385.201	8083
385.282	7948
385.363	8110
385.444	7760
385.525	17676
385.606	59828
385.687	51639
385.768	11344
385.849	12926
385.930	61045
386.011	106444
386.092	27004
386.173	7708
386.254	4936
386.335	6651
386.416	6706
386.496	26580
386.577	44087
386.658	13291
386.739	7048
386.820	6693
386.901	4592
386.981	5488
387.062	4549
387.143	11151
387.224	45091
387.304	42029
387.385	13970
387.466	7456
387.547	9726
387.627	9089
387.708	17620
387.789	80141
387.869	94654
387.950	24788
388.031	4780
388.111	2768
388.192	6748
388.273	9897
388.353	7372
388.434	5766
388.514	13736
388.595	66171
388.676	90875
388.756	44003
388.837	40850
388.917	24724
388.998	3857
389.078	5779
389.159	3819
389.239	3888
389.320	7807
389.400	6064
389.480	14832
389.561	47858
389.641	22883
389.722	7873
389.802	12799
389.883	18889
389.963	55722
390.043	30914
390.124	7032
390.204	15055
390.284	50229
390.365	29776
390.445	22009
390.525	74932
390.605	72755
390.686	26364
390.766	11438
390.846	5962
390.927	3615
391.007	3656
391.087	5150
391.167	6798
391.247	5550
391.328	5552
391.408	6735
391.488	5838
391.568	2867
391.648	6815
391.728	9129
391.808	9858
391.888	9663
391.969	26852
392.049	43445
392.129	16379
392.209	19462
392.289	55546
392.369	27465
392.449	13410
392.529	12006
392.609	13646
392.689	17749
392.769	57011
392.849	48068
392.929	31910
393.009	74260
393.089	68321
393.169	71387
393.248	210599
393.328	653691
393.408	692463
393.488	233811
393.568	72726
393.648	34318
393.728	22730
393.807	15097
393.887	13909
393.967	11318
394.047	11756
394.127	12838
394.206	17589
394.286	57804
394.366	272834
394.446	289901
394.525	60800
394.605	16304
394.685	12918
394.764	18461
394.844	30128
394.924	25329
395.003	10918
395.083	8246
395.163	6933
395.242	7330
395.322	8290
395.402	3915
395.481	7978
395.561	13581
395.640	40694
395.720	43874
395.799	39766
395.879	29697
395.958	22824
396.038	80826
396.117	355903
396.197	383244
396.276	97791
396.356	29854
396.435	22460
396.515	21001
396.594	30665
396.673	60071
396.753	208464
396.832	597330
396.912	457507
396.991	122858
397.070	36643
397.150	19252
397.229	15211
397.308	21837
397.388	40890
397.467	18478
397.546	7878
397.625	4135
397.705	9021
397.784	8384
397.863	4931
397.942	3878
398.022	3594
398.101	9105
398.180	27731
398.259	12330
398.338	5262
398.417	4319
398.497	3300
398.576	4141
398.655	2497
398.734	3150
398.813	3226
398.892	8463
398.971	30022
399.050	14420
399.129	1689
399.208	1741
399.287	2972
399.366	1237
399.445	2372
399.524	2436
399.603	1675
399.682	5423
399.761	13503
399.840	33944
399.919	24222
399.998	3734
400.077	1538
400.156	640
400.235	4071
400.313	1925
400.392	3031
400.471	23332
400.550	37382
400.629	8530
400.708	3973
400.786	1802
400.865	4991
400.944	6201
401.023	6145
401.102	520
401.180	1220
401.259	710
401.338	1843
401.416	4027
401.495	2808
401.574	1963
401.652	1294
401.731	4013
401.810	2853
401.888	1330
401.967	1176
402.046	2633
402.124	3376
402.203	3373
402.281	3192
402.360	3997
402.438	8138
402.517	4378
402.596	2530
402.674	1550
402.753	1774
402.831	1571
402.910	3110
402.988	14793
403.066	62626
403.145	35157
403.223	18051
403.302	51922
403.380	37790
403.459	38417
403.537	13393
403.615	3524
403.694	596
403.772	2430
403.850	1823
403.929	845
404.007	1318
404.085	6549
404.164	7302
404.242	2168
404.320	4008
404.398	8372
404.477	20279
404.555	104171
404.633	88625
404.711	13503
404.789	4020
404.868	2677
404.946	2165
405.024	320
405.102	1294
405.180	1422
405.258	508
405.336	1718
405.415	836
405.493	4829
405.571	5118
405.649	1257
405.727	297
405.805	3070
405.883	3512
405.961	3014
406.039	2262
406.117	284
406.195	4854
406.273	22695
406.351	94678
406.429	51550
406.507	5938
406.585	1306
406.663	3645
406.740	4524
406.818	3224
406.896	835
406.974	3315
407.052	6512
407.130	53345
407.208	74799
407.285	12811
407.363	1569
407.441	2675
407.519	1618
407.596	2444
407.674	5957
407.752	22589
407.830	17616
407.907	6015
407.985	2659
408.063	2129
408.141	188
408.218	2760
408.296	1988
408.373	2966
408.451	3556
408.529	3139
408.606	1032
408.684	1286
408.762	738
408.839	919
408.917	804
408.994	1080
409.072	798
409.149	3205
409.227	4893
409.304	7538
409.382	5802
409.459	6750
409.537	10804
409.614	7927
409.692	4630
409.769	5214
409.846	10835
409.924	13854
410.001	7039
410.079	4673
410.156	3898
410.233	3616
410.311	1600
410.388	2339
410.465	2239
410.543	1862
410.620	2026
410.697	3123
410.775	3333
410.852	818
410.929	3591
411.006	5335
411.083	2079
411.161	5770
411.238	6028
411.315	3132
411.392	1864
411.469	2931
411.547	3688
411.624	441
411.701	1327
411.778	2361
411.855	6514
411.932	2828
412.009	1217
412.086	876
412.163	1735
412.240	1259
412.317	2411
412.394	1523
412.471	943
412.548	849
412.625	1332
412.702	1801
412.779	3627
412.856	3490
412.933	-157
413.010	878
413.087	2902
413.164	20452
413.241	30234
413.318	6378
413.395	3352
413.471	5946
413.548	1921
413.625	2382
413.702	666
413.779	1509
413.855	35
413.932	-39
414.009	-497
414.086	629
414.162	1546
414.239	3063
414.316	19365
414.393	47913
414.469	15246
414.546	1245
414.623	1128
414.699	1304
414.776	1680
414.853	1114
414.929	902
415.006	441
415.082	134
415.159	461
415.236	1807
415.312	1267
415.389	4398
415.465	5733
415.542	2671
415.618	2132
415.695	4456
415.771	2005
415.848	1485
415.924	1877
416.000	6
416.077	1154
416.153	-801
416.230	-353
416.306	-119
416.383	209
416.459	535
416.535	339
416.612	42
416.688	190
416.764	574
416.841	802
416.917	446
416.993	808
417.069	1327
417.146	1771
417.222	3058
417.298	2243
417.374	687
417.451	1867
417.527	2213
417.603	2672
417.679	1719
417.755	1320
417.831	162
417.908	1106
417.984	-171
418.060	-157
418.136	4182
418.212	7683
418.288	2721
418.364	1284
418.440	53
418.516	2939
418.592	1802
418.668	7623
418.744	12735
418.820	9776
418.896	1864
418.972	-85
419.048	1532
419.124	7694
419.200	3724
419.276	1148
419.352	-834
419.428	572
419.504	1600
419.579	2986
419.655	817
419.731	1794
419.807	8618
419.883	16073
419.959	10500
420.034	3175
420.110	5860
420.186	29869
420.262	22258
420.337	3219
420.413	2652
420.489	2175
420.565	2147
420.640	1331
420.716	2120
420.792	357
420.867	1919
420.943	1227
421.019	4794
421.094	3841
421.170	2688
421.245	1055
421.321	2161
421.397	2739
421.472	4804
421.548	12501
421.623	9498
421.699	5420
421.774	4385
421.850	4214
421.925	7955
422.001	8462
422.076	7171
422.152	8928
422.227	13938
422.302	18768
422.378	26971
422.453	48259
422.529	117934
422.604	287442
422.679	389597
422.755	304387
422.830	133755
422.905	54990
422.981	29612
423.056	19594
423.131	13309
423.207	10603
423.282	9103
423.357	13655
423.432	9580
423.508	9191
423.583	17501
423.658	12834
423.733	4897
423.808	5038
423.883	6742
423.959	5964
424.034	5271
424.109	5512
424.184	2584
424.259	2834
424.334	2240
424.409	938
424.484	2007
424.559	2242
424.634	2287
424.709	4372
424.784	4725
424.859	2288
424.934	3529
425.009	20437
425.084	35179
425.159	12001
425.234	2528
425.309	1043
425.384	4016
425.459	5258
425.534	2598
425.609	774
425.683	291
425.758	485
425.833	1266
425.908	3032
425.983	11404
426.058	34823
426.132	13853
426.207	1787
426.282	2411
426.357	1466
426.431	837
426.506	1020
426.581	505
426.655	1337
426.730	1099
426.805	1389
426.879	943
426.954	1345
427.029	4837
427.103	31381
427.178	81791
427.253	33317
427.327	3547
427.402	2374
427.476	5872
427.551	3080
427.625	1503
427.700	1330
427.774	-133
427.849	1226
427.923	-156
427.998	1304
428.072	1154
428.147	5642
428.221	28957
428.296	97093
428.370	49251
428.444	6431
428.519	3306
428.593	5099
428.667	3644
428.742	5789
428.816	9104
428.890	51495
428.965	89188
429.039	21468
429.113	5889
429.188	2940
429.262	949
429.336	4389
429.410	16589
429.485	9410
429.559	4140
429.633	4170
429.707	1592
429.781	7455
429.855	53365
429.930	87826
430.004	28473
430.078	24999
430.152	34901
430.226	114485
430.300	116651
430.374	18006
430.448	4727
430.522	9514
430.596	24697
430.670	24051
430.744	99340
430.818	140863
430.892	26177
430.966	4579
431.040	1769
431.114	850
431.188	-297
431.262	554
431.336	-122
431.410	3546
431.484	7505
431.557	7485
431.631	1070
431.705	2755
431.779	16871
431.853	84107
431.927	58520
432.000	6810
432.074	1992
432.148	862
432.222	701
432.295	1093
432.369	780
432.443	3553
432.516	27842
432.590	78474
432.664	26744
432.737	2712
432.811	432
432.885	314
432.958	-88
433.032	204
433.106	-383
433.179	418
433.253	414
433.326	105
433.400	-526
433.473	184
433.547	-715
433.620	4
433.694	2689
433.767	2741
433.841	71
433.914	344
433.988	708
434.061	1389
434.134	723
434.208	-651
434.281	291
434.355	31
434.428	330
434.501	-485
434.575	-620
434.648	-73
434.721	-935
434.795	-319
434.868	-534
434.941	3
435.014	70
435.088	477
435.161	1864
435.234	3833
435.307	5081
435.381	2513
435.454	2347
435.527	5424
435.600	5475
435.673	3783
435.746	2165
435.819	1886
435.892	230
435.966	85
436.039	-481
436.112	51
436.185	-565
436.258	-428
436.331	-560
436.404	308
436.477	-221
436.550	-289
436.623	351
436.696	94
436.769	171
436.842	1240
436.915	200
436.987	1286
437.060	270
437.133	132
437.206	-858
437.279	795
437.352	159
437.425	174
437.498	697
437.570	4525
437.643	3611
437.716	468
437.789	-400
437.861	2000
437.934	7477
438.007	3192
438.080	65
438.152	1614
438.225	4555
438.298	37974
438.370	108436
438.443	42604
438.516	8982
438.588	1184
438.661	-78
438.734	1201
438.806	476
438.879	1544
438.951	1207
439.024	3585
439.096	1220
439.169	369
439.241	-391
439.314	-822
439.386	11
439.459	1112
439.531	1869
439.604	313
439.676	805
439.749	-38
439.821	-189
439.893	-30
439.966	-294
440.038	1160
440.110	1894
440.183	597
440.255	470
440.327	2510
440.400	13956
440.472	67233
440.544	43550
440.617	5322
440.689	3148
440.761	4275
440.833	6314
440.905	3769
440.978	340
441.050	-46
441.122	681
441.194	-317
441.266	511
441.338	-40
441.411	2956
441.483	21342
441.555	32394
441.627	6096
441.699	2066
441.771	1476
441.843	-92
441.915	75
441.987	481
442.059	292
442.131	1174
442.203	1873
442.275	2185
442.347	2500
442.419	6334
442.491	43594
442.563	112941
442.635	45049
442.706	12112
442.778	9730
442.850	1791
442.922	1050
442.994	1501
443.066	2374
443.137	1824
443.209	2445
443.281	3826
443.353	12061
443.425	48286
443.496	192408
443.568	192431
443.640	68587
443.711	11523
443.783	4135
443.855	2025
443.926	1415
443.998	1217
444.070	1826
444.141	1503
444.213	2858
444.285	4680
444.356	2644
444.428	1042
444.499	917
444.571	1047
444.642	224
444.714	1482
444.785	3465
444.857	3132
444.928	4136
445.000	2925
445.071	3957
445.143	4990
445.214	5356
445.285	8303
445.357	25075
445.428	109588
445.500	264169
445.571	167506
445.642	97612
445.714	27818
445.785	12398
445.856	4984
445.928	5440
445.999	4236
446.070	2590
446.141	3985
446.213	5431
446.284	1763
446.355	1023
446.426	412
446.497	813
446.569	1082
446.640	3918
446.711	2526
446.782	1044
446.853	630
446.924	1426
446.995	706
447.066	1035
447.138	1005
447.209	535
447.280	153
447.351	-841
447.422	-902
447.493	-291
447.564	950
447.635	2413
447.706	-151
447.777	212
447.847	-815
447.918	-917
447.989	-161
448.060	857
448.131	2151
448.202	3691
448.273	4037
448.344	977
448.414	16
448.485	487
448.556	78
448.627	-634
448.698	87
448.768	-1170
448.839	-1516
448.910	-199
448.981	1523
449.051	229
449.122	-1023
449.193	-846
449.263	-380
449.334	-839
449.405	336
449.475	4543
449.546	2005
449.616	1919
449.687	758
449.758	331
449.828	-254
449.899	-21
449.969	-627
450.040	-653
450.110	181
450.181	419
450.251	-868
450.322	143
450.392	-316
450.463	-681
450.533	-1167
450.604	-598
450.674	-876
450.744	-294
450.815	-993
450.885	-641
450.955	-148
451.026	-388
451.096	-276
451.166	-410
451.237	585
451.307	4271
451.377	929
451.447	14
451.518	-186
451.588	-96
451.658	516
451.728	81
451.799	3983
451.869	4761
451.939	-109
452.009	-468
452.079	-542
452.149	183
452.219	603
452.289	4284
452.360	3683
452.430	748
452.500	666
452.570	2220
452.640	4185
452.710	11897
452.780	14579
452.850	10976
452.920	11071
452.990	3566
453.060	657
453.129	2104
453.199	1572
453.269	5570
453.339	13715
453.409	21888
453.479	19378
453.549	28306
453.619	29421
453.688	11929
453.758	1087
453.828	59
453.898	-364
453.968	320
454.037	-170
454.087	-336
454.107	-423
454.168	-529
454.177	-563
454.247	-174
454.249	-160
454.316	-323
454.330	-398
454.386	-811
454.411	-110
454.456	837
454.492	2295
454.525	3552
454.574	1562
454.595	699
454.655	32
454.665	-69
454.734	805
454.736	848
454.804	1011
454.817	1806
454.873	4354
454.898	4650
454.943	5029
454.979	2720
455.013	757
455.060	773
455.082	870
455.141	1148
455.152	1153
455.221	3602
455.222	3711
455.291	7618
455.303	7465
455.360	6032
455.384	7645
455.430	9334
455.465	7530
455.499	5943
455.546	5059
455.569	4514
455.627	3609
455.638	3502
455.707	781
455.708	800
455.777	201
455.789	317
455.846	789
455.869	635
455.916	207
455.950	19
455.985	-172
456.031	-127
456.054	-116
456.112	623
456.124	760
456.193	826
456.193	807
456.262	-45
456.274	246
456.332	1408
456.355	1225
456.401	826
456.436	973
456.470	1009
456.516	888
456.540	864
456.597	697
456.609	647
456.678	289
456.678	268
456.747	569
456.759	475
456.817	349
456.840	605
456.886	859
456.920	485
456.955	162
457.001	538
457.024	707
457.082	689
457.093	669
457.162	2304
457.163	2323
457.232	1579
457.243	1554
457.301	1021
457.324	827
457.370	719
457.405	1175
457.439	1590
457.485	1430
457.508	1329
457.566	1765
457.577	1910
457.646	2216
457.647	2254
457.715	5987
457.727	6555
457.784	11081
457.808	15434
457.853	20943
457.889	24319
457.922	23705
457.969	14971
457.991	14944
458.050	18399
458.060	19062
458.129	35009
458.130	35455
458.198	35946
458.211	32288
458.267	17021
458.292	11037
458.336	6045
458.372	6009
458.405	8928
458.453	14039
458.474	18416
458.533	34408
458.543	35578
458.611	58738
458.614	59006
458.680	35321
458.694	27377
458.749	11757
458.775	8217
458.818	4381
458.855	3372
458.887	2887
458.936	2746
458.955	2559
459.016	2141
459.024	2146
459.093	2698
459.097	2680
459.162	2128
459.177	2371
459.230	3641
459.257	4151
459.299	4088
459.338	3926
459.368	3945
459.418	3869
459.437	3698
459.499	3323
459.505	3337
459.574	3031
459.579	3054
459.643	2736
459.659	2650
459.711	2902
459.740	3276
459.780	3499
459.820	3102
459.849	2805
459.900	2925
459.917	2985
459.981	3016
459.986	2989
460.054	2688
460.061	2676
460.123	3131
460.141	3223
460.191	4426
460.222	5458
460.260	6209
460.302	7198
460.328	6583
460.382	4439
460.397	4359
460.462	3993
460.465	4042
460.534	5627
460.543	5886
460.602	17873
460.623	22523
460.671	35852
460.703	46972
460.739	42525
460.783	33819
460.808	27162
460.864	6202
460.876	5059
460.944	3602
460.945	3590
461.013	4053
461.024	4105
461.081	3977
461.104	4203
461.150	4081
461.184	3667
461.218	3414
461.264	3089
461.286	3220
461.345	3765
461.355	3692
461.423	3443
461.425	3410
461.491	3089
461.505	3327
461.559	5317
461.585	5859
461.628	8198
461.665	11116
461.696	12522
461.745	14568
461.764	12725
461.825	5186
461.832	5132
461.901	4846
461.905	4877
461.969	4279
461.985	4084
462.037	3880
462.065	3914
462.105	4007
462.145	3762
462.173	4930
462.225	7507
462.241	7966
462.305	10063
462.310	9819
462.378	6087
462.385	5523
462.446	4703
462.465	4626
462.514	4313
462.545	4140
462.582	4150
462.625	4239
462.650	3941
462.705	2953
462.718	3041
462.785	4084
462.786	4103
462.854	4729
462.865	4872
462.922	6144
462.945	6636
462.990	5570
463.025	4667
463.058	4431
463.104	3650
463.126	3421
463.184	3723
463.194	3923
463.262	4467
463.264	4504
463.330	4757
463.344	4742
463.398	5022
463.424	5195
463.466	4720
463.504	4241
463.533	4733
463.583	5509
463.601	5565
463.663	5770
463.669	5845
463.737	6625
463.743	6707
463.805	8544
463.823	9059
463.873	11787
463.903	13487
463.940	14635
463.982	16012
464.008	13369
464.062	7042
464.076	6689
464.142	4997
464.144	4996
464.211	5000
464.221	4975
464.279	5265
464.301	5445
464.347	5862
464.381	6222
464.414	6155
464.461	5865
464.482	6088
464.540	6777
464.550	6615
464.617	5415
464.620	5353
464.685	8015
464.699	8655
464.753	10501
464.779	11445
464.820	12400
464.859	13235
464.888	12081
464.938	9888
464.956	9962
465.018	10121
465.023	10095
465.091	9730
465.098	9652
465.158	8759
465.177	8501
465.226	8613
465.257	8667
465.293	9467
465.336	10352
465.361	10977
465.416	12317
465.428	12646
465.495	14477
465.496	14524
465.563	17581
465.575	18123
465.631	21709
465.654	23219
465.698	16645
465.734	10971
465.765	10460
465.813	9520
465.833	9420
465.893	9447
465.900	9437
465.968	8934
465.972	8889
466.035	8546
466.052	8444
466.102	9380
466.131	9882
466.170	9338
466.210	8685
466.237	8865
466.290	9229
466.304	9278
466.369	9244
466.372	9277
466.439	9764
466.449	9806
466.506	10284
466.528	10463
466.573	13126
466.607	15020
466.641	20115
466.687	27203
466.708	29492
466.766	35682
466.775	33516
466.842	16691
466.845	15856
466.909	12821
466.925	12088
466.977	12300
467.004	12391
467.044	13031
467.083	13636
467.111	14500
467.163	16039
467.178	16986
467.242	20759
467.245	20673
467.312	17977
467.321	17581
467.379	15826
467.400	15140
467.446	15747
467.480	16128
467.559	14973
467.638	13692
467.717	14605
467.796	16211
467.875	17466
467.955	16065
468.034	18228
468.113	31501
468.192	41722
468.271	17761
468.350	16003
468.429	19078
468.508	21292
468.588	16591
468.667	13855
468.746	15075
468.825	13180
468.904	12366
468.983	13430
469.062	16312
469.141	19743
469.220	11841
469.299	12628
469.378	14206
469.456	17299
469.535	16469
469.614	15000
469.693	14119
469.772	16095
469.851	18232
469.930	15627
470.009	14082
470.088	14490
470.166	16077
470.245	22789
470.324	25337
470.403	19177
470.482	14614
470.560	13741
470.639	14842
470.718	16685
470.797	13407
470.875	14701
470.954	17356
471.033	17914
471.111	11182
471.190	10944
471.269	10320
471.347	11262
471.426	12285
471.505	13232
471.583	15001
471.662	14198
471.740	13262
471.819	13504
471.898	11529
471.976	12505
472.055	12156
472.133	13700
472.212	14400
472.290	14428
472.369	12478
472.447	11305
472.526	11145
472.604	12839
472.683	11456
472.761	13217
472.839	12788
472.918	11630
472.996	11873
473.075	12610
473.153	12012
473.231	11678
473.310	12740
473.388	12959
473.466	11767
473.545	14705
473.623	19520
473.701	18569
473.780	12447
473.858	11763
473.936	13446
474.014	11736
474.093	12015
474.171	14673
474.249	16700
474.327	13655
474.405	10330
474.484	9820
474.562	10732
474.640	11000
474.718	10019
474.796	11252
474.874	10795
474.952	10619
475.030	10389
475.108	9141
475.187	11614
475.265	13227
475.343	17114
475.421	19410
475.499	10315
475.577	10603
475.655	12766
475.733	17741
475.811	25303
475.889	22959
475.966	17763
476.044	11482
476.122	13464
476.200	15530
476.278	13860
476.356	10104
476.434	10214
476.512	11730
476.590	16066
476.667	13622
476.745	9334
476.823	10674
476.901	9816
476.979	9856
477.056	10534
477.134	10704
477.212	10975
477.290	10691
477.367	9195
477.445	8582
477.523	8879
477.601	8739
477.678	8815
477.756	10191
477.834	10992
477.911	9169
477.989	9521
478.066	9568
478.144	9571
478.222	12336
478.299	18533
478.377	17508
478.454	8711
478.532	9238
478.609	8909
478.687	11702
478.764	8347
478.842	9560
478.919	10204
478.997	9797
479.074	8162
479.152	8935
479.229	9431
479.307	7836
479.384	7228
479.461	7298
479.539	7816
479.616	8930
479.694	8231
479.771	8866
479.848	7891
479.926	8983
480.003	11910
480.080	7943
480.157	7864
480.235	8229
480.312	7712
480.389	8153
480.467	10722
480.544	12567
480.621	8389
480.698	8510
480.775	10325
480.853	8581
480.930	7909
481.007	8412
481.084	8692
481.161	10335
481.238	9411
481.315	7930
481.392	6806
481.470	7882
481.547	7548
481.624	7044
481.701	7765
481.778	8286
481.855	7932
481.932	10377
482.009	15278
482.086	12369
482.163	9318
482.240	14079
482.317	23315
482.393	17780
482.470	9063
482.547	8206
482.624	7294
482.701	8677
482.778	7196
482.855	6568
482.932	7508
483.009	7312
483.085	8368
483.162	9267
483.239	10005
483.316	7718
483.393	9008
483.469	8462
483.546	8883
483.623	9044
483.699	7523
483.776	8413
483.853	9402
483.930	11317
484.006	21985
484.083	37004
484.160	33855
484.236	54051
484.313	43875
484.389	31026
484.466	27945
484.543	27076
484.619	27440
484.696	29720
484.772	28217
484.849	27093
484.925	25060
485.002	24896
485.078	25498
485.155	24253
485.231	22920
485.308	22812
485.384	23668
485.461	24746
485.537	30691
485.614	35484
485.690	23565
485.766	23172
485.843	22869
485.919	32308
485.995	35394
486.072	21555
486.148	20481
486.224	20879
486.301	20967
486.377	22271
486.453	21522
486.530	23553
486.606	32361
486.682	35111
486.758	33160
486.835	34183
486.911	30085
486.987	41196
487.063	57974
487.139	81792
487.215	58336
487.292	30268
487.368	25212
487.444	27575
487.520	31940
487.596	33375
487.672	50231
487.748	135524
487.824	209042
487.900	70215
487.976	27633
488.052	23866
488.128	26298
488.204	22982
488.280	20757
488.356	23287
488.432	31882
488.508	43462
488.584	24687
488.660	21792
488.736	20718
488.812	22111
488.888	28455
488.964	37178
489.039	74317
489.115	118655
489.191	70065
489.267	20947
489.343	18979
489.418	17584
489.494	17128
489.570	16274
489.646	18550
489.722	17594
489.797	17912
489.873	19845
489.949	31942
490.024	30095
490.100	16301
490.176	16951
490.251	21205
490.327	28070
490.403	17373
490.478	15902
490.554	13956
490.629	15740
490.705	14387
490.781	15888
490.856	14572
490.932	17426
491.007	17617
491.083	16631
491.158	14268
491.234	16689
491.309	24737
491.385	26930
491.460	15221
491.536	16201
491.611	16061
491.686	17943
491.762	23389
491.837	47699
491.913	77169
491.988	104835
492.063	139969
492.139	32461
492.214	18125
492.289	12929
492.365	12540
492.440	15508
492.515	13033
492.590	14419
492.666	11586
492.741	15471
492.816	17531
492.891	12202
492.967	12379
493.042	11734
493.117	11679
493.192	13540
493.267	17948
493.342	42092
493.418	55293
493.493	16422
493.568	10535
493.643	10614
493.718	13323
493.793	17824
493.868	24619
493.943	17648
494.018	13158
494.093	10697
494.168	10585
494.243	9775
494.318	9351
494.393	10076
494.468	9465
494.543	11060
494.618	12409
494.693	10815
494.768	9204
494.842	10733
494.917	8835
494.992	11273
495.067	9794
495.142	9748
495.217	10978
495.292	11837
495.366	13012
495.441	15403
495.516	20180
495.591	27315
495.665	94261
495.740	242012
495.815	102016
495.890	16113
495.964	11157
496.039	13975
496.114	11277
496.188	12467
496.263	12558
496.338	10552
496.412	10815
496.487	13116
496.561	14623
496.636	16739
496.710	11576
496.785	12973
496.860	13546
496.934	12021
497.009	12925
497.083	11111
497.158	10690
497.232	12143
497.307	15811
497.381	13804
497.455	13664
497.530	16562
497.604	13516
497.679	14205
497.753	19849
497.827	25556
497.902	23270
497.976	27137
498.050	48543
498.125	187514
498.199	210834
498.273	46144
498.348	32591
498.422	25390
498.496	24388
498.570	22459
498.645	15179
498.719	13373
498.793	15224
498.867	22618
498.941	27331
499.016	70186
499.090	201176
499.164	80093
499.238	13597
499.312	12547
499.386	17334
499.460	14964
499.534	12562
499.609	15770
499.683	19098
499.757	17094
499.831	29352
499.905	124949
499.979	128368
500.053	21610
500.127	24411
500.201	22558
500.275	14480
500.349	13815
500.422	14228
500.496	22983
500.570	48921
500.644	84078
500.718	135357
500.792	36918
500.866	11902
500.940	13355
501.013	12268
501.087	12907
501.161	26850
501.235	30532
501.309	38699
501.382	106214
501.456	104947
501.530	26137
501.603	34659
501.677	17180
501.751	8489
501.825	11184
501.898	15047
501.972	42288
502.046	31497
502.119	10619
502.193	22745
502.266	48814
502.340	25149
502.413	20959
502.487	38139
502.561	23396
502.634	11509
502.708	11771
502.781	9764
502.855	8842
502.928	6471
503.002	7618
503.075	7044
503.149	7294
503.222	7894
503.295	8341
503.369	9735
503.442	10869
503.516	29460
503.589	74611
503.662	52624
503.736	18064
503.809	37932
503.882	34269
503.956	48761
504.029	56924
504.102	75652
504.175	116963
504.249	37065
504.322	15248
504.395	12123
504.468	9169
504.542	7399
504.615	7052
504.688	7297
504.761	6017
504.834	9643
504.907	13493
504.980	23338
505.053	11713
505.127	13544
505.200	17838
505.273	9364
505.346	7146
505.419	5990
505.492	6591
505.565	5370
505.638	5730
505.711	4442
505.784	5182
505.857	5228
505.930	7770
506.003	4595
506.076	7694
506.149	6480
506.221	8075
506.294	9555
506.367	17158
506.440	59350
506.513	37360
506.586	10012
506.659	7286
506.731	6770
506.804	7658
506.877	12740
506.950	8714
507.022	6255
507.095	5661
507.168	8835
507.241	8230
507.313	5316
507.386	6756
507.459	13043
507.531	8354
507.604	5708
507.677	6810
507.749	4439
507.822	9274
507.894	20404
507.967	27500
508.040	13944
508.112	11923
508.185	11743
508.257	10704
508.330	18625
508.402	11262
508.475	9269
508.547	8728
508.620	9618
508.692	12707
508.765	9730
508.837	7491
508.909	7856
508.982	9157
509.054	10092
509.127	8536
509.199	8307
509.271	7485
509.344	7548
509.416	7796
509.488	7659
509.560	8713
509.633	7961
509.705	10851
509.777	9566
509.849	15582
509.922	9979
509.994	8363
510.066	8536
510.138	9083
510.210	20101
510.283	18892
510.355	15785
510.427	13947
510.499	12516
510.571	12475
510.643	12800
510.715	21652
510.787	18761
510.859	13445
510.931	14039
511.003	21135
511.076	19437
511.148	10751
511.219	11526
511.291	13484
511.363	15614
511.435	9109
511.507	8305
511.579	10481
511.651	10359
511.723	9394
511.795	9051
511.867	9414
511.939	9353
512.010	15248
512.082	14017
512.154	10402
512.226	10974
512.298	17236
512.369	25199
512.441	20289
512.513	19390
512.585	13904
512.656	14871
512.728	15528
512.800	12528
512.871	12489
512.943	11998
513.015	10683
513.086	12552
513.158	13741
513.230	12201
513.301	18217
513.373	23097
513.444	13949
513.516	10396
513.588	11963
513.659	12530
513.731	16743
513.802	13105
513.874	28785
513.945	51878
514.016	19001
514.088	11491
514.159	12365
514.231	17369
514.302	24538
514.374	17415
514.445	13348
514.516	20659
514.588	15887
514.659	13018
514.730	17529
514.802	17909
514.873	13153
514.944	13667
515.016	13516
515.087	15758
515.158	15944
515.229	19708
515.301	11885
515.372	15525
515.443	9799
515.514	11250
515.585	9128
515.656	11641
515.728	10387
515.799	8951
515.870	11375
515.941	12211
516.012	10977
516.083	16634
516.154	18720
516.225	24631
516.296	22528
516.367	19899
516.438	21919
516.509	27967
516.580	37645
516.651	100522
516.722	397525
516.793	207593
516.864	41405
516.935	35282
517.006	38245
517.077	50232
517.148	107941
517.219	369109
517.289	649425
517.360	143448
517.431	41756
517.502	17503
517.573	17274
517.643	15374
517.714	18427
517.785	20589
517.856	18820
517.926	25772
517.997	29382
518.068	37256
518.138	49212
518.209	65244
518.280	225898
518.350	914129
518.421	413095
518.492	48910
518.562	28996
518.633	25326
518.703	25241
518.774	43711
518.845	119597
518.915	134328
518.986	38975
519.056	25581
519.127	40194
519.197	53435
519.268	82916
519.338	50460
519.408	19342
519.479	27662
519.549	20345
519.620	14261
519.690	10776
519.760	11015
519.831	11604
519.901	12646
519.971	10261
520.042	9043
520.112	10221
520.182	14108
520.253	17245
520.323	9270
520.393	9897
520.463	16236
520.534	9510
520.604	15881
520.674	13226
520.744	11277
520.814	18305
520.885	21247
520.955	22347
521.025	76231
521.095	35441
521.165	11686
521.235	10192
521.305	8133
521.375	8857
521.445	10813
521.515	14948
521.585	18830
521.655	16941
521.725	13732
521.795	11882
521.865	7210
521.935	13293
522.005	10388
522.075	8398
522.145	9531
522.215	9798
522.285	11556
522.355	15246
522.424	22742
522.494	21318
522.564	16077
522.634	35606
522.704	122222
522.774	51049
522.843	12099
522.913	10809
522.983	14838
523.053	11141
523.122	11968
523.192	16348
523.262	58381
523.331	60978
523.401	12694
523.471	7929
523.540	8951
523.610	7602
523.680	7835
523.749	8252
523.819	7507
523.888	8853
523.958	7983
524.027	7462
524.097	8090
524.166	7700
524.236	8799
524.305	10132
524.375	7242
524.444	6793
524.514	9802
524.583	7838
524.653	8232
524.722	9686
524.791	6573
524.861	9066
524.930	6823
524.999	9382
525.069	13136
525.138	8640
525.207	8785
525.277	8893
525.346	8344
525.415	8410
525.484	9064
525.554	9369
525.623	9744
525.692	11351
525.761	12674
525.830	14546
525.900	17667
525.969	25218
526.038	41341
526.107	76478
526.176	249126
526.245	225342
526.314	67980
526.383	121330
526.452	179762
526.522	270413
526.591	313727
526.660	86417
526.729	46634
526.797	47969
526.867	84691
526.935	363649
527.004	662136
527.073	403495
527.142	40799
527.211	17469
527.280	15442
527.349	17012
527.418	8965
527.487	9492
527.555	7996
527.624	6933
527.693	6249
527.762	8811
527.831	5849
527.899	7706
527.968	6829
528.037	6731
528.106	9194
528.174	18385
528.243	12844
528.312	16380
528.380	25641
528.449	8107
528.518	7848
528.586	4540
528.655	6311
528.723	5541
528.792	5394
528.861	5663
528.929	4977
528.998	6000
529.066	5987
529.135	5590
529.203	5654
529.272	5493
529.340	7741
529.409	8707
529.477	5873
529.545	6918
529.614	10099
529.682	6936
529.751	9548
529.819	11280
529.887	8625
529.956	6941
530.024	8291
530.092	6609
530.161	9375
530.229	14805
530.297	9279
530.365	9564
530.434	7649
530.502	7508
530.570	7311
530.638	5231
530.707	9531
530.775	9410
530.843	6398
530.911	7095
530.979	7337
531.047	7337
531.115	7637
531.183	7713
531.252	7309
531.320	7053
531.388	6486
531.456	7955
531.524	5346
531.592	8888
531.660	9169
531.728	6268
531.796	6167
531.864	6863
531.932	7751
532.000	7805
532.067	9422
532.135	9552
532.203	11148
532.271	11267
532.339	18284
532.407	50022
532.475	31946
532.542	16347
532.610	18081
532.678	22282
532.746	84243
532.814	247088
532.881	67994
532.949	14326
533.017	9730
533.084	8670
533.152	8137
533.220	8184
533.287	10238
533.355	8506
533.423	8538
533.490	8140
533.558	7478
533.625	8831
533.693	9038
533.761	8931
533.828	9783
533.896	9470
533.963	18318
534.031	21263
534.098	31940
534.166	17018
534.233	9405
534.300	10733
534.368	10341
534.435	9813
534.503	10617
534.570	11594
534.637	11688
534.705	14430
534.772	15433
534.840	24355
534.907	103211
534.974	161532
535.041	23565
535.109	11989
535.176	9265
535.243	10329
535.310	9867
535.378	9198
535.445	7922
535.512	9070
535.579	9239
535.646	8064
535.714	9137
535.781	12181
535.848	11282
535.915	11622
535.982	9431
536.049	10071
536.116	10756
536.183	9385
536.250	9980
536.317	9907
536.384	11738
536.451	16537
536.518	18121
536.585	12616
536.652	15358
536.719	23174
536.786	18227
536.853	14771
536.920	20890
536.987	31027
537.053	30008
537.120	116354
537.187	114894
537.254	15848
537.321	11157
537.388	11507
537.454	8691
537.521	9663
537.588	9243
537.654	11584
537.721	13078
537.788	12581
537.855	10730
537.921	11591
537.988	11219
538.055	12026
538.121	9912
538.188	11513
538.254	14908
538.321	30579
538.388	21201
538.454	11424
538.521	10846
538.587	10606
538.654	10286
538.720	10930
538.787	10866
538.853	11081
538.920	11786
538.986	12018
539.053	11135
539.119	11745
539.185	11732
539.252	15352
539.318	20861
539.385	17343
539.451	14901
539.517	16406
539.583	16676
539.650	33544
539.716	93847
539.782	31647
539.849	12479
539.915	13000
539.981	12662
540.047	14937
540.114	12749
540.180	14880
540.246	13355
540.312	18467
540.378	31145
540.444	33014
540.510	34921
540.576	107241
540.643	37773
540.709	12615
540.775	12347
540.841	11097
540.907	13450
540.973	17637
541.039	18988
541.105	21221
541.171	13772
541.237	11479
541.303	13068
541.369	14301
541.435	16220
541.500	27878
541.566	18802
541.632	11454
541.698	10385
541.764	11536
541.830	10500
541.896	9667
541.961	11233
542.027	12362
542.093	12244
542.159	13394
542.224	12171
542.290	17478
542.356	26500
542.421	35054
542.487	16798
542.553	13275
542.618	13210
542.684	12637
542.750	12906
542.815	16051
542.881	22870
542.947	85456
543.012	72548
543.078	14784
543.143	11948
543.209	13864
543.274	12161
543.340	15642
543.405	33452
543.471	59940
543.536	16534
543.602	13277
543.667	10572
543.732	12196
543.798	11167
543.863	12287
543.928	10533
543.994	10769
544.059	11067
544.124	11971
544.190	12120
544.255	12825
544.320	13660
544.386	13050
544.451	17402
544.516	20428
544.581	19781
544.646	52998
544.712	92334
544.777	22710
544.842	13771
544.907	13657
544.972	13249
545.037	13873
545.102	14273
545.168	13998
545.233	14639
545.298	15733
545.363	17282
545.428	19752
545.493	31093
545.558	74224
545.623	34020
545.688	15832
545.753	14988
545.818	13910
545.883	15836
545.947	15746
546.012	14380
546.077	16006
546.142	17817
546.207	17293
546.272	20736
546.337	22555
546.401	18942
546.466	18436
546.531	17275
546.596	19713
546.661	21583
546.725	21006
546.790	20413
546.855	22641
546.919	22907
546.984	25302
547.049	26687
547.113	30331
547.178	32601
547.243	37498
547.307	41801
547.372	47590
547.436	47077
547.501	45816
547.565	51074
547.630	51331
547.695	49397
547.759	48482
547.823	46300
547.888	46800
547.952	48697
548.017	49565
548.081	52076
548.146	53117
548.210	50303
548.274	54878
548.339	53330
548.403	50147
548.468	46247
548.532	45442
548.596	46580
548.660	46535
548.725	51011
548.789	57183
548.853	55612
548.917	51853
548.982	51329
549.046	48364
549.110	41360
549.174	42888
549.238	48100
549.303	53911
549.367	55382
549.431	52077
549.495	49183
549.559	49278
549.623	55259
549.687	64896
549.751	69108
549.815	73494
549.879	73420
549.943	69424
550.007	72832
550.071	73256
550.135	72182
550.199	63987
550.263	61798
550.327	58300
550.391	60451
550.455	66762
550.519	68610
550.582	72225
550.646	88075
550.710	91025
550.774	80735
550.838	82639
550.901	83163
550.965	87830
551.029	90411
551.093	96687
551.156	103425
551.220	120751
551.284	146087
551.347	109168
551.411	98691
551.475	96720
551.538	87447
551.602	84069
551.666	76831
551.729	72346
551.793	69627
551.856	68696
551.920	66651
551.983	68504
552.047	65846
552.110	67463
552.174	67081
552.237	68112
552.301	65053
552.364	61587
552.428	60579
552.491	61156
552.554	64772
552.618	64420
552.681	65965
552.745	64163
552.808	74033
552.871	88543
552.934	73530
552.998	65854
553.061	63208
553.124	62591
553.187	59465
553.251	61863
553.314	62148
553.377	62981
553.440	66689
553.503	83288
553.567	97268
553.630	69044
553.693	65467
553.756	65132
553.819	63576
553.882	60877
553.945	61204
554.008	60671
554.071	62022
554.134	62059
554.197	58668
554.260	56880
554.323	59738
554.386	59167
554.449	60652
554.512	63299
554.575	58750
554.638	59819
554.701	57672
554.764	57084
554.827	53523
554.889	52860
554.952	49314
555.015	49263
555.078	49670
555.141	49866
555.203	50657
555.266	48742
555.329	49953
555.391	47857
555.454	47062
555.517	46861
555.580	44320
555.642	42916
555.705	42648
555.768	42531
555.830	41325
555.893	38833
555.955	37462
556.018	37919
556.080	37092
556.143	38398
556.206	37539
556.268	38478
556.330	37777
556.393	36240
556.455	34673
556.518	36988
556.580	37243
556.643	33074
556.705	31878
556.767	29980
556.830	31123
556.892	32828
556.955	40676
557.017	34086
557.079	30188
557.142	29545
557.204	31358
557.266	44363
557.328	39436
557.391	26362
557.453	23162
557.515	25384
557.577	27763
557.639	29714
557.701	25466
557.764	25173
557.826	25378
557.888	27717
557.950	29012
558.012	30389
558.074	36915
558.136	71711
558.198	192848
558.260	81304
558.322	31927
558.384	33183
558.446	36239
558.508	42353
558.570	49335
558.632	68021
558.694	92368
558.756	100358
558.818	281946
558.880	793768
558.942	285876
559.003	203058
559.065	113823
559.127	45810
559.189	43507
559.251	46185
559.312	59972
559.374	135717
559.436	510079
559.498	293361
559.559	52492
559.621	42443
559.683	46155
559.744	70199
559.806	221852
559.868	392660
559.929	82707
559.991	44288
560.052	59498
560.114	175557
560.176	123274
560.237	93856
560.299	177501
560.360	45624
560.422	19992
560.483	16910
560.545	16352
560.606	15592
560.667	15283
560.729	14718
560.790	14375
560.852	13169
560.913	12750
560.974	14080
561.036	12481
561.097	14683
561.158	13530
561.220	14843
561.281	13985
561.342	14836
561.403	16217
561.465	19568
561.526	40463
561.587	54860
561.648	18185
561.709	14314
561.771	12851
561.832	13099
561.893	13359
561.954	12940
562.015	13242
562.076	12494
562.137	13352
562.198	12694
562.259	12493
562.320	13953
562.381	13827
562.442	18953
562.503	16389
562.564	12544
562.625	11501
562.686	12920
562.747	12379
562.808	13023
562.869	12106
562.930	14053
562.991	12756
563.051	12675
563.112	12304
563.173	12352
563.234	10994
563.294	11581
563.355	11132
563.416	11969
563.477	11883
563.537	11998
563.598	11968
563.659	12833
563.720	11620
563.780	12110
563.841	12647
563.901	12413
563.962	11535
564.023	11225
564.083	12292
564.144	12068
564.204	11285
564.265	11424
564.325	10926
564.386	16053
564.446	15496
564.507	11788
564.567	11518
564.628	11813
564.688	11317
564.749	11251
564.809	12563
564.869	12718
564.930	11642
564.990	12256
565.050	11867
565.111	11218
565.171	10651
565.231	11619
565.292	11680
565.352	10750
565.412	11828
565.472	12219
565.532	12083
565.593	11200
565.653	10845
565.713	12012
565.773	13407
565.833	14502
565.893	17474
565.953	11853
566.013	11612
566.074	12635
566.134	13287
566.194	17147
566.254	17842
566.314	13401
566.374	12202
566.434	11488
566.494	12174
566.554	11718
566.614	12437
566.673	11311
566.733	12726
566.793	13051
566.853	12528
566.913	12462
566.973	13189
567.033	13557
567.092	12642
567.152	13451
567.212	12845
567.272	12974
567.331	12421
567.391	12651
567.451	13297
567.511	15653
567.570	15408
567.630	12280
567.690	12016
567.749	12792
567.809	12252
567.868	13866
567.928	15144
567.988	14723
568.047	15687
568.107	17708
568.166	22624
568.226	32840
568.285	45591
568.345	34281
568.404	25743
568.464	22650
568.523	20185
568.582	20116
568.642	23693
568.701	27346
568.761	40984
568.820	70180
568.879	62920
568.939	39997
568.998	28422
569.057	21672
569.116	17389
569.176	15454
569.235	14219
569.294	13021
569.353	12900
569.413	12402
569.472	11668
569.531	12009
569.590	11344
569.649	11075
569.708	11090
569.767	11533
569.827	12887
569.886	12559
569.945	10132
570.004	10881
570.063	11873
570.122	12497
570.181	11897
570.240	11795
570.299	13227
570.358	13172
570.417	10563
570.475	10972
570.534	12918
570.593	11808
570.652	11079
570.711	11223
570.770	10838
570.829	11415
570.887	11897
570.946	13829
571.005	10874
571.064	11075
571.122	11955
571.181	10893
571.240	10346
571.299	10016
571.357	9967
571.416	10073
571.475	11155
571.533	10818
571.592	10787
571.650	10387
571.709	9253
571.768	11223
571.826	10595
571.885	9963
571.943	9432
572.002	9615
572.060	9867
572.119	9638
572.177	8819
572.236	9457
572.294	8996
572.352	10636
572.411	10015
572.469	9855
572.528	9754
572.586	8615
572.644	9663
572.703	11081
572.761	9126
572.819	9465
572.877	8551
572.936	9210
572.994	9440
573.052	8956
573.110	8879
573.169	8872
573.227	8688
573.285	9180
573.343	8775
573.401	8896
573.459	8851
573.517	8626
573.576	8853
573.634	8969
573.692	8435
573.750	8213
573.808	8915
573.866	8856
573.924	9291
573.982	10313
574.040	8044
574.098	8374
574.155	9079
574.213	8778
574.271	8592
574.329	9173
574.387	8260
574.445	7572
574.503	8003
574.560	8047
574.618	7108
574.676	7202
574.734	7668
574.792	7107
574.849	8086
574.907	7708
574.965	6958
575.022	6966
575.080	7075
575.138	6957
575.195	7445
575.253	7176
575.311	8979
575.368	7859
575.426	6759
575.483	8354
575.541	8319
575.598	7204
575.656	6325
575.713	6876
575.771	7297
575.828	7367
575.886	6357
575.943	8103
576.001	7430
576.058	7419
576.115	8025
576.173	8372
576.230	8794
576.287	10180
576.345	9010
576.402	7587
576.459	7484
576.517	7317
576.574	8169
576.631	8194
576.688	7454
576.746	6477
576.803	6587
576.860	7119
576.917	6838
576.974	7283
577.031	6642
577.089	6506
577.146	6918
577.203	7538
577.260	7162
577.317	8090
577.374	7467
577.431	7306
577.488	6804
577.545	7375
577.602	7439
577.659	7063
577.716	7027
577.773	6773
577.830	6003
577.886	7664
577.943	6254
578.000	6910
578.057	6670
578.114	7633
578.171	7994
578.227	7338
578.284	6318
578.341	7834
578.398	5858
578.454	6798
578.511	6925
578.568	8236
578.625	7166
578.681	7652
578.738	6435
578.794	6744
578.851	8490
578.908	7633
578.964	8151
579.021	8556
579.077	7601
579.134	7577
579.190	7532
579.247	7359
579.303	6595
579.360	7437
579.416	6823
579.473	6722
579.529	6382
579.586	7110
579.642	7141
579.698	7510
579.755	7384
579.811	7718
579.867	6947
579.924	7211
579.980	7136
580.036	6932
580.093	8185
580.149	8132
580.205	7758
580.261	8130
580.317	7299
580.374	7140
580.430	8241
580.486	8038
580.542	7159
580.598	8623
580.619	8523
580.654	8357
580.692	8065
580.710	7936
580.765	7658
580.767	7655
580.823	7889
580.838	7746
580.879	7412
580.911	7558
580.935	7676
580.984	7571
580.991	7565
581.047	7121
581.057	7238
581.103	7784
581.130	7982
581.159	8200
581.203	7836
581.215	7754
581.270	6854
581.276	6801
581.326	6281
581.349	6835
581.382	7658
581.422	7806
581.438	7884
581.494	7923
581.494	7908
581.550	6724
581.567	7284
581.606	8496
581.640	7718
581.661	7255
581.713	7616
581.717	7652
581.773	7675
581.786	7602
581.829	7347
581.859	8105
581.885	8772
581.932	9085
581.940	9152
581.996	8099
582.004	8102
582.052	7985
582.077	8105
582.107	8304
582.150	8014
582.163	7944
582.219	7907
582.223	7932
582.274	8100
582.296	7877
582.330	7628
582.368	8102
582.386	8309
582.441	7560
582.441	7560
582.497	7957
582.514	8017
582.552	8339
582.587	8391
582.608	8351
582.659	8026
582.663	7999
582.719	8516
582.732	8475
582.774	8472
582.805	8756
582.830	8984
582.877	8680
582.885	8602
582.941	8538
582.950	8386
582.996	7719
583.023	8291
583.052	8986
583.095	8846
583.107	8821
583.162	9269
583.168	9302
583.218	9307
583.240	8772
583.273	8096
583.313	8250
583.328	8356
583.384	8954
583.385	8950
583.439	8468
583.458	8353
583.494	8258
583.531	8068
583.549	8045
583.603	8915
583.605	8934
583.660	8741
583.676	8630
583.715	8341
583.748	8234
583.770	8251
583.820	8393
583.825	8379
583.881	8469
583.893	8332
583.936	8166
583.965	8124
583.991	7882
584.038	8021
584.046	8125
584.101	8073
584.110	8170
584.156	8264
584.183	8171
584.211	8228
584.255	8420
584.266	8441
584.321	8454
584.328	8488
584.376	8846
584.400	9024
584.431	9260
584.472	8920
584.486	8736
584.541	8795
584.545	8798
584.596	9189
584.617	9342
584.651	9487
584.689	9645
584.706	9757
584.761	9694
584.762	9693
584.816	9682
584.834	10015
584.871	10489
584.906	10269
584.926	10289
584.978	10679
584.980	10701
585.035	11053
585.051	11302
585.090	11770
585.123	12436
585.145	12921
585.195	13730
585.200	13868
585.254	15995
585.267	16636
585.309	18399
585.340	19199
585.364	19904
585.412	22054
585.419	22435
585.473	25883
585.484	26529
585.528	31254
585.556	37111
585.583	50185
585.628	80475
585.637	92505
585.692	197536
585.700	217202
585.747	284765
585.772	243075
585.801	149466
585.845	48532
585.856	37487
585.910	22246
585.917	20663
585.965	17677
585.989	16783
586.019	15976
586.061	15258
586.074	15102
586.128	14677
586.133	14654
586.183	14388
586.205	14270
586.237	14363
586.277	14227
586.292	14098
586.346	14079
586.349	14088
586.401	14729
586.421	14671
586.455	14561
586.493	14739
586.509	15093
586.564	16821
586.565	16881
586.618	19790
586.637	20107
586.672	20178
586.709	19290
586.727	18799
586.781	19395
586.781	19404
586.835	17220
586.853	16953
586.889	16449
586.925	15481
586.944	15426
586.996	16126
586.998	16158
587.052	16735
587.068	16848
587.106	16749
587.140	17007
587.161	17197
587.212	16932
587.215	16962
587.269	17710
587.284	17877
587.323	17957
587.356	18292
587.377	18640
587.427	19274
587.431	19330
587.485	20247
587.499	20320
587.539	20560
587.571	20835
587.593	21261
587.643	22338
587.648	22360
587.702	22572
587.715	22580
587.755	23558
587.786	24164
587.810	24389
587.858	24633
587.864	24780
587.917	27271
587.930	27726
587.971	29378
588.001	30447
588.025	31361
588.073	33337
588.079	33581
588.133	35758
588.145	36356
588.187	39851
588.217	42631
588.241	45266
588.288	50245
588.295	51008
588.348	58199
588.360	59877
588.402	66220
588.431	71092
588.456	76134
588.503	86849
588.510	88758
588.564	105535
588.575	109547
588.617	127755
588.646	141327
588.671	157692
588.718	194751
588.725	204565
588.778	293167
588.789	315488
588.832	484560
588.861	618773
588.886	782222
588.932	1106654
588.939	1123783
588.993	1141428
589.004	1139125
589.047	898018
589.075	688789
589.100	537758
589.147	301396
589.154	286742
589.207	211129
589.218	198271
589.261	184504
589.290	179896
589.314	186605
589.361	206647
589.368	216720
589.421	313034
589.433	338258
589.475	544303
589.504	708127
589.528	835541
589.576	1045731
589.582	1022848
589.635	725832
589.647	650742
589.689	382435
589.718	220314
589.742	175784
589.790	109360
589.795	105830
589.849	80036
589.861	74734
589.902	65087
589.932	58314
589.955	54595
590.004	47521
590.009	47054
590.062	42539
590.075	41492
590.115	38903
590.146	36980
590.168	36235
590.218	34444
590.222	34297
590.275	32433
590.289	31885
590.328	31356
590.360	30814
590.381	30507
590.431	29789
590.435	29772
590.488	28796
590.503	28632
590.541	28462
590.574	28178
590.594	28273
590.645	28361
590.647	28368
590.700	27443
590.716	27165
590.753	27185
590.787	27195
590.806	27337
590.859	27658
590.859	27693
590.912	27142
590.930	27039
590.965	27197
591.001	27338
591.018	27349
591.071	26921
591.072	26877
591.124	26959
591.143	26905
591.177	27486
591.214	28024
591.230	28187
591.283	28696
591.285	28662
591.336	28097
591.356	27824
591.389	27658
591.427	27338
591.442	27235
591.495	26616
591.498	26527
591.547	26608
591.569	26622
591.600	26439
591.640	26049
591.653	26256
591.706	26979
591.711	27004
591.759	27189
591.782	27222
591.811	27655
591.853	28210
591.864	28242
591.917	28102
591.924	28022
591.969	27872
591.995	27751
592.022	28145
592.066	28558
592.075	28685
592.127	29259
592.137	29285
592.180	29607
592.208	29758
592.233	29466
592.279	28718
592.285	28822
592.338	29254
592.350	29291
592.390	29391
592.421	29381
592.443	29747
592.491	30367
592.495	30453
592.548	30834
592.562	30877
592.600	29968
592.633	29090
592.653	29202
592.704	29199
592.705	29379
592.775	29985
592.846	30655
592.916	31760
592.987	32483
593.058	32541
593.128	30767
593.199	32082
593.270	31100
593.341	31335
593.411	32481
593.482	33115
593.553	34100
593.623	34294
593.694	34964
593.764	36127
593.835	34449
593.906	35308
593.976	35550
594.047	35738
594.117	39067
594.188	38442
594.258	38578
594.329	38128
594.399	39942
594.470	38564
594.540	40418
594.611	41253
594.681	41495
594.751	41342
594.822	43601
594.892	44143
594.963	45095
595.033	46186
595.103	46583
595.174	47762
595.244	50163
595.314	51776
595.384	51249
595.455	50291
595.525	52883
595.595	54726
595.665	55177
595.736	53865
595.806	53488
595.876	55634
595.946	55242
596.016	58023
596.087	59462
596.157	59410
596.227	59137
596.297	62391
596.367	66682
596.437	70347
596.507	71801
596.577	70624
596.647	71132
596.717	75648
596.787	76359
596.857	75042
596.927	75985
596.997	76337
597.067	76903
597.137	79360
597.207	80966
597.277	79337
597.347	76824
597.417	73926
597.487	75041
597.557	76660
597.626	78460
597.696	80125
597.766	79652
597.836	77164
597.906	70612
597.975	69195
598.045	70140
598.115	73589
598.185	79947
598.254	87990
598.324	97155
598.394	96703
598.464	93707
598.533	92249
598.603	86659
598.672	83192
598.742	85559
598.812	85139
598.881	87504
598.951	86945
599.020	89600
599.090	92355
599.159	93802
599.229	89691
599.299	88066
599.368	89701
599.437	87671
599.507	82434
599.576	79788
599.646	76996
599.715	77458
599.785	76393
599.854	74638
599.924	73117
599.993	72385
600.062	73981
600.132	76482
600.201	80844
600.270	93948
600.340	98689
600.409	97116
600.478	96103
600.547	98815
600.617	89822
600.686	71043
600.755	65318
600.824	62615
600.894	60406
600.963	60554
601.032	60125
601.101	58659
601.170	55696
601.239	54770
601.308	55914
601.378	56420
601.447	55038
601.516	55794
601.585	56884
601.654	58235
601.723	57736
601.792	58525
601.861	60442
601.930	63596
601.999	63910
602.068	63726
602.137	66275
602.206	68038
602.275	65876
602.343	68389
602.412	68546
602.481	67016
602.550	68205
602.619	70359
602.688	70125
602.756	71787
602.825	71846
602.894	72392
602.963	72887
603.032	74390
603.100	77211
603.169	74927
603.238	75935
603.307	77437
603.375	77046
603.444	78682
603.513	79588
603.581	82244
603.650	83228
603.719	79036
603.787	81197
603.856	83004
603.924	87031
603.993	90102
604.061	92207
604.130	96207
604.198	98834
604.267	100202
604.335	100074
604.404	103969
604.472	105201
604.541	106080
604.609	104936
604.678	107478
604.746	108514
604.815	111420
604.883	112946
604.951	112297
605.020	114310
605.088	115824
605.156	115841
605.225	119714
605.293	118854
605.361	119186
605.429	120288
605.498	124973
605.566	127366
605.634	134502
605.702	137761
605.771	143067
605.839	143080
605.907	139385
605.975	134838
606.043	131776
606.111	130980
606.180	132627
606.248	128923
606.316	128490
606.384	128821
606.452	131391
606.520	135113
606.588	137526
606.656	135775
606.724	133026
606.792	124487
606.860	112867
606.928	101301
606.996	99007
607.064	94541
607.132	97752
607.200	104881
607.267	109617
607.335	110697
607.403	113354
607.471	110122
607.539	107376
607.607	107276
607.674	94201
607.742	93266
607.810	92174
607.878	93053
607.946	95142
608.013	101140
608.081	101645
608.149	102095
608.216	106099
608.284	110144
608.352	107782
608.419	106502
608.487	107488
608.555	103069
608.622	107337
608.690	113753
608.757	126946
608.825	130676
608.893	126915
608.960	120476
609.028	116469
609.095	113339
609.163	113311
609.230	100875
609.298	92534
609.365	98163
609.432	106160
609.500	115291
609.567	134124
609.635	152914
609.702	162113
609.769	153988
609.837	118005
609.904	99340
609.971	102620
610.039	111784
610.106	142423
610.173	257754
610.241	556521
610.308	298278
610.375	124808
610.442	107491
610.509	103077
610.577	103765
610.644	104661
610.711	108125
610.778	111317
610.845	117689
610.912	124753
610.980	129156
611.047	129629
611.114	126843
611.181	122040
611.248	119455
611.315	131163
611.382	132232
611.449	138480
611.516	139892
611.583	138877
611.650	138467
611.717	139623
611.784	142108
611.851	149182
611.918	157107
611.984	178885
612.051	243990
612.118	458896
612.185	1041143
612.252	616378
612.319	202231
612.386	177932
612.452	166990
612.519	157202
612.586	155483
612.653	159568
612.719	165235
612.786	158926
612.853	145631
612.919	142341
612.986	145812
613.053	136855
613.120	127920
613.186	123839
613.253	124964
613.319	125023
613.386	123475
613.453	128273
613.519	129835
613.586	130451
613.652	137611
613.719	130880
613.785	132698
613.852	129083
613.918	128453
613.985	130013
614.051	135168
614.118	136404
614.184	129970
614.250	129251
614.317	130512
614.383	129308
614.449	131759
614.516	130508
614.582	131520
614.648	128403
614.715	128952
614.781	126117
614.847	126009
614.914	124551
614.980	121689
615.046	122072
615.112	125313
615.179	126263
615.245	126618
615.311	126176
615.377	129224
615.443	132513
615.509	130950
615.575	134073
615.642	132682
615.708	134711
615.774	141039
615.840	147468
615.906	157623
615.972	188894
616.038	271799
616.104	538624
616.170	1188693
616.236	930133
616.302	264865
616.368	210417
616.434	159855
616.500	153197
616.565	165105
616.631	199952
616.697	166213
616.763	173049
616.829	250170
616.895	423153
616.961	376551
617.026	170251
617.092	132708
617.158	130101
617.224	128519
617.289	118728
617.355	112817
617.421	111333
617.487	113430
617.552	107203
617.618	105572
617.684	106032
617.749	107484
617.815	102056
617.880	98867
617.946	100072
618.012	102419
618.077	103837
618.143	98403
618.208	100980
618.274	108749
618.339	110330
618.405	88943
618.470	89671
618.536	89766
618.601	88458
618.667	81429
618.732	78376
618.798	76141
618.863	76812
618.928	74323
618.994	77020
619.059	77638
619.124	83354
619.190	78648
619.255	74702
619.320	74026
619.386	76144
619.451	73022
619.516	72928
619.581	73452
619.647	76775
619.712	74843
619.777	72485
619.842	73228
619.907	75234
619.972	75183
620.038	75679
620.103	71733
620.168	71614
620.233	73876
620.298	74885
620.363	74380
620.428	77547
620.493	78763
620.558	79883
620.623	80429
620.688	82046
620.753	80619
620.818	81702
620.883	81511
620.948	81708
621.013	81563
621.078	79983
621.143	80970
621.207	83321
621.272	80176
621.337	78701
621.402	77197
621.467	77743
621.532	77908
621.596	78057
621.661	75578
621.726	73900
621.791	74929
621.855	75375
621.920	75283
621.985	74493
622.049	78059
622.114	76581
622.179	79271
622.243	80047
622.308	83502
622.373	87751
622.437	84672
622.502	80642
622.566	78407
622.631	78094
622.695	80222
622.760	78737
622.824	79319
622.889	80515
622.953	81426
623.018	94040
623.082	92784
623.147	85190
623.211	82647
623.276	83171
623.340	79202
623.404	77338
623.469	77581
623.533	79026
623.597	75463
623.662	75212
623.726	70114
623.790	66292
623.854	63778
623.919	66792
623.983	66435
624.047	67748
624.111	67139
624.176	69212
624.240	69822
624.304	74587
624.368	68380
624.432	69073
624.496	70774
624.560	76478
624.625	76078
624.689	75959
624.753	78997
624.817	74475
624.881	72333
624.945	65588
625.009	62972
625.073	65361
625.137	67843
625.201	74467
625.265	72559
625.329	68304
625.393	69164
625.456	69158
625.520	69778
625.584	73355
625.648	75739
625.712	80108
625.776	85045
625.839	83925
625.903	63156
625.967	56060
626.031	63426
626.095	77097
626.158	66356
626.222	50975
626.286	47833
626.349	45723
626.413	41922
626.477	44844
626.540	44578
626.604	42295
626.668	43079
626.731	41303
626.795	41600
626.858	43541
626.922	41573
626.986	41677
627.049	39780
627.113	43592
627.176	42177
627.240	39926
627.303	40769
627.366	39313
627.430	42260
627.493	41095
627.557	38267
627.620	42163
627.684	40775
627.747	42995
627.810	37854
627.874	35523
627.937	33296
628.000	35719
628.064	34378
628.127	29807
628.190	30720
628.253	30080
628.317	29111
628.380	27489
628.443	27094
628.506	27093
628.569	25601
628.632	24260
628.696	23766
628.759	24752
628.822	22929
628.885	23016
628.948	23157
629.011	22481
629.074	21237
629.137	21622
629.200	20190
629.263	22522
629.326	19476
629.389	20191
629.452	19826
629.515	20323
629.578	19814
629.641	21616
629.704	20467
629.767	20079
629.830	18925
629.892	18806
629.955	18241
630.018	21450
630.081	20062
630.144	22093
630.207	19022
630.269	21256
630.332	19298
630.395	18912
630.458	17894
630.520	17481
630.583	19292
630.646	18191
630.708	18435
630.771	17967
630.834	20417
630.896	18021
630.959	18284
631.021	18316
631.084	16289
631.146	18279
631.209	19466
631.272	18381
631.334	18961
631.397	18677
631.459	19073
631.522	20612
631.584	20263
631.646	21038
631.709	22214
631.771	23604
631.834	21177
631.896	20489
631.958	18141
632.021	19129
632.083	17757
632.145	18649
632.208	18331
632.270	18536
632.332	16568
632.395	16775
632.457	18345
632.519	16597
632.581	18223
632.643	16314
632.706	17595
632.768	15793
632.830	16883
632.892	16699
632.954	16565
633.016	18925
633.078	17163
633.141	18105
633.203	16864
633.265	17207
633.327	16906
633.389	17290
633.451	18497
633.513	19102
633.575	18705
633.637	18021
633.698	18032
633.760	19318
633.822	19190
633.884	18229
633.946	19217
634.008	19799
634.070	20499
634.132	21342
634.193	21146
634.255	24742
634.317	23945
634.379	25068
634.441	21525
634.502	20090
634.564	18472
634.626	17982
634.687	17262
634.749	16310
634.811	16611
634.873	15316
634.934	16002
634.996	17072
635.057	14625
635.119	16673
635.181	16910
635.242	17407
635.304	14418
635.365	17899
635.427	15897
635.488	16317
635.550	14944
635.611	16497
635.673	14988
635.734	17774
635.796	18272
635.857	19863
635.918	20005
635.980	23513
636.041	22695
636.102	24854
636.164	24186
636.225	24726
636.286	19507
636.348	19539
636.409	17902
636.470	16397
636.531	15203
636.593	15604
636.654	15380
636.715	15709
636.776	14461
636.838	14307
636.899	15486
636.960	13664
637.021	13790
637.082	13024
637.143	13090
637.204	12675
637.265	13558
637.326	13893
637.387	13535
637.448	13233
637.509	13536
637.570	13633
637.631	14344
637.692	12781
637.753	12143
637.814	13394
637.875	12199
637.936	13342
637.997	12110
638.058	11978
638.119	12906
638.179	12585
638.240	11486
638.301	12761
638.362	10814
638.423	11818
638.483	11755
638.544	9963
638.605	12113
638.666	10309
638.726	12343
638.787	11179
638.848	11824
638.908	10916
638.969	11126
639.030	10399
639.090	10707
639.151	11680
639.211	11989
639.272	14021
639.332	16489
639.393	13311
639.453	10775
639.514	12077
639.574	12089
639.635	10281
639.695	11394
639.756	9440
639.816	10561
639.877	11711
639.937	16002
639.997	17324
640.058	10263
640.118	8952
640.178	9938
640.239	10225
640.299	9954
640.359	10075
640.420	10860
640.480	12130
640.540	13145
640.600	12708
640.661	11764
640.721	10636
640.781	13197
640.841	9648
640.901	10837
640.961	11238
641.021	10698
641.082	11483
641.142	13337
641.202	11623
641.262	8419
641.322	10357
641.382	8035
641.442	10026
641.502	9125
641.562	9450
641.622	8655
641.682	10447
641.742	11638
641.802	10598
641.861	9913
641.921	9452
641.981	10821
642.041	10897
642.101	10924
642.161	8046
642.221	7792
642.280	9051
642.340	8209
642.400	8556
642.460	9934
642.519	8737
642.579	8483
642.639	9950
642.698	6611
642.758	11691
642.818	9421
642.877	8533
642.937	8814
642.997	10130
643.056	12211
643.116	8545
643.175	10723
643.235	9206
643.294	9566
643.354	10964
643.414	11765
643.473	14619
643.532	16380
643.592	22365
643.651	36920
643.711	67354
643.770	133426
643.830	327442
643.889	655094
643.948	147358
644.008	27969
644.067	17838
644.126	12800
644.186	12688
644.245	11060
644.304	9067
644.363	10699
644.423	8163
644.482	9438
644.541	10659
644.600	9078
644.659	13331
644.719	15216
644.778	25169
644.837	42689
644.896	91604
644.955	205870
645.014	60494
645.073	14260
645.132	11186
645.191	10621
645.250	9406
645.309	11258
645.368	11252
645.427	14809
645.486	24527
645.545	42149
645.604	12525
645.663	9256
645.722	9195
645.781	9944
645.840	11908
645.898	14634
645.957	22279
646.016	33886
646.075	63227
646.134	128301
646.192	346654
646.251	477122
646.310	66625
646.369	19985
646.427	16800
646.486	12462
646.545	10452
646.603	9467
646.662	9533
646.721	8978
646.779	7843
646.838	7612
646.896	11920
646.955	15278
647.014	24952
647.072	48672
647.131	133376
647.189	57844
647.248	10199
647.306	8255
647.365	8315
647.423	5337
647.481	8150
647.540	5278
647.598	6718
647.657	5988
647.715	6990
647.773	5546
647.832	6921
647.890	4958
647.948	5643
648.007	6841
648.065	4212
648.123	4408
648.181	6400
648.240	5544
648.298	4422
648.356	4727
648.414	5478
648.472	5217
648.531	5817
648.589	4602
648.647	5271
648.705	4609
648.763	5183
648.821	4984
648.879	5331
648.937	6753
648.995	8356
649.053	10691
649.111	16765
649.169	28271
649.227	52627
649.285	114215
649.343	329226
649.401	141498
649.459	24459
649.516	14667
649.574	8050
649.632	9866
649.690	10978
649.748	13088
649.806	16604
649.863	33309
649.921	93822
649.979	55997
650.037	9157
650.094	4728
650.152	5458
650.210	4497
650.268	5468
650.325	4181
650.383	4390
650.440	3142
650.498	4620
650.556	2959
650.613	3479
650.671	4452
650.728	3608
650.786	4076
650.843	6070
650.901	2974
650.958	4245
651.016	3911
651.073	4108
651.131	2472
651.188	3466
651.246	3054
651.303	1776
651.360	3685
651.418	3287
651.475	2761
651.532	3042
651.590	3472
651.647	2397
651.704	3207
651.762	2133
651.819	2920
651.876	2565
651.933	2675
651.990	3365
652.048	1982
652.105	1848
652.162	3385
652.219	2163
652.276	2724
652.333	2572
652.390	1818
652.448	2559
652.505	2495
652.562	2744
652.619	2888
652.676	3659
652.733	3536
652.790	1971
652.847	1434
652.904	2510
652.961	1242
653.017	1285
653.074	2992
653.131	2902
653.188	1219
653.245	1977
653.302	2506
653.359	3263
653.415	2481
653.472	2871
653.529	2447
653.586	1943
653.642	1906
653.699	2997
653.756	1874
653.813	1844
653.869	2944
653.926	2586
653.983	2269
654.039	3337
654.096	2142
654.152	3056
654.209	1818
654.266	2025
654.322	1835
654.379	2388
654.435	1719
654.492	2605
654.548	3019
654.605	4188
654.661	3235
654.717	2561
654.774	3223
654.830	2622
654.887	2052
654.943	2040
655.000	1660
655.056	2598
655.112	2744
655.168	1696
655.225	1222
655.281	2371
655.337	2589
655.394	2973
655.450	3026
655.506	3499
655.562	2506
655.618	3900
655.675	1217
655.731	1584
655.787	1096
655.843	2441
655.899	245
655.955	2048
656.011	1594
656.067	807
656.123	2074
656.179	1919
656.235	3113
656.291	884
656.347	3139
656.403	1690
656.459	1699
656.515	1615
656.571	1698
656.627	2275
656.683	2288
656.739	2864
656.795	2472
656.850	1902
656.906	2423
656.962	3298
657.018	1319
657.074	3296
657.129	4274
657.185	6252
657.241	14182
657.297	7382
657.352	2433
657.408	1833
657.464	2417
657.519	2180
657.575	1987
657.630	1479
657.686	1556
657.742	1308
657.797	1173
657.853	1704
657.908	3412
657.964	812
658.019	1790
658.075	1994
658.130	2080
658.186	1636
658.241	2074
658.297	1261
658.352	1243
658.407	2407
658.463	1355
658.518	1392
658.573	2082
658.629	1591
658.684	1380
658.739	2797
658.795	1217
658.850	976
658.905	1723
658.960	1673
659.016	1595
659.071	1632
659.126	1669
659.181	1815
659.236	4209
659.291	4050
659.346	1677
659.401	1742
659.457	1941
659.512	753
659.567	2304
659.622	1591
659.677	1241
659.732	473
659.787	1860
659.842	608
659.897	1457
659.952	2105
660.007	1215
660.061	2516
660.116	1055
660.171	900
660.226	1492
660.281	2471
660.336	895
660.391	2252
660.445	-80
660.500	1975
660.555	2297
660.610	1135
660.664	1226
660.719	1604
660.774	1985
660.828	1768
660.883	1609
660.938	1849
660.992	6
661.047	2065
661.101	1549
661.156	1543
661.211	1216
661.265	1321
661.320	923
661.374	1797
661.429	547
661.483	1294
661.538	500
661.592	1390
661.647	808
661.701	1724
661.755	1600
661.810	1431
661.864	396
661.919	763
661.973	1927
662.027	640
662.081	288
662.136	1272
662.190	1679
662.244	1034
662.299	1015
662.353	1627
662.407	1044
662.461	1230
662.515	909
662.569	1207
662.624	1935
662.678	1087
662.732	1354
662.786	1157
662.840	1291
662.894	2152
662.948	1383
663.002	1741
663.056	1451
663.110	593
663.164	737
663.218	1284
663.272	1706
663.326	2379
663.380	1482
663.434	1480
663.488	444
663.542	2140
663.595	1649
663.649	1175
663.703	1337
663.757	1543
663.811	534
663.864	1008
663.918	1960
663.972	542
664.026	1705
664.079	1238
664.133	1343
664.187	1934
664.240	1602
664.294	782
664.348	1731
664.401	1323
664.455	974
664.508	830
664.562	847
664.615	1556
664.669	466
664.722	1408
664.776	1002
664.829	1081
664.883	1410
664.936	1552
664.990	1106
665.043	1859
665.097	940
665.150	2258
665.203	1056
665.257	2010
665.310	2082
665.363	2211
665.417	1171
665.470	1783
665.523	572
665.576	1381
665.630	1367
665.683	1535
665.736	1957
665.789	454
665.842	857
665.895	1483
665.949	1307
666.002	965
666.055	771
666.108	2316
666.161	1416
666.214	1561
666.267	2207
666.320	2100
666.373	1310
666.426	1878
666.479	907
666.532	1401
666.585	1090
666.638	1985
666.691	1660
666.744	1930
666.796	959
666.849	1461
666.902	1499
666.955	1439
667.008	1349
667.060	1042
667.113	1636
667.166	1230
667.219	917
667.271	1691
667.324	1976
667.377	2114
667.430	1524
667.482	1250
667.535	1362
667.587	2329
667.640	2078
667.693	1719
667.745	3913
667.798	4888
667.850	892
667.903	1686
667.955	545
668.008	1937
668.060	1136
668.113	1686
668.165	1025
668.218	1041
668.270	768
668.322	1807
668.375	706
668.427	1529
668.479	2169
668.532	1783
668.584	964
668.636	854
668.689	1317
668.741	1397
668.793	1801
668.845	1433
668.898	2005
668.950	1342
669.002	1426
669.054	659
669.106	908
669.158	1463
669.211	1067
669.263	879
669.315	2329
669.367	1185
669.419	563
669.471	2054
669.523	1944
669.575	2537
669.627	1793
669.679	1831
669.731	2188
669.783	1643
669.835	1889
669.886	2125
669.938	1072
669.990	1636
670.042	1085
670.094	2667
670.146	1792
670.197	1300
670.249	2217
670.301	1679
670.353	2179
670.404	4519
670.456	5329
670.508	9610
670.560	14085
670.611	23885
670.663	40552
670.715	100944
670.766	157582
670.818	43933
670.869	7236
670.921	4104
670.972	4189
671.024	1771
671.075	1894
671.127	1923
671.178	1819
671.230	2055
671.281	2343
671.333	1937
671.384	2471
671.436	2981
671.487	3928
671.538	6980
671.590	11547
671.641	17259
671.692	32703
671.744	64714
671.795	32499
671.846	8997
671.897	4352
671.949	3231
672.000	1723
672.051	2074
672.102	2419
672.153	1345
672.204	1667
672.256	1872
672.307	1245
672.358	1383
672.409	1191
672.460	1674
672.511	103
672.562	644
672.613	672
672.664	1463
672.715	827
672.766	1377
672.817	126
672.868	997
672.919	863
672.970	404
673.021	305
673.071	136
673.122	1137
673.173	1594
673.224	683
673.275	1154
673.326	498
673.376	653
673.427	421
673.478	1236
673.528	796
673.579	861
673.630	715
673.680	1365
673.731	397
673.782	1030
673.832	522
673.883	1207
673.934	764
673.984	620
674.035	221
674.085	1394
674.136	1445
674.186	283
674.237	898
674.287	1517
674.338	780
674.388	1081
674.438	391
674.489	1256
674.539	682
674.589	1500
674.640	318
674.690	1058
674.740	756
674.791	463
674.841	821
674.891	839
674.942	1006
674.992	890
675.042	133
675.092	192
675.142	311
675.193	558
675.243	-292
675.293	866
675.343	1187
675.393	428
675.443	184
675.493	1183
675.543	-1159
675.593	96
675.643	742
675.693	453
675.743	343
675.793	270
675.843	243
675.893	561
675.943	1240
675.993	1541
676.043	-322
676.093	1249
676.142	803
676.192	526
676.242	560
676.292	-201
676.341	-463
676.391	1047
676.441	-364
676.491	16
676.540	-1019
676.590	1306
676.640	-316
676.689	844
676.739	106
676.789	14
676.838	-60
676.888	1312
676.937	447
676.987	-56
677.037	341
677.086	192
677.136	-246
677.185	735
677.235	-463
677.284	48
677.333	684
677.383	248
677.432	-178
677.482	-331
677.531	648
677.580	-733
677.630	-459
677.679	146
677.728	443
677.778	919
677.827	-25
677.876	-564
677.925	167
677.975	852
678.024	32
678.073	646
678.122	-154
678.171	-79
678.220	-379
678.269	832
678.319	540
678.368	1056
678.417	102
678.466	735
678.515	453
678.564	419
678.613	-335
678.662	547
678.711	-639
678.760	518
678.809	479
678.857	716
678.906	-124
678.955	171
679.004	-557
679.053	451
679.102	213
679.151	619
679.199	-131
679.248	393
679.297	-244
679.346	450
679.394	-338
679.443	141
679.492	-663
679.540	-193
679.589	120
679.638	-87
679.686	453
679.735	638
679.784	-141
679.832	875
679.881	219
679.929	-189
679.978	-479
680.026	1198
680.075	-160
680.123	-551
680.172	-963
680.220	-726
680.268	-385
680.317	4
680.365	-318
680.414	-349
680.462	-180
680.510	315
680.559	-192
680.607	-553
680.655	-348
680.703	360
680.752	35
680.800	-20
680.848	-871
680.896	-730
680.945	-166
680.993	-260
681.041	-71
681.089	823
681.137	-720
681.185	128
681.233	230
681.258	-112
681.281	-443
681.329	-755
681.377	-342
681.380	-339
681.425	-450
681.473	623
681.502	330
681.521	104
681.569	83
681.617	342
681.624	254
681.665	-399
681.713	132
681.745	331
681.761	413
681.809	382
681.857	868
681.867	751
681.904	304
681.952	60
681.989	98
682.000	98
682.048	327
682.096	-413
682.111	-107
682.143	507
682.191	287
682.233	505
682.239	532
682.286	432
682.334	201
682.354	67
682.382	-141
682.430	1371
682.476	652
682.477	630
682.525	765
682.572	25
682.598	2
682.620	-43
682.667	230
682.715	61
682.720	84
682.763	247
682.810	248
682.841	-51
682.857	-231
682.905	639
682.952	857
682.963	725
683.000	196
683.047	197
683.085	948
683.095	1154
683.142	207
683.190	735
683.206	542
683.237	159
683.284	635
683.328	-265
683.332	-352
683.379	373
683.426	626
683.449	591
683.473	566
683.521	703
683.568	1211
683.571	1155
683.615	296
683.662	797
683.693	658
683.709	580
683.757	368
683.804	1137
683.814	1121
683.851	1064
683.898	698
683.936	1293
683.945	1411
683.992	1299
684.039	690
684.057	650
684.086	636
684.133	1001
684.179	611
684.180	589
684.227	1751
684.274	1371
684.300	1390
684.321	1387
684.368	446
684.415	785
684.422	706
684.462	195
684.509	1297
684.543	1213
684.556	1171
684.603	1514
684.649	264
684.665	778
684.696	1900
684.743	914
684.786	1414
684.790	1441
684.837	619
684.883	1600
684.908	1041
684.930	556
684.977	1407
685.023	1483
685.029	1440
685.070	1028
685.117	1607
685.150	1341
685.164	1239
685.210	1220
685.257	1834
685.272	1761
685.303	1627
685.350	1021
685.393	1308
685.396	1327
685.443	1838
685.490	1772
685.514	1719
685.536	1571
685.583	1654
685.629	1799
685.636	1707
685.675	1362
685.722	1133
685.757	1219
685.768	1193
685.815	1735
685.861	1624
685.878	1667
685.908	1778
685.954	1567
686.000	1942
686.000	1946
686.047	2225
686.093	1884
686.121	1950
686.139	1955
686.185	1948
686.232	1426
686.242	1515
686.278	1957
686.324	1492
686.363	1839
686.370	1864
686.416	1969
686.463	1842
686.484	1770
686.509	1755
686.555	1817
686.601	1444
686.606	1495
686.647	1886
686.693	2057
686.727	1780
686.739	1707
686.785	1736
686.831	1796
686.848	2056
686.877	2452
686.923	1719
686.969	2158
686.969	2160
687.015	1674
687.061	1765
687.090	1804
687.107	1848
687.153	2274
687.199	2386
687.211	2286
687.245	1943
687.291	2093
687.332	1757
687.336	1729
687.382	2078
687.428	2034
687.453	2023
687.474	2013
687.520	1549
687.565	1921
687.574	1861
687.611	1676
687.657	2098
687.695	2055
687.702	2071
687.748	2354
687.794	2397
687.816	2572
687.839	2559
687.885	2458
687.931	2524
687.937	2420
687.976	1975
688.022	2412
688.058	2704
688.067	2792
688.113	2450
688.158	2405
688.179	2347
688.204	2242
688.249	2498
688.295	2223
688.300	2231
688.340	2379
688.386	2846
688.421	2513
688.431	2406
688.477	2262
688.522	2453
688.542	2478
688.567	2540
688.613	2754
688.658	2678
688.663	2652
688.703	2523
688.749	2754
688.784	2846
688.794	2845
688.839	2666
688.884	3128
688.905	2982
688.930	2770
688.975	2546
689.020	2868
689.026	2789
689.065	2483
689.110	2629
689.146	2345
689.155	2237
689.201	2482
689.246	2271
689.267	2514
689.291	2950
689.336	2988
689.381	2907
689.388	2996
689.426	3240
689.471	2790
689.509	2916
689.516	2961
689.561	3021
689.606	2766
689.630	2693
689.651	2616
689.696	3028
689.741	2947
689.750	2939
689.785	2972
689.830	3082
689.871	2610
689.875	2568
689.920	2978
689.965	3025
689.992	3064
690.010	3074
690.054	3187
690.099	3042
690.112	3030
690.144	3012
690.189	2837
690.233	2818
690.233	2824
690.278	3082
690.323	2944
690.354	3003
690.367	3053
690.412	3071
690.457	3351
690.474	3191
690.501	2923
690.546	3362
690.590	3156
690.595	3176
690.635	3272
690.680	2807
690.716	3033
690.724	3157
690.769	3268
690.813	3567
690.836	3440
690.857	3349
690.902	3457
690.946	4010
690.957	4060
690.991	4268
691.035	4232
691.077	4633
691.080	4645
691.124	4435
691.168	4677
691.198	4474
691.213	4296
691.257	4076
691.301	3291
691.318	3222
691.346	3407
691.390	3331
691.434	3248
691.439	3250
691.478	3362
691.522	3985
691.559	3334
691.567	3217
691.611	3563
691.655	3569
691.680	3692
691.699	3743
691.743	3693
691.787	3596
691.800	3508
691.831	3334
691.875	3183
691.919	3169
691.921	3159
691.964	3294
692.008	3530
692.041	3805
692.052	3907
692.096	3649
692.139	4103
692.162	3936
692.183	3713
692.227	3920
692.271	3842
692.282	3817
692.315	3769
692.359	3639
692.402	4015
692.403	4028
692.447	3843
692.490	3842
692.523	3796
692.534	3753
692.578	4003
692.622	3957
692.643	3749
692.666	3569
692.709	3688
692.753	3496
692.763	3484
692.797	3435
692.840	3393
692.884	3003
692.884	3013
692.928	3699
692.971	3926
693.004	3898
693.015	3837
693.059	3787
693.102	4138
693.124	4015
693.146	3913
693.189	4057
693.233	3933
693.245	3938
693.276	3874
693.320	3815
693.363	3423
693.365	3407
693.407	3665
693.450	4045
693.485	4114
693.493	4122
693.537	4303
693.580	4499
693.605	4497
693.624	4608
693.667	4861
693.710	5428
693.725	5538
693.753	6074
693.797	6991
693.840	7712
693.845	7807
693.883	7428
693.926	6592
693.966	6065
693.970	6023
694.013	5430
694.056	4953
694.086	4528
694.099	4468
694.142	3968
694.185	3931
694.206	3843
694.229	4017
694.272	4226
694.315	4600
694.326	4609
694.358	4699
694.401	5130
694.444	5298
694.446	5288
694.487	4992
694.530	4805
694.566	4949
694.573	4986
694.616	4320
694.659	4510
694.686	4348
694.702	4406
694.745	4521
694.787	4478
694.806	4696
694.830	4830
694.873	4590
694.916	4395
694.926	4350
694.959	4362
695.002	4316
695.044	4238
695.046	4228
695.087	4431
695.130	4496
695.166	4713
695.172	4752
695.215	4514
695.258	4499
695.286	4490
695.301	4521
695.343	4682
695.386	4682
695.406	4792
695.428	4860
695.471	4488
695.514	4478
695.526	4406
695.556	4525
695.599	4858
695.641	5123
695.646	5121
695.684	4976
695.726	5055
695.766	4854
695.769	4858
695.811	4967
695.854	4918
695.886	4915
695.896	4983
695.938	5164
695.981	5189
696.005	5336
696.023	5388
696.065	5369
696.108	5450
696.125	5407
696.150	5540
696.192	5859
696.235	6075
696.245	6121
696.277	6142
696.319	6046
696.361	6177
696.365	6163
696.404	5986
696.446	5775
696.485	5423
696.488	5446
696.530	5743
696.572	5812
696.604	6000
696.614	5962
696.656	5646
696.698	5392
696.724	5145
696.740	5182
696.783	5346
696.825	5468
696.844	5526
696.867	5592
696.909	5631
696.951	5596
696.964	5607
696.992	5786
697.034	6074
697.076	6150
697.083	6183
697.118	6298
697.160	6206
697.202	6291
697.203	6274
697.244	6446
697.286	6627
697.323	6575
697.327	6522
697.369	6131
697.411	5626
697.442	5236
697.453	5403
697.494	5951
697.536	6583
697.562	6970
697.578	6908
697.620	6639
697.661	6316
697.682	6167
697.703	6427
697.744	6917
697.786	7444
697.801	7585
697.828	7619
697.869	7718
697.911	7687
697.921	7687
697.952	7593
697.994	7398
698.035	7202
698.040	7155
698.077	6784
698.118	6374
698.160	5920
698.160	5899
698.201	6212
698.243	6493
698.279	6764
698.284	6813
698.325	7084
698.367	7301
698.399	7461
698.408	7463
698.449	7402
698.491	7319
698.518	7249
698.532	7330
698.573	7510
698.614	7698
698.638	7777
698.656	7818
698.697	7882
698.738	7928
698.757	7933
698.779	7772
698.820	7404
698.862	7046
698.877	6900
698.903	7205
698.944	7647
698.985	8089
698.996	8191
699.026	8146
699.067	8057
699.116	7929
699.235	7051
699.354	7325
699.474	6774
699.593	6973
699.713	7804
699.832	7272
699.951	8528
700.070	6898
700.190	7028
700.309	6657
700.428	6950
700.547	7738
700.667	6901
700.786	6705
700.905	7300
701.024	6611
701.143	6624
701.262	7238
701.381	7074
701.500	6427
701.619	7838
701.738	5673
701.857	6817
701.976	6096
702.095	6763
702.214	8133
702.333	7229
702.452	7279
702.571	6627
702.690	6963
702.809	5728
702.928	6840
703.047	6194
703.165	6695
703.284	6740
703.403	6246
703.522	6034
703.640	6323
703.759	7093
703.878	7307
703.997	6121
704.115	6632
704.234	6014
704.353	6750
704.471	5514
704.590	5193
704.708	5448
704.827	5855
704.946	6341
705.064	5499
705.183	5620
705.301	5973
705.420	6529
705.538	5580
705.656	5937
705.775	5596
705.893	5538
706.012	6843
706.130	5903
706.249	6352
706.367	5439
706.485	6554
706.604	5286
706.722	5988
706.840	6555
706.958	6810
707.077	5828
707.195	5674
707.313	5548
707.431	4762
707.549	4378
707.668	4386
707.786	5627
707.904	5323
708.022	5880
708.140	5403
708.258	5220
708.376	5924
708.494	5166
708.612	5475
708.730	6223
708.848	5775
708.966	5486
709.084	6190
709.202	5246
709.320	5550
709.438	5539
709.556	6001
709.674	4988
709.791	5502
709.909	4970
710.027	4115
710.145	5842
710.263	5639
710.380	5071
710.498	4724
710.616	5318
710.733	4763
710.851	5847
710.969	5141
711.086	4213
711.204	6106
711.322	4163
711.439	4994
711.557	4941
711.674	4504
711.792	5237
711.909	5099
712.027	4415
712.144	4424
712.262	5094
712.379	4440
712.497	5455
712.614	6356
712.732	5838
712.849	5356
712.966	6006
713.084	6805
713.201	4997
713.318	5383
713.436	4541
713.553	4896
713.670	5816
713.787	5908
713.905	5852
714.022	4880
714.139	4913
714.256	7730
714.373	10481
714.490	20761
714.608	56293
714.725	246964
714.842	210977
714.959	14344
715.076	7697
715.193	6353
715.310	5240
715.427	5024
715.544	5228
715.661	5158
715.778	4361
715.895	5428
716.011	5356
716.128	4834
716.245	5295
716.362	5862
716.479	5388
716.596	5801
716.713	4557
716.829	3773
716.946	4933
717.063	4453
717.180	3391
717.296	3940
717.413	3822
717.530	3942
717.646	4027
717.763	3833
717.880	3858
717.996	4350
718.113	4021
718.229	4015
718.346	2955
718.462	4561
718.579	6072
718.695	9566
718.812	5737
718.928	4499
719.045	3676
719.161	3957
719.277	3801
719.394	3868
719.510	4022
719.626	3909
719.743	4778
719.859	8712
719.975	17783
720.092	75350
720.208	150947
720.324	14768
720.440	5306
720.557	5428
720.673	8030
720.789	6880
720.905	8055
721.021	5015
721.137	3639
721.253	3794
721.369	3352
721.486	3876
721.602	4744
721.718	2865
721.834	3370
721.950	3413
722.066	3395
722.181	2551
722.297	2612
722.413	3427
722.529	3210
722.645	2599
722.761	2471
722.877	2708
722.993	3300
723.108	4110
723.224	2862
723.340	2789
723.456	3501
723.571	3440
723.687	2531
723.803	2788
723.918	2887
724.034	2776
724.150	2260
724.265	3592
724.381	4524
724.497	4170
724.612	3086
724.728	2962
724.843	2487
724.959	2485
725.074	3925
725.190	3074
725.305	3020
725.421	2067
725.536	2711
725.651	2542
725.767	2708
725.882	3268
725.997	2831
726.113	3489
726.228	2430
726.343	3082
726.459	3209
726.574	2534
726.689	2332
726.804	2738
726.920	3238
727.035	2723
727.150	2810
727.265	2143
727.380	2815
727.495	2688
727.610	3033
727.725	1764
727.841	2985
727.956	2799
728.071	3365
728.186	2039
728.301	1543
728.416	2302
728.531	3043
728.645	2310
728.760	3514
728.875	3786
728.990	2766
729.105	2457
729.220	2738
729.335	3214
729.449	2072
729.564	1828
729.679	2028
729.794	2144
729.908	2016
730.023	2713
730.138	2254
730.253	2238
730.367	2857
730.482	1809
730.596	2617
730.711	3549
730.826	3306
730.940	2300
731.055	2288
731.169	2816
731.284	2798
731.398	2248
731.513	2836
731.627	3234
731.742	3576
731.856	4615
731.970	3871
732.085	4783
732.199	5600
732.313	11003
732.428	30028
732.542	96526
732.656	50470
732.771	7773
732.885	5060
732.999	5166
733.113	5223
733.227	5263
733.342	4321
733.456	3806
733.570	4147
733.684	4377
733.798	3772
733.912	4265
734.026	3410
734.140	3793
734.254	3918
734.368	4710
734.482	5523
734.596	3852
734.710	3595
734.824	3187
734.938	3769
735.052	3427
735.166	4663
735.280	3936
735.393	3756
735.507	3469
735.621	4448
735.735	3506
735.849	3921
735.962	2744
736.076	3802
736.190	3513
736.303	3152
736.417	4243
736.531	3249
736.644	3528
736.758	3395
736.872	2781
736.985	2970
737.099	2819
737.212	3631
737.326	3137
737.439	3307
737.553	2747
737.666	3432
737.780	2432
737.893	3473
738.007	3503
738.120	2996
738.233	3651
738.347	2780
738.460	3067
738.573	3338
738.687	3211
738.800	4052
738.913	3868
739.026	3474
739.140	3271
739.253	3200
739.366	2055
739.479	1784
739.592	2217
739.705	2564
739.818	2712
739.932	2830
740.045	2615
740.158	2553
740.271	2920
740.384	2562
740.497	3314
740.610	3462
740.723	1921
740.836	2437
740.949	2872
741.062	3661
741.174	3268
741.287	3295
741.400	2853
741.513	2899
741.626	3528
741.739	2996
741.851	2292
741.964	3091
742.077	2408
742.189	2207
742.302	3423
742.415	2627
742.527	2136
742.640	2787
742.753	2429
742.865	2217
742.978	2316
743.090	1918
743.203	1852
743.316	2371
743.428	1925
743.541	2234
743.653	2680
743.766	2207
743.878	3083
743.990	1643
744.103	3306
744.215	2111
744.327	2324
744.440	3377
744.552	4055
744.664	2529
744.777	2281
744.889	1601
745.001	2484
745.113	2128
745.226	1051
745.338	2325
745.450	1916
745.562	2341
745.674	2288
745.786	2221
745.898	2184
746.010	1694
746.122	1722
746.234	2278
746.347	2226
746.459	2127
746.570	1384
746.682	2916
746.794	1564
746.906	1959
747.018	2339
747.130	2489
747.242	1883
747.354	1868
747.466	2876
747.577	1997
747.689	2079
747.801	1619
747.913	1577
748.024	1388
748.136	1458
748.248	1223
748.359	1664
748.471	1806
748.583	1870
748.694	1364
748.806	2173
748.918	2109
749.029	2327
749.141	2928
749.252	1932
749.364	2349
749.475	4194
749.587	2529
749.698	1275
749.809	2013
749.921	1524
750.032	914
750.144	1944
750.255	1689
750.366	1775
750.478	1573
750.589	1618
750.700	2114
750.811	2135
750.923	2922
751.034	5016
751.145	5066
751.256	1862
751.367	1763
751.479	1292
751.590	1575
751.701	2044
751.812	762
751.923	1295
752.034	1295
752.145	1057
752.256	1093
752.367	1158
752.478	1381
752.589	1842
752.700	1739
752.811	1526
752.922	1353
753.032	838
753.143	1881
753.254	1669
753.365	1888
753.476	1751
753.586	1707
753.697	885
753.808	837
753.919	1307
754.029	737
754.140	1888
754.251	942
754.361	1387
754.472	1991
754.582	1802
754.693	1522
754.804	2138
754.914	812
755.025	1160
755.135	1053
755.246	1234
755.356	907
755.466	842
755.577	1461
755.687	1429
755.798	754
755.908	867
756.018	2150
756.129	1522
756.239	1556
756.349	1463
756.460	1436
756.570	2044
756.680	1277
756.790	1681
756.900	2933
757.011	1279
757.121	1493
757.231	876
757.341	998
757.451	837
757.561	1209
757.671	1667
757.781	589
757.891	1584
758.001	1543
758.111	1433
758.221	1186
758.331	1889
758.441	2391
758.551	2973
758.661	2671
758.771	1610
758.880	1084
758.990	1431
759.100	1056
759.210	630
759.320	1761
759.429	2045
759.539	1710
759.649	1434
759.758	2139
759.868	2063
759.978	2023
760.087	2386
760.197	2180
760.307	1572
760.416	1728
760.526	147
760.635	2850
760.745	2115
760.854	1762
760.964	2528
761.073	3210
761.182	2268
761.292	1707
761.401	2729
761.511	1662
761.620	1733
761.729	1714
761.839	1048
761.948	2044
762.057	1530
762.166	1300
762.276	918
762.385	1689
762.494	1622
762.603	1957
762.712	1294
762.822	1626
762.931	966
763.040	1240
763.149	448
763.258	1425
763.367	1457
763.476	789
763.585	1731
763.694	1857
763.803	1808
763.912	1844
764.021	1679
764.130	925
764.238	909
764.347	1689
764.456	1395
764.565	1660
764.674	1955
764.783	1255
764.891	1247
765.000	2433
765.109	2532
765.217	1578
765.326	2902
765.435	3450
765.543	4667
765.652	3729
765.761	5140
765.869	8043
765.978	13173
766.086	23752
766.195	49794
766.303	141835
766.412	375363
766.520	252303
766.629	57950
766.737	21378
766.846	12817
766.954	8543
767.062	6813
767.171	5206
767.279	4024
767.387	3380
767.496	3858
767.604	3287
767.712	2306
767.820	2438
767.928	2906
768.037	1533
768.145	2861
768.253	2878
768.361	2155
768.469	2170
768.577	2280
768.685	2256
768.793	2072
768.901	2315
769.009	2794
769.117	3089
769.225	3791
769.333	6749
769.441	8964
769.549	20077
769.657	49630
769.765	172523
769.873	290771
769.981	76249
770.088	16345
770.196	7022
770.304	7086
770.412	5061
770.519	4194
770.627	2784
770.735	2707
770.842	2379
770.950	2369
771.058	3037
771.165	1757
771.273	2225
771.380	2195
771.488	3447
771.595	3157
771.703	2747
771.810	2438
771.918	2704
772.025	3216
772.133	3315
772.240	3261
772.348	4205
772.455	3613
772.562	2291
772.670	3000
772.777	3664
772.884	3109
772.991	2822
773.099	3143
773.206	2213
773.313	2860
773.420	2490
773.528	2673
773.635	2744
773.742	3701
773.849	3148
773.956	2711
774.063	2106
774.170	2386
774.277	3237
774.384	2782
774.491	1565
774.598	3138
774.705	2587
774.812	2857
774.919	2736
775.026	2380
775.133	3029
775.239	2611
775.346	2068
775.453	2210
775.560	2088
775.667	2401
775.773	1681
775.880	2641
775.987	1572
776.093	2116
776.200	2403
776.307	1594
776.413	2307
776.520	1409
776.627	1754
776.733	2681
776.840	975
776.946	3630
777.053	2277
777.159	1607
777.266	848
777.372	2878
777.478	2112
777.585	2752
777.691	1674
777.798	2144
777.904	2479
778.010	2870
778.117	2909
778.223	2098
778.329	1839
778.435	1804
778.542	2004
778.648	1999
778.754	1627
778.860	1853
778.966	1496
779.072	1659
779.178	2164
779.284	1705
779.391	1252
779.497	1219
779.603	2998
779.708	620
779.815	2269
779.920	8445
780.026	11322
780.132	2731
780.238	1267
780.344	1527
780.450	2401
780.556	1504
780.661	1073
780.767	1060
780.873	1416
780.979	2357
781.085	1947
781.190	1606
781.296	855
781.402	955
781.507	997
781.613	1502
781.719	1445
781.824	1822
781.930	1423
782.035	1353
782.141	1890
782.246	914
782.352	1654
782.457	677
782.563	1022
782.668	856
782.773	1400
782.879	606
782.984	1498
783.090	1810
783.195	2502
783.300	1765
783.405	2431
783.511	1421
783.616	2100
783.721	1275
783.826	1191
783.932	1420
784.037	492
784.142	1464
784.247	797
784.352	1263
784.457	882
784.562	912
784.667	1225
784.772	1258
784.877	782
784.982	1581
785.087	1343
785.192	1613
785.297	1116
785.402	1023
785.507	1076
785.611	1010
785.716	1801
785.821	1338
785.926	343
786.031	1001
786.135	636
786.240	1169
786.345	435
786.450	1152
786.554	429
786.659	60
786.763	354
786.868	964
786.973	2400
787.077	833
787.182	914
787.286	911
787.391	1063
787.495	274
787.600	207
787.704	605
787.809	545
787.913	-201
788.017	1016
788.122	633
788.226	1221
788.330	559
788.435	1350
788.539	905
788.643	-154
788.747	677
788.852	568
788.956	1158
789.060	938
789.164	1340
789.268	-348
789.372	726
789.476	462
789.580	152
789.684	224
789.788	1109
789.892	484
789.996	1483
790.100	889
790.204	-209
790.308	637
790.412	-403
790.516	1058
790.620	842
790.724	167
790.828	791
790.931	-589
791.035	2146
791.139	595
791.242	85
791.346	1563
791.450	685
791.554	-116
791.657	-37
791.761	1670
791.864	601
791.968	718
792.072	346
792.175	338
792.279	532
792.382	796
792.486	784
792.589	260
792.693	409
792.796	-195
792.899	1144
793.003	876
793.106	-296
793.209	753
793.313	2140
793.416	40
793.519	1673
793.623	1933
793.726	2257
793.829	103
793.932	821
794.035	-497
794.138	1010
794.242	1237
794.345	675
794.448	1665
794.551	1637
794.654	4792
794.757	5405
794.860	1078
794.963	1344
795.066	313
795.169	1601
795.272	-739
795.375	754
795.477	509
795.580	1411
795.683	-246
795.786	-91
795.889	-605
795.991	386
796.094	990
796.197	-667
796.300	1326
796.402	498
796.505	-462
796.608	-593
796.710	1187
796.813	255
796.915	-75
797.018	771
797.120	773
797.223	-989
797.326	1560
797.428	-206
797.530	475
797.633	62
797.735	1950
797.838	239
797.940	158
798.042	-263
798.145	-488
798.247	489
798.349	-13
798.452	505
798.554	-322
798.656	-449
798.758	1131
798.860	-8
798.962	307
799.065	-228
799.167	-280
799.269	935
799.371	284
799.473	875
799.575	-573
799.677	-210
799.779	1256
799.881	633
799.983	448
800.085	699
800.187	-38
800.289	-854
800.390	783
800.492	1220
800.594	1028
800.696	-60
800.798	563
800.899	-555
801.001	100
801.103	693
801.205	-628
801.306	472
801.408	-28
801.509	281
801.611	388
801.713	-230
801.814	262
801.916	87
802.017	-431
802.119	-595
802.220	444
802.322	-1534
802.423	961
802.525	-1645
802.626	176
802.727	439
802.829	558
802.930	-1804
803.031	1101
803.133	-862
803.234	-18
803.335	271
803.436	-487
803.538	697
803.639	193
803.740	506
803.841	-278
803.942	557
804.043	887
804.144	-344
804.245	-183
804.346	-80
804.447	-693
804.548	508
804.649	848
804.750	344
804.851	-284
804.952	-535
805.053	479
805.154	-347
805.255	682
805.355	-71
805.456	-42
805.557	-555
805.658	-197
805.758	96
805.859	78
805.960	58
806.061	-481
806.161	-921
806.262	123
806.362	37
806.463	-378
806.564	-138
806.664	185
806.765	-698
806.865	38
806.966	-760
807.066	-300
807.166	842
807.267	621
807.367	-148
807.468	413
807.568	-1181
807.668	465
807.769	274
807.869	-792
807.969	-353
808.069	415
808.170	90
808.270	-573
808.370	118
808.470	785
808.570	-269
808.670	-679
808.770	-28
808.870	-312
808.970	551
809.070	-1156
809.170	-1354
809.271	210
809.370	-491
809.470	319
809.570	-363
809.670	-1239
809.770	-51
809.870	687
809.970	158
810.070	-399
810.169	761
810.269	-1295
810.369	333
810.469	-232
810.568	296
810.668	-503
810.768	-393
810.867	219
810.967	-600
811.066	95
811.166	-519
811.265	266
811.365	-393
811.464	-845
811.564	488
811.663	695
811.763	-1640
811.862	-430
811.962	861
812.061	276
812.160	-246
812.260	-406
812.359	-665
812.458	-437
812.557	939
812.657	1027
812.756	300
812.855	148
812.954	-916
813.053	413
813.153	-20
813.252	-1280
813.351	-145
813.450	96
813.549	-1125
813.648	-136
813.747	-557
813.846	-332
813.945	-432
814.044	124
814.143	581
814.242	-16
814.341	-921
814.439	145
814.538	192
814.637	-751
814.736	-730
814.835	144
814.933	-1040
815.032	557
815.131	-124
815.229	729
815.328	2069
815.427	1122
815.525	1047
815.624	696
815.722	248
815.821	1597
815.919	1152
816.018	1435
816.116	883
816.215	517
816.313	1048
816.412	812
816.510	1044
816.609	1966
816.707	1623
816.805	626
816.904	1060
817.002	1528
817.100	1308
817.198	1915
817.296	935
817.395	1509
817.493	1193
817.591	318
817.689	1645
817.787	1307
817.885	3031
817.983	5674
818.081	11823
818.179	29361
818.277	73959
818.375	47841
818.473	9418
818.571	3597
818.669	3368
818.767	2428
818.865	3866
818.963	3160
819.061	5327
819.158	10071
819.256	23665
819.354	61419
819.452	128338
819.549	58393
819.647	12155
819.745	5325
819.842	3279
819.940	2040
820.038	2008
820.135	1835
820.233	2191
820.330	1092
820.428	1424
820.525	1934
820.623	1588
820.720	532
820.818	1106
820.915	1904
821.012	1208
821.110	-228
821.207	1564
821.304	-319
821.402	526
821.499	1832
821.596	820
821.693	786
821.791	925
821.888	1501
821.985	3129
822.082	1201
822.179	1332
822.276	748
822.373	908
822.470	602
822.567	300
822.664	-475
822.761	1311
822.858	258
822.955	801
823.052	1048
823.149	327
823.246	992
823.343	417
823.440	851
823.536	553
823.633	-378
823.730	-260
823.827	502
823.923	-92
824.020	1191
824.117	500
824.213	32
824.310	1294
824.407	-21
824.503	410
824.600	426
824.696	401
824.793	951
824.889	202
824.986	130
825.082	17
825.179	643
825.275	130
825.371	-433
825.468	556
825.564	-182
825.660	58
825.757	393
825.853	360
825.949	35
826.045	-153
826.142	-295
826.238	459
826.334	628
826.430	-316
826.526	691
826.622	129
826.718	226
826.814	-901
826.910	897
827.006	-191
827.102	-123
827.198	1211
827.294	53
827.390	199
827.486	450
827.582	-1098
827.678	-1282
827.774	1606
827.869	-699
827.965	667
828.061	-605
828.157	-79
828.252	343
828.348	-577
828.444	445
828.539	-562
828.635	76
828.731	886
828.826	-642
828.922	163
829.017	272
829.113	282
829.208	-840
829.304	-593
829.399	1312
829.495	-623
829.590	343
829.685	-338
829.781	673
829.876	103
829.971	-209
830.066	-956
830.162	99
830.257	279
830.352	-170
830.447	367
830.543	416
830.638	-1148
830.733	899
830.828	-218
830.923	1230
831.018	636
831.113	-720
831.208	-781
831.303	247
831.398	124
831.493	-314
831.588	246
831.683	-276
831.778	-83
831.873	264
831.967	913
832.062	-635
832.157	-1338
832.252	1010
832.346	-111
832.441	630
832.536	833
832.631	2259
832.725	1333
832.820	410
832.914	-65
833.009	-1008
833.104	294
833.198	426
833.293	-396
833.387	-265
833.482	903
833.576	-93
833.670	528
833.765	-280
833.859	-386
833.954	190
834.048	-302
834.142	58
834.237	327
834.331	-27
834.425	-297
834.519	-764
834.613	576
834.708	-476
834.802	-696
834.896	-307
834.990	-33
835.084	-315
835.178	-629
835.272	-583
835.366	-673
835.460	275
835.554	-14
835.648	227
835.742	394
835.836	-329
835.930	-1308
836.024	-648
836.117	457
836.211	-920
836.305	-492
836.399	453
836.493	-1290
836.586	1219
836.680	-464
836.774	-525
836.867	393
836.961	-1639
837.055	-870
837.148	-509
837.242	399
837.335	-1180
837.429	-21
837.522	-426
837.616	-748
837.709	554
837.803	-498
837.896	363
837.989	-420
838.083	134
838.176	181
838.269	-1016
838.363	641
838.456	-896
838.549	1
838.642	-33
838.735	2096
838.829	1599
838.922	-1199
839.015	-157
839.108	-518
839.201	402
839.294	887
839.387	94
839.480	-823
839.573	-383
839.666	-399
839.759	-943
839.852	-1145
839.945	575
840.038	171
840.131	-1214
840.223	-249
840.316	-46
840.409	-1088
840.502	-1119
840.594	298
840.687	-990
840.780	-925
840.873	-1060
840.965	-721
841.058	-51
841.150	292
841.243	-619
841.336	-211
841.428	-42
841.521	-958
841.613	-798
841.706	-38
841.798	-116
841.890	-1431
841.983	-1376
842.075	529
842.167	-615
842.260	-387
842.352	133
842.444	-749
842.537	-62
842.629	-337
842.721	-28
842.813	-1125
842.905	-1740
842.997	-626
843.090	-914
843.182	329
843.274	-914
843.366	927
843.458	1046
843.550	1380
843.642	-221
843.734	247
843.826	-418
843.918	-56
844.009	-550
844.101	-676
844.193	-672
844.285	-1194
844.377	-618
844.469	-531
844.560	-863
844.652	-791
844.744	361
844.835	-562
844.927	-449
845.019	-277
845.110	-745
845.202	-606
845.293	-376
845.385	-818
845.476	-739
845.568	175
845.659	160
845.751	198
845.842	-1238
845.934	-250
846.025	-1259
846.116	-555
846.208	-584
846.299	-801
846.390	-916
846.482	-420
846.573	-229
846.664	10
846.755	-2
846.846	478
846.937	-1624
847.029	-155
847.120	-657
847.211	-558
847.302	-571
847.393	-1494
847.484	-403
847.575	-1004
847.666	-488
847.757	-498
847.847	-749
847.938	-629
848.029	-603
848.120	-1286
848.211	-540
848.302	-617
848.392	-483
848.483	-695
848.574	-996
848.664	-939
848.755	-930
848.846	-500
848.936	-746
849.027	-290
849.118	-921
849.208	-1417
849.299	170
849.389	812
849.480	3191
849.570	6554
849.661	13492
849.751	24532
849.841	7337
849.932	-188
850.022	-559
850.112	-174
850.203	-479
850.293	-663
850.383	-653
850.474	-904
850.564	-117
850.654	-597
850.744	-527
850.834	-1051
850.924	-81
851.014	-327
851.104	-185
851.194	-874
851.284	-376
851.374	-294
851.464	-968
851.554	-543
851.644	-1510
851.734	214
851.824	-643
851.914	-953
852.004	-239
852.094	-722
852.183	-785
852.273	-687
852.363	-607
852.452	-636
852.542	-662
852.632	-913
852.721	-313
852.811	-531
852.901	-228
852.990	-957
853.080	-322
853.169	-394
853.259	-789
853.348	-988
853.438	188
853.527	948
853.617	1126
853.706	3625
853.795	7450
853.885	19262
853.974	36951
854.063	68570
854.152	104702
854.242	35725
854.331	6227
854.420	1178
854.509	477
854.598	669
854.687	199
854.777	4
854.866	-825
854.955	-347
855.044	-799
855.133	-261
855.222	-854
855.311	-1111
855.400	-1014
855.488	-736
855.577	-860
855.666	-508
855.755	-312
855.844	-1081
855.933	-1262
856.021	-1347
856.110	-306
856.199	-1079
856.288	-735
856.376	-703
856.465	-990
856.554	-535
856.642	-1301
856.731	-722
856.819	-450
856.908	-579
856.996	-993
857.085	-1459
857.173	-1187
857.262	-977
857.350	-533
857.438	-847
857.527	-441
857.615	-1153
857.703	58
857.792	-792
857.880	-1378
857.968	-1156
858.056	-405
858.145	-836
858.233	-1640
858.321	-1268
858.409	-693
858.497	-1129
858.585	-1014
858.673	-317
858.761	-1319
858.849	-213
858.937	-1067
859.025	-698
859.113	-586
859.201	-1157
859.289	-430
859.377	-599
859.465	-526
859.552	-1509
859.640	-585
859.728	-1530
859.816	-387
859.903	-1345
859.991	-1349
860.079	-563
860.166	-1316
860.254	-582
860.342	-1139
860.429	-1088
860.517	-1212
860.604	-1047
860.692	-550
860.779	-830
860.867	-1184
860.954	-584
861.042	-701
861.129	-395
861.216	-990
861.304	-1878
861.391	-591
861.478	-564
861.565	-74
861.653	-851
861.740	-902
861.827	-99
861.914	-237
862.001	-1085
862.089	-1023
862.176	-888
862.263	-1204
862.350	-1231
862.437	54
862.524	-1185
862.611	-666
862.698	-647
862.785	-763
862.871	-1041
862.958	-827
863.045	-606
863.132	-686
863.219	-700
863.306	-1556
863.392	-981
863.479	-860
863.566	-1287
863.652	-786
863.739	-1274
863.826	-428
863.912	-956
863.999	-976
864.086	-230
864.172	-1263
864.259	-1195
864.345	-1004
864.432	-516
864.518	-1401
864.604	-1438
864.691	-1220
864.777	-278
864.863	-508
864.950	-356
865.036	-59
865.122	1302
865.209	916
865.295	-88
865.381	800
865.467	306
865.553	1341
865.639	2451
865.726	4101
865.812	9777
865.898	19432
865.984	29879
866.070	55903
866.156	57972
866.242	13356
866.328	2848
866.414	780
866.499	573
866.585	492
866.671	-76
866.757	114
866.843	345
866.928	373
867.014	-163
867.100	58
867.186	120
867.271	302
867.357	825
867.442	363
867.528	72
867.614	-493
867.699	51
867.785	1021
867.870	1
867.956	-382
868.041	677
868.127	243
868.212	-552
868.297	550
868.383	-74
868.468	312
868.553	717
868.639	841
868.724	2288
868.809	3039
868.894	308
868.979	-337
869.065	436
869.150	-1223
869.235	386
869.320	-541
869.405	71
869.490	4
869.575	-65
869.660	31
869.745	-989
869.830	-719
869.915	-585
870.000	-1164
870.085	-937
870.169	-273
870.254	114
870.339	-806
870.424	-68
870.509	-665
870.593	-211
870.678	588
870.763	-1162
870.847	-213
870.932	-742
871.016	-289
871.101	-694
871.186	-217
871.270	531
871.355	-952
871.439	-533
871.523	-766
871.608	-1394
871.692	-476
871.777	-25
871.861	-317
871.945	-563
872.030	-790
872.114	-779
872.198	-335
872.282	-528
872.367	151
872.451	-904
872.535	-538
872.619	-438
872.703	-284
872.787	-605
872.871	-699
872.955	-294
873.039	-1207
873.123	-461
873.207	-250
873.291	-927
873.375	-1533
873.459	-103
873.543	-1421
873.627	-310
873.711	-795
873.794	-326
873.878	-595
873.962	-2147
874.045	-1404
874.129	-387
874.137	-398
874.213	-508
874.245	-718
874.296	-1054
874.352	-925
874.380	-863
874.460	-1315
874.464	-1334
874.547	-500
874.568	-466
874.631	-376
874.676	-405
874.714	-423
874.784	-153
874.798	-100
874.881	141
874.892	16
874.965	-844
874.999	-483
875.048	-17
875.107	-348
875.131	-468
875.215	23
875.215	23
875.298	-652
875.323	-665
875.381	-744
875.430	-718
875.465	-684
875.538	-817
875.548	-840
875.631	-1072
875.646	-1016
875.714	-696
875.753	-723
875.798	-748
875.861	-563
875.881	-530
875.964	-413
875.968	-418
876.047	-435
876.076	-530
876.130	-728
876.183	-201
876.213	93
876.291	38
876.296	39
876.379	-577
876.398	-512
876.462	-422
876.506	-749
876.545	-935
876.613	-21
876.628	130
876.711	-179
876.721	-197
876.794	-139
876.828	-305
876.877	-624
876.935	-659
876.960	-631
877.043	-109
877.043	-109
877.125	-375
877.150	-489
877.208	-569
877.258	-577
877.291	-621
877.365	-490
877.374	-469
877.456	-164
877.472	-209
877.539	-434
877.579	-149
877.622	207
877.687	633
877.704	691
877.787	-291
877.794	-293
877.869	-99
877.901	-121
877.952	-246
878.008	-543
878.034	-628
878.115	-340
878.117	-335
878.199	-778
878.222	-664
878.282	-192
878.329	92
878.364	222
878.437	58
878.447	9
878.529	-631
878.544	-598
878.611	-180
878.651	-110
878.694	-42
878.758	92
878.776	133
878.858	430
878.865	421
878.941	171
878.972	-20
879.023	-105
879.078	-100
879.105	-186
879.185	154
879.187	165
879.269	344
879.292	277
879.351	51
879.399	-360
879.433	-681
879.506	-414
879.516	-352
879.598	-160
879.613	-181
879.680	-304
879.720	-57
879.762	207
879.827	-188
879.844	-298
879.926	80
879.933	96
880.007	399
880.040	327
880.089	117
880.147	536
880.171	759
880.253	1268
880.254	1267
880.335	1424
880.360	1843
880.417	3463
880.467	4986
880.499	5907
880.574	6932
880.580	6780
880.662	2815
880.680	1990
880.744	364
880.787	429
880.825	640
880.893	286
880.907	216
880.989	58
881.000	13
881.070	65
881.106	252
881.152	283
881.213	93
881.233	11
881.315	-306
881.319	-319
881.396	-72
881.426	-40
881.478	56
881.532	344
881.559	366
881.639	290
881.641	288
881.722	104
881.745	29
881.803	230
881.852	-35
881.885	-294
881.958	216
881.966	288
882.047	334
882.064	339
882.129	34
882.171	176
882.210	888
882.277	1912
882.291	1926
882.372	1083
882.383	1017
882.454	329
882.489	-93
882.535	-107
882.596	221
882.616	188
882.697	173
882.702	135
882.778	128
882.808	140
882.859	119
882.914	643
882.940	909
883.020	602
883.021	600
883.102	462
883.127	245
883.183	-34
883.233	28
883.264	58
883.339	275
883.345	292
883.426	-51
883.445	-83
883.507	434
883.551	731
883.587	596
883.657	371
883.668	446
883.749	1437
883.763	1470
883.830	487
883.869	-24
883.910	32
883.975	362
883.991	332
884.072	24
884.081	-11
884.152	303
884.187	295
884.233	454
884.292	949
884.314	817
884.394	-48
884.398	-80
884.475	-89
884.504	-100
884.555	370
884.610	798
884.636	842
884.716	691
884.716	695
884.797	484
884.821	287
884.877	352
884.927	661
884.958	612
885.033	120
885.038	95
885.118	-240
885.139	-315
885.199	115
885.244	479
885.279	682
885.350	903
885.359	855
885.439	446
885.456	296
885.520	15
885.561	154
885.600	447
885.667	671
885.680	680
885.760	507
885.773	517
885.840	507
885.878	409
885.920	528
885.984	857
886.000	898
886.080	974
886.089	962
886.160	915
886.195	862
886.240	622
886.300	336
886.320	377
886.400	718
886.406	726
886.480	89
886.511	-164
886.560	447
886.616	998
886.640	951
886.720	853
886.722	845
886.800	580
886.827	514
886.879	1083
886.932	1416
886.959	1306
887.038	1079
887.039	1078
887.119	276
887.143	82
887.198	299
887.248	373
887.278	315
887.354	276
887.358	296
887.437	600
887.459	617
887.517	582
887.564	677
887.596	703
887.669	611
887.676	579
887.755	145
887.774	42
887.835	389
887.880	645
887.914	704
887.985	743
887.994	795
888.073	1284
888.090	1351
888.153	1302
888.195	1326
888.232	1324
888.300	1216
888.311	1177
888.391	831
888.405	777
888.470	993
888.510	1079
888.549	709
888.615	119
888.628	183
888.708	491
888.720	549
888.787	689
888.825	702
888.866	654
888.930	607
888.945	617
889.024	662
889.035	656
889.103	964
889.140	1147
889.182	913
889.245	557
889.261	638
889.340	991
889.349	1029
889.419	803
889.454	676
889.498	860
889.559	1105
889.577	1106
889.656	1107
889.664	1103
889.735	1288
889.768	1369
889.814	1154
889.873	863
889.978	1116
890.083	227
890.187	1764
890.292	1354
890.397	878
890.501	1589
890.606	1025
890.710	805
890.815	1214
890.919	893
891.024	1044
891.128	790
891.233	1421
891.337	666
891.442	1222
891.546	904
891.650	222
891.755	763
891.859	2057
891.963	936
892.068	1510
892.172	375
892.276	79
892.380	477
892.484	1133
892.589	1183
892.693	1569
892.797	-40
892.901	373
893.005	258
893.109	797
893.213	1105
893.317	1373
893.421	617
893.525	664
893.629	825
893.733	1014
893.837	78
893.941	406
894.045	1072
894.148	947
894.252	867
894.356	1257
894.460	1255
894.564	1051
894.667	572
894.771	488
894.875	171
894.978	712
895.082	748
895.186	2014
895.289	894
895.393	841
895.496	1089
895.600	313
895.703	1149
895.807	747
895.910	499
896.014	895
896.117	621
896.221	1353
896.324	883
896.427	511
896.531	1312
896.634	507
896.737	1441
896.840	538
896.944	948
897.047	839
897.150	989
897.253	-50
897.356	765
897.460	139
897.563	437
897.666	855
897.769	430
897.872	453
897.975	425
898.078	868
898.181	711
898.284	826
898.387	817
898.490	902
898.593	1257
898.695	724
898.798	48
898.901	476
899.004	1145
899.107	764
899.209	714
899.312	1378
899.415	682
899.518	20
899.620	221
899.723	418
899.826	1392
899.928	2000
900.031	1268
900.133	726
900.236	263
900.338	974
900.441	523
900.543	1697
900.646	322
900.748	811
900.851	1232
900.953	163
901.055	55
901.158	449
901.260	254
901.362	260
901.465	-115
901.567	561
901.669	131
901.771	1126
901.873	276
901.976	304
902.078	441
902.180	165
902.282	-3
902.384	-152
902.486	734
902.588	-218
902.690	172
902.792	780
902.894	837
902.996	1456
903.098	802
903.200	1097
903.302	631
903.404	467
903.505	-110
903.607	675
903.709	497
903.811	1035
903.913	558
904.014	259
904.116	-246
904.218	449
904.319	448
904.421	981
904.523	256
904.624	-447
904.726	-316
904.827	559
904.929	505
905.030	986
905.132	882
905.233	890
905.335	487
905.436	174
905.537	252
905.639	915
905.740	1032
905.841	684
905.943	1245
906.044	907
906.145	-254
906.247	-240
906.348	402
906.449	779
906.550	820
906.651	1279
906.752	-98
906.854	109
906.955	-616
907.056	-219
907.157	839
907.258	962
907.359	-60
907.460	771
907.561	1124
907.662	808
907.762	373
907.863	216
907.964	69
908.065	770
908.166	555
908.267	791
908.367	-187
908.468	137
908.569	432
908.670	563
908.770	613
908.871	1379
908.971	1220
909.072	1259
909.173	554
909.273	651
909.374	149
909.474	350
909.575	556
909.675	874
909.776	681
909.876	752
909.977	701
910.077	-124
910.177	1130
910.278	215
910.378	-394
910.478	328
910.579	736
910.679	244
910.779	436
910.879	758
910.980	295
911.080	539
911.180	-8
911.280	18
911.380	426
911.480	289
911.580	459
911.680	624
911.780	950
911.880	977
911.980	960
912.080	360
912.180	138
912.280	255
912.380	963
912.480	584
912.580	-357
912.679	70
912.779	110
912.879	410
912.979	-391
913.078	658
913.178	644
913.278	789
913.377	29
913.477	195
913.577	136
913.676	973
913.776	1004
913.875	616
913.975	556
914.074	348
914.174	585
914.273	-76
914.373	1208
914.472	-265
914.572	-196
914.671	-202
914.770	863
914.870	311
914.969	-303
915.068	727
915.167	796
915.267	496
915.366	87
915.465	122
915.564	326
915.663	-145
915.763	62
915.862	-326
915.961	140
916.060	236
916.159	-234
916.258	-116
916.357	14
916.456	1188
916.555	-129
916.654	698
916.752	193
916.851	708
916.950	-335
917.049	213
917.148	892
917.247	710
917.345	60
917.444	43
917.543	471
917.642	292
917.740	97
917.839	894
917.937	1041
918.036	1254
918.135	82
918.233	22
918.332	249
918.430	-472
918.529	-149
918.627	468
918.726	196
918.824	622
918.923	104
919.021	303
919.119	-178
919.218	-306
919.316	83
919.414	-159
919.512	-244
919.611	431
919.709	844
919.807	358
919.905	653
920.003	311
920.102	326
920.200	205
920.298	645
920.396	927
920.494	1098
920.592	740
920.690	436
920.788	477
920.886	-105
920.984	533
921.082	-257
921.180	1359
921.277	621
921.375	688
921.473	1361
921.571	837
921.669	579
921.766	346
921.864	918
921.962	1148
922.060	69
922.157	1263
922.255	1569
922.352	288
922.450	743
922.548	989
922.645	1224
922.743	1495
922.840	3126
922.938	3115
923.035	2708
923.133	2875
923.230	3497
923.327	3296
923.425	3817
923.522	2635
923.619	2619
923.717	3160
923.814	2512
923.911	2359
924.008	2476
924.106	2741
924.203	3250
924.300	2293
924.397	2526
924.494	2901
924.591	2721
924.688	2974
924.786	3141
924.883	2240
924.979	1748
925.077	2199
925.173	1924
925.270	2011
925.367	1717
925.464	2810
925.561	3021
925.658	2948
925.755	2852
925.852	3185
925.948	3018
926.045	2752
926.142	2583
926.239	2399
926.335	2452
926.432	2733
926.529	2612
926.625	2263
926.722	1873
926.818	2046
926.915	1259
927.011	2345
927.108	1615
927.204	2452
927.301	1987
927.397	2489
927.494	2863
927.590	1560
927.687	2049
927.783	2469
927.879	2051
927.976	2290
928.072	1795
928.168	2416
928.264	3547
928.361	2173
928.457	2499
928.553	2070
928.649	2090
928.745	1269
928.841	1889
928.937	2338
929.033	1703
929.129	1568
929.225	2190
929.321	2763
929.417	1807
929.513	1620
929.609	2252
929.705	1765
929.801	2023
929.897	1762
929.993	912
930.089	2407
930.184	1845
930.280	2765
930.376	2524
930.471	1866
930.567	1642
930.663	1739
930.758	1708
930.854	1884
930.950	1810
931.045	1336
931.141	925
931.236	3383
931.332	1545
931.427	1576
931.523	2336
931.618	2408
931.714	1094
931.809	1506
931.905	1794
932.000	660
932.095	586
932.191	2012
932.286	2406
932.381	1385
932.476	1260
932.572	905
932.667	1384
932.762	1009
932.857	1299
932.952	1718
933.047	2102
933.142	1060
933.237	1886
933.332	1859
933.427	1912
933.522	811
933.617	1048
933.712	2023
933.807	1949
933.902	1678
933.997	1233
934.092	728
934.187	1107
934.282	1106
934.376	1561
934.471	1155
934.566	1411
934.661	2205
934.755	1568
934.850	1013
934.945	1707
935.039	1888
935.134	1492
935.228	1655
935.323	1759
935.417	1309
935.512	871
935.606	339
935.701	1338
935.795	1691
935.890	1673
935.984	1468
936.079	1123
936.173	1959
936.267	1290
936.362	761
936.456	922
936.550	1222
936.644	1908
936.738	1502
936.833	822
936.927	994
937.021	1483
937.115	1964
937.209	756
937.303	1966
937.397	754
937.491	1419
937.585	983
937.679	1334
937.773	938
937.867	864
937.961	897
938.055	1846
938.149	1181
938.243	706
938.337	1147
938.430	1162
938.524	1430
938.618	1406
938.712	724
938.805	1026
938.899	1379
938.993	1098
939.086	540
939.180	182
939.274	1453
939.367	1367
939.461	1029
939.554	1107
939.648	794
939.741	890
939.835	1702
939.928	1419
940.022	1298
940.115	488
940.208	1296
940.302	2243
940.395	1934
940.488	275
940.582	1629
940.675	475
940.768	797
940.861	768
940.954	1520
941.048	934
941.141	1173
941.234	761
941.327	1538
941.420	1759
941.513	762
941.606	820
941.699	1096
941.792	1323
941.885	630
941.978	1051
942.071	1395
942.164	134
942.257	1136
942.349	741
942.442	813
942.535	379
942.628	711
942.721	787
942.813	693
942.906	1639
942.999	824
943.091	255
943.184	1272
943.277	137
943.369	695
943.462	822
943.554	894
943.647	374
943.739	1014
943.832	1601
943.924	-55
944.017	1013
944.109	501
944.201	926
944.294	942
944.386	964
944.478	1534
944.571	547
944.663	1021
944.755	538
944.847	1291
944.940	752
945.032	124
945.124	602
945.216	1660
945.308	885
945.400	783
945.492	900
945.584	910
945.676	227
945.768	1119
945.860	767
945.952	318
946.044	1051
946.136	349
946.228	627
946.320	422
946.412	713
946.503	1225
946.595	1059
946.687	330
946.779	562
946.870	-197
946.962	277
947.054	553
947.145	1235
947.237	-11
947.329	1235
947.420	-52
947.512	138
947.603	1040
947.695	698
947.786	-248
947.878	261
947.969	784
948.061	534
948.152	683
948.243	349
948.335	460
948.426	144
948.517	281
948.609	275
948.700	308
948.791	947
948.882	983
948.973	157
949.065	1520
949.156	-472
949.247	553
949.338	232
949.429	756
949.520	817
949.611	154
949.702	1058
949.793	341
949.884	1057
949.975	-157
950.066	290
950.157	-29
950.247	747
950.338	-721
950.429	-217
950.520	1007
950.611	-175
950.701	-187
950.792	824
950.883	1377
950.973	891
951.064	880
951.155	589
951.245	763
951.336	758
951.427	-151
951.517	2140
951.608	157
951.698	316
951.788	247
951.879	659
951.969	522
952.060	573
952.150	-195
952.240	1688
952.331	-766
952.421	986
952.511	201
952.602	600
952.692	-211
952.782	317
952.872	-495
952.962	20
953.052	3
953.143	342
953.233	747
953.323	810
953.413	995
953.503	1059
953.593	468
953.683	491
953.773	-746
953.863	510
953.953	-415
954.042	-138
954.132	145
954.222	1136
954.312	332
954.402	635
954.492	628
954.581	460
954.671	10
954.761	-56
954.850	1350
954.940	-355
955.030	657
955.119	87
955.209	164
955.298	207
955.388	504
955.477	1242
955.567	-329
955.656	184
955.746	666
955.835	60
955.925	-241
956.014	592
956.103	-10
956.193	351
956.282	231
956.371	730
956.461	17
956.550	-584
956.639	136
956.728	52
956.817	459
956.906	465
956.995	552
957.085	-195
957.174	-616
957.263	252
957.352	466
957.441	-78
957.530	751
957.619	150
957.708	421
957.796	-233
957.885	370
957.974	-382
958.063	473
958.152	576
958.241	234
958.329	104
958.418	-565
958.507	-421
958.596	897
958.684	-189
958.773	952
958.861	-155
958.950	-45
959.039	-18
959.127	270
959.216	1392
959.304	-740
959.393	166
959.481	422
959.570	548
959.658	-160
959.746	34
959.835	181
959.923	1341
960.011	-187
960.100	142
960.188	-231
960.276	139
960.365	-448
960.453	-231
960.541	-436
960.629	292
960.717	-710
960.805	-84
960.893	851
960.981	-574
961.069	36
961.158	111
961.245	133
961.333	478
961.421	-451
961.509	830
961.597	383
961.685	-82
961.773	-178
961.861	-337
961.949	818
962.036	-301
962.124	-157
962.212	-384
962.299	-431
962.387	-252
962.475	-172
962.562	-320
962.650	1712
962.738	-334
962.825	-636
962.913	-102
963.000	-23
963.088	780
963.175	660
963.263	140
963.350	421
963.438	-647
963.525	-844
963.612	991
963.700	1487
963.787	3364
963.874	801
963.962	117
964.049	251
964.136	-306
964.223	-857
964.310	-447
964.398	-241
964.485	31
964.572	19
964.659	780
964.746	-263
964.833	272
964.920	-32
965.007	372
965.094	381
965.181	143
965.268	-94
965.355	57
965.441	117
965.528	-932
965.615	-1
965.702	494
965.789	-13
965.875	-156
965.962	452
966.049	191
966.136	609
966.222	-530
966.309	678
966.395	-60
966.482	413
966.569	175
966.655	-371
966.742	-59
966.828	-271
966.915	43
967.001	-368
967.087	165
967.174	-119
967.260	428
967.347	297
967.433	-136
967.519	2363
967.605	503
967.692	-832
967.778	-209
967.864	-371
967.950	-132
968.036	-640
968.123	16
968.209	-32
968.295	-427
968.381	-46
968.467	137
968.553	-884
968.639	1040
968.725	-305
968.811	604
968.897	486
968.983	26
969.069	-351
969.154	480
969.240	285
969.326	-791
969.412	-612
969.497	-406
969.583	-295
969.669	898
969.755	407
969.840	-738
969.926	1106
970.012	419
970.097	1169
970.183	635
970.268	527
970.354	-203
970.439	-568
970.525	1278
970.610	-133
970.696	1312
970.781	-423
970.866	-585
970.952	396
971.037	454
971.122	468
971.208	-400
971.293	79
971.378	-845
971.463	-101
971.549	866
971.634	-168
971.719	121
971.804	-445
971.889	954
971.974	476
972.059	-311
972.144	583
972.229	108
972.314	-162
972.399	155
972.484	-409
972.569	248
972.654	236
972.739	794
972.824	-463
972.908	-203
972.993	-212
973.078	-1048
973.163	-278
973.247	-15
973.332	-1200
973.417	1787
973.501	-518
973.586	-18
973.671	36
973.755	596
973.840	384
973.924	1038
974.009	0
974.093	-708
974.178	1332
974.262	822
974.346	90
974.431	818
974.515	-950
974.600	627
974.684	-156
974.768	-345
974.852	79
974.937	-1169
975.021	504
975.105	-25
975.189	141
975.273	57
975.358	-1128
975.442	-482
975.526	-398
975.610	-836
975.694	-951
975.778	602
975.862	-63
975.946	-1428
976.030	1815
976.114	510
976.198	477
976.281	-902
976.365	-351
976.449	259
976.533	389
976.617	-327
976.700	-971
976.784	-657
976.868	-918
976.951	348
977.035	-1089
977.119	229
977.202	276
977.286	147
977.369	16
977.453	1468
977.536	184
977.620	-582
977.703	116
977.787	-165
977.870	-122
977.953	167
978.037	-1300
978.120	705
978.203	-282
978.287	1248
978.370	-20
978.453	-204
978.536	187
978.620	676
978.703	264
978.786	-543
978.869	-499
978.952	-783
979.035	641
979.118	342
979.201	-666
979.284	716
979.367	-706
979.450	332
979.533	-1011
979.616	59
979.699	-817
979.782	-87
979.865	-290
979.948	-605
980.030	14
980.113	46
980.196	-382
980.279	152
980.361	-204
980.444	346
980.526	303
980.609	-92
980.692	-80
980.774	59
980.857	-443
980.939	555
981.022	22
981.104	143
981.187	-1123
981.269	318
981.352	1222
981.434	9
981.516	-568
981.599	702
981.681	274
981.763	-58
981.846	-52
981.928	116
982.010	-192
982.092	-350
982.174	765
982.256	60
982.339	238
982.421	-60
982.503	957
982.585	-958
982.667	-162
982.749	107
982.831	-198
982.913	-114
982.995	-113
983.077	-504
983.158	838
983.240	-804
983.322	225
983.404	454
983.486	-264
983.568	950
983.649	85
983.731	964
983.813	-961
983.894	512
983.976	-152
984.058	432
984.139	573
984.221	23
984.302	382
984.384	510
984.465	11
984.547	2
984.628	299
984.710	278
984.791	-539
984.872	-10
984.954	379
985.035	317
985.116	110
985.198	-198
985.279	1119
985.360	-407
985.441	-214
985.522	726
985.604	274
985.685	-2077
985.766	777
985.847	2077
985.928	-556
986.009	-91
986.090	-269
986.171	-659
986.252	-699
986.333	942
986.414	80
986.495	631
986.576	676
986.656	1047
986.737	-40
986.818	194
986.899	-279
986.980	71
987.060	313
987.141	-355
987.222	145
987.302	-175
987.383	304
987.464	463
987.544	956
987.625	-375
987.705	730
987.786	26
987.866	-667
987.947	801
988.027	899
988.108	-63
988.188	360
988.268	392
988.349	107
988.429	615
988.509	682
988.589	1066
988.670	-729
988.750	1427
988.830	-334
988.910	120
988.990	-87
989.070	78
989.151	306
989.231	-78
989.311	570
989.391	871
989.471	318
989.551	456
989.631	-709
989.711	255
989.791	-778
989.870	-1150
989.950	286
990.030	533
990.110	265
990.190	291
990.269	-407
990.349	143
990.429	59
990.509	319
990.588	-585
990.668	287
990.747	-111
990.827	-684
990.907	-297
990.986	389
991.066	249
991.145	-789
991.225	-445
991.304	418
991.383	-69
991.463	-81
991.542	139
991.622	17
991.701	-510
991.780	461
991.859	-558
991.939	-197
992.018	65
992.097	358
992.176	87
992.256	-60
992.335	-1107
992.414	284
992.493	-995
992.572	-665
992.651	489
992.730	24
992.809	-300
992.888	-572
992.967	-673
993.046	259
993.125	-343
993.203	-54
993.282	58
993.361	232
993.440	244
993.519	-1670
993.597	-772
993.676	-507
993.755	-345
993.834	-202
993.912	-1509
993.991	627
994.069	-1322
994.148	83
994.226	-904
994.305	-592
994.384	-284
994.462	603
994.540	-714
994.619	-93
994.697	194
994.776	-1309
994.854	-102
994.932	-1083
995.011	-198
995.089	-85
995.167	-669
995.245	528
995.324	-1077
995.402	-583
995.480	-100
995.558	-594
995.636	-1501
995.714	84
995.792	777
995.870	-1032
995.948	-806
996.026	-730
996.104	-1048
996.182	415
996.260	-759
996.338	99
996.416	-552
996.494	-643
996.572	920
996.649	-397
996.727	-1660
996.805	-157
996.883	-939
996.960	-86
997.038	-105
997.116	-676
997.193	-1647
997.271	111
997.348	-737
997.426	-104
997.504	-1872
997.581	-1
997.658	-485
997.736	-1125
997.813	-1165
997.891	151
997.968	-1164
998.046	-429
998.123	-306
998.200	-726
998.277	-1452
998.355	-433
998.432	-1636
998.509	-771
998.586	-839
998.663	-56
998.741	-265
998.818	-1039
998.895	-1206
998.972	-72
999.049	-884
999.126	-1335
999.203	-30
999.280	-836
999.357	-1442
999.434	-1411
999.511	157
999.587	-1008
999.664	-634
999.741	-582
999.818	-422
999.895	-1588
999.971	-1744
1000.048	-409
1000.125	227
1000.202	-1081
1000.278	-1105
1000.355	-288
1000.431	-1667
1000.508	-394
1000.584	-873
1000.661	-303
1000.738	-542
1000.814	-491
1000.890	-861
1000.967	-1450
1001.043	-554
1001.120	-1345
1001.196	-1016
1001.272	-1320
1001.349	-1076
1001.425	-935
1001.501	-211
1001.577	-1938
1001.654	-637
1001.730	-1371
1001.806	322
1001.882	-2059
1001.958	-347
1002.034	-1071
1002.110	107
1002.186	-481
1002.262	-746
1002.338	-1168
1002.414	-695
1002.490	-44
1002.566	-479
1002.642	-1246
1002.718	-450
1002.794	-800
1002.870	-853
1002.945	-804
1003.021	-550
1003.097	-797
1003.173	-384
1003.248	-1256
1003.324	-1133
1003.400	-850
1003.475	-1451
1003.551	-922
1003.626	-411
1003.702	-997
1003.777	-1321
1003.853	-1222
1003.928	-1202
1004.004	-1439
1004.079	-743
1004.155	-920
1004.230	-2358
1004.305	-95
1004.381	-1499
1004.456	-1071
1004.531	-432
1004.607	-1576
1004.682	-1229
1004.757	-918
1004.832	-545
1004.907	-1332
1004.982	-621
1005.057	-1364
1005.133	-1444
1005.208	-663
1005.283	-1148
1005.358	-626
1005.433	-840
1005.508	-1197
1005.583	-1356
1005.657	-1872
1005.732	-758
1005.807	-1958
1005.882	-1012
1005.957	-588
1006.032	-168
1006.106	-1535
1006.181	-780
1006.256	-1669
1006.331	-533
1006.405	-1236
1006.480	-810
1006.554	-1277
1006.629	-462
1006.704	-1063
1006.778	-883
1006.853	-924
1006.927	-1261
1007.002	-1278
1007.076	-1112
1007.150	-375
1007.225	-753
1007.299	-778
1007.373	-1760
1007.448	-1242
1007.522	-341
1007.596	-616
1007.671	-135
1007.745	-481
1007.819	-1659
1007.893	-1303
1007.967	-569
1008.041	-2014
1008.115	220
1008.190	-1234
1008.264	-779
1008.338	-2007
1008.412	-1401
1008.486	-838
1008.560	-1855
1008.633	-1003
1008.707	-1277
1008.781	-1000
1008.855	-880
1008.929	-1228
1009.003	-642
1009.076	-923
1009.150	-530
1009.224	-504
1009.298	-120
1009.371	-1666
1009.445	-330
1009.519	-296
1009.592	-1721
1009.666	-1155
1009.739	-822
1009.813	-1647
1009.886	-414
1009.960	-1763
1010.033	-658
1010.107	-353
1010.180	-1451
1010.253	-316
1010.327	-2188
1010.400	-1001
1010.473	-1186
1010.547	679
1010.620	-1621
1010.693	-491
1010.766	-1069
1010.840	-446
1010.913	-1342
1010.986	-1234
1011.059	-1249
1011.132	-1650
1011.205	-474
1011.278	-439
1011.351	-1359
1011.424	-62
1011.497	-1316
1011.570	-1607
1011.643	-740
1011.716	-1099
1011.789	-1411
1011.862	-794
1011.934	-1632
1012.007	-1476
1012.080	-181
1012.153	-1205
1012.225	-563
1012.298	-601
1012.371	-1077
1012.443	-683
1012.516	-1032
1012.588	-1091
1012.661	-1322
1012.733	-1092
1012.806	-429
1012.879	-1090
1012.951	-602
1013.023	-508
1013.096	-610
1013.168	-1286
1013.241	101
1013.313	-367
1013.385	-2073
1013.458	-1248
1013.530	-448
1013.602	-755
1013.674	-816
1013.746	-1667
1013.819	-1266
1013.891	-300
1013.963	-157
1014.035	-756
1014.107	-470
1014.179	-866
1014.251	-954
1014.323	-142
1014.395	-617
1014.467	-814
1014.539	-129
1014.611	-291
1014.683	-913
1014.754	-844
1014.826	-2254
1014.898	-1127
1014.970	-2406
1015.042	113
1015.113	-680
1015.185	-992
1015.257	-1165
1015.328	-861
1015.400	-1504
1015.471	-966
1015.543	-1413
1015.615	-1282
1015.686	-1051
1015.757	-1801
1015.829	-1331
1015.901	-424
1015.972	-1032
1016.043	-1474
1016.115	-1006
1016.186	-1244
1016.257	-1706
1016.328	-1245
1016.400	-474
1016.471	-1372
1016.542	-787
1016.613	-865
1016.685	-884
1016.756	-990
1016.827	-1137
1016.898	-1097
1016.969	-583
1017.040	-1235
1017.111	-851
1017.182	-1816
1017.253	-1002
1017.324	-1078
1017.395	-1348
1017.466	-1047
1017.537	-472
1017.608	-357
1017.678	-563
1017.749	-1072
1017.820	-1371
1017.891	-1241
1017.961	-1687
1018.032	-512
1018.103	-859
1018.173	-679
1018.244	-1803
1018.315	-1333
1018.385	-1045
1018.456	-523
1018.526	-1550
1018.597	-1098
1018.667	-641
1018.738	-1143
1018.808	-734
1018.878	-1245
1018.949	-1107
1019.019	-1111
1019.089	-887
1019.160	-1059
1019.230	-1697
1019.300	-902
1019.371	-1763
1019.441	-470
1019.511	-810
1019.581	-387
1019.651	-1033
1019.721	-1588
1019.791	-1620
1019.861	-914
1019.931	-1127
1020.001	-1514
1020.071	-1150
1020.141	-961
1020.211	-1071
1020.281	-1353
1020.351	-1537
1020.421	-718
1020.491	-1233
1020.560	-1811
1020.630	-1349
1020.700	-1108
1020.770	-2061
1020.839	-861
1020.909	-389
1020.979	-1373
1021.048	-1065
1021.118	-864
1021.187	-1556
1021.257	-1906
1021.326	-796
1021.396	-1419
1021.465	-742
1021.535	-1528
1021.604	-2601
1021.674	-1674
1021.743	-1588
1021.812	-1131
1021.882	-1409
1021.951	-1849
1022.020	-1977
1022.089	-212
1022.159	-1560
1022.228	-885
1022.297	-2027
1022.366	-1262
1022.435	-930
1022.504	-1524
1022.573	-1749
1022.642	-437
1022.711	-1516
1022.781	-1101
1022.849	-1695
1022.918	-1079
1022.987	-731
1023.056	-1738
1023.125	-1801
1023.194	-2040
1023.263	-1093
1023.331	-1478
1023.400	-1778
1023.469	-979
1023.538	-1013
1023.606	-1785
1023.675	-1060
1023.744	-1528
1023.812	-2546
1023.881	-1594
1023.949	-1402
1024.018	-1147
1024.086	-1744
1024.155	-1123
1024.223	-1623
1024.292	-864
1024.360	-1235
1024.429	-1341
1024.497	-1663
1024.565	-1411
1024.634	-1559
1024.702	-939
1024.770	-1442
1024.838	-2291
1024.907	-1185
1024.975	-1480
1025.043	-1640
1025.111	-1289
1025.179	-1800
1025.247	-1665
1025.315	-1702
1025.383	-1648
1025.451	-1627
1025.519	-1737
1025.587	-1367
1025.655	-1851
1025.723	-2285
1025.791	-1646
1025.859	-1567
1025.927	-588
1025.995	-1150
1026.062	-886
1026.130	-2009
1026.198	-1514
1026.266	-1526
1026.333	-1726
1026.401	-1199
1026.469	-1148
1026.536	-1382
1026.604	-1070
1026.671	-1441
1026.739	-1871
1026.806	-1094
1026.874	-1868
1026.941	-1303
1027.009	-1897
1027.076	-1926
1027.144	-1412
1027.211	-2113
1027.278	-2347
1027.345	-2583
1027.413	-2105
1027.480	-1455
1027.547	-1287
1027.614	-2010
1027.682	-1996
1027.749	-1505
1027.816	-1571
1027.883	-1440
1027.950	-2292
1028.017	-1883
1028.084	-1929
1028.151	-2426
1028.218	-1537
1028.285	-1349
1028.352	-1779
1028.419	-1907
1028.486	-1183
1028.553	-1953
1028.619	-1553
1028.686	-1653
1028.753	-2403
1028.820	-1860
1028.886	-2188
1028.953	-1659
1029.020	-1164
1029.086	-2320
1029.153	-2065
1029.220	-2445
1029.286	-2323
1029.353	-1457
1029.419	-2061
1029.486	-2025
1029.552	-1259
1029.619	-2271
1029.685	-1900
1029.751	-2155
1029.818	-1745
1029.884	-1845
1029.951	-1002
1030.017	-2223
1030.083	-1252
1030.149	-1663
1030.216	-1794
1030.282	-1784
1030.348	-1643
1030.414	-2649
1030.480	-2116
1030.546	-1917
1030.612	-1350
1030.678	-2292
1030.744	-1507
1030.810	-1851
1030.876	-2252
1030.942	-1477
1031.008	-1088
1031.074	-2241
1031.140	-1891
1031.206	-1437
1031.272	-2626
1031.337	-1936
1031.403	-1257
1031.469	-2313
1031.534	-1547
1031.600	-1526
1031.666	-2369
1031.731	-2129
1031.797	-1550
1031.863	-2354
1031.928	-1664
1031.994	-2273
1032.059	-1967
1032.125	-1705
1032.190	-2096
1032.256	-2646
1032.321	-1598
1032.386	-2079
1032.452	-1735
1032.517	-1584
1032.582	-1998
1032.647	-1756
1032.713	-2967
1032.778	-1928
1032.843	-2018
1032.908	-1596
1032.974	-2113
1033.039	-1978
1033.104	-1356
1033.169	-2415
1033.234	-1818
1033.299	-1784
1033.364	-1459
1033.429	-1776
1033.494	-1399
1033.559	-2332
1033.624	-1925
1033.688	-1608
1033.753	-1797
1033.818	-1304
1033.883	-1711
1033.948	-1667
1034.013	-1687
1034.077	-1766
1034.142	-1047
1034.207	-1945
1034.271	-1256
1034.336	-252
1034.400	-1231
1034.465	-1833
1034.530	-810
1034.594	-1881
1034.658	-2264
1034.723	-2027
1034.787	-1096
1034.852	-2159
1034.916	-2245
1034.981	-2902
1035.045	-1725
1035.109	-1868
1035.173	-1279
1035.238	-1954
1035.302	-1751
1035.366	-1827
1035.430	-1479
1035.495	-1986
1035.559	-1776
1035.623	-2495
1035.687	-1986
1035.751	-2430
1035.815	-2058
1035.879	-1232
1035.943	-1318
1036.007	-1249
1036.071	-2455
1036.135	-1948
1036.198	-1901
1036.262	-1722
1036.326	-1456
1036.390	-1707
1036.454	-1286
1036.517	-1868
1036.581	-1441
1036.645	-1108
1036.709	-1615
1036.772	-2035
1036.836	-1717
1036.900	-1898
1036.963	-1973
1037.026	-2001
1037.090	-2010
1037.154	-1815
1037.217	-2261
1037.280	-1937
1037.344	-1988
1037.407	-2324
1037.471	-2057
1037.534	-1957
1037.597	-1492
1037.661	-1712
1037.724	-2134
1037.787	-1819
1037.850	-1686
1037.913	-2323
1037.977	-1016
1038.040	-1645
1038.103	-2135
1038.166	-1523
1038.229	-2177
1038.292	-2522
1038.355	-2452
1038.418	-1413
1038.481	-1286
1038.544	-1273
1038.607	-1546
1038.670	-1822
1038.732	-1483
1038.795	-1604
1038.858	-2244
1038.921	-2608
1038.984	-1404
1039.046	-2168
1039.109	-1793
1039.172	-2052
1039.234	-2064
1039.297	-1626
1039.360	-2581
1039.422	-2074
1039.485	-2404
1039.547	-2210
1039.610	-1808
1039.672	-2196
1039.734	-1917
1039.797	-2255
1039.859	-2494
1039.922	-1208
1039.984	-1469
1040.046	-2175
1040.109	-2368
1040.171	-2113
1040.233	-2090
1040.295	-2448
1040.358	-1818
1040.420	-1573
1040.482	-1811
1040.544	-1941
1040.606	-1224
1040.668	-2346
1040.730	-1493
1040.792	-2109
1040.854	-1586
1040.916	-2178
1040.978	-1766
1041.040	-1269
1041.102	-1599
1041.164	-2262
1041.225	-2170
1041.287	-2488
1041.349	-1878
1041.411	-1860
1041.472	-1436
1041.534	-1757
1041.596	-2231
1041.657	-1931
1041.719	-933
1041.781	-1878
1041.842	-2087
1041.904	-2030
1041.965	-2009
1042.027	-1796
1042.088	-1928
1042.150	-1204
1042.211	-2126
1042.272	-1848
1042.334	-1397
1042.395	-2282
1042.456	-2037
1042.518	-1465
1042.579	-1829
1042.640	-1784
1042.701	-2088
1042.763	-1637
1042.824	-2162
1042.885	-1928
1042.946	-1327
1043.007	-1888
1043.068	-1808
1043.129	-1784
1043.190	-1762
1043.251	-1862
1043.312	-2967
1043.373	-1610
1043.434	-2140
1043.495	-1120
1043.556	-1096
1043.616	-1389
1043.677	-1843
1043.738	-1899
1043.799	-1791
1043.859	-1563
1043.920	-2463
1043.981	-1952
1044.041	-2241
1044.102	-1361
1044.162	-1142
1044.223	-1935
1044.284	-2794
1044.344	-1591
1044.405	-1996
1044.465	-1736
1044.525	-2056
1044.586	-1469
1044.646	-2661
1044.707	-1385
1044.767	-1600
1044.827	-1310
1044.887	-2232
1044.948	-1970
1045.008	-1903
1045.068	-1962
1045.128	-1934
1045.188	-1667
1045.249	-1230
1045.309	-2036
1045.369	-1292
1045.429	-1677
1045.489	-1008
1045.549	-1327
1045.609	-1927
1045.669	-1874
1045.729	-915
1045.789	-2163
1045.848	-1373
1045.908	-820
1045.968	-1389
1046.028	-488
1046.088	-1215
1046.147	-1100
1046.207	-1385
1046.267	-891
1046.326	-1743
1046.386	-939
1046.446	-664
1046.505	-665
1046.565	-600
1046.624	-1157
1046.684	-889
1046.743	-1004
1046.803	-404
1046.862	-358
1046.922	0
