'Start Wavelength	183.907
'End Wavelength	1046.922
'Gate Delay	5.000
'Gate Width (ms)	1.050
'Laser Output Level	0.000
'X Position	0.000
'Y Position	0.000
'Z Position	0.000
'Grid Point Number	1.000
'Shot Number	100.000
183.907	118.000
183.977	-374.000
184.047	-2
184.116	-210
184.186	468
184.256	697
184.325	128
184.395	-27
184.465	412
184.534	-15
184.604	154
184.674	645
184.743	473
184.813	-461
184.883	403
184.952	608
185.022	435
185.092	-81
185.161	21
185.231	59
185.301	-215
185.370	766
185.440	-800
185.509	369
185.579	-117
185.649	659
185.718	-10
185.788	634
185.857	632
185.927	256
185.996	119
186.066	424
186.136	155
186.205	-102
186.275	1244
186.344	262
186.414	772
186.483	-306
186.553	1656
186.622	983
186.692	967
186.761	439
186.831	238
186.900	-254
186.970	-179
187.039	717
187.109	1503
187.178	512
187.248	987
187.317	328
187.387	629
187.456	27
187.526	-119
187.595	889
187.664	407
187.734	6
187.803	732
187.873	258
187.942	1564
188.012	75
188.081	836
188.150	-204
188.220	451
188.289	808
188.358	633
188.428	98
188.497	24
188.567	264
188.636	503
188.705	794
188.775	672
188.844	30
188.913	53
188.983	345
189.052	875
189.121	189
189.191	-144
189.260	854
189.329	543
189.399	478
189.468	-194
189.537	1060
189.606	604
189.676	285
189.745	860
189.814	1253
189.883	301
189.953	888
190.022	1104
190.091	1604
190.161	3123
190.230	1187
190.299	240
190.368	1008
190.437	579
190.507	664
190.576	1343
190.645	155
190.714	45
190.783	974
190.853	694
190.922	185
190.991	1090
191.060	408
191.129	688
191.198	920
191.268	1072
191.337	532
191.406	1300
191.475	-165
191.544	551
191.613	618
191.682	927
191.752	170
191.821	942
191.890	108
191.959	-42
192.028	883
192.097	1341
192.166	345
192.235	519
192.304	746
192.373	535
192.442	281
192.511	822
192.580	415
192.650	13
192.719	1195
192.788	564
192.857	365
192.926	1130
192.995	1224
193.064	1143
193.133	1029
193.202	1796
193.271	1686
193.340	1400
193.409	1282
193.478	1296
193.547	1386
193.615	2079
193.684	1946
193.753	1958
193.822	658
193.891	1126
193.960	1353
194.029	288
194.098	1363
194.167	720
194.236	772
194.305	281
194.374	455
194.443	287
194.512	159
194.580	1194
194.649	1106
194.718	430
194.787	576
194.856	591
194.925	1345
194.994	1228
195.062	695
195.131	935
195.200	447
195.269	1266
195.338	660
195.407	1190
195.475	510
195.544	884
195.613	294
195.682	637
195.751	973
195.819	1132
195.888	988
195.957	1033
196.026	511
196.094	937
196.163	1576
196.232	915
196.301	425
196.369	825
196.438	712
196.507	550
196.576	945
196.644	978
196.713	534
196.782	977
196.850	306
196.919	1647
196.988	1179
197.056	686
197.125	753
197.194	1303
197.262	-364
197.331	584
197.400	434
197.468	822
197.537	642
197.606	883
197.674	520
197.743	2622
197.812	1049
197.880	2393
197.949	1282
198.017	2195
198.086	1469
198.155	1202
198.223	933
198.292	4368
198.360	1647
198.429	1485
198.497	1287
198.566	1776
198.635	2665
198.703	1582
198.772	1991
198.840	3697
198.909	2634
198.977	1680
199.046	639
199.114	1243
199.183	689
199.251	1078
199.320	247
199.388	995
199.457	1191
199.525	1038
199.594	913
199.662	826
199.731	1049
199.799	657
199.867	154
199.936	234
200.004	1218
200.073	595
200.141	197
200.210	1229
200.278	522
200.346	1190
200.415	771
200.483	1371
200.552	-55
200.620	1003
200.688	84
200.757	1201
200.825	1175
200.893	910
200.962	844
201.030	467
201.098	219
201.167	1447
201.235	740
201.303	680
201.372	1353
201.440	983
201.508	742
201.577	1919
201.645	1024
201.713	515
201.781	792
201.850	407
201.918	671
201.986	879
202.055	1034
202.123	1412
202.191	690
202.259	1608
202.327	317
202.396	1226
202.464	916
202.532	870
202.600	3510
202.669	1259
202.737	654
202.805	1337
202.873	1807
202.941	1561
203.009	557
203.078	236
203.146	1252
203.214	1373
203.282	1214
203.350	911
203.418	81
203.487	1327
203.555	320
203.623	793
203.691	1360
203.759	1882
203.827	1072
203.895	1684
203.963	143
204.031	1211
204.099	459
204.168	719
204.236	1429
204.304	873
204.372	931
204.440	1723
204.508	29
204.576	673
204.644	1366
204.712	1152
204.780	819
204.848	767
204.916	605
204.984	595
205.052	466
205.120	1440
205.188	1104
205.256	910
205.324	710
205.392	900
205.460	1338
205.528	1853
205.596	556
205.664	608
205.732	961
205.799	3370
205.867	4879
205.935	1420
206.003	901
206.071	872
206.139	1476
206.207	789
206.275	731
206.343	709
206.411	1112
206.478	1974
206.546	1300
206.614	1349
206.682	420
206.750	1064
206.818	1107
206.885	2404
206.953	113
207.021	2043
207.089	635
207.157	1106
207.225	2041
207.292	1812
207.360	1018
207.428	1533
207.496	892
207.563	1523
207.631	797
207.699	800
207.767	1260
207.834	1077
207.902	1284
207.970	1073
208.038	1778
208.105	1579
208.173	1041
208.241	1946
208.309	1897
208.376	1472
208.444	2718
208.512	1392
208.579	604
208.647	2767
208.715	1589
208.782	1785
208.850	1209
208.918	1658
208.985	1093
209.053	1905
209.120	653
209.188	1396
209.256	1200
209.323	308
209.391	1901
209.459	2343
209.526	1264
209.594	1285
209.661	1409
209.729	1474
209.796	1281
209.864	1943
209.932	747
209.999	1779
210.067	1911
210.134	1703
210.202	2252
210.269	2261
210.337	2043
210.404	1275
210.472	1301
210.539	1834
210.607	1526
210.674	1805
210.742	1342
210.809	1543
210.877	1988
210.944	1415
211.012	1047
211.079	2206
211.146	1119
211.214	1364
211.281	1247
211.349	1812
211.416	1720
211.484	2266
211.551	605
211.618	1904
211.686	1590
211.753	1464
211.821	1121
211.888	2011
211.955	1573
212.023	1961
212.090	910
212.157	1754
212.225	1931
212.292	3381
212.359	6808
212.427	15977
212.494	6647
212.561	2744
212.629	2097
212.696	2243
212.763	1684
212.831	1557
212.898	1981
212.965	2097
213.032	1680
213.100	1628
213.167	1167
213.234	2103
213.301	1496
213.369	1871
213.436	1804
213.503	1630
213.570	1618
213.638	2691
213.705	1617
213.772	1567
213.839	1921
213.906	2086
213.973	1713
214.041	1834
214.108	2511
214.175	2428
214.242	1307
214.309	1700
214.376	1271
214.444	1549
214.511	1452
214.578	2317
214.645	2421
214.712	2451
214.779	2045
214.846	1806
214.913	2406
214.980	3798
215.048	3008
215.115	2395
215.182	2602
215.249	2101
215.316	1551
215.383	3059
215.450	2373
215.517	1671
215.584	2138
215.651	1045
215.718	2040
215.785	2123
215.852	1370
215.919	1486
215.986	2545
216.053	1062
216.120	769
216.187	1417
216.254	1673
216.321	1803
216.388	1196
216.455	1157
216.522	1809
216.589	2489
216.656	3799
216.722	4395
216.789	3379
216.856	3827
216.923	2705
216.990	2494
217.057	2544
217.124	3280
217.191	2634
217.258	3611
217.324	4608
217.391	5886
217.458	3967
217.525	3068
217.592	3154
217.659	1672
217.725	2868
217.792	3542
217.859	2938
217.926	2148
217.993	1689
218.059	2033
218.126	1041
218.193	1868
218.260	671
218.327	1082
218.393	579
218.460	1163
218.527	854
218.594	1573
218.660	3117
218.727	3415
218.794	1011
218.860	1038
218.927	1049
218.994	652
219.061	877
219.127	2301
219.194	3143
219.261	1942
219.327	709
219.394	1186
219.461	512
219.527	965
219.594	1884
219.661	1555
219.727	689
219.794	863
219.860	966
219.927	2294
219.994	2739
220.060	5090
220.127	2263
220.193	3005
220.260	1901
220.326	4159
220.393	6203
220.460	8453
220.526	5584
220.593	3970
220.659	3868
220.726	4327
220.792	8709
220.859	7629
220.925	10385
220.992	14618
221.058	13627
221.125	12399
221.191	8139
221.258	4087
221.324	2812
221.391	2089
221.457	1633
221.524	2044
221.590	2826
221.657	9672
221.723	6480
221.789	6222
221.856	5669
221.922	2904
221.989	2070
222.055	1691
222.121	634
222.188	2239
222.254	1536
222.321	1155
222.387	277
222.453	1771
222.520	1769
222.586	1106
222.652	1016
222.719	934
222.785	1342
222.851	1406
222.918	1357
222.984	2176
223.050	1326
223.116	207
223.183	1147
223.249	258
223.315	630
223.382	796
223.448	869
223.514	-116
223.580	489
223.647	857
223.713	18
223.779	435
223.845	455
223.911	1063
223.978	683
224.044	1261
224.110	160
224.176	2405
224.242	473
224.309	-20
224.375	244
224.441	570
224.507	-69
224.573	1538
224.639	346
224.705	228
224.772	684
224.838	319
224.904	886
224.970	608
225.036	-156
225.102	460
225.168	1107
225.234	1112
225.300	757
225.366	859
225.432	1163
225.499	384
225.565	922
225.631	1102
225.697	1599
225.763	1596
225.829	736
225.895	2079
225.961	3228
226.027	3030
226.093	2407
226.159	3357
226.225	5583
226.291	14111
226.357	20985
226.423	10616
226.489	4974
226.554	4136
226.620	2932
226.686	4244
226.752	6368
226.818	12758
226.884	28618
226.950	23105
227.016	9356
227.082	5257
227.148	3568
227.214	3320
227.279	1451
227.345	1504
227.411	1521
227.477	2030
227.543	4731
227.609	4673
227.674	2338
227.740	1604
227.806	1023
227.872	1109
227.938	1686
228.003	2677
228.069	1359
228.135	1164
228.201	825
228.267	872
228.332	1157
228.398	1235
228.464	1627
228.530	953
228.595	1206
228.661	432
228.727	2135
228.792	1480
228.858	208
228.924	267
228.990	2042
229.055	544
229.121	1711
229.187	925
229.252	1353
229.318	979
229.384	1173
229.449	1656
229.515	237
229.581	-96
229.646	1847
229.712	1963
229.777	3750
229.843	4304
229.909	2390
229.974	2094
230.040	2266
230.105	1741
230.171	1805
230.236	2520
230.302	3469
230.368	2930
230.433	2037
230.499	1512
230.564	733
230.630	553
230.695	324
230.761	764
230.826	741
230.892	2561
230.957	507
231.023	841
231.088	1216
231.154	880
231.219	1213
231.284	1845
231.350	2068
231.415	900
231.481	1533
231.546	1283
231.612	1060
231.677	1322
231.742	315
231.808	1239
231.873	678
231.939	53
232.004	2774
232.069	2452
232.135	1447
232.200	1209
232.265	543
232.331	733
232.396	392
232.461	346
232.527	410
232.592	-5
232.657	1321
232.723	1159
232.788	1057
232.853	1253
232.918	165
232.984	411
233.049	347
233.114	289
233.179	1643
233.245	3065
233.310	3087
233.375	774
233.440	1146
233.506	148
233.571	823
233.636	571
233.701	970
233.766	1932
233.832	1644
233.897	901
233.962	310
234.027	2035
234.092	882
234.157	1127
234.222	1061
234.288	2714
234.353	6845
234.418	5732
234.483	3005
234.548	2830
234.613	1007
234.678	2148
234.743	1465
234.808	6655
234.873	2722
234.938	2515
235.004	546
235.069	1717
235.134	1113
235.199	1855
235.264	1414
235.329	-205
235.394	985
235.459	1911
235.524	668
235.589	1151
235.654	1503
235.719	1178
235.784	1739
235.849	2199
235.913	3146
235.978	3915
236.043	3740
236.108	1903
236.173	1150
236.238	2244
236.303	1213
236.368	1982
236.433	2964
236.498	5477
236.563	3997
236.627	10219
236.692	35802
236.757	27618
236.822	9425
236.887	6567
236.952	5288
237.017	4374
237.081	4355
237.146	6676
237.211	15037
237.276	37106
237.341	57663
237.405	23282
237.470	9438
237.535	6023
237.600	4098
237.664	3838
237.729	2409
237.794	4046
237.859	9645
237.923	5064
237.988	1836
238.053	3515
238.118	3730
238.182	10705
238.247	8709
238.312	3481
238.376	3661
238.441	1637
238.506	1939
238.570	406
238.635	2376
238.700	1875
238.764	1396
238.829	4417
238.893	4525
238.958	2770
239.023	2255
239.087	172
239.152	2119
239.216	1056
239.281	1836
239.346	2373
239.410	1587
239.475	2096
239.539	9035
239.604	6093
239.668	2255
239.733	1463
239.797	2781
239.862	7710
239.926	7401
239.991	3129
240.055	1768
240.120	960
240.184	1749
240.249	1069
240.313	1105
240.378	1398
240.442	4361
240.507	8197
240.571	2358
240.635	3065
240.700	3671
240.764	1426
240.829	1746
240.893	1022
240.957	983
241.022	4986
241.086	7432
241.151	1586
241.215	281
241.279	2531
241.344	3249
241.408	1872
241.472	1225
241.537	2145
241.601	1109
241.665	1075
241.730	1314
241.794	1981
241.858	1097
241.922	1344
241.987	479
242.051	1544
242.115	761
242.179	1828
242.244	518
242.308	2659
242.372	1528
242.436	1388
242.501	1169
242.565	1193
242.629	1404
242.693	2265
242.757	812
242.822	1037
242.886	2125
242.950	1870
243.014	760
243.078	1760
243.142	1398
243.206	1380
243.271	1615
243.335	1510
243.399	3691
243.463	17031
243.527	41930
243.591	12129
243.655	4819
243.719	2302
243.783	3211
243.847	6426
243.911	5253
243.975	5679
244.040	3773
244.104	3178
244.168	1688
244.232	2637
244.296	3341
244.360	5910
244.424	2294
244.488	2049
244.552	2175
244.615	262
244.679	938
244.743	1952
244.807	1692
244.871	1970
244.935	1213
244.999	1056
245.063	821
245.127	2072
245.191	3881
245.255	3877
245.319	2564
245.383	1502
245.446	2704
245.510	625
245.574	1820
245.638	2592
245.702	1508
245.766	6214
245.829	2784
245.893	1458
245.957	810
246.021	2896
246.085	1194
246.149	2669
246.212	8365
246.276	13092
246.340	3990
246.404	2558
246.467	4160
246.531	5067
246.595	3748
246.659	3236
246.722	2357
246.786	3077
246.850	3382
246.913	4977
246.977	1979
247.041	2456
247.104	2328
247.168	2790
247.232	7377
247.295	18652
247.359	7533
247.423	3536
247.486	6099
247.550	4625
247.614	2372
247.677	4612
247.741	2512
247.804	2243
247.868	3961
247.932	6803
247.995	16303
248.059	4678
248.122	1723
248.186	4407
248.249	5819
248.313	30406
248.376	27341
248.440	17100
248.503	4832
248.567	6641
248.630	7076
248.694	8772
248.757	13202
248.821	31025
248.884	15672
248.948	15314
249.011	22455
249.075	36209
249.138	28164
249.202	9507
249.265	5864
249.328	7611
249.392	4229
249.455	5467
249.519	3945
249.582	4788
249.645	6942
249.709	5477
249.772	3393
249.835	3475
249.899	4243
249.962	5158
250.025	3467
250.089	11456
250.152	14096
250.215	6107
250.279	4995
250.342	5462
250.405	4587
250.468	4083
250.532	5601
250.595	10712
250.658	43498
250.721	65951
250.785	19585
250.848	12055
250.911	6485
250.974	7073
251.038	9426
251.101	19288
251.164	8932
251.227	8757
251.290	8307
251.354	13873
251.417	60067
251.480	53397
251.543	36997
251.606	112272
251.669	73020
251.732	26696
251.795	27755
251.859	29018
251.922	68396
251.985	34749
252.048	13532
252.111	9284
252.174	7540
252.237	16949
252.300	36585
252.363	39426
252.426	86352
252.489	31317
252.552	13746
252.615	10601
252.678	11836
252.741	28135
252.804	39079
252.867	88140
252.930	44519
252.993	21745
253.056	12822
253.119	7945
253.182	7036
253.245	11886
253.308	8577
253.371	7530
253.434	6657
253.497	7726
253.559	16686
253.622	9185
253.685	9370
253.748	8154
253.811	4190
253.874	6360
253.937	5111
254.000	5297
254.062	9976
254.125	16925
254.188	11169
254.251	8986
254.314	4575
254.376	7914
254.439	8439
254.502	7154
254.565	10608
254.628	17898
254.690	8685
254.753	5136
254.816	3750
254.878	4611
254.941	12667
255.004	12254
255.067	4369
255.129	3498
255.192	2718
255.255	2218
255.317	3716
255.380	2461
255.443	1523
255.505	2328
255.568	1879
255.631	1800
255.693	1953
255.756	1503
255.819	3018
255.881	1637
255.944	1507
256.006	2361
256.069	1478
256.132	1644
256.194	2329
256.257	6506
256.319	4434
256.382	4388
256.444	3525
256.507	2605
256.569	2379
256.632	2809
256.694	4871
256.757	19293
256.819	54384
256.882	18174
256.944	6711
257.007	6419
257.069	4262
257.132	3804
257.194	3259
257.257	3256
257.319	2671
257.381	3743
257.444	13716
257.506	67415
257.569	60727
257.631	20952
257.693	12141
257.756	6169
257.818	5162
257.880	3987
257.943	3468
258.005	2758
258.067	1809
258.130	2358
258.192	2606
258.254	4879
258.317	3107
258.379	3129
258.441	8329
258.503	8481
258.566	9131
258.628	11584
258.690	2420
258.753	3538
258.815	5135
258.877	2486
258.939	1977
259.001	2868
259.064	2657
259.126	2288
259.188	2753
259.250	3184
259.312	2124
259.375	5206
259.437	4049
259.499	3060
259.561	1169
259.623	2202
259.685	1458
259.747	2767
259.809	8887
259.872	15446
259.934	25911
259.996	20277
260.058	4896
260.120	2603
260.182	2686
260.244	1560
260.306	1378
260.368	2111
260.430	850
260.492	4161
260.554	5758
260.616	4033
260.678	12233
260.740	14397
260.802	4034
260.864	3608
260.926	1480
260.988	2799
261.050	2027
261.112	5384
261.174	16786
261.236	12122
261.298	3511
261.359	7042
261.421	8899
261.483	2124
261.545	3434
261.607	1148
261.669	1400
261.731	4673
261.793	10077
261.854	3669
261.916	2494
261.978	1879
262.040	2667
262.102	2563
262.164	3872
262.225	2537
262.287	2080
262.349	6525
262.411	3934
262.472	2468
262.534	3600
262.596	8157
262.658	2544
262.719	1330
262.781	2802
262.843	7755
262.904	3417
262.966	2731
263.028	3863
263.090	24241
263.151	55636
263.213	15167
263.275	8050
263.336	3460
263.398	3489
263.459	1951
263.521	2046
263.583	5596
263.644	3346
263.706	1471
263.767	1100
263.829	2252
263.891	840
263.952	265
264.014	569
264.075	1942
264.137	5472
264.198	2635
264.260	320
264.321	1351
264.383	4021
264.444	9140
264.506	3098
264.567	1786
264.629	4212
264.690	6876
264.752	2929
264.813	2457
264.875	829
264.936	2409
264.998	1348
265.059	1319
265.120	2105
265.182	3814
265.243	29366
265.305	25697
265.366	5266
265.427	2870
265.489	3144
265.550	1608
265.611	1737
265.673	1459
265.734	1385
265.795	1770
265.857	828
265.918	1953
265.979	7345
266.040	48830
266.102	34980
266.163	8763
266.224	4988
266.286	3764
266.347	1924
266.408	2176
266.469	1457
266.530	1526
266.592	548
266.653	3296
266.714	5343
266.775	2236
266.836	504
266.898	652
266.959	1526
267.020	1649
267.081	1402
267.142	1277
267.203	128
267.264	432
267.326	1904
267.387	1756
267.448	628
267.509	1346
267.570	983
267.631	-238
267.692	-254
267.753	966
267.814	98
267.875	3896
267.936	7105
267.997	3229
268.058	3548
268.119	1330
268.180	1259
268.241	1097
268.302	467
268.363	531
268.424	1295
268.485	1629
268.546	78
268.607	564
268.668	-80
268.729	102
268.790	825
268.851	832
268.912	3536
268.972	5208
269.033	1483
269.094	567
269.155	1151
269.216	736
269.277	-132
269.338	697
269.398	503
269.459	1285
269.520	2165
269.581	2729
269.642	2950
269.702	778
269.763	1631
269.824	1398
269.885	1226
269.945	3415
270.006	1112
270.067	1276
270.128	848
270.188	904
270.249	859
270.310	11
270.370	1082
270.431	809
270.492	-392
270.553	1379
270.613	2748
270.674	7278
270.734	2710
270.795	1379
270.856	2153
270.916	764
270.977	2060
271.038	1795
271.098	2127
271.159	3240
271.219	2873
271.280	2002
271.340	1061
271.401	1628
271.462	4066
271.522	2272
271.583	772
271.643	1925
271.704	1271
271.764	2672
271.825	5704
271.885	26653
271.946	36368
272.006	10148
272.066	17078
272.127	31071
272.187	7456
272.248	4032
272.308	5522
272.369	21894
272.429	9742
272.489	6026
272.550	5043
272.610	5163
272.671	3464
272.731	4413
272.791	6049
272.852	2865
272.912	3155
272.972	1991
273.033	1760
273.093	3000
273.153	2736
273.214	2424
273.274	1495
273.334	12868
273.394	25458
273.455	8267
273.515	9441
273.575	20000
273.635	7788
273.696	11580
273.756	26575
273.816	8072
273.876	3776
273.936	10049
273.997	15031
274.057	4658
274.117	2995
274.177	6663
274.237	31279
274.297	26502
274.358	14082
274.418	20585
274.478	13576
274.538	5414
274.598	4194
274.658	12464
274.718	15719
274.778	5862
274.838	2760
274.898	8102
274.958	22482
275.018	29229
275.078	16570
275.138	5720
275.198	3925
275.258	1770
275.318	2956
275.378	5336
275.438	5803
275.498	4146
275.558	11546
275.618	25173
275.678	17042
275.738	8216
275.798	6019
275.858	3338
275.918	920
275.978	1876
276.038	2388
276.098	2242
276.157	4253
276.217	14269
276.277	6307
276.337	4383
276.397	2069
276.457	2868
276.517	2433
276.576	1560
276.636	721
276.696	3101
276.756	8156
276.815	6076
276.875	2199
276.935	2892
276.995	2885
277.055	1862
277.114	2301
277.174	3764
277.234	13145
277.293	5687
277.353	2609
277.413	2582
277.472	2152
277.532	2415
277.592	2376
277.651	8524
277.711	14945
277.771	5291
277.830	19933
277.890	16145
277.950	11768
278.009	36144
278.069	13225
278.128	11379
278.188	15073
278.248	7040
278.307	15758
278.367	9907
278.426	3684
278.486	2623
278.545	1866
278.605	2140
278.664	1932
278.724	3735
278.783	11172
278.843	29834
278.902	8661
278.962	4590
279.021	4595
279.081	4523
279.140	3748
279.199	3484
279.259	4136
279.318	4497
279.378	5583
279.437	10745
279.496	40154
279.556	112789
279.615	81688
279.675	20008
279.734	12813
279.793	18095
279.853	29102
279.912	11208
279.971	6048
280.031	4995
280.090	11601
280.149	19900
280.208	16143
280.268	74308
280.327	74490
280.386	15842
280.445	13441
280.505	12151
280.564	5062
280.623	4489
280.682	7546
280.742	11531
280.801	3310
280.860	3634
280.919	2484
280.978	2178
281.037	2809
281.097	1929
281.156	2421
281.215	1885
281.274	2990
281.333	18983
281.392	13490
281.451	2912
281.510	2245
281.569	2113
281.628	2143
281.688	1277
281.747	2348
281.806	1951
281.865	1145
281.924	1790
281.983	1308
282.042	673
282.101	1394
282.160	1970
282.219	1140
282.278	2780
282.337	7736
282.396	5115
282.454	2556
282.513	3664
282.572	12282
282.631	7462
282.690	2376
282.749	1366
282.808	2593
282.867	2079
282.926	2164
282.985	1852
283.043	560
283.102	2066
283.161	1625
283.220	6360
283.279	16554
283.338	4388
283.396	2255
283.455	2212
283.514	2670
283.573	4398
283.631	2929
283.690	2419
283.749	2241
283.808	5512
283.866	6646
283.925	2810
283.984	2785
284.043	3116
284.101	3250
284.160	2715
284.219	3335
284.277	3573
284.336	5270
284.395	19142
284.453	17070
284.512	5330
284.570	6243
284.629	5269
284.688	4676
284.746	4674
284.805	5707
284.863	7259
284.922	9152
284.981	10159
285.039	15178
285.098	30649
285.156	78862
285.215	218173
285.273	201178
285.332	88814
285.390	43931
285.449	26624
285.507	18230
285.566	13465
285.624	10716
285.683	7815
285.741	5914
285.799	5654
285.858	5316
285.916	4311
285.975	3287
286.033	2915
286.091	2587
286.150	2579
286.208	2373
286.267	3682
286.325	2956
286.383	5777
286.442	4100
286.500	2637
286.558	1816
286.616	1954
286.675	3369
286.733	3488
286.791	2785
286.850	3034
286.908	4173
286.966	8219
287.024	3618
287.083	2640
287.141	2754
287.199	2457
287.257	3306
287.315	3535
287.374	3083
287.432	8838
287.490	5523
287.548	3645
287.606	2590
287.664	2594
287.723	3545
287.781	5021
287.839	3274
287.897	4300
287.955	5501
288.013	9558
288.071	25748
288.129	100461
288.187	261742
288.245	112590
288.303	36169
288.361	20233
288.419	13430
288.477	10665
288.535	7845
288.593	5899
288.651	3887
288.709	3608
288.767	2667
288.825	1916
288.883	1843
288.941	1693
288.999	1497
289.057	1747
289.115	1663
289.173	2161
289.231	2459
289.289	886
289.346	1121
289.404	2332
289.462	3999
289.520	3984
289.578	2419
289.636	1275
289.694	537
289.751	694
289.809	1193
289.867	1613
289.925	2145
289.983	2955
290.040	1777
290.098	1787
290.156	1494
290.214	2744
290.271	1656
290.329	1172
290.387	587
290.444	696
290.502	371
290.560	1201
290.617	1385
290.675	1771
290.733	1060
290.790	1525
290.848	692
290.906	774
290.963	1286
291.021	1475
291.078	1335
291.136	1346
291.194	7386
291.251	17648
291.309	5657
291.366	1802
291.424	1434
291.481	1341
291.539	718
291.596	1122
291.654	1020
291.711	122
291.769	1768
291.826	4502
291.884	2534
291.941	1162
291.999	854
292.056	1144
292.114	2256
292.171	1412
292.228	1836
292.286	1953
292.343	4284
292.401	5792
292.458	3552
292.515	1913
292.573	2438
292.630	2538
292.687	2359
292.745	1986
292.802	2905
292.859	9154
292.917	19140
292.974	11334
293.031	3883
293.089	2050
293.146	1789
293.203	1624
293.260	1527
293.318	1762
293.375	2709
293.432	1912
293.489	1091
293.546	1993
293.604	4323
293.661	14712
293.718	40904
293.775	19319
293.832	7585
293.889	5144
293.947	4167
294.004	3450
294.061	4226
294.118	9309
294.175	18031
294.232	17819
294.289	7618
294.346	4240
294.403	3288
294.460	2621
294.517	2930
294.574	2259
294.631	1724
294.688	5315
294.745	12230
294.802	42988
294.859	39186
294.916	14281
294.973	7780
295.030	6122
295.087	4504
295.144	4244
295.201	4275
295.258	3451
295.315	5001
295.372	16700
295.429	34640
295.486	14409
295.542	7850
295.599	13979
295.656	23002
295.713	19595
295.770	29137
295.827	12781
295.883	5654
295.940	5079
295.997	7082
296.054	7134
296.111	3680
296.167	2893
296.224	2347
296.281	2158
296.338	2162
296.394	2674
296.451	3574
296.508	12767
296.564	24396
296.621	17817
296.678	37752
296.734	55970
296.791	21039
296.848	9087
296.904	10534
296.961	19233
297.018	36513
297.074	27291
297.131	10918
297.187	7532
297.244	13136
297.301	41140
297.357	73818
297.414	27433
297.470	9986
297.527	6442
297.583	4796
297.640	5255
297.696	4187
297.753	2923
297.809	2161
297.866	2091
297.922	2210
297.979	2132
298.035	2977
298.092	6155
298.148	19141
298.204	20160
298.261	11297
298.317	18947
298.374	48814
298.430	31219
298.486	12260
298.543	7754
298.599	6727
298.656	7067
298.712	12925
298.768	31966
298.824	24392
298.881	8453
298.937	4694
298.993	4157
299.050	5143
299.106	4424
299.162	4226
299.218	4027
299.275	3733
299.331	5841
299.387	12574
299.443	43101
299.500	46401
299.556	19692
299.612	8471
299.668	7134
299.724	8564
299.780	10332
299.837	6379
299.893	10049
299.949	30492
300.005	38697
300.061	34364
300.117	59082
300.173	31595
300.229	13143
300.285	11605
300.341	13642
300.397	7942
300.453	5630
300.510	3914
300.566	4981
300.622	7514
300.678	19076
300.734	34845
300.790	35392
300.845	44003
300.901	28309
300.957	31485
301.013	25785
301.069	10960
301.125	7535
301.181	7767
301.237	5694
301.293	4248
301.349	3206
301.405	3445
301.461	3451
301.516	3420
301.572	3941
301.628	7310
301.684	8841
301.740	11667
301.796	20891
301.851	15457
301.907	23294
301.963	28041
302.019	49014
302.074	128406
302.130	130242
302.186	57800
302.242	23282
302.297	14942
302.353	13754
302.409	23523
302.464	22808
302.520	18988
302.576	40119
302.631	49534
302.687	27861
302.743	12671
302.798	6656
302.854	4854
302.910	6187
302.965	7789
303.021	11571
303.076	11815
303.132	12725
303.187	15367
303.243	10039
303.299	5235
303.354	5041
303.410	3773
303.465	3666
303.521	3311
303.576	4174
303.632	6162
303.687	14300
303.743	38859
303.798	35762
303.853	15063
303.909	7465
303.964	6225
304.020	7848
304.075	12762
304.130	12266
304.186	20054
304.241	21023
304.297	16995
304.352	9756
304.358	9337
304.407	5937
304.449	5151
304.463	4890
304.518	4475
304.539	4363
304.573	4183
304.629	5957
304.630	6069
304.684	11410
304.720	23491
304.739	29609
304.794	47382
304.811	40889
304.850	25170
304.902	11443
304.905	10571
304.960	6455
304.992	7068
305.015	7502
305.071	5799
305.083	5569
305.126	4806
305.173	3653
305.181	3460
305.236	2410
305.264	3032
305.292	3670
305.347	4561
305.354	4505
305.402	4114
305.445	5181
305.457	5504
305.512	6802
305.535	7270
305.567	7900
305.622	7660
305.626	8009
305.678	15129
305.716	30458
305.733	36323
305.788	45062
305.807	39746
305.843	30428
305.897	39158
305.898	39245
305.953	41427
305.988	28993
306.008	21959
306.063	10532
306.078	9406
306.118	6968
306.168	5034
306.173	4873
306.228	4494
306.259	3905
306.283	3498
306.338	3540
306.349	3587
306.393	3923
306.440	5728
306.448	6012
306.503	5747
306.530	5808
306.558	7176
306.613	14210
306.620	15310
306.668	21499
306.711	30222
306.723	31615
306.778	28086
306.801	22176
306.833	15142
306.888	7453
306.892	7162
306.943	4638
306.982	4284
306.997	4247
307.052	3933
307.072	4046
307.107	4649
307.162	5681
307.163	5701
307.217	8212
307.253	9672
307.272	9891
307.327	10565
307.343	9950
307.381	8042
307.434	7424
307.436	7673
307.491	15535
307.524	23150
307.546	25255
307.600	27592
307.614	24955
307.655	16314
307.704	8315
307.710	7860
307.765	7948
307.795	9593
307.819	12042
307.874	20170
307.885	20694
307.929	16871
307.975	13031
307.984	13195
308.038	18643
308.065	25388
308.093	39709
308.148	83214
308.156	95147
308.202	165650
308.246	208010
308.257	207145
308.312	117869
308.336	84714
308.366	60044
308.421	37304
308.426	35691
308.475	22546
308.517	16287
308.530	14880
308.585	12013
308.607	11291
308.639	10664
308.694	10174
308.697	10287
308.748	17883
308.787	25504
308.803	25269
308.857	20327
308.877	17437
308.912	14019
308.967	12444
308.967	12466
309.021	15659
309.058	19876
309.076	24591
309.130	45834
309.148	56862
309.185	107591
309.238	202592
309.239	203312
309.293	251064
309.328	231895
309.348	200625
309.402	95420
309.418	71564
309.457	46922
309.508	28258
309.511	27317
309.566	20722
309.598	18992
309.620	19006
309.674	21108
309.688	22131
309.729	22077
309.778	18809
309.783	18421
309.837	14507
309.868	13339
309.892	15560
309.946	23072
309.959	26059
310.001	36649
310.049	45775
310.055	44528
310.109	28212
310.139	18108
310.163	14064
310.218	8865
310.229	8077
310.272	6022
310.319	4818
310.326	4741
310.381	4403
310.409	4368
310.435	4433
310.489	4367
310.499	4375
310.543	4435
310.589	4701
310.598	4758
310.652	5205
310.679	5261
310.706	4491
310.760	3005
310.769	2830
310.814	2916
310.859	2803
310.868	2830
310.923	3014
310.948	3082
310.977	3434
311.031	4439
311.038	4564
311.085	4862
311.128	4853
311.139	4592
311.193	3598
311.218	3082
311.247	2893
311.301	2257
311.308	2230
311.356	2773
311.398	3151
311.410	3058
311.464	2585
311.488	2346
311.518	2451
311.572	2780
311.578	2808
311.626	3463
311.668	4206
311.680	4369
311.734	4886
311.758	5148
311.788	5419
311.842	5869
311.847	5910
311.896	6754
311.937	7488
311.950	7425
312.004	7135
312.027	6959
312.058	5956
312.112	4190
312.117	4016
312.165	3462
312.207	3002
312.297	4730
312.386	4623
312.476	4100
312.566	7847
312.656	4241
312.745	3066
312.835	2967
312.925	3982
313.015	3914
313.104	4627
313.194	2267
313.284	2695
313.374	3221
313.463	3583
313.553	2898
313.643	2726
313.732	2078
313.822	2274
313.912	3075
314.001	3319
314.091	3857
314.180	5628
314.270	5090
314.360	5566
314.449	4711
314.539	2582
314.628	2731
314.718	3469
314.808	5947
314.897	3176
314.987	3227
315.076	3243
315.166	5558
315.255	5788
315.345	5147
315.434	5349
315.524	4898
315.613	5300
315.703	5794
315.792	7301
315.881	15218
315.971	7522
316.060	8402
316.150	16916
316.239	17610
316.328	7104
316.418	2896
316.507	3359
316.597	5126
316.686	4327
316.775	5930
316.865	18598
316.954	4249
317.043	2263
317.133	2371
317.222	2728
317.311	2449
317.400	2022
317.490	4367
317.579	4562
317.668	3200
317.757	5498
317.847	9973
317.936	26661
318.025	14110
318.114	7949
318.203	6205
318.293	9415
318.382	21329
318.471	15402
318.560	19067
318.649	38518
318.738	9646
318.828	6405
318.917	6075
319.006	7144
319.095	18904
319.184	44656
319.273	25729
319.362	12018
319.451	3626
319.540	4348
319.629	6963
319.718	14758
319.807	8372
319.896	13952
319.985	54755
320.074	22255
320.163	6237
320.252	11078
320.341	8565
320.430	7654
320.519	7777
320.608	5222
320.697	4599
320.786	4091
320.875	5320
320.964	6349
321.053	8772
321.142	12978
321.230	15086
321.319	10769
321.408	26089
321.497	12132
321.586	9450
321.675	15897
321.764	15601
321.852	9184
321.941	13870
322.030	10248
322.119	10118
322.207	25560
322.296	25419
322.385	11768
322.474	11002
322.562	28728
322.651	18560
322.740	11997
322.829	16979
322.917	23559
323.006	12530
323.095	8051
323.183	7980
323.272	11448
323.361	17472
323.449	62099
323.538	22946
323.626	42321
323.715	30596
323.804	10873
323.892	39992
323.981	23708
324.069	7837
324.158	21817
324.246	24622
324.335	5815
324.424	9889
324.512	4570
324.601	8653
324.689	25376
324.778	63556
324.866	21384
324.954	5296
325.043	5387
325.131	9290
325.220	19185
325.308	22918
325.397	14886
325.485	10077
325.574	3560
325.662	2238
325.750	3672
325.839	4096
325.927	2637
326.015	3581
326.104	6274
326.192	12091
326.280	3543
326.369	2781
326.457	4259
326.545	7697
326.634	4394
326.722	3049
326.810	2914
326.898	2907
326.987	2980
327.075	6827
327.163	10574
327.251	7428
327.340	19179
327.428	38861
327.516	4975
327.604	3973
327.692	4000
327.781	4651
327.869	8482
327.957	5454
328.045	3813
328.133	2727
328.221	3999
328.309	3548
328.397	2691
328.485	3717
328.574	5198
328.662	14895
328.750	10970
328.838	5262
328.926	2808
329.014	2232
329.102	4288
329.190	11163
329.278	7609
329.366	1742
329.454	1884
329.542	1645
329.630	2036
329.718	2617
329.806	3576
329.893	4315
329.981	3903
330.069	5720
330.157	19654
330.245	63500
330.333	33211
330.421	6139
330.509	5423
330.597	17465
330.684	13696
330.772	5475
330.860	8462
330.948	11123
331.036	5265
331.123	1672
331.211	2062
331.299	3003
331.387	7736
331.475	15943
331.562	5429
331.650	2074
331.738	2054
331.825	6258
331.913	2169
332.001	2091
332.089	3452
332.176	9676
332.264	21996
332.352	18848
332.439	4644
332.527	3381
332.614	2538
332.702	5083
332.790	2624
332.877	8066
332.965	22637
333.052	4549
333.140	3160
333.228	6709
333.315	2457
333.403	3306
333.490	12931
333.578	10509
333.665	5390
333.753	3968
333.840	2918
333.928	3712
334.015	13775
334.103	18732
334.190	62678
334.278	18823
334.365	6609
334.452	3850
334.540	3389
334.627	3804
334.715	7746
334.802	12393
334.889	68199
334.977	77658
335.064	9311
335.151	3121
335.239	3585
335.326	6487
335.413	25109
335.501	43571
335.588	5863
335.675	3492
335.762	4062
335.850	9497
335.937	5712
336.024	14625
336.111	73603
336.199	33993
336.286	5528
336.373	2555
336.460	2211
336.547	1952
336.635	3769
336.722	2577
336.809	3254
336.896	5071
336.983	15713
337.070	41963
337.157	65192
337.245	47431
337.332	38105
337.419	4031
337.506	3027
337.593	3820
337.680	11964
337.767	45711
337.854	12997
337.941	14012
338.028	19409
338.115	5690
338.202	7164
338.289	11439
338.376	50799
338.463	18077
338.550	22965
338.637	30471
338.724	9097
338.811	19251
338.898	3369
338.984	2434
339.071	3484
339.158	3423
339.245	9967
339.332	6466
339.419	10059
339.506	11856
339.593	1338
339.679	2345
339.766	1562
339.853	2635
339.940	6323
340.027	2244
340.113	2685
340.200	3289
340.287	2692
340.374	2808
340.460	6171
340.547	2141
340.634	4339
340.720	18105
340.807	11475
340.894	2030
340.980	2772
341.067	1851
341.154	1976
341.240	3277
341.327	8859
341.414	2568
341.500	1453
341.587	2869
341.674	1697
341.760	5444
341.847	6377
341.933	2695
342.020	883
342.106	1301
342.193	2705
342.279	4448
342.366	2571
342.452	5424
342.539	3914
342.625	7913
342.712	19067
342.798	8080
342.885	3502
342.971	1313
343.058	1367
343.144	1472
343.230	1757
343.317	1077
343.403	1489
343.490	1385
343.576	914
343.662	2238
343.749	1943
343.835	3603
343.921	8614
344.008	44787
344.094	122439
344.180	27336
344.267	7295
344.353	25430
344.439	33947
344.525	10293
344.612	3864
344.698	2755
344.784	2166
344.870	1779
344.957	1462
345.043	3521
345.129	2579
345.215	4835
345.301	3590
345.387	1559
345.474	1182
345.560	748
345.646	2499
345.732	1966
345.818	2227
345.904	1443
345.990	2133
346.076	2947
346.162	7333
346.249	2586
346.335	2098
346.421	2683
346.507	9391
346.593	41591
346.679	10616
346.765	3576
346.851	1914
346.937	1002
347.023	1511
347.108	2482
347.194	1886
347.280	1565
347.366	2982
347.452	10363
347.538	50171
347.624	35567
347.710	30108
347.796	4813
347.882	1622
347.967	2213
348.053	3413
348.139	2358
348.225	1588
348.311	1411
348.397	1840
348.482	2390
348.568	2924
348.654	1572
348.740	1342
348.825	1117
348.911	5134
348.997	20537
349.083	51805
349.168	8905
349.254	2177
349.340	1460
349.425	1463
349.511	2708
349.597	3290
349.682	5563
349.768	24948
349.854	12766
349.939	2247
350.025	1095
350.110	1144
350.196	469
350.282	197
350.367	2167
350.453	4064
350.538	4243
350.624	2531
350.709	3124
350.795	1141
350.880	1384
350.966	3323
351.051	3730
351.137	3471
351.222	1592
351.308	5871
351.393	20042
351.479	4417
351.564	925
351.649	2583
351.735	1769
351.820	1345
351.906	1428
351.991	2901
352.076	11795
352.162	20733
352.247	3452
352.332	1820
352.418	3239
352.503	5895
352.588	26501
352.673	24157
352.759	4896
352.844	1842
352.929	1658
353.014	3066
353.100	2112
353.185	3184
353.270	5142
353.355	6922
353.441	2057
353.526	2662
353.611	6217
353.696	7423
353.781	4096
353.866	1225
353.952	2365
354.037	4184
354.122	13160
354.207	11344
354.292	4407
354.377	2362
354.462	1372
354.547	2719
354.632	3030
354.717	3810
354.802	3754
354.887	1629
354.972	767
355.057	669
355.142	799
355.227	2071
355.312	3030
355.397	7901
355.482	20668
355.567	11079
355.652	7105
355.737	9199
355.822	27309
355.907	25393
355.991	4020
356.076	1472
356.161	2150
356.246	1525
356.331	2319
356.416	6651
356.501	48373
356.585	57291
356.670	6684
356.755	4680
356.840	5728
356.924	28586
357.009	126001
357.094	50333
357.179	8302
357.263	5249
357.348	5196
357.433	5506
357.517	4423
357.602	3182
357.687	2025
357.771	3009
357.856	3142
357.941	5552
358.025	24206
358.110	122616
358.195	61702
358.279	7814
358.364	4887
358.448	16237
358.533	50566
358.617	36650
358.702	36142
358.787	13007
358.871	6090
358.956	5450
359.040	1435
359.125	1111
359.209	1546
359.294	1469
359.378	2059
359.462	4325
359.547	2982
359.631	2885
359.716	1553
359.800	1768
359.885	4550
359.969	2061
360.053	1699
360.138	2421
360.222	3196
360.306	5894
360.391	4535
360.475	5172
360.559	11964
360.644	16924
360.728	14879
360.812	24415
360.896	80801
360.981	32932
361.065	16195
361.149	4605
361.233	2887
361.318	2382
361.402	2882
361.486	2493
361.570	1999
361.654	2727
361.739	8478
361.823	45393
361.907	84638
361.991	14222
362.075	5678
362.159	12350
362.243	9707
362.327	6203
362.411	8647
362.495	5212
362.580	2612
362.664	1556
362.748	1452
362.832	2622
362.916	2603
363.000	12995
363.084	48052
363.168	94032
363.252	21556
363.336	5989
363.420	8242
363.503	36502
363.587	52308
363.671	7487
363.755	3718
363.839	6859
363.923	2442
364.007	6449
364.091	8800
364.175	12024
364.258	62626
364.342	37624
364.426	25138
364.510	14100
364.594	9625
364.677	12689
364.761	66214
364.845	52398
364.929	12581
365.013	9478
365.096	8132
365.180	9416
365.264	14209
365.347	67771
365.431	31838
365.515	7514
365.598	2345
365.682	3174
365.766	5200
365.849	8948
365.933	3134
366.017	5859
366.100	4128
366.184	1089
366.267	2687
366.351	1717
366.435	562
366.518	1050
366.602	1409
366.685	870
366.769	1655
366.852	5493
366.936	10181
367.019	5162
367.103	3728
367.186	9984
367.270	2429
367.353	1140
367.436	841
367.520	991
367.603	1719
367.687	3038
367.770	7731
367.853	4426
367.937	16419
368.020	34452
368.104	7147
368.187	5226
368.270	7990
368.353	7212
368.437	10137
368.520	36385
368.603	20296
368.687	19229
368.770	40692
368.853	10420
368.936	8064
369.020	10550
369.103	2916
369.186	2091
369.269	1748
369.352	3445
369.436	8236
369.519	5558
369.602	1597
369.685	3456
369.768	2108
369.851	1722
369.934	1540
370.018	2314
370.101	5579
370.184	6674
370.267	4220
370.350	7998
370.433	12085
370.516	33713
370.599	46402
370.682	10485
370.765	18674
370.848	23465
370.931	51677
371.014	20802
371.097	3085
371.180	1984
371.263	1676
371.346	51
371.429	1131
371.511	1851
371.594	3885
371.677	7326
371.760	11463
371.843	7439
371.926	37994
372.009	113289
372.091	33865
372.174	16976
372.257	53858
372.340	21020
372.423	12127
372.505	17587
372.588	6658
372.671	12442
372.754	47719
372.836	25345
372.919	16379
373.002	40714
373.085	10733
373.167	6381
373.250	18406
373.332	48202
373.415	60355
373.498	143856
373.580	51095
373.663	60307
373.746	97829
373.828	20277
373.911	6895
373.993	7001
374.076	35324
374.159	39550
374.241	12738
374.324	38750
374.406	28023
374.489	36484
374.571	122531
374.654	51148
374.736	19536
374.819	71940
374.901	97831
374.983	110099
375.066	18279
375.148	6354
375.231	25933
375.313	61327
375.395	22778
375.478	4645
375.560	2474
375.643	4799
375.725	15669
375.807	86333
375.890	76726
375.972	34324
376.054	13460
376.136	30715
376.219	13502
376.301	19309
376.383	75614
376.465	28630
376.548	13579
376.630	17318
376.712	59238
376.794	29652
376.877	2904
376.959	1564
377.041	2741
377.123	7343
377.205	10667
377.287	2279
377.369	1512
377.452	1446
377.534	1759
377.616	1274
377.698	1368
377.780	-48
377.862	1550
377.944	2708
378.026	763
378.108	712
378.190	1376
378.272	1771
378.354	683
378.436	543
378.518	2497
378.600	15472
378.682	11777
378.764	26165
378.846	22278
378.928	6172
379.010	7316
379.091	3603
379.173	1446
379.255	1218
379.337	2659
379.419	10957
379.501	39915
379.583	16566
379.664	3577
379.746	7431
379.828	25108
379.910	34493
379.991	33105
380.073	5467
380.155	2652
380.237	2028
380.318	1391
380.400	1264
380.482	4041
380.564	7855
380.645	6883
380.727	6288
380.809	4526
380.890	2560
380.972	1783
381.053	2349
381.135	2371
381.217	7480
381.298	26996
381.380	13460
381.461	10445
381.543	53971
381.624	76035
381.706	12983
381.787	6333
381.869	7026
381.951	21278
382.032	107012
382.113	69899
382.195	11543
382.276	7424
382.358	14681
382.439	55460
382.521	58658
382.602	103796
382.684	39824
382.765	64178
382.846	56498
382.928	36068
383.009	18744
383.090	13662
383.172	47404
383.253	75636
383.334	37822
383.416	75618
383.497	40675
383.578	9493
383.659	14746
383.741	42466
383.822	116100
383.903	63378
383.984	36612
384.066	92665
384.147	59327
384.228	10682
384.309	7011
384.390	4714
384.471	2999
384.553	3491
384.634	5675
384.715	6367
384.796	2939
384.877	3739
384.958	20653
385.039	29717
385.120	9595
385.201	4287
385.282	5360
385.363	5656
385.444	4577
385.525	9192
385.606	44502
385.687	42455
385.768	8513
385.849	9144
385.930	44722
386.011	95581
386.092	25571
386.173	4496
386.254	3476
386.335	3947
386.416	3290
386.496	14185
386.577	26853
386.658	10883
386.739	5781
386.820	6765
386.901	5741
386.981	4305
387.062	2908
387.143	4330
387.224	24013
387.304	25799
387.385	8237
387.466	4497
387.547	8368
387.627	4501
387.708	8498
387.789	44871
387.869	65720
387.950	19127
388.031	2848
388.111	1423
388.192	9559
388.273	17316
388.353	8763
388.434	4182
388.514	7959
388.595	51273
388.676	69287
388.756	28111
388.837	23096
388.917	15048
388.998	3149
389.078	3660
389.159	2286
389.239	1695
389.320	5166
389.400	2817
389.480	9078
389.561	31146
389.641	16168
389.722	3548
389.802	6338
389.883	11582
389.963	37619
390.043	26495
390.124	8429
390.204	9350
390.284	29002
390.365	19189
390.445	24164
390.525	53689
390.605	44200
390.686	14430
390.766	4837
390.846	3109
390.927	1633
391.007	1697
391.087	3635
391.167	2188
391.247	1218
391.328	6011
391.408	10560
391.488	7833
391.568	971
391.648	3017
391.728	5534
391.808	5412
391.888	5124
391.969	13596
392.049	27078
392.129	12819
392.209	11531
392.289	33926
392.369	19734
392.449	18031
392.529	10387
392.609	6756
392.689	8562
392.769	31291
392.849	29895
392.929	18340
393.009	49492
393.089	36411
393.169	21617
393.248	65034
393.328	305723
393.408	364998
393.488	84140
393.568	19564
393.648	9508
393.728	6295
393.807	5251
393.887	5666
393.967	4458
394.047	5311
394.127	5952
394.206	10599
394.286	38992
394.366	206329
394.446	242368
394.525	49471
394.605	11256
394.685	8403
394.764	21284
394.844	40625
394.924	29888
395.003	7599
395.083	4941
395.163	4514
395.242	3517
395.322	3726
395.402	1947
395.481	5576
395.561	13506
395.640	44671
395.720	29966
395.799	46875
395.879	41649
395.958	17296
396.038	57662
396.117	266514
396.197	318974
396.276	82558
396.356	25064
396.435	18624
396.515	11882
396.594	10722
396.673	20414
396.753	76574
396.832	293483
396.912	230677
396.991	51019
397.070	12594
397.150	5870
397.229	4786
397.308	5423
397.388	8863
397.467	4485
397.546	3362
397.625	1077
397.705	4563
397.784	3338
397.863	2862
397.942	1539
398.022	1851
398.101	10639
398.180	43765
398.259	25025
398.338	5489
398.417	2677
398.497	2451
398.576	2730
398.655	86
398.734	1398
398.813	1960
398.892	10082
398.971	46182
399.050	25864
399.129	2132
399.208	1794
399.287	1782
399.366	157
399.445	1161
399.524	2059
399.603	234
399.682	3107
399.761	10494
399.840	46654
399.919	42699
399.998	5329
400.077	1185
400.156	-167
400.235	3581
400.313	830
400.392	1500
400.471	11868
400.550	22103
400.629	4943
400.708	2571
400.786	1813
400.865	9059
400.944	11433
401.023	5963
401.102	538
401.180	632
401.259	472
401.338	1552
401.416	2749
401.495	1478
401.574	1521
401.652	1121
401.731	2908
401.810	1620
401.888	341
401.967	-29
402.046	488
402.124	2186
402.203	3108
402.281	1612
402.360	1428
402.438	12046
402.517	9021
402.596	2967
402.674	2535
402.753	1085
402.831	1158
402.910	1154
402.988	5244
403.066	23193
403.145	14716
403.223	5839
403.302	16852
403.380	12347
403.459	11927
403.537	4414
403.615	2303
403.694	-460
403.772	941
403.850	-16
403.929	-324
404.007	-285
404.085	2353
404.164	1141
404.242	872
404.320	3172
404.398	8492
404.477	14431
404.555	71240
404.633	71238
404.711	12278
404.789	3070
404.868	919
404.946	562
405.024	396
405.102	-140
405.180	179
405.258	-277
405.336	941
405.415	0
405.493	3008
405.571	3222
405.649	515
405.727	-405
405.805	2452
405.883	1926
405.961	1796
406.039	3474
406.117	456
406.195	2070
406.273	12653
406.351	60473
406.429	40016
406.507	5895
406.585	1580
406.663	2019
406.740	1725
406.818	1482
406.896	-80
406.974	1428
407.052	2986
407.130	30660
407.208	52094
407.285	10642
407.363	1132
407.441	682
407.519	755
407.596	2064
407.674	4848
407.752	16095
407.830	18979
407.907	7465
407.985	1342
408.063	790
408.141	-137
408.218	3257
408.296	2684
408.373	288
408.451	1355
408.529	1031
408.606	180
408.684	276
408.762	163
408.839	-701
408.917	-445
408.994	267
409.072	-625
409.149	-367
409.227	766
409.304	1617
409.382	1247
409.459	457
409.537	2160
409.614	1326
409.692	292
409.769	512
409.846	2019
409.924	4038
410.001	1745
410.079	1282
410.156	867
410.233	980
410.311	913
410.388	126
410.465	667
410.543	1256
410.620	560
410.697	427
410.775	1407
410.852	-431
410.929	2116
411.006	2567
411.083	379
411.161	4692
411.238	6040
411.315	2722
411.392	772
411.469	1881
411.547	3244
411.624	385
411.701	686
411.778	332
411.855	3404
411.932	1044
412.009	390
412.086	362
412.163	384
412.240	602
412.317	2105
412.394	2109
412.471	878
412.548	-436
412.625	312
412.702	1269
412.779	3563
412.856	2931
412.933	114
413.010	186
413.087	1063
413.164	10074
413.241	18833
413.318	3282
413.395	2026
413.471	2649
413.548	1848
413.625	881
413.702	1085
413.779	1715
413.855	229
413.932	-509
414.009	-786
414.086	-608
414.162	233
414.239	2490
414.316	9966
414.393	28118
414.469	9886
414.546	266
414.623	478
414.699	304
414.776	521
414.853	-319
414.929	630
415.006	462
415.082	1177
415.159	889
415.236	951
415.312	1288
415.389	2073
415.465	3110
415.542	1413
415.618	81
415.695	1924
415.771	430
415.848	629
415.924	1089
416.000	909
416.077	1322
416.153	-1277
416.230	-1487
416.306	-587
416.383	-303
416.459	582
416.535	-112
416.612	-509
416.688	-202
416.764	-569
416.841	-790
416.917	468
416.993	-96
417.069	743
417.146	710
417.222	920
417.298	855
417.374	-187
417.451	1520
417.527	887
417.603	1628
417.679	928
417.755	234
417.831	-915
417.908	587
417.984	-538
418.060	-397
418.136	2540
418.212	3520
418.288	803
418.364	985
418.440	-502
418.516	1360
418.592	2861
418.668	5602
418.744	7074
418.820	5523
418.896	239
418.972	-67
419.048	-514
419.124	2873
419.200	1655
419.276	88
419.352	-1261
419.428	-140
419.504	-282
419.579	628
419.655	405
419.731	379
419.807	4158
419.883	8777
419.959	6913
420.034	1430
420.110	2185
420.186	15274
420.262	14535
420.337	1757
420.413	845
420.489	145
420.565	190
420.640	-424
420.716	236
420.792	-833
420.867	1163
420.943	-307
421.019	2239
421.094	1534
421.170	-25
421.245	-666
421.321	478
421.397	156
421.472	2747
421.548	7829
421.623	6429
421.699	1677
421.774	1245
421.850	480
421.925	2988
422.001	2477
422.076	1924
422.152	2227
422.227	4738
422.302	4954
422.378	6814
422.453	11510
422.529	32066
422.604	115842
422.679	264707
422.755	158210
422.830	41373
422.905	13540
422.981	6483
423.056	3566
423.131	3208
423.207	2110
423.282	1884
423.357	4945
423.432	3491
423.508	3214
423.583	7604
423.658	6261
423.733	1777
423.808	2006
423.883	2808
423.959	1085
424.034	668
424.109	537
424.184	-163
424.259	-181
424.334	448
424.409	-481
424.484	-620
424.559	386
424.634	44
424.709	1148
424.784	1669
424.859	870
424.934	1651
425.009	9556
425.084	20782
425.159	7441
425.234	920
425.309	-597
425.384	-50
425.459	-519
425.534	572
425.609	23
425.683	-281
425.758	-44
425.833	-21
425.908	1748
425.983	4994
426.058	20229
426.132	10058
426.207	1807
426.282	2608
426.357	2173
426.431	842
426.506	695
426.581	986
426.655	344
426.730	-29
426.805	19
426.879	295
426.954	360
427.029	2386
427.103	17176
427.178	52780
427.253	28434
427.327	3115
427.402	2039
427.476	4175
427.551	1312
427.625	1401
427.700	1161
427.774	633
427.849	758
427.923	762
427.998	-166
428.072	566
428.147	3250
428.221	11246
428.296	36747
428.370	22213
428.444	3014
428.519	3426
428.593	8206
428.667	8590
428.742	9878
428.816	8481
428.890	23245
428.965	38466
429.039	13972
429.113	12822
429.188	4408
429.262	1089
429.336	2259
429.410	9440
429.485	6776
429.559	7870
429.633	7184
429.707	1655
429.781	3943
429.855	27731
429.930	46694
430.004	28280
430.078	44247
430.152	40572
430.226	53530
430.300	61935
430.374	11175
430.448	2402
430.522	10562
430.596	41843
430.670	28440
430.744	42352
430.818	81125
430.892	21098
430.966	3374
431.040	1063
431.114	-150
431.188	340
431.262	-37
431.336	298
431.410	2928
431.484	11590
431.557	9284
431.631	826
431.705	869
431.779	4879
431.853	29349
431.927	26685
432.000	2786
432.074	223
432.148	920
432.222	1001
432.295	693
432.369	95
432.443	1345
432.516	17271
432.590	57511
432.664	27929
432.737	2937
432.811	-197
432.885	-739
432.958	329
433.032	-249
433.106	-870
433.179	-603
433.253	-283
433.326	-124
433.400	-558
433.473	-458
433.547	-647
433.620	-4
433.694	1055
433.767	1900
433.841	136
433.914	-605
433.988	-708
434.061	161
434.134	-683
434.208	-765
434.281	-665
434.355	-1383
434.428	-617
434.501	-1029
434.575	-561
434.648	-551
434.721	-716
434.795	225
434.868	-473
434.941	-1133
435.014	-1302
435.088	-596
435.161	-556
435.234	247
435.307	2026
435.381	620
435.454	75
435.527	755
435.600	379
435.673	-202
435.746	-395
435.819	-548
435.892	-705
435.966	-515
436.039	-157
436.112	469
436.185	-217
436.258	-1119
436.331	-1308
436.404	-3
436.477	-899
436.550	-1470
436.623	-1124
436.696	-148
436.769	460
436.842	-372
436.915	143
436.987	949
437.060	-139
437.133	-1148
437.206	-1092
437.279	1082
437.352	-981
437.425	-280
437.498	190
437.570	1631
437.643	2344
437.716	55
437.789	-489
437.861	1609
437.934	7490
438.007	3887
438.080	351
438.152	805
438.225	2456
438.298	22896
438.370	89449
438.443	49379
438.516	10642
438.588	1548
438.661	-410
438.734	-672
438.806	298
438.879	1170
438.951	720
439.024	3289
439.096	413
439.169	57
439.241	-971
439.314	-1294
439.386	241
439.459	1578
439.531	3510
439.604	1073
439.676	-349
439.749	-202
439.821	-658
439.893	-578
439.966	-515
440.038	524
440.110	1251
440.183	-318
440.255	-524
440.327	1471
440.400	7783
440.472	47331
440.544	45653
440.617	7012
440.689	3372
440.761	3284
440.833	6461
440.905	3780
440.978	587
441.050	280
441.122	-333
441.194	-757
441.266	-46
441.338	-277
441.411	1462
441.483	11354
441.555	25106
441.627	7315
441.699	2108
441.771	2232
441.843	725
441.915	-269
441.987	-256
442.059	-308
442.131	611
442.203	1892
442.275	1780
442.347	1468
442.419	2912
442.491	11593
442.563	37932
442.635	26352
442.706	12682
442.778	11105
442.850	2163
442.922	209
442.994	1026
443.066	1405
443.137	1866
443.209	482
443.281	1355
443.353	4053
443.425	17983
443.496	68994
443.568	85941
443.640	38692
443.711	8629
443.783	1695
443.855	1241
443.926	608
443.998	891
444.070	1638
444.141	413
444.213	1065
444.285	2908
444.356	2388
444.428	3148
444.499	-138
444.571	-490
444.642	-87
444.714	870
444.785	1693
444.857	2837
444.928	8168
445.000	4962
445.071	5530
445.143	6811
445.214	3454
445.285	4258
445.357	17767
445.428	46912
445.500	131052
445.571	107399
445.642	49476
445.714	22190
445.785	17813
445.856	5001
445.928	3142
445.999	3620
446.070	1793
446.141	1573
446.213	2952
446.284	1203
446.355	1248
446.426	1169
446.497	-117
446.569	1928
446.640	3544
446.711	3646
446.782	829
446.853	1559
446.924	2309
446.995	1619
447.066	439
447.138	2145
447.209	1861
447.280	-1083
447.351	19
447.422	-1010
447.493	201
447.564	1304
447.635	2053
447.706	1548
447.777	-457
447.847	13
447.918	-668
447.989	578
448.060	977
448.131	4029
448.202	5260
448.273	3070
448.344	1574
448.414	348
448.485	478
448.556	69
448.627	-849
448.698	487
448.768	-1241
448.839	-97
448.910	1643
448.981	2878
449.051	261
449.122	94
449.193	-696
449.263	96
449.334	-420
449.405	-103
449.475	3619
449.546	3546
449.616	2717
449.687	3152
449.758	-145
449.828	64
449.899	-1040
449.969	-451
450.040	-123
450.110	472
450.181	1300
450.251	-284
450.322	-747
450.392	199
450.463	147
450.533	-132
450.604	9
450.674	-184
450.744	-777
450.815	-484
450.885	699
450.955	-180
451.026	-232
451.096	-851
451.166	171
451.237	1730
451.307	9644
451.377	3972
451.447	-361
451.518	-255
451.588	-592
451.658	-627
451.728	106
451.799	8440
451.869	11964
451.939	2922
452.009	-372
452.079	-486
452.149	1191
452.219	928
452.289	10290
452.360	10180
452.430	822
452.500	484
452.570	945
452.640	2637
452.710	6928
452.780	13299
452.850	9214
452.920	9428
452.990	4754
453.060	2202
453.129	1741
453.199	2595
453.269	9938
453.339	30354
453.409	50816
453.479	40383
453.549	62165
453.619	71023
453.688	33812
453.758	4667
453.828	807
453.898	1102
453.968	311
454.037	13
454.087	-14
454.107	-45
454.168	-58
454.177	-89
454.247	-82
454.249	-68
454.316	-339
454.330	-50
454.386	1010
454.411	2532
454.456	4701
454.492	7201
454.525	9341
454.574	4941
454.595	3050
454.655	811
454.665	460
454.734	1264
454.736	1348
454.804	2864
454.817	4375
454.873	9433
454.898	11080
454.943	13577
454.979	9305
455.013	5617
455.060	2532
455.082	1409
455.141	2929
455.152	3173
455.221	8739
455.222	8975
455.291	20262
455.303	20214
455.360	18231
455.384	22668
455.430	25777
455.465	23282
455.499	21472
455.546	15130
455.569	12256
455.627	9371
455.638	8987
455.707	2692
455.708	2709
455.777	785
455.789	852
455.846	1022
455.869	1006
455.916	988
455.950	1168
455.985	1223
456.031	1218
456.054	1204
456.112	960
456.124	916
456.193	805
456.193	780
456.262	1409
456.274	1576
456.332	2036
456.355	2124
456.401	1975
456.436	1717
456.470	1424
456.516	1097
456.540	1030
456.597	1232
456.609	1229
456.678	1523
456.678	1505
456.747	775
456.759	697
456.817	186
456.840	521
456.886	1232
456.920	1215
456.955	1236
457.001	1179
457.024	1196
457.082	2234
457.093	2411
457.162	3482
457.163	3513
457.232	4025
457.243	3828
457.301	2747
457.324	2232
457.370	1388
457.405	1532
457.439	1756
457.485	2067
457.508	2323
457.566	3054
457.577	3140
457.646	3336
457.647	3373
457.715	6590
457.727	7240
457.784	12724
457.808	15434
457.853	18890
457.889	22232
457.922	19851
457.969	14363
457.991	15787
458.050	19593
458.060	20842
458.129	32414
458.130	32863
458.198	29981
458.211	28617
458.267	18287
458.292	12309
458.336	9117
458.372	8127
458.405	10230
458.453	14001
458.474	18822
458.533	35157
458.543	36777
458.611	53488
458.614	54213
458.680	33371
458.694	27164
458.749	15974
458.775	10830
458.818	6898
458.855	5517
458.887	4819
458.936	3897
458.955	3576
459.016	3451
459.024	3449
459.093	4326
459.097	4298
459.162	3915
459.177	4031
459.230	4728
459.257	5223
459.299	5109
459.338	5083
459.368	5337
459.418	5366
459.437	5097
459.499	4210
459.505	4179
459.574	4192
459.579	4186
459.643	3539
459.659	3387
459.711	3386
459.740	3586
459.780	3962
459.820	4464
459.849	4555
459.900	4289
459.917	4257
459.981	4838
459.986	4840
460.054	4164
460.061	4136
460.123	4544
460.141	4861
460.191	6782
460.222	7526
460.260	7938
460.302	9128
460.328	8622
460.382	7011
460.397	7022
460.462	6392
460.465	6501
460.534	10503
460.543	10908
460.602	33210
460.623	41622
460.671	70917
460.703	93173
460.739	84258
460.783	73151
460.808	58175
460.864	12834
460.876	11311
460.944	5357
460.945	5292
461.013	5395
461.024	5400
461.081	5932
461.104	6239
461.150	6014
461.184	5679
461.218	5480
461.264	5131
461.286	5073
461.345	4940
461.355	4854
461.423	4879
461.425	4848
461.491	4628
461.505	4863
461.559	7908
461.585	9037
461.628	14339
461.665	19658
461.696	22624
461.745	29536
461.764	26139
461.825	10811
461.832	10616
461.901	6734
461.905	6693
461.969	6332
461.985	6187
462.037	5940
462.065	5714
462.105	5238
462.145	5165
462.173	7651
462.225	11984
462.241	13117
462.305	18483
462.310	18059
462.378	12052
462.385	11006
462.446	7067
462.465	6164
462.514	6115
462.545	6343
462.582	6040
462.625	5770
462.650	5798
462.705	5761
462.718	5813
462.785	6202
462.786	6242
462.854	8079
462.865	8473
462.922	10244
462.945	11044
462.990	8923
463.025	6767
463.058	6337
463.104	5550
463.126	5294
463.184	5177
463.194	5350
463.262	6216
463.264	6248
463.330	6516
463.344	6631
463.398	7406
463.424	7653
463.466	7269
463.504	6919
463.533	7057
463.583	7253
463.601	7266
463.663	7019
463.669	7183
463.737	9601
463.743	9793
463.805	13718
463.823	14868
463.873	21024
463.903	24859
463.940	27230
463.982	30443
464.008	25375
464.062	13137
464.076	12288
464.142	7295
464.144	7261
464.211	6514
464.221	6493
464.279	6950
464.301	7087
464.347	7999
464.381	8673
464.414	8979
464.461	9497
464.482	9929
464.540	10971
464.550	10619
464.617	7824
464.620	7714
464.685	10883
464.699	11629
464.753	14555
464.779	15991
464.820	17207
464.859	18216
464.888	17079
464.938	15109
464.956	15227
465.018	15438
465.023	15265
465.091	12643
465.098	12363
465.158	12704
465.177	12791
465.226	13061
465.257	13166
465.293	13338
465.336	13501
465.361	14877
465.416	17996
465.428	18563
465.495	21479
465.496	21560
465.563	28579
465.575	29748
465.631	36389
465.654	39479
465.698	27952
465.734	17543
465.765	15708
465.813	12877
465.833	12835
465.893	13031
465.900	13046
465.968	13126
465.972	13097
466.035	12795
466.052	12734
466.102	13339
466.131	13610
466.170	14364
466.210	15108
466.237	14988
466.290	14634
466.304	14859
466.369	15717
466.372	15775
466.439	16602
466.449	16683
466.506	18821
466.528	19601
466.573	22199
466.607	24082
466.641	32627
466.687	44446
466.708	49771
466.766	64340
466.775	60517
466.842	30907
466.845	29435
466.909	22563
466.925	20912
466.977	20068
467.004	19636
467.044	20313
467.083	20904
467.111	22645
467.163	25818
467.178	26796
467.242	30592
467.245	30476
467.312	26771
467.321	26225
467.379	24466
467.400	23749
467.446	24381
467.480	24750
467.559	23919
467.638	20971
467.717	21973
467.796	23764
467.875	24947
467.955	22956
468.034	26309
468.113	48841
468.192	72159
468.271	30962
468.350	22058
468.429	25154
468.508	24819
468.588	21891
468.667	21153
468.746	25091
468.825	23328
468.904	16854
468.983	17868
469.062	24234
469.141	28668
469.220	17025
469.299	15421
469.378	18516
469.456	23735
469.535	21845
469.614	19332
469.693	18571
469.772	21015
469.851	27688
469.930	22899
470.009	18931
470.088	18701
470.166	21361
470.245	25149
470.324	31663
470.403	26335
470.482	21794
470.560	19591
470.639	19907
470.718	23441
470.797	18516
470.875	20006
470.954	26891
471.033	29359
471.111	15346
471.190	15628
471.269	13574
471.347	14272
471.426	14078
471.505	17108
471.583	19570
471.662	18660
471.740	16828
471.819	15937
471.898	15706
471.976	16116
472.055	15056
472.133	16524
472.212	20697
472.290	20366
472.369	15536
472.447	13489
472.526	14641
472.604	15361
472.683	15276
472.761	16699
472.839	15994
472.918	14561
472.996	14015
473.075	15724
473.153	17096
473.231	14544
473.310	16684
473.388	17488
473.466	15432
473.545	17317
473.623	24842
473.701	24814
473.780	16779
473.858	15256
473.936	20087
474.014	15762
474.093	15720
474.171	20964
474.249	26003
474.327	20013
474.405	13853
474.484	13590
474.562	13913
474.640	13733
474.718	14176
474.796	14866
474.874	14753
474.952	13513
475.030	13234
475.108	13738
475.187	16140
475.265	17237
475.343	20902
475.421	24468
475.499	14868
475.577	14714
475.655	16185
475.733	26791
475.811	42294
475.889	41109
475.966	31291
476.044	13635
476.122	16027
476.200	18819
476.278	16194
476.356	12414
476.434	12954
476.512	13955
476.590	18058
476.667	17599
476.745	11898
476.823	12957
476.901	12125
476.979	12743
477.056	11878
477.134	13548
477.212	15921
477.290	13594
477.367	11119
477.445	10735
477.523	11090
477.601	10314
477.678	10676
477.756	11955
477.834	13898
477.911	10594
477.989	10839
478.066	9981
478.144	11777
478.222	13779
478.299	19512
478.377	21337
478.454	11941
478.532	9961
478.609	11078
478.687	12915
478.764	11217
478.842	11803
478.919	13306
478.997	11888
479.074	9735
479.152	10620
479.229	13516
479.307	11255
479.384	8407
479.461	9589
479.539	9418
479.616	11452
479.694	10376
479.771	10461
479.848	11025
479.926	13568
480.003	17259
480.080	9990
480.157	8770
480.235	9067
480.312	9725
480.389	10132
480.467	14280
480.544	19749
480.621	12221
480.698	10255
480.775	12966
480.853	12810
480.930	10736
481.007	10594
481.084	11617
481.161	16445
481.238	14229
481.315	8703
481.392	9191
481.470	11253
481.547	12563
481.624	10486
481.701	8538
481.778	9977
481.855	9838
481.932	14288
482.009	24103
482.086	19650
482.163	10413
482.240	14322
482.317	25027
482.393	22115
482.470	11579
482.547	10261
482.624	9001
482.701	9470
482.778	9413
482.855	9127
482.932	9153
483.009	7732
483.085	10482
483.162	13936
483.239	13806
483.316	10447
483.393	10575
483.469	9332
483.546	11270
483.623	11766
483.699	9038
483.776	9756
483.853	12101
483.930	15489
484.006	33603
484.083	60848
484.160	46187
484.236	70728
484.313	57492
484.389	40577
484.466	37280
484.543	34954
484.619	35567
484.696	36593
484.772	35659
484.849	36971
484.925	33026
485.002	31875
485.078	32541
485.155	33034
485.231	29647
485.308	29441
485.384	30058
485.461	33514
485.537	47097
485.614	56297
485.690	32297
485.766	28695
485.843	29328
485.919	40641
485.995	47486
486.072	27560
486.148	26228
486.224	25874
486.301	27176
486.377	29405
486.453	28949
486.530	30192
486.606	39609
486.682	46106
486.758	46714
486.835	52800
486.911	42822
486.987	60212
487.063	76472
487.139	103939
487.215	79104
487.292	41741
487.368	32831
487.444	35096
487.520	41121
487.596	46938
487.672	61071
487.748	138482
487.824	237017
487.900	105578
487.976	42950
488.052	35459
488.128	37335
488.204	32248
488.280	28300
488.356	30977
488.432	47310
488.508	74011
488.584	37726
488.660	26954
488.736	26564
488.812	28129
488.888	36054
488.964	44015
489.039	88236
489.115	149248
489.191	99354
489.267	29649
489.343	24805
489.418	22223
489.494	22967
489.570	20265
489.646	22714
489.722	22360
489.797	22263
489.873	26480
489.949	51447
490.024	52004
490.100	20614
490.176	21391
490.251	24425
490.327	34780
490.403	21521
490.478	19353
490.554	16632
490.629	19441
490.705	17343
490.781	19724
490.856	18271
490.932	22507
491.007	22267
491.083	21779
491.158	19386
491.234	21500
491.309	37793
491.385	43669
491.460	21014
491.536	19610
491.611	20137
491.686	20949
491.762	30376
491.837	55412
491.913	97515
491.988	123272
492.063	186818
492.139	49720
492.214	26804
492.289	16216
492.365	14858
492.440	18658
492.515	17120
492.590	18156
492.666	15041
492.741	18092
492.816	25857
492.891	17583
492.967	16776
493.042	14849
493.117	16796
493.192	18677
493.267	30512
493.342	93841
493.418	153074
493.493	31595
493.568	13700
493.643	13410
493.718	16942
493.793	21413
493.868	31554
493.943	21234
494.018	15686
494.093	13160
494.168	12350
494.243	12052
494.318	11883
494.393	11618
494.468	11657
494.543	11416
494.618	14816
494.693	12880
494.768	10973
494.842	12679
494.917	11097
494.992	13439
495.067	12319
495.142	10687
495.217	13455
495.292	13252
495.366	15491
495.441	19589
495.516	24540
495.591	33168
495.665	104049
495.740	293350
495.815	145904
495.890	23432
495.964	14621
496.039	17080
496.114	15611
496.188	17799
496.263	18922
496.338	14067
496.412	15625
496.487	17909
496.561	20055
496.636	23052
496.710	17018
496.785	17836
496.860	20026
496.934	17805
497.009	16852
497.083	16900
497.158	17480
497.232	19909
497.307	25254
497.381	22196
497.455	24418
497.530	30953
497.604	26523
497.679	26386
497.753	37703
497.827	52096
497.902	52314
497.976	56190
498.050	87450
498.125	315685
498.199	403744
498.273	88201
498.348	66403
498.422	53819
498.496	49372
498.570	44509
498.645	32114
498.719	30858
498.793	32211
498.867	42727
498.941	53342
499.016	111304
499.090	354957
499.164	164157
499.238	23289
499.312	17768
499.386	25118
499.460	22269
499.534	18622
499.609	21217
499.683	29190
499.757	29449
499.831	46930
499.905	202771
499.979	244120
500.053	39595
500.127	37645
500.201	33392
500.275	19437
500.349	17238
500.422	19880
500.496	29417
500.570	59976
500.644	119201
500.718	238982
500.792	71327
500.866	16399
500.940	20571
501.013	18517
501.087	17716
501.161	32168
501.235	40001
501.309	59201
501.382	179539
501.456	198349
501.530	42777
501.603	61609
501.677	31669
501.751	13030
501.825	15290
501.898	24258
501.972	71303
502.046	58312
502.119	16224
502.193	32730
502.266	81617
502.340	48435
502.413	32605
502.487	70072
502.561	45221
502.634	16846
502.708	13781
502.781	12851
502.855	11138
502.928	8141
503.002	9169
503.075	9080
503.149	9286
503.222	9392
503.295	11852
503.369	13167
503.442	16707
503.516	45057
503.589	136893
503.662	103204
503.736	30728
503.809	62407
503.882	60543
503.956	74227
504.029	92525
504.102	76897
504.175	113220
504.249	46999
504.322	22773
504.395	17402
504.468	11902
504.542	10306
504.615	9198
504.688	9432
504.761	7753
504.834	11249
504.907	14782
504.980	25651
505.053	12723
505.127	14937
505.200	18342
505.273	13183
505.346	9641
505.419	6650
505.492	6991
505.565	5843
505.638	6290
505.711	6350
505.784	6493
505.857	5928
505.930	7734
506.003	6506
506.076	9379
506.149	10381
506.221	12452
506.294	11862
506.367	23601
506.440	97269
506.513	69612
506.586	14572
506.659	9878
506.731	8775
506.804	9177
506.877	16366
506.950	11162
507.022	7238
507.095	8408
507.168	12514
507.241	8518
507.313	7385
507.386	8412
507.459	14162
507.531	9316
507.604	7239
507.677	7671
507.749	6057
507.822	11070
507.894	22999
507.967	30956
508.040	18049
508.112	13740
508.185	13565
508.257	11487
508.330	19145
508.402	13063
508.475	11646
508.547	12549
508.620	11241
508.692	16348
508.765	12970
508.837	8624
508.909	9807
508.982	9822
509.054	11536
509.127	10505
509.199	8655
509.271	9205
509.344	8043
509.416	8661
509.488	9106
509.560	10311
509.633	11819
509.705	13295
509.777	12121
509.849	16866
509.922	13709
509.994	10074
510.066	10117
510.138	11104
510.210	24520
510.283	23316
510.355	18891
510.427	16387
510.499	16843
510.571	19254
510.643	15124
510.715	22322
510.787	21053
510.859	14521
510.931	15912
511.003	20616
511.076	20875
511.148	12102
511.219	11884
511.291	17085
511.363	21036
511.435	13715
511.507	11328
511.579	11563
511.651	12183
511.723	11455
511.795	10998
511.867	11541
511.939	12147
512.010	21835
512.082	20975
512.154	12229
512.226	12633
512.298	18557
512.369	30279
512.441	23803
512.513	21568
512.585	17929
512.656	17824
512.728	17630
512.800	15266
512.871	13538
512.943	15214
513.015	13057
513.086	15359
513.158	15683
513.230	15762
513.301	21399
513.373	26035
513.444	16336
513.516	13156
513.588	13165
513.659	15896
513.731	18864
513.802	17230
513.874	28768
513.945	60780
514.016	24136
514.088	13347
514.159	14752
514.231	18321
514.302	27694
514.374	19513
514.445	16954
514.516	27916
514.588	22983
514.659	15691
514.730	24629
514.802	23383
514.873	21000
514.944	22390
515.016	18260
515.087	20501
515.158	19726
515.229	28620
515.301	22186
515.372	29685
515.443	19820
515.514	17334
515.585	13820
515.656	15601
515.728	13560
515.799	12851
515.870	13585
515.941	13411
516.012	14057
516.083	18982
516.154	21282
516.225	26491
516.296	25949
516.367	23914
516.438	25475
516.509	32903
516.580	42627
516.651	98559
516.722	409178
516.793	232062
516.864	46995
516.935	41697
517.006	46720
517.077	61290
517.148	119917
517.219	379743
517.289	765560
517.360	191617
517.431	69526
517.502	24331
517.573	20672
517.643	20351
517.714	22051
517.785	24174
517.856	23263
517.926	31262
517.997	35362
518.068	47614
518.138	63687
518.209	83288
518.280	240791
518.350	1048805
518.421	518114
518.492	68433
518.562	37732
518.633	33405
518.703	34734
518.774	52651
518.845	116072
518.915	128768
518.986	49795
519.056	33435
519.127	49561
519.197	66573
519.268	120004
519.338	89702
519.408	24766
519.479	31401
519.549	23576
519.620	16191
519.690	12447
519.760	12872
519.831	13813
519.901	13944
519.971	10768
520.042	11890
520.112	12863
520.182	15665
520.253	18739
520.323	11937
520.393	11053
520.463	15644
520.534	8992
520.604	15997
520.674	13701
520.744	12782
520.814	19909
520.885	22873
520.955	29431
521.025	120713
521.095	67072
521.165	13731
521.235	11438
521.305	10414
521.375	11372
521.445	12589
521.515	16064
521.585	19747
521.655	18863
521.725	15879
521.795	16251
521.865	10078
521.935	15754
522.005	14239
522.075	9535
522.145	11082
522.215	10711
522.285	16720
522.355	19696
522.424	33942
522.494	35197
522.564	21138
522.634	33563
522.704	125642
522.774	57199
522.843	12738
522.913	12155
522.983	16991
523.053	13036
523.122	13681
523.192	17024
523.262	60567
523.331	77334
523.401	15815
523.471	8677
523.540	10174
523.610	7727
523.680	7452
523.749	9082
523.819	10335
523.888	9994
523.958	7927
524.027	8403
524.097	9678
524.166	8515
524.236	10377
524.305	11173
524.375	8639
524.444	6905
524.514	9286
524.583	8634
524.653	9662
524.722	12245
524.791	8031
524.861	9921
524.930	7359
524.999	8552
525.069	12814
525.138	10864
525.207	11371
525.277	9134
525.346	9678
525.415	8412
525.484	10017
525.554	10162
525.623	12790
525.692	13052
525.761	13528
525.830	15315
525.900	19028
525.969	26952
526.038	43961
526.107	74473
526.176	241767
526.245	230753
526.314	74077
526.383	121705
526.452	185966
526.522	267147
526.591	335915
526.660	100301
526.729	57681
526.797	55298
526.867	89502
526.935	362787
527.004	690731
527.073	454688
527.142	49324
527.211	21613
527.280	19042
527.349	18545
527.418	9668
527.487	9390
527.555	7886
527.624	7427
527.693	6247
527.762	8728
527.831	6748
527.899	7504
527.968	7619
528.037	6500
528.106	9942
528.174	19229
528.243	15082
528.312	18541
528.380	32293
528.449	10824
528.518	7265
528.586	4294
528.655	6265
528.723	6124
528.792	5720
528.861	6195
528.929	5187
528.998	5928
529.066	4871
529.135	5009
529.203	5479
529.272	4452
529.340	6065
529.409	7601
529.477	5421
529.545	6428
529.614	9184
529.682	6436
529.751	10738
529.819	10317
529.887	8132
529.956	5886
530.024	6482
530.092	5465
530.161	7505
530.229	13933
530.297	8672
530.365	6562
530.434	5295
530.502	5114
530.570	6118
530.638	2878
530.707	6103
530.775	7781
530.843	5472
530.911	5316
530.979	4983
531.047	4585
531.115	6115
531.183	5391
531.252	6054
531.320	5339
531.388	4998
531.456	5966
531.524	3925
531.592	5701
531.660	8199
531.728	5081
531.796	5397
531.864	4469
531.932	6494
532.000	6496
532.067	6732
532.135	8297
532.203	10043
532.271	9037
532.339	16308
532.407	48847
532.475	36532
532.542	15977
532.610	16971
532.678	20050
532.746	69451
532.814	244532
532.881	66357
532.949	12116
533.017	8826
533.084	6907
533.152	6655
533.220	6316
533.287	8002
533.355	6168
533.423	6063
533.490	6003
533.558	6001
533.625	6695
533.693	7629
533.761	7761
533.828	8343
533.896	7816
533.963	16143
534.031	21001
534.098	31078
534.166	15774
534.233	7902
534.300	8655
534.368	9365
534.435	6971
534.503	9102
534.570	9754
534.637	10681
534.705	12188
534.772	14275
534.840	21049
534.907	96087
534.974	158609
535.041	22617
535.109	11588
535.176	8374
535.243	7822
535.310	8604
535.378	6913
535.445	7128
535.512	6278
535.579	6816
535.646	5599
535.714	8221
535.781	9735
535.848	10131
535.915	9407
535.982	8471
536.049	7995
536.116	10594
536.183	8276
536.250	8553
536.317	9362
536.384	10895
536.451	15640
536.518	17564
536.585	11757
536.652	15901
536.719	21431
536.786	17950
536.853	14307
536.920	18946
536.987	30690
537.053	29441
537.120	100137
537.187	111053
537.254	12401
537.321	8966
537.388	10382
537.454	7330
537.521	7292
537.588	7125
537.654	9347
537.721	11160
537.788	11606
537.855	8091
537.921	7881
537.988	9400
538.055	10102
538.121	8405
538.188	10019
538.254	15121
538.321	31622
538.388	21309
538.454	10320
538.521	9266
538.587	7577
538.654	8103
538.720	7304
538.787	7997
538.853	8661
538.920	10963
538.986	11084
539.053	9039
539.119	9643
539.185	9398
539.252	11291
539.318	19510
539.385	15049
539.451	12834
539.517	12875
539.583	14018
539.650	26383
539.716	85479
539.782	28749
539.849	9948
539.915	10251
539.981	10874
540.047	12882
540.114	11237
540.180	12346
540.246	12490
540.312	16502
540.378	30579
540.444	34455
540.510	28454
540.576	94262
540.643	36020
540.709	9498
540.775	9139
540.841	8771
540.907	12323
540.973	17233
541.039	17519
541.105	19967
541.171	12056
541.237	9417
541.303	10669
541.369	13188
541.435	15809
541.500	26558
541.566	17892
541.632	10062
541.698	8580
541.764	8585
541.830	8869
541.896	7725
541.961	9052
542.027	9141
542.093	10411
542.159	10850
542.224	11313
542.290	17695
542.356	26117
542.421	31938
542.487	16814
542.553	11462
542.618	11651
542.684	11012
542.750	10752
542.815	12410
542.881	18646
542.947	73009
543.012	68654
543.078	11371
543.143	10198
543.209	10659
543.274	10111
543.340	12315
543.405	26119
543.471	52122
543.536	13544
543.602	9286
543.667	8120
543.732	9254
543.798	7303
543.863	8795
543.928	7725
543.994	7667
544.059	9345
544.124	8984
544.190	9096
544.255	10349
544.320	9714
544.386	10625
544.451	14886
544.516	17647
544.581	16781
544.646	41349
544.712	84896
544.777	18571
544.842	12194
544.907	11475
544.972	10579
545.037	10769
545.102	12074
545.168	11630
545.233	12447
545.298	13533
545.363	15515
545.428	17066
545.493	27032
545.558	65479
545.623	31199
545.688	12398
545.753	11400
545.818	11235
545.883	10995
545.947	11963
546.012	12976
546.077	13087
546.142	13259
546.207	13118
546.272	17707
546.337	17575
546.401	14932
546.466	15011
546.531	12029
546.596	14513
546.661	14308
546.725	14229
546.790	12379
546.855	14023
546.919	14099
546.984	15674
547.049	16659
547.113	18306
547.178	18325
547.243	21480
547.307	23467
547.372	27411
547.436	30083
547.501	24684
547.565	28514
547.630	29620
547.695	28394
547.759	28230
547.823	27932
547.888	24770
547.952	25464
548.017	25471
548.081	30501
548.146	32844
548.210	31406
548.274	27839
548.339	28064
548.403	25819
548.468	24598
548.532	24375
548.596	24383
548.660	25437
548.725	27317
548.789	30350
548.853	31629
548.917	28159
548.982	30705
549.046	29643
549.110	23068
549.174	23452
549.238	24862
549.303	26724
549.367	29764
549.431	26479
549.495	24941
549.559	25404
549.623	28449
549.687	33562
549.751	40090
549.815	38415
549.879	38147
549.943	33205
550.007	36032
550.071	37583
550.135	39932
550.199	34551
550.263	32576
550.327	31540
550.391	35221
550.455	34986
550.519	35303
550.582	38281
550.646	45531
550.710	49022
550.774	41342
550.838	42535
550.901	43213
550.965	46488
551.029	48796
551.093	54473
551.156	60728
551.220	79744
551.284	98459
551.347	66291
551.411	66369
551.475	76192
551.538	46903
551.602	42667
551.666	39043
551.729	35354
551.793	36088
551.856	36320
551.920	35395
551.983	34166
552.047	34393
552.110	33665
552.174	35833
552.237	35094
552.301	32943
552.364	32654
552.428	31319
552.491	32004
552.554	33892
552.618	32670
552.681	34998
552.745	34463
552.808	41759
552.871	53515
552.934	42978
552.998	35518
553.061	34005
553.124	32587
553.187	32605
553.251	34527
553.314	35397
553.377	35148
553.440	42469
553.503	71296
553.567	119359
553.630	45493
553.693	34076
553.756	34295
553.819	32777
553.882	30941
553.945	31922
554.008	32071
554.071	29886
554.134	31553
554.197	30493
554.260	28805
554.323	32501
554.386	31859
554.449	31380
554.512	31819
554.575	29707
554.638	29878
554.701	30888
554.764	28183
554.827	28526
554.889	28069
554.952	25731
555.015	25828
555.078	24910
555.141	26376
555.203	26266
555.266	25517
555.329	26559
555.391	24702
555.454	25369
555.517	26101
555.580	24118
555.642	21439
555.705	22540
555.768	22796
555.830	22993
555.893	21218
555.955	20460
556.018	20896
556.080	20447
556.143	21456
556.206	20336
556.268	21543
556.330	21386
556.393	21258
556.455	20031
556.518	23081
556.580	25124
556.643	19275
556.705	17589
556.767	16856
556.830	18520
556.892	19434
556.955	27416
557.017	23932
557.079	18757
557.142	17532
557.204	18644
557.266	32802
557.328	30906
557.391	15427
557.453	15559
557.515	15982
557.577	18650
557.639	20252
557.701	16108
557.764	15170
557.826	17248
557.888	20327
557.950	20212
558.012	21734
558.074	26696
558.136	54012
558.198	158893
558.260	66087
558.322	22736
558.384	23970
558.446	28223
558.508	34648
558.570	44662
558.632	62947
558.694	91222
558.756	100385
558.818	259045
558.880	777290
558.942	282821
559.003	170637
559.065	100982
559.127	38610
559.189	38888
559.251	42529
559.312	56880
559.374	119236
559.436	460473
559.498	280230
559.559	46549
559.621	37623
559.683	40692
559.744	61717
559.806	190152
559.868	353780
559.929	75498
559.991	37390
560.052	50092
560.114	142867
560.176	107434
560.237	76022
560.299	148168
560.360	39310
560.422	16018
560.483	13155
560.545	11865
560.606	11979
560.667	10570
560.729	10576
560.790	10950
560.852	10366
560.913	10603
560.974	9978
561.036	9972
561.097	11174
561.158	11549
561.220	11212
561.281	11241
561.342	11956
561.403	13436
561.465	15963
561.526	35056
561.587	55214
561.648	17685
561.709	11434
561.771	10486
561.832	9839
561.893	9737
561.954	9411
562.015	10283
562.076	9825
562.137	9731
562.198	10140
562.259	10587
562.320	10050
562.381	10806
562.442	15411
562.503	13571
562.564	8786
562.625	9959
562.686	9133
562.747	10122
562.808	9614
562.869	9106
562.930	11522
562.991	10864
563.051	10128
563.112	8294
563.173	9090
563.234	9325
563.294	9329
563.355	9016
563.416	9840
563.477	9392
563.537	9397
563.598	9608
563.659	10315
563.720	9174
563.780	10218
563.841	10787
563.901	10340
563.962	9496
564.023	8936
564.083	9706
564.144	9539
564.204	9947
564.265	9638
564.325	11128
564.386	16764
564.446	18196
564.507	10322
564.567	8703
564.628	9359
564.688	9104
564.749	9091
564.809	10477
564.869	12327
564.930	10192
564.990	9545
565.050	9433
565.111	8750
565.171	9618
565.231	9290
565.292	10216
565.352	8389
565.412	9732
565.472	10211
565.532	10645
565.593	10382
565.653	9769
565.713	9865
565.773	11224
565.833	11830
565.893	16267
565.953	12301
566.013	10524
566.074	11356
566.134	13822
566.194	17959
566.254	22341
566.314	15066
566.374	12540
566.434	12014
566.494	13033
566.554	12607
566.614	13632
566.673	12789
566.733	14744
566.793	15177
566.853	15096
566.913	15236
566.973	15592
567.033	15870
567.092	15654
567.152	15823
567.212	16274
567.272	16245
567.331	17238
567.391	17417
567.451	18453
567.511	21585
567.570	21625
567.630	17126
567.690	17629
567.749	16429
567.809	18409
567.868	20987
567.928	24004
567.988	27208
568.047	32821
568.107	37327
568.166	49059
568.226	76278
568.285	110403
568.345	100976
568.404	81446
568.464	68173
568.523	64204
568.582	63053
568.642	68253
568.701	83293
568.761	114268
568.820	180967
568.879	195088
568.939	144719
568.998	108396
569.057	82110
569.116	64175
569.176	52560
569.235	44325
569.294	36453
569.353	33222
569.413	28939
569.472	25391
569.531	22995
569.590	21590
569.649	19355
569.708	17564
569.767	17048
569.827	17366
569.886	17129
569.945	13768
570.004	14427
570.063	13387
570.122	13494
570.181	14245
570.240	13925
570.299	14277
570.358	13990
570.417	12210
570.475	10424
570.534	12789
570.593	11910
570.652	12582
570.711	11484
570.770	10506
570.829	12705
570.887	12279
570.946	13468
571.005	10537
571.064	9646
571.122	10455
571.181	10933
571.240	9972
571.299	8071
571.357	9986
571.416	9076
571.475	9964
571.533	11424
571.592	9685
571.650	9415
571.709	9285
571.768	9359
571.826	9311
571.885	8706
571.943	8710
572.002	7445
572.060	8754
572.119	7309
572.177	7683
572.236	8506
572.294	7518
572.352	8067
572.411	8151
572.469	8136
572.528	6844
572.586	7986
572.644	8473
572.703	10694
572.761	8543
572.819	7020
572.877	7373
572.936	7201
572.994	7547
573.052	6936
573.110	7348
573.169	7537
573.227	7131
573.285	6858
573.343	7044
573.401	6733
573.459	7406
573.517	7540
573.576	6697
573.634	7550
573.692	7723
573.750	7106
573.808	7025
573.866	6761
573.924	9079
573.982	9050
574.040	7169
574.098	6611
574.155	6821
574.213	7064
574.271	7399
574.329	7043
574.387	6755
574.445	5534
574.503	6647
574.560	5696
574.618	6521
574.676	5942
574.734	6374
574.792	6276
574.849	6390
574.907	6416
574.965	5789
575.022	5197
575.080	5707
575.138	6430
575.195	6371
575.253	7043
575.311	7250
575.368	6392
575.426	5435
575.483	7577
575.541	6262
575.598	6036
575.656	6023
575.713	6449
575.771	5894
575.828	6749
575.886	6063
575.943	6649
576.001	6484
576.058	6759
576.115	7012
576.173	7518
576.230	8693
576.287	11067
576.345	8519
576.402	6659
576.459	7168
576.517	6254
576.574	7152
576.631	7129
576.688	6724
576.746	5467
576.803	6214
576.860	6299
576.917	7478
576.974	5941
577.031	5870
577.089	6484
577.146	6322
577.203	6429
577.260	6751
577.317	7374
577.374	7303
577.431	7596
577.488	7238
577.545	6171
577.602	7741
577.659	7020
577.716	6655
577.773	7845
577.830	7541
577.886	6227
577.943	6896
578.000	6995
578.057	7349
578.114	7343
578.171	8181
578.227	9229
578.284	7551
578.341	7336
578.398	7157
578.454	6649
578.511	7171
578.568	9124
578.625	7322
578.681	5935
578.738	6038
578.794	5748
578.851	6113
578.908	5858
578.964	6400
579.021	6884
579.077	6255
579.134	5964
579.190	6779
579.247	5636
579.303	6726
579.360	6191
579.416	6226
579.473	5490
579.529	5680
579.586	6125
579.642	6388
579.698	5840
579.755	7527
579.811	6301
579.867	7259
579.924	6790
579.980	6584
580.036	7370
580.093	7762
580.149	8256
580.205	9932
580.261	8097
580.317	8061
580.374	8340
580.430	7971
580.486	8723
580.542	7550
580.598	7918
580.619	7706
580.654	7345
580.692	6932
580.710	6740
580.765	7118
580.767	7135
580.823	7244
580.838	7066
580.879	6618
580.911	6701
580.935	6765
580.984	6929
580.991	6961
581.047	6721
581.057	6870
581.103	7568
581.130	7468
581.159	7348
581.203	7586
581.215	7672
581.270	7543
581.276	7571
581.326	7887
581.349	7711
581.382	7424
581.422	6989
581.438	6815
581.494	7374
581.494	7373
581.550	7608
581.567	7553
581.606	7504
581.640	7637
581.661	7706
581.713	7894
581.717	7916
581.773	8071
581.786	8002
581.829	7753
581.859	7779
581.885	7839
581.932	8189
581.940	8250
581.996	7944
582.004	7902
582.052	7689
582.077	7666
582.107	7629
582.150	7558
582.163	7535
582.219	8309
582.223	8251
582.274	7669
582.296	7692
582.330	7647
582.368	7563
582.386	7590
582.441	8142
582.441	8144
582.497	7643
582.514	7640
582.552	7743
582.587	8158
582.608	8390
582.659	7854
582.663	7815
582.719	7553
582.732	7729
582.774	8346
582.805	8375
582.830	8389
582.877	7909
582.885	7827
582.941	7920
582.950	8085
582.996	8850
583.023	8454
583.052	8180
583.095	8422
583.107	8443
583.162	9614
583.168	9677
583.218	10191
583.240	9929
583.273	9570
583.313	9403
583.328	9329
583.384	8842
583.385	8834
583.439	8682
583.458	8756
583.494	8908
583.531	8719
583.549	8654
583.603	8722
583.605	8720
583.660	8714
583.676	8695
583.715	8629
583.748	8849
583.770	9049
583.820	10036
583.825	10132
583.881	9493
583.893	9456
583.936	9100
583.965	8663
583.991	8387
584.038	8431
584.046	8496
584.101	9458
584.110	9547
584.156	9523
584.183	9522
584.211	9616
584.255	9277
584.266	9158
584.321	8521
584.328	8589
584.376	9548
584.400	9950
584.431	10357
584.472	10130
584.486	10034
584.541	10353
584.545	10326
584.596	9728
584.617	9708
584.651	9930
584.689	10576
584.706	10802
584.761	11338
584.762	11339
584.816	11442
584.834	11483
584.871	11384
584.906	11579
584.926	11698
584.978	12046
584.980	12085
585.035	12548
585.051	13208
585.090	14413
585.123	14318
585.145	14233
585.195	14728
585.200	14836
585.254	17263
585.267	17848
585.309	19598
585.340	21087
585.364	22014
585.412	22728
585.419	22785
585.473	23242
585.484	23866
585.528	27810
585.556	31732
585.583	36333
585.628	50954
585.637	55557
585.692	103406
585.700	115969
585.747	179459
585.772	155258
585.801	110720
585.845	49660
585.856	37789
585.910	23914
585.917	22884
585.965	20122
585.989	19542
586.019	18930
586.061	18154
586.074	17888
586.128	18040
586.133	18044
586.183	18587
586.205	18908
586.237	19296
586.277	19409
586.292	19444
586.346	19515
586.349	19534
586.401	19435
586.421	19570
586.455	20076
586.493	20710
586.509	21712
586.564	25212
586.565	25366
586.618	34452
586.637	36145
586.672	33417
586.709	27888
586.727	25873
586.781	23752
586.781	23749
586.835	23370
586.853	23206
586.889	22653
586.925	22621
586.944	23040
586.996	24656
586.998	24694
587.052	25111
587.068	25485
587.106	26083
587.140	26314
587.161	26532
587.212	27834
587.215	27917
587.269	28958
587.284	29467
587.323	30468
587.356	30937
587.377	31539
587.427	33491
587.431	33599
587.485	35174
587.499	35459
587.539	36711
587.571	37950
587.593	38794
587.643	41139
587.648	41382
587.702	44272
587.715	44925
587.755	47223
587.786	49144
587.810	50812
587.858	54868
587.864	55392
587.917	60388
587.930	61819
587.971	67187
588.001	71156
588.025	74330
588.073	81000
588.079	82052
588.133	93170
588.145	95776
588.187	105425
588.217	113352
588.241	121524
588.288	138742
588.295	141161
588.348	164163
588.360	169655
588.402	192891
588.431	210868
588.456	227908
588.503	264654
588.510	270646
588.564	325510
588.575	338447
588.617	397139
588.646	443409
588.671	497111
588.718	614072
588.725	640929
588.778	880658
588.789	937466
588.832	1287391
588.861	1547228
588.886	1805054
588.932	2251151
588.939	2267277
588.993	2190262
589.004	2202535
589.047	2067098
589.075	1884656
589.100	1619078
589.147	1075574
589.154	1029698
589.207	750581
589.218	702360
589.261	627170
589.290	591928
589.314	600161
589.361	638431
589.368	659213
589.421	867347
589.433	920824
589.475	1302476
589.504	1590844
589.528	1803766
589.576	2110068
589.582	2083737
589.635	1808171
589.647	1722770
589.689	1205541
589.718	837080
589.742	679271
589.790	421610
589.795	406586
589.849	294744
589.861	271728
589.902	229387
589.932	201323
589.955	183587
590.004	149290
590.009	146899
590.062	124538
590.075	119391
590.115	108214
590.146	100302
590.168	95799
590.218	86022
590.222	85336
590.275	77929
590.289	75941
590.328	72074
590.360	69209
590.381	67028
590.431	61943
590.435	61702
590.488	57920
590.503	56890
590.541	53807
590.574	51451
590.594	50334
590.645	47111
590.647	47037
590.700	45296
590.716	44778
590.753	42740
590.787	40655
590.806	40130
590.859	39249
590.859	39233
590.912	37720
590.930	37256
590.965	36477
591.001	35633
591.018	35065
591.071	33414
591.072	33391
591.124	33082
591.143	32989
591.177	32480
591.214	31835
591.230	31635
591.283	31049
591.285	31014
591.336	31139
591.356	31211
591.389	30994
591.427	30539
591.442	30088
591.495	28372
591.498	28241
591.547	27469
591.569	27080
591.600	26883
591.640	26593
591.653	26554
591.706	26388
591.711	26361
591.759	26360
591.782	26297
591.811	27363
591.853	29000
591.864	28461
591.917	25416
591.924	24973
591.969	24732
591.995	24547
592.022	24469
592.066	24412
592.075	24662
592.127	26050
592.137	26294
592.180	27984
592.208	29034
592.233	27828
592.279	25416
592.285	25232
592.338	23541
592.350	23148
592.390	23040
592.421	22917
592.443	23033
592.491	23258
592.495	23247
592.548	22839
592.562	22709
592.600	22297
592.633	21927
592.653	21842
592.704	21479
592.705	21607
592.775	21901
592.846	21558
592.916	22119
592.987	21948
593.058	21441
593.128	20801
593.199	19331
593.270	20569
593.341	19190
593.411	20039
593.482	20003
593.553	19083
593.623	19906
593.694	20389
593.764	20807
593.835	19084
593.906	18453
593.976	18177
594.047	20148
594.117	22501
594.188	22433
594.258	18650
594.329	18965
594.399	19291
594.470	18134
594.540	17652
594.611	17839
594.681	18465
594.751	18309
594.822	19629
594.892	19955
594.963	21383
595.033	19978
595.103	20592
595.174	21635
595.244	26325
595.314	33282
595.384	21667
595.455	19948
595.525	20487
595.595	20892
595.665	21829
595.736	20196
595.806	21533
595.876	20480
595.946	20663
596.016	20434
596.087	20556
596.157	19992
596.227	19912
596.297	20627
596.367	22431
596.437	24552
596.507	26757
596.577	34781
596.647	24370
596.717	22058
596.787	23200
596.857	21540
596.927	22565
596.997	23161
597.067	23576
597.137	24513
597.207	24090
597.277	23083
597.347	23628
597.417	22377
597.487	22148
597.557	23847
597.626	24353
597.696	24841
597.766	27225
597.836	31587
597.906	25594
597.975	21300
598.045	21227
598.115	21762
598.185	22577
598.254	23881
598.324	25914
598.394	25244
598.464	25974
598.533	23935
598.603	23815
598.672	23334
598.742	23362
598.812	22761
598.881	23458
598.951	23333
599.020	23192
599.090	23555
599.159	23613
599.229	24191
599.299	22627
599.368	23074
599.437	23212
599.507	21183
599.576	22561
599.646	23034
599.715	21850
599.785	21166
599.854	22119
599.924	22671
599.993	23428
600.062	20293
600.132	21614
600.201	22174
600.270	25154
600.340	24334
600.409	24329
600.478	25153
600.547	24046
600.617	23673
600.686	21183
600.755	20987
600.824	20769
600.894	19897
600.963	19020
601.032	18834
601.101	19468
601.170	18350
601.239	17702
601.308	18121
601.378	18414
601.447	17601
601.516	17007
601.585	17360
601.654	19500
601.723	18080
601.792	17644
601.861	18228
601.930	20602
601.999	20423
602.068	18563
602.137	19430
602.206	19605
602.275	19391
602.343	21155
602.412	21138
602.481	18664
602.550	18829
602.619	18690
602.688	20404
602.756	19253
602.825	19353
602.894	18865
602.963	19517
603.032	19809
603.100	19348
603.169	20152
603.238	19817
603.307	20141
603.375	20472
603.444	20235
603.513	20017
603.581	20382
603.650	19690
603.719	19763
603.787	19994
603.856	21066
603.924	20673
603.993	21486
604.061	21668
604.130	23239
604.198	22476
604.267	23573
604.335	22715
604.404	23266
604.472	22330
604.541	23113
604.609	23055
604.678	23866
604.746	23440
604.815	23314
604.883	23398
604.951	24535
605.020	24306
605.088	24651
605.156	25527
605.225	25841
605.293	25288
605.361	25507
605.429	25348
605.498	26305
605.566	26506
605.634	28339
605.702	27854
605.771	29046
605.839	28922
605.907	29889
605.975	26933
606.043	27545
606.111	27037
606.180	26451
606.248	28797
606.316	28698
606.384	26850
606.452	30522
606.520	31440
606.588	29476
606.656	27460
606.724	26532
606.792	25553
606.860	24323
606.928	22679
606.996	21796
607.064	21345
607.132	21202
607.200	22485
607.267	23705
607.335	23653
607.403	24436
607.471	23325
607.539	23000
607.607	23196
607.674	21479
607.742	21996
607.810	21270
607.878	21237
607.946	20734
608.013	21986
608.081	22495
608.149	21764
608.216	23135
608.284	23789
608.352	22548
608.419	23639
608.487	27936
608.555	24996
608.622	22692
608.690	23357
608.757	26657
608.825	26603
608.893	26718
608.960	27504
609.028	28646
609.095	29650
609.163	25587
609.230	23024
609.298	21937
609.365	20786
609.432	21609
609.500	24072
609.567	27163
609.635	28942
609.702	30704
609.769	30186
609.837	27467
609.904	23208
609.971	22620
610.039	26222
610.106	31878
610.173	58533
610.241	136514
610.308	107119
610.375	36616
610.442	24925
610.509	23676
610.577	23034
610.644	22872
610.711	21724
610.778	23446
610.845	24051
610.912	26362
610.980	27729
611.047	28978
611.114	28759
611.181	26241
611.248	24313
611.315	26824
611.382	26334
611.449	27403
611.516	27883
611.583	27865
611.650	27249
611.717	28347
611.784	29467
611.851	31062
611.918	34915
611.984	40416
612.051	58504
612.118	120508
612.185	304022
612.252	258371
612.319	57335
612.386	38907
612.452	34033
612.519	33750
612.586	36527
612.653	34845
612.719	32613
612.786	31194
612.853	29485
612.919	27583
612.986	28767
613.053	26338
613.120	24876
613.186	24485
613.253	25662
613.319	25026
613.386	25882
613.453	25762
613.519	27062
613.586	28558
613.652	34856
613.719	32310
613.785	29881
613.852	26452
613.918	26186
613.985	26936
614.051	30378
614.118	41691
614.184	45721
614.250	28434
614.317	26582
614.383	25539
614.449	25027
614.516	26332
614.582	26661
614.648	25941
614.715	24834
614.781	24613
614.847	25619
614.914	26045
614.980	25476
615.046	25645
615.112	26318
615.179	26265
615.245	27779
615.311	32325
615.377	44178
615.443	53562
615.509	36050
615.575	31530
615.642	29699
615.708	30439
615.774	32995
615.840	36401
615.906	43433
615.972	62655
616.038	111962
616.104	200455
616.170	404954
616.236	444521
616.302	99456
616.368	55672
616.434	41459
616.500	36507
616.565	37275
616.631	45426
616.697	40302
616.763	39336
616.829	51935
616.895	91008
616.961	99901
617.026	49457
617.092	31869
617.158	29834
617.224	28021
617.289	26617
617.355	25672
617.421	26527
617.487	27377
617.552	25435
617.618	22819
617.684	23254
617.749	26079
617.815	23791
617.880	22384
617.946	23640
618.012	23749
618.077	23376
618.143	23365
618.208	23478
618.274	24521
618.339	25633
618.405	22423
618.470	22111
618.536	22383
618.601	24010
618.667	23374
618.732	21727
618.798	20634
618.863	20755
618.928	20244
618.994	21144
619.059	22634
619.124	26768
619.190	23728
619.255	20425
619.320	21172
619.386	20926
619.451	20216
619.516	19645
619.581	20613
619.647	20322
619.712	20685
619.777	19785
619.842	19437
619.907	20981
619.972	20162
620.038	21150
620.103	19403
620.168	19409
620.233	19546
620.298	20596
620.363	19043
620.428	20217
620.493	21143
620.558	20119
620.623	20400
620.688	20250
620.753	20608
620.818	20341
620.883	21055
620.948	19798
621.013	20529
621.078	20975
621.143	19796
621.207	23687
621.272	21665
621.337	23161
621.402	24303
621.467	26728
621.532	28930
621.596	25260
621.661	23378
621.726	21884
621.791	21910
621.855	22134
621.920	22517
621.985	23459
622.049	26155
622.114	24644
622.179	23883
622.243	24570
622.308	23589
622.373	26025
622.437	25002
622.502	23487
622.566	22588
622.631	22757
622.695	23586
622.760	24184
622.824	22852
622.889	23800
622.953	24517
623.018	30756
623.082	31608
623.147	25049
623.211	24240
623.276	23819
623.340	21441
623.404	21186
623.469	22523
623.533	22670
623.597	20676
623.662	22768
623.726	20507
623.790	19773
623.854	20278
623.919	20097
623.983	20075
624.047	20118
624.111	20175
624.176	20847
624.240	21551
624.304	24211
624.368	20041
624.432	19999
624.496	21348
624.560	21837
624.625	23240
624.689	22244
624.753	21600
624.817	20257
624.881	19442
624.945	19254
625.009	19234
625.073	19466
625.137	20843
625.201	23508
625.265	23310
625.329	20523
625.393	20222
625.456	20829
625.520	20538
625.584	21323
625.648	24431
625.712	31475
625.776	60656
625.839	76317
625.903	38881
625.967	21151
626.031	28779
626.095	45451
626.158	24373
626.222	16542
626.286	16458
626.349	15639
626.413	13673
626.477	16923
626.540	15135
626.604	14149
626.668	15516
626.731	14445
626.795	14220
626.858	15828
626.922	13995
626.986	14032
627.049	13040
627.113	14250
627.176	13659
627.240	14457
627.303	13388
627.366	13628
627.430	13768
627.493	13885
627.557	13826
627.620	14616
627.684	14001
627.747	14141
627.810	12759
627.874	13214
627.937	11994
628.000	14801
628.064	12841
628.127	11249
628.190	13411
628.253	12719
628.317	11340
628.380	11519
628.443	11094
628.506	12014
628.569	11721
628.632	10268
628.696	11272
628.759	10970
628.822	10709
628.885	10016
628.948	10210
629.011	10423
629.074	9320
629.137	9776
629.200	9641
629.263	11970
629.326	9611
629.389	9819
629.452	10093
629.515	10208
629.578	8856
629.641	11157
629.704	9907
629.767	10251
629.830	9077
629.892	9489
629.955	8958
630.018	10181
630.081	9482
630.144	12866
630.207	9537
630.269	11299
630.332	10144
630.395	10593
630.458	8006
630.520	8321
630.583	9496
630.646	8915
630.708	8241
630.771	9077
630.834	8707
630.896	7626
630.959	8391
631.021	7327
631.084	8483
631.146	9390
631.209	10646
631.272	8419
631.334	8941
631.397	8555
631.459	8355
631.522	9093
631.584	8634
631.646	9722
631.709	8840
631.771	11647
631.834	10009
631.896	8700
631.958	7883
632.021	8376
632.083	7034
632.145	7744
632.208	8170
632.270	8962
632.332	7466
632.395	7283
632.457	8195
632.519	7786
632.581	7899
632.643	6439
632.706	7599
632.768	7126
632.830	7898
632.892	7037
632.954	7879
633.016	8398
633.078	7113
633.141	6902
633.203	6705
633.265	8059
633.327	7238
633.389	7056
633.451	8522
633.513	10018
633.575	8672
633.637	9521
633.698	8752
633.760	8520
633.822	7699
633.884	7795
633.946	7430
634.008	7353
634.070	7641
634.132	9448
634.193	8635
634.255	8737
634.317	8727
634.379	10311
634.441	8064
634.502	7914
634.564	7555
634.626	7429
634.687	7606
634.749	7848
634.811	7365
634.873	6543
634.934	6204
634.996	6474
635.057	6516
635.119	6059
635.181	7308
635.242	8026
635.304	5212
635.365	7571
635.427	7346
635.488	6605
635.550	6924
635.611	7071
635.673	5453
635.734	8589
635.796	7553
635.857	8542
635.918	7152
635.980	8502
636.041	8102
636.102	9616
636.164	8678
636.225	9800
636.286	7690
636.348	8178
636.409	6693
636.470	5788
636.531	6474
636.593	7489
636.654	7395
636.715	6478
636.776	5308
636.838	6190
636.899	6205
636.960	7182
637.021	4906
637.082	6122
637.143	6594
637.204	5668
637.265	4743
637.326	6182
637.387	5438
637.448	4809
637.509	5844
637.570	5689
637.631	6682
637.692	5155
637.753	4827
637.814	5473
637.875	5064
637.936	5785
637.997	4885
638.058	6625
638.119	5317
638.179	5078
638.240	4693
638.301	6079
638.362	3596
638.423	4986
638.483	5120
638.544	4401
638.605	5621
638.666	4849
638.726	5308
638.787	6229
638.848	4750
638.908	5984
638.969	5229
639.030	5180
639.090	4022
639.151	5120
639.211	5427
639.272	6701
639.332	9288
639.393	7530
639.453	4150
639.514	5868
639.574	5494
639.635	4617
639.695	5702
639.756	4458
639.816	5441
639.877	5272
639.937	8451
639.997	12292
640.058	5649
640.118	4421
640.178	3839
640.239	3557
640.299	4186
640.359	4595
640.420	4560
640.480	4550
640.540	5581
640.600	4876
640.661	4868
640.721	5126
640.781	6803
640.841	5001
640.901	5314
640.961	5330
641.021	5168
641.082	4347
641.142	7420
641.202	6395
641.262	3161
641.322	5272
641.382	3481
641.442	5069
641.502	3577
641.562	4337
641.622	4347
641.682	4699
641.742	5299
641.802	5481
641.861	4060
641.921	4965
641.981	5704
642.041	5998
642.101	6727
642.161	5526
642.221	3416
642.280	4640
642.340	3787
642.400	4148
642.460	4326
642.519	4820
642.579	4232
642.639	5817
642.698	2662
642.758	5507
642.818	4285
642.877	4019
642.937	3366
642.997	5591
643.056	7166
643.116	4643
643.175	4833
643.235	4485
643.294	3821
643.354	4495
643.414	5040
643.473	6081
643.532	6068
643.592	9386
643.651	14467
643.711	28053
643.770	48026
643.830	111886
643.889	292980
643.948	102770
644.008	13438
644.067	7170
644.126	6066
644.186	5046
644.245	5163
644.304	3531
644.363	5657
644.423	3500
644.482	3808
644.541	4582
644.600	2450
644.659	6471
644.719	5041
644.778	8157
644.837	10947
644.896	22891
644.955	55464
645.014	27922
645.073	6814
645.132	4944
645.191	4693
645.250	4189
645.309	5402
645.368	4483
645.427	5390
645.486	6367
645.545	12539
645.604	5174
645.663	3355
645.722	4326
645.781	4583
645.840	5374
645.898	6484
645.957	8744
646.016	11923
646.075	23574
646.134	44586
646.192	105983
646.251	211783
646.310	43778
646.369	9141
646.427	6747
646.486	5355
646.545	4612
646.603	4338
646.662	4643
646.721	3703
646.779	3790
646.838	3462
646.896	5347
646.955	4742
647.014	8856
647.072	11593
647.131	32660
647.189	22976
647.248	5062
647.306	3783
647.365	4583
647.423	2000
647.481	4801
647.540	2201
647.598	3145
647.657	2898
647.715	3261
647.773	2441
647.832	3110
647.890	2227
647.948	3041
648.007	4211
648.065	3411
648.123	1827
648.181	4483
648.240	3522
648.298	2959
648.356	1792
648.414	3597
648.472	2838
648.531	3488
648.589	2877
648.647	3386
648.705	2716
648.763	3431
648.821	3524
648.879	2714
648.937	3735
648.995	4133
649.053	4134
649.111	5989
649.169	10456
649.227	17735
649.285	31317
649.343	96111
649.401	71298
649.459	16233
649.516	11719
649.574	5509
649.632	10607
649.690	15220
649.748	6643
649.806	6703
649.863	12302
649.921	22999
649.979	21054
650.037	4521
650.094	1934
650.152	3351
650.210	1890
650.268	4316
650.325	1734
650.383	2945
650.440	1125
650.498	2110
650.556	2110
650.613	2072
650.671	2393
650.728	2727
650.786	2008
650.843	2538
650.901	1116
650.958	2642
651.016	1774
651.073	2527
651.131	1234
651.188	1187
651.246	2291
651.303	1156
651.360	2717
651.418	1378
651.475	1939
651.532	2001
651.590	3113
651.647	976
651.704	1967
651.762	1627
651.819	2447
651.876	1692
651.933	1605
651.990	2164
652.048	950
652.105	1218
652.162	1629
652.219	1453
652.276	2014
652.333	2204
652.390	508
652.448	1632
652.505	2100
652.562	1639
652.619	1650
652.676	3010
652.733	3011
652.790	1279
652.847	865
652.904	1900
652.961	432
653.017	1377
653.074	2445
653.131	1460
653.188	516
653.245	1164
653.302	2184
653.359	1416
653.415	1669
653.472	1802
653.529	1486
653.586	1170
653.642	1411
653.699	1805
653.756	634
653.813	1226
653.869	1152
653.926	1065
653.983	1060
654.039	1536
654.096	1407
654.152	2722
654.209	607
654.266	1745
654.322	1097
654.379	2667
654.435	2445
654.492	2430
654.548	3156
654.605	5541
654.661	3669
654.717	2305
654.774	2192
654.830	2027
654.887	1879
654.943	1300
655.000	2306
655.056	1760
655.112	2085
655.168	1918
655.225	1400
655.281	2909
655.337	2188
655.394	5333
655.450	4185
655.506	3471
655.562	4939
655.618	5613
655.675	1156
655.731	2324
655.787	1689
655.843	2669
655.899	1511
655.955	3128
656.011	1857
656.067	1506
656.123	2706
656.179	2483
656.235	3582
656.291	1998
656.347	3437
656.403	2483
656.459	1646
656.515	2561
656.571	2214
656.627	2606
656.683	1976
656.739	2866
656.795	1184
656.850	2871
656.906	2109
656.962	2570
657.018	920
657.074	1824
657.129	1107
657.185	3120
657.241	3120
657.297	2298
657.352	1714
657.408	1417
657.464	1978
657.519	2039
657.575	460
657.630	2054
657.686	1584
657.742	1209
657.797	477
657.853	1225
657.908	2577
657.964	439
658.019	950
658.075	1812
658.130	597
658.186	917
658.241	1527
658.297	604
658.352	921
658.407	2065
658.463	1058
658.518	1966
658.573	456
658.629	1058
658.684	1328
658.739	1642
658.795	-399
658.850	2107
658.905	399
658.960	978
659.016	439
659.071	1288
659.126	1788
659.181	1511
659.236	2699
659.291	4314
659.346	2120
659.401	1990
659.457	1957
659.512	1994
659.567	2428
659.622	1303
659.677	960
659.732	434
659.787	1663
659.842	1871
659.897	2094
659.952	1777
660.007	1639
660.061	1066
660.116	409
660.171	732
660.226	842
660.281	1926
660.336	698
660.391	1915
660.445	461
660.500	1489
660.555	1081
660.610	174
660.664	1203
660.719	593
660.774	1620
660.828	1231
660.883	1192
660.938	2051
660.992	264
661.047	1780
661.101	86
661.156	1185
661.211	800
661.265	929
661.320	586
661.374	1500
661.429	1012
661.483	2204
661.538	1054
661.592	1162
661.647	667
661.701	1378
661.755	1234
661.810	1632
661.864	970
661.919	983
661.973	1312
662.027	1387
662.081	651
662.136	820
662.190	1619
662.244	1357
662.299	703
662.353	1144
662.407	768
662.461	974
662.515	1423
662.569	1315
662.624	2019
662.678	1175
662.732	924
662.786	1137
662.840	849
662.894	1733
662.948	-262
663.002	998
663.056	270
663.110	34
663.164	1108
663.218	1558
663.272	1168
663.326	1063
663.380	836
663.434	1745
663.488	549
663.542	1104
663.595	1667
663.649	1344
663.703	1741
663.757	1882
663.811	1307
663.864	1061
663.918	943
663.972	827
664.026	1110
664.079	730
664.133	1101
664.187	1608
664.240	563
664.294	1069
664.348	808
664.401	1603
664.455	1194
664.508	1054
664.562	1196
664.615	806
664.669	528
664.722	1405
664.776	1286
664.829	1260
664.883	857
664.936	1188
664.990	1035
665.043	1855
665.097	1565
665.150	2359
665.203	1211
665.257	1008
665.310	1084
665.363	1449
665.417	1577
665.470	1929
665.523	966
665.576	1821
665.630	1225
665.683	1543
665.736	741
665.789	1711
665.842	638
665.895	1744
665.949	1286
666.002	1459
666.055	1198
666.108	2457
666.161	977
666.214	1681
666.267	1303
666.320	2085
666.373	2102
666.426	1530
666.479	1391
666.532	1993
666.585	1837
666.638	2392
666.691	1685
666.744	2905
666.796	1844
666.849	1426
666.902	1814
666.955	1607
667.008	409
667.060	994
667.113	897
667.166	0
667.219	1754
667.271	1678
667.324	1004
667.377	1534
667.430	826
667.482	883
667.535	1983
667.587	1814
667.640	1690
667.693	1950
667.745	2489
667.798	4030
667.850	1192
667.903	1569
667.955	1424
668.008	1158
668.060	1695
668.113	1398
668.165	1319
668.218	1553
668.270	1434
668.322	1484
668.375	2012
668.427	2724
668.479	628
668.532	2551
668.584	740
668.636	1120
668.689	1259
668.741	1083
668.793	1511
668.845	1632
668.898	1679
668.950	703
669.002	2034
669.054	553
669.106	538
669.158	1271
669.211	1592
669.263	2209
669.315	2757
669.367	2189
669.419	966
669.471	2562
669.523	1807
669.575	2949
669.627	1626
669.679	1694
669.731	1312
669.783	1951
669.835	1566
669.886	1448
669.938	2455
669.990	1514
670.042	1050
670.094	1713
670.146	1536
670.197	1681
670.249	1629
670.301	1624
670.353	2071
670.404	4044
670.456	2864
670.508	6348
670.560	9469
670.611	16640
670.663	27770
670.715	63020
670.766	134760
670.818	58056
670.869	8357
670.921	3992
670.972	3256
671.024	2395
671.075	1188
671.127	2185
671.178	846
671.230	1661
671.281	1832
671.333	2288
671.384	2478
671.436	2561
671.487	2206
671.538	2692
671.590	3306
671.641	5602
671.692	8059
671.744	15653
671.795	14898
671.846	6548
671.897	3276
671.949	2717
672.000	2259
672.051	2521
672.102	2578
672.153	1809
672.204	1986
672.256	1524
672.307	1521
672.358	1358
672.409	1555
672.460	2485
672.511	565
672.562	1480
672.613	712
672.664	1689
672.715	1125
672.766	1595
672.817	767
672.868	676
672.919	1124
672.970	1098
673.021	1617
673.071	1288
673.122	1157
673.173	1962
673.224	1105
673.275	1261
673.326	571
673.376	2183
673.427	216
673.478	1481
673.528	1363
673.579	801
673.630	591
673.680	1644
673.731	1013
673.782	873
673.832	515
673.883	1034
673.934	1060
673.984	990
674.035	1083
674.085	1520
674.136	1451
674.186	2383
674.237	1299
674.287	2612
674.338	1871
674.388	475
674.438	247
674.489	2059
674.539	653
674.589	1271
674.640	1636
674.690	1062
674.740	412
674.791	1896
674.841	900
674.891	1703
674.942	1647
674.992	1686
675.042	1133
675.092	1654
675.142	1397
675.193	1291
675.243	-43
675.293	1797
675.343	941
675.393	1490
675.443	546
675.493	1343
675.543	1201
675.593	1417
675.643	1254
675.693	2003
675.743	1477
675.793	1828
675.843	519
675.893	1327
675.943	904
675.993	1200
676.043	695
676.093	1597
676.142	460
676.192	782
676.242	1227
676.292	833
676.341	337
676.391	943
676.441	718
676.491	982
676.540	561
676.590	891
676.640	563
676.689	-172
676.739	353
676.789	857
676.838	1038
676.888	709
676.937	22
676.987	1113
677.037	-26
677.086	684
677.136	-10
677.185	760
677.235	714
677.284	550
677.333	814
677.383	446
677.432	29
677.482	733
677.531	1003
677.580	840
677.630	854
677.679	490
677.728	561
677.778	422
677.827	930
677.876	491
677.925	234
677.975	1011
678.024	683
678.073	1060
678.122	747
678.171	517
678.220	473
678.269	603
678.319	528
678.368	461
678.417	476
678.466	1423
678.515	889
678.564	1136
678.613	675
678.662	988
678.711	507
678.760	668
678.809	-413
678.857	855
678.906	908
678.955	1167
679.004	1110
679.053	1072
679.102	782
679.151	155
679.199	-120
679.248	805
679.297	677
679.346	657
679.394	333
679.443	981
679.492	165
679.540	898
679.589	734
679.638	1429
679.686	596
679.735	134
679.784	401
679.832	1020
679.881	533
679.929	775
679.978	-46
680.026	457
680.075	1225
680.123	643
680.172	-11
680.220	382
680.268	650
680.317	282
680.365	-162
680.414	482
680.462	-180
680.510	1107
680.559	590
680.607	-906
680.655	-185
680.703	225
680.752	-434
680.800	-141
680.848	94
680.896	961
680.945	125
680.993	765
681.041	-398
681.089	347
681.137	238
681.185	-128
681.233	-76
681.258	-44
681.281	-32
681.329	-236
681.377	-278
681.380	-234
681.425	288
681.473	1249
681.502	704
681.521	293
681.569	1543
681.617	407
681.624	388
681.665	127
681.713	855
681.745	747
681.761	680
681.809	132
681.857	1294
681.867	1175
681.904	678
681.952	798
681.989	603
682.000	534
682.048	494
682.096	534
682.111	440
682.143	151
682.191	45
682.233	591
682.239	656
682.286	1038
682.334	1049
682.354	871
682.382	613
682.430	557
682.476	650
682.477	637
682.525	373
682.572	210
682.598	259
682.620	285
682.667	756
682.715	1234
682.720	1246
682.763	1206
682.810	706
682.841	794
682.857	798
682.905	458
682.952	1440
682.963	1451
683.000	1494
683.047	1564
683.085	1961
683.095	2033
683.142	747
683.190	1426
683.206	1227
683.237	909
683.284	2161
683.328	1852
683.332	1808
683.379	2185
683.426	1226
683.449	1807
683.473	2391
683.521	2135
683.568	1648
683.571	1679
683.615	1913
683.662	1489
683.693	1446
683.709	1408
683.757	1600
683.804	1810
683.814	1877
683.851	2085
683.898	1911
683.936	1901
683.945	1874
683.992	1752
684.039	2877
684.057	2661
684.086	2314
684.133	2600
684.179	2420
684.180	2403
684.227	2873
684.274	2226
684.300	2419
684.321	2570
684.368	2071
684.415	2570
684.422	2546
684.462	2277
684.509	2224
684.543	2208
684.556	2188
684.603	2652
684.649	1855
684.665	1943
684.696	2215
684.743	2289
684.786	2382
684.790	2374
684.837	1749
684.883	2610
684.908	2438
684.930	2315
684.977	3334
685.023	2908
685.029	2952
685.070	3044
685.117	2274
685.150	2658
685.164	2835
685.210	2747
685.257	3820
685.272	3665
685.303	3270
685.350	3387
685.393	2764
685.396	2716
685.443	3117
685.490	3132
685.514	3320
685.536	3399
685.583	3773
685.629	3539
685.636	3466
685.675	2973
685.722	3533
685.757	3456
685.768	3452
685.815	2844
685.861	3928
685.878	3975
685.908	4037
685.954	3649
686.000	3466
686.000	3461
686.047	3767
686.093	3974
686.121	4131
686.139	4118
686.185	4341
686.232	3943
686.242	3875
686.278	3645
686.324	3429
686.363	3134
686.370	3085
686.416	3304
686.463	3851
686.484	3571
686.509	3262
686.555	3890
686.601	3866
686.606	3878
686.647	4067
686.693	3406
686.727	3865
686.739	3996
686.785	3804
686.831	3691
686.848	3705
686.877	3784
686.923	3856
686.969	3668
686.969	3665
687.015	3680
687.061	3274
687.090	3651
687.107	3866
687.153	4005
687.199	4352
687.211	4144
687.245	3680
687.291	3816
687.332	4402
687.336	4460
687.382	4316
687.428	4165
687.453	4555
687.474	4677
687.520	3544
687.565	3729
687.574	3627
687.611	3747
687.657	4354
687.695	4774
687.702	4825
687.748	5192
687.794	5214
687.816	5268
687.839	5078
687.885	4452
687.931	5061
687.937	4858
687.976	3998
688.022	3837
688.058	4480
688.067	4646
688.113	5101
688.158	4341
688.179	4322
688.204	4236
688.249	4410
688.295	4407
688.300	4414
688.340	4648
688.386	4862
688.421	4737
688.431	4675
688.477	4430
688.522	4836
688.542	4704
688.567	4614
688.613	4806
688.658	5071
688.663	5020
688.703	4711
688.749	5361
688.784	5218
688.794	5113
688.839	5173
688.884	4452
688.905	4449
688.930	4542
688.975	4169
689.020	4770
689.026	4740
689.065	4693
689.110	4441
689.146	4952
689.155	5070
689.201	4921
689.246	4832
689.267	4820
689.291	4846
689.336	4990
689.381	5048
689.388	5053
689.426	4958
689.471	5006
689.509	4821
689.516	4820
689.561	5009
689.606	4552
689.630	4817
689.651	5011
689.696	4539
689.741	4615
689.750	4645
689.785	5112
689.830	5280
689.871	5459
689.875	5416
689.920	5329
689.965	4692
689.992	4539
690.010	4743
690.054	4803
690.099	5373
690.112	5536
690.144	5625
690.189	5338
690.233	4623
690.233	4630
690.278	5129
690.323	5646
690.354	5715
690.367	5739
690.412	5151
690.457	5612
690.474	5616
690.501	5664
690.546	5705
690.590	5823
690.595	5817
690.635	6007
690.680	5930
690.716	6141
690.724	6153
690.769	6480
690.813	6508
690.836	6304
690.857	6542
690.902	7540
690.946	8154
690.957	8422
690.991	10602
691.035	13096
691.077	15886
691.080	15973
691.124	16468
691.168	16815
691.198	17139
691.213	16293
691.257	13943
691.301	11143
691.318	10272
691.346	9815
691.390	8474
691.434	7566
691.439	7476
691.478	7570
691.522	6914
691.559	6560
691.567	6598
691.611	7219
691.655	7012
691.680	7371
691.699	7396
691.743	7028
691.787	6326
691.800	6198
691.831	6210
691.875	6346
691.919	6169
691.921	6154
691.964	6306
692.008	6754
692.041	6776
692.052	6756
692.096	6622
692.139	6948
692.162	6842
692.183	6663
692.227	6500
692.271	6139
692.282	6082
692.315	6174
692.359	6538
692.402	6399
692.403	6413
692.447	6418
692.490	6845
692.523	6705
692.534	6666
692.578	6827
692.622	6923
692.643	6975
692.666	6903
692.709	6436
692.753	6691
692.763	6511
692.797	6191
692.840	6544
692.884	6751
692.884	6768
692.928	6574
692.971	6768
693.004	6944
693.015	7036
693.059	6999
693.102	7137
693.124	7091
693.146	7095
693.189	7628
693.233	7427
693.245	7517
693.276	7757
693.320	7801
693.363	7794
693.365	7784
693.407	8026
693.450	8014
693.485	7809
693.493	7905
693.537	8762
693.580	9405
693.605	9820
693.624	10692
693.667	12571
693.710	14634
693.725	15195
693.753	18989
693.797	25751
693.840	31953
693.845	32641
693.883	33639
693.926	34327
693.966	35140
693.970	34586
694.013	28060
694.056	21566
694.086	17055
694.099	16442
694.142	14237
694.185	12310
694.206	11296
694.229	10937
694.272	10132
694.315	9429
694.326	9163
694.358	9050
694.401	9127
694.444	8990
694.446	8976
694.487	9164
694.530	8834
694.566	9008
694.573	9012
694.616	8430
694.659	8179
694.686	7894
694.702	7804
694.745	7474
694.787	7175
694.806	7108
694.830	7291
694.873	7426
694.916	7509
694.926	7502
694.959	7416
695.002	7484
695.044	7232
695.046	7204
695.087	7292
695.130	7479
695.166	7867
695.172	7917
695.215	7565
695.258	7485
695.286	7279
695.301	7304
695.343	7666
695.386	7867
695.406	7925
695.428	7948
695.471	7822
695.514	7778
695.526	7763
695.556	7923
695.599	8290
695.641	8258
695.646	8256
695.684	8090
695.726	7770
695.766	7639
695.769	7672
695.811	7581
695.854	7632
695.886	7736
695.896	7775
695.938	7634
695.981	7617
696.005	7472
696.023	7498
696.065	7603
696.108	7966
696.125	7953
696.150	7980
696.192	8241
696.235	8295
696.245	8322
696.277	8291
696.319	7911
696.361	7951
696.365	7914
696.404	8068
696.446	8243
696.485	8400
696.488	8445
696.530	8603
696.572	8796
696.604	9041
696.614	8998
696.656	8479
696.698	8132
696.724	7891
696.740	7900
696.783	7775
696.825	7700
696.844	7620
696.867	7696
696.909	7781
696.951	7972
696.964	7981
696.992	8165
697.034	8389
697.076	8749
697.083	8761
697.118	8795
697.160	8834
697.202	8933
697.203	8909
697.244	8862
697.286	8762
697.323	8642
697.327	8673
697.369	8737
697.411	8810
697.442	8857
697.453	8886
697.494	8825
697.536	8829
697.562	8808
697.578	8802
697.620	8706
697.661	8544
697.682	8468
697.703	8539
697.744	8612
697.786	8821
697.801	8793
697.828	8963
697.869	9247
697.911	9584
697.921	9627
697.952	9262
697.994	8758
698.035	8292
698.040	8205
698.077	8411
698.118	8608
698.160	8851
698.160	8827
698.201	8463
698.243	8011
698.279	7612
698.284	7675
698.325	8050
698.367	8441
698.399	8686
698.408	8691
698.449	8602
698.491	8528
698.518	8459
698.532	8537
698.573	8644
698.614	8809
698.638	8858
698.656	8884
698.697	8904
698.738	8907
698.757	8886
698.779	9041
698.820	9275
698.862	9512
698.877	9575
698.903	9703
698.944	9861
698.985	10018
698.996	10035
699.026	9786
699.067	9399
699.116	8915
699.235	9109
699.354	9180
699.474	9682
699.593	9796
699.713	10058
699.832	8792
699.951	9867
700.070	8846
700.190	8993
700.309	8983
700.428	9307
700.547	8796
700.667	8288
700.786	9304
700.905	9256
701.024	8351
701.143	9006
701.262	8118
701.381	8815
701.500	9017
701.619	10031
701.738	7601
701.857	8087
701.976	7483
702.095	9013
702.214	7872
702.333	9130
702.452	7899
702.571	7961
702.690	7507
702.809	7681
702.928	7163
703.047	7099
703.165	7046
703.284	8127
703.403	7348
703.522	8202
703.640	8394
703.759	8580
703.878	9945
703.997	8076
704.115	7506
704.234	7471
704.353	6691
704.471	7602
704.590	6943
704.708	7230
704.827	7150
704.946	7553
705.064	7555
705.183	7767
705.301	8008
705.420	10720
705.538	9831
705.656	9300
705.775	8952
705.893	14952
706.012	20554
706.130	9910
706.249	9256
706.367	8864
706.485	9060
706.604	8352
706.722	8423
706.840	9844
706.958	11444
707.077	10242
707.195	8105
707.313	9105
707.431	8821
707.549	8498
707.668	8072
707.786	8759
707.904	8080
708.022	7061
708.140	7091
708.258	8078
708.376	7941
708.494	7957
708.612	8843
708.730	10994
708.848	10031
708.966	9706
709.084	9611
709.202	9006
709.320	8752
709.438	9170
709.556	9997
709.674	9575
709.791	10130
709.909	8427
710.027	8948
710.145	8485
710.263	9624
710.380	9350
710.498	8769
710.616	9345
710.733	8523
710.851	8574
710.969	8819
711.086	8900
711.204	7732
711.322	8837
711.439	8377
711.557	8857
711.674	8072
711.792	8167
711.909	9285
712.027	9897
712.144	8136
712.262	8631
712.379	8121
712.497	11108
712.614	11140
712.732	10595
712.849	9656
712.966	10108
713.084	12191
713.201	11209
713.318	9786
713.436	10295
713.553	10559
713.670	10495
713.787	10127
713.905	12490
714.022	9644
714.139	10147
714.256	11560
714.373	13754
714.490	21383
714.608	43231
714.725	191990
714.842	298896
714.959	26141
715.076	13480
715.193	11432
715.310	10510
715.427	9645
715.544	8968
715.661	9427
715.778	8687
715.895	9421
716.011	9308
716.128	8629
716.245	8689
716.362	9847
716.479	10719
716.596	8666
716.713	9048
716.829	9575
716.946	9468
717.063	7977
717.180	7877
717.296	8273
717.413	8075
717.530	7853
717.646	7996
717.763	6801
717.880	7391
717.996	7464
718.113	7466
718.229	7288
718.346	7620
718.462	7072
718.579	8641
718.695	13587
718.812	12322
718.928	8348
719.045	8136
719.161	6814
719.277	6613
719.394	7197
719.510	8256
719.626	8046
719.743	8438
719.859	10224
719.975	16470
720.092	49465
720.208	145789
720.324	28393
720.440	9034
720.557	8081
720.673	11099
720.789	13110
720.905	22150
721.021	11509
721.137	7283
721.253	6842
721.369	7496
721.486	7466
721.602	10129
721.718	6825
721.834	5979
721.950	5818
722.066	6280
722.181	6476
722.297	6415
722.413	6791
722.529	6632
722.645	6214
722.761	5999
722.877	6280
722.993	6235
723.108	6315
723.224	6538
723.340	5895
723.456	6593
723.571	5581
723.687	5539
723.803	6275
723.918	6309
724.034	5264
724.150	5721
724.265	6834
724.381	9499
724.497	12366
724.612	6017
724.728	5124
724.843	5677
724.959	5866
725.074	8938
725.190	11350
725.305	6016
725.421	5193
725.536	4953
725.651	4897
725.767	4234
725.882	4205
725.997	4768
726.113	4290
726.228	5200
726.343	4587
726.459	4400
726.574	5010
726.689	5572
726.804	4950
726.920	5297
727.035	4626
727.150	5625
727.265	4468
727.380	5467
727.495	4808
727.610	4528
727.725	4986
727.841	5578
727.956	8340
728.071	8943
728.186	5064
728.301	5077
728.416	5153
728.531	4583
728.645	4349
728.760	4937
728.875	5262
728.990	5498
729.105	5033
729.220	4155
729.335	5469
729.449	4759
729.564	4211
729.679	3539
729.794	3628
729.908	4507
730.023	4386
730.138	4838
730.253	4354
730.367	4464
730.482	3879
730.596	4353
730.711	4237
730.826	5287
730.940	4457
731.055	4573
731.169	3513
731.284	3858
731.398	3636
731.513	4753
731.627	5719
731.742	5027
731.856	5464
731.970	4508
732.085	4999
732.199	7100
732.313	8564
732.428	20234
732.542	58130
732.656	48394
732.771	9244
732.885	5998
732.999	4872
733.113	5317
733.227	5058
733.342	5520
733.456	3997
733.570	4020
733.684	4407
733.798	4607
733.912	3532
734.026	4004
734.140	4264
734.254	4735
734.368	6174
734.482	8061
734.596	3625
734.710	4096
734.824	3367
734.938	3991
735.052	3875
735.166	4632
735.280	3613
735.393	3708
735.507	3843
735.621	4405
735.735	6659
735.849	4608
735.962	4121
736.076	3666
736.190	3148
736.303	4502
736.417	6261
736.531	4469
736.644	4430
736.758	3753
736.872	3345
736.985	3973
737.099	3373
737.212	3304
737.326	3217
737.439	3546
737.553	3694
737.666	3549
737.780	3831
737.893	3503
738.007	3448
738.120	2834
738.233	3186
738.347	4033
738.460	3673
738.573	3899
738.687	4373
738.800	4143
738.913	4830
739.026	3575
739.140	3499
739.253	4002
739.366	2771
739.479	3869
739.592	2719
739.705	3879
739.818	3769
739.932	3453
740.045	2489
740.158	3144
740.271	3644
740.384	3497
740.497	3592
740.610	3743
740.723	3222
740.836	3777
740.949	4148
741.062	4069
741.174	4395
741.287	3062
741.400	3618
741.513	3294
741.626	4749
741.739	4166
741.851	3053
741.964	3396
742.077	3638
742.189	4074
742.302	5375
742.415	4824
742.527	3331
742.640	3263
742.753	3332
742.865	3166
742.978	2809
743.090	2839
743.203	2470
743.316	3425
743.428	2872
743.541	2725
743.653	2425
743.766	2444
743.878	2954
743.990	3999
744.103	4838
744.215	6460
744.327	3410
744.440	4647
744.552	5439
744.664	3647
744.777	2330
744.889	1748
745.001	2590
745.113	3152
745.226	1953
745.338	2785
745.450	2937
745.562	2893
745.674	2481
745.786	2742
745.898	2710
746.010	3203
746.122	2595
746.234	2060
746.347	3342
746.459	3642
746.570	2393
746.682	4084
746.794	7988
746.906	5301
747.018	2622
747.130	3081
747.242	2904
747.354	2627
747.466	2960
747.577	2236
747.689	2524
747.801	2597
747.913	2200
748.024	2266
748.136	2029
748.248	2459
748.359	1660
748.471	2928
748.583	1486
748.694	2198
748.806	3410
748.918	3167
749.029	2412
749.141	2870
749.252	3393
749.364	2396
749.475	4829
749.587	4601
749.698	2072
749.809	2785
749.921	1618
750.032	2518
750.144	1698
750.255	2361
750.366	943
750.478	2602
750.589	2445
750.700	2497
750.811	3045
750.923	3551
751.034	4848
751.145	7190
751.256	2491
751.367	2825
751.479	2357
751.590	1846
751.701	2815
751.812	1688
751.923	2116
752.034	2482
752.145	1949
752.256	1960
752.367	2092
752.478	2228
752.589	2350
752.700	1743
752.811	2168
752.922	1474
753.032	2147
753.143	3100
753.254	816
753.365	2624
753.476	2110
753.586	1867
753.697	1531
753.808	1299
753.919	2128
754.029	1743
754.140	1805
754.251	1783
754.361	2153
754.472	2839
754.582	2450
754.693	1912
754.804	2529
754.914	2241
755.025	1203
755.135	1583
755.246	2659
755.356	1514
755.466	2369
755.577	1868
755.687	1723
755.798	2277
755.908	2095
756.018	1955
756.129	1026
756.239	1561
756.349	2106
756.460	2108
756.570	1931
756.680	1251
756.790	1983
756.900	3020
757.011	1956
757.121	2207
757.231	2065
757.341	1857
757.451	1676
757.561	1334
757.671	2141
757.781	1259
757.891	2341
758.001	1679
758.111	2632
758.221	1796
758.331	2276
758.441	2046
758.551	3372
758.661	3228
758.771	1522
758.880	2290
758.990	2217
759.100	2719
759.210	2306
759.320	2883
759.429	2134
759.539	2844
759.649	1868
759.758	2935
759.868	2812
759.978	3323
760.087	2745
760.197	3399
760.307	3250
760.416	3556
760.526	2738
760.635	3235
760.745	3550
760.854	2780
760.964	3253
761.073	3802
761.182	3593
761.292	3246
761.401	2880
761.511	2691
761.620	3315
761.729	2914
761.839	2472
761.948	3736
762.057	3590
762.166	3219
762.276	2447
762.385	3313
762.494	3115
762.603	3935
762.712	3658
762.822	3811
762.931	3250
763.040	3369
763.149	3389
763.258	3658
763.367	4033
763.476	3978
763.585	4040
763.694	4545
763.803	4051
763.912	4944
764.021	4580
764.130	4886
764.238	4024
764.347	4921
764.456	4311
764.565	5903
764.674	6104
764.783	7113
764.891	6737
765.000	7534
765.109	8796
765.217	10050
765.326	11992
765.435	14279
765.543	16479
765.652	20174
765.761	24673
765.869	36867
765.978	55107
766.086	91676
766.195	170636
766.303	370930
766.412	805360
766.520	881571
766.629	421557
766.737	162659
766.846	87680
766.954	54819
767.062	38686
767.171	29212
767.279	22971
767.387	17486
767.496	14902
767.604	12905
767.712	10413
767.820	10719
767.928	9870
768.037	8944
768.145	8381
768.253	8266
768.361	7426
768.469	8293
768.577	7796
768.685	8665
768.793	8245
768.901	9161
769.009	10460
769.117	12749
769.225	14930
769.333	23208
769.441	36114
769.549	65158
769.657	133437
769.765	359792
769.873	743841
769.981	471614
770.088	135606
770.196	59011
770.304	35612
770.412	25337
770.519	18345
770.627	14004
770.735	10963
770.842	9684
770.950	9015
771.058	8707
771.165	7851
771.273	6505
771.380	5902
771.488	6236
771.595	5160
771.703	5430
771.810	5138
771.918	4426
772.025	3526
772.133	4534
772.240	4562
772.348	4379
772.455	4557
772.562	3806
772.670	2215
772.777	3611
772.884	2837
772.991	3080
773.099	3517
773.206	3577
773.313	2600
773.420	3268
773.528	2544
773.635	2510
773.742	3404
773.849	2481
773.956	2660
774.063	2518
774.170	2605
774.277	2764
774.384	2257
774.491	1986
774.598	2389
774.705	3143
774.812	3012
774.919	3788
775.026	3173
775.133	3136
775.239	2860
775.346	2649
775.453	3029
775.560	2522
775.667	2197
775.773	1531
775.880	2392
775.987	2436
776.093	1907
776.200	2451
776.307	1573
776.413	2282
776.520	1707
776.627	2754
776.733	2212
776.840	2255
776.946	4006
777.053	5974
777.159	12419
777.266	7989
777.372	10711
777.478	9376
777.585	5211
777.691	2152
777.798	2134
777.904	3058
778.010	3045
778.117	3848
778.223	2131
778.329	2021
778.435	1789
778.542	3095
778.648	2292
778.754	1487
778.860	1927
778.966	1885
779.072	1803
779.178	2126
779.284	1897
779.391	1976
779.497	1333
779.603	3223
779.708	2218
779.815	4447
779.920	12385
780.026	37993
780.132	7963
780.238	1621
780.344	1562
780.450	1884
780.556	2144
780.661	1178
780.767	1382
780.873	1214
780.979	1892
781.085	1630
781.190	1021
781.296	1219
781.402	1055
781.507	1871
781.613	1581
781.719	1239
781.824	1452
781.930	2088
782.035	2257
782.141	1742
782.246	949
782.352	1943
782.457	427
782.563	1310
782.668	1500
782.773	1207
782.879	1190
782.984	2202
783.090	2081
783.195	2540
783.300	1779
783.405	2046
783.511	1242
783.616	2565
783.721	940
783.826	1276
783.932	981
784.037	1984
784.142	1930
784.247	1299
784.352	1019
784.457	1408
784.562	1396
784.667	2280
784.772	1342
784.877	1185
784.982	892
785.087	1400
785.192	941
785.297	852
785.402	1249
785.507	1118
785.611	1502
785.716	819
785.821	431
785.926	844
786.031	739
786.135	1340
786.240	1201
786.345	456
786.450	1575
786.554	1190
786.659	40
786.763	892
786.868	1898
786.973	1215
787.077	539
787.182	1191
787.286	971
787.391	678
787.495	1071
787.600	624
787.704	610
787.809	1155
787.913	501
788.017	1108
788.122	1248
788.226	690
788.330	369
788.435	1363
788.539	952
788.643	641
788.747	452
788.852	401
788.956	859
789.060	977
789.164	617
789.268	455
789.372	714
789.476	197
789.580	527
789.684	687
789.788	1121
789.892	1137
789.996	741
790.100	1538
790.204	146
790.308	390
790.412	1096
790.516	1445
790.620	720
790.724	257
790.828	1331
790.931	552
791.035	2312
791.139	1055
791.242	763
791.346	1369
791.450	1035
791.554	288
791.657	-626
791.761	992
791.864	695
791.968	727
792.072	845
792.175	1046
792.279	707
792.382	883
792.486	730
792.589	455
792.693	869
792.796	801
792.899	989
793.003	495
793.106	481
793.209	798
793.313	1658
793.416	496
793.519	1306
793.623	965
793.726	2299
793.829	957
793.932	308
794.035	251
794.138	1422
794.242	841
794.345	1738
794.448	1433
794.551	2709
794.654	7440
794.757	17397
794.860	5710
794.963	1609
795.066	1441
795.169	437
795.272	-38
795.375	205
795.477	785
795.580	508
795.683	-277
795.786	739
795.889	-287
795.991	780
796.094	1393
796.197	-228
796.300	942
796.402	400
796.505	993
796.608	-82
796.710	1029
796.813	587
796.915	-390
797.018	1389
797.120	395
797.223	174
797.326	1080
797.428	470
797.530	231
797.633	97
797.735	772
797.838	479
797.940	2174
798.042	-975
798.145	891
798.247	1176
798.349	-54
798.452	646
798.554	498
798.656	-140
798.758	1351
798.860	841
798.962	469
799.065	-191
799.167	-874
799.269	949
799.371	864
799.473	575
799.575	233
799.677	930
799.779	1455
799.881	998
799.983	1312
800.085	837
800.187	851
800.289	-304
800.390	400
800.492	587
800.594	1271
800.696	-68
800.798	240
800.899	747
801.001	-373
801.103	-4
801.205	75
801.306	281
801.408	-763
801.509	637
801.611	727
801.713	318
801.814	398
801.916	25
802.017	338
802.119	300
802.220	526
802.322	-1263
802.423	1163
802.525	203
802.626	551
802.727	595
802.829	99
802.930	-1527
803.031	2179
803.133	179
803.234	-71
803.335	1477
803.436	234
803.538	-567
803.639	-651
803.740	679
803.841	-186
803.942	268
804.043	739
804.144	-1193
804.245	50
804.346	-149
804.447	711
804.548	1034
804.649	2245
804.750	-238
804.851	630
804.952	-355
805.053	320
805.154	-1011
805.255	1058
805.355	441
805.456	594
805.557	107
805.658	-719
805.758	85
805.859	888
805.960	238
806.061	-125
806.161	128
806.262	674
806.362	-836
806.463	488
806.564	369
806.664	-436
806.765	245
806.865	308
806.966	76
807.066	646
807.166	155
807.267	960
807.367	-546
807.468	861
807.568	-872
807.668	1325
807.769	726
807.869	-290
807.969	-34
808.069	307
808.170	132
808.270	8
808.370	797
808.470	1080
808.570	-204
808.670	466
808.770	86
808.870	-892
808.970	370
809.070	361
809.170	-351
809.271	-159
809.370	-142
809.470	174
809.570	-253
809.670	-166
809.770	-583
809.870	315
809.970	-350
810.070	210
810.169	30
810.269	-793
810.369	1001
810.469	266
810.568	-45
810.668	-576
810.768	-215
810.867	-229
810.967	-167
811.066	54
811.166	-175
811.265	213
811.365	-278
811.464	287
811.564	94
811.663	1417
811.763	-1343
811.862	128
811.962	278
812.061	556
812.160	-547
812.260	175
812.359	282
812.458	531
812.557	698
812.657	660
812.756	177
812.855	211
812.954	-596
813.053	248
813.153	182
813.252	-1023
813.351	905
813.450	574
813.549	341
813.648	788
813.747	38
813.846	575
813.945	-783
814.044	290
814.143	1088
814.242	1229
814.341	280
814.439	1189
814.538	443
814.637	180
814.736	704
814.835	1052
814.933	603
815.032	1513
815.131	857
815.229	1011
815.328	1296
815.427	1359
815.525	1086
815.624	1036
815.722	733
815.821	2211
815.919	459
816.018	622
816.116	1366
816.215	896
816.313	1210
816.412	1914
816.510	1557
816.609	2433
816.707	1427
816.805	2338
816.904	2172
817.002	4133
817.100	4740
817.198	4597
817.296	4342
817.395	5562
817.493	7396
817.591	7588
817.689	10298
817.787	15072
817.885	22281
817.983	40345
818.081	77288
818.179	173705
818.277	402152
818.375	492017
818.473	203789
818.571	77318
818.669	44272
818.767	35849
818.865	32836
818.963	36981
819.061	49018
819.158	80668
819.256	149951
819.354	314543
819.452	635642
819.549	615454
819.647	259868
819.745	110364
819.842	60379
819.940	39620
820.038	27378
820.135	20633
820.233	16245
820.330	11808
820.428	9948
820.525	9531
820.623	6533
820.720	5776
820.818	5676
820.915	5870
821.012	5031
821.110	4271
821.207	3774
821.304	3068
821.402	3995
821.499	5279
821.596	6133
821.693	4865
821.791	2464
821.888	2520
821.985	3808
822.082	3966
822.179	3291
822.276	2806
822.373	2388
822.470	2552
822.567	1438
822.664	658
822.761	1402
822.858	488
822.955	944
823.052	1865
823.149	876
823.246	549
823.343	1083
823.440	1087
823.536	413
823.633	325
823.730	546
823.827	1100
823.923	224
824.020	1969
824.117	874
824.213	784
824.310	1472
824.407	1212
824.503	473
824.600	1201
824.696	315
824.793	1180
824.889	-421
824.986	490
825.082	747
825.179	743
825.275	-307
825.371	-415
825.468	367
825.564	-821
825.660	5
825.757	152
825.853	834
825.949	263
826.045	46
826.142	103
826.238	97
826.334	480
826.430	-246
826.526	282
826.622	-450
826.718	-173
826.814	-888
826.910	1425
827.006	423
827.102	-189
827.198	152
827.294	360
827.390	-216
827.486	-64
827.582	-1317
827.678	-602
827.774	167
827.869	-661
827.965	776
828.061	-1036
828.157	91
828.252	-445
828.348	-739
828.444	1134
828.539	-764
828.635	47
828.731	789
828.826	-727
828.922	-691
829.017	-191
829.113	479
829.208	-95
829.304	-334
829.399	881
829.495	-538
829.590	708
829.685	-874
829.781	-270
829.876	-882
829.971	-632
830.066	-139
830.162	-263
830.257	-167
830.352	-409
830.447	740
830.543	57
830.638	-498
830.733	-82
830.828	-676
830.923	253
831.018	183
831.113	46
831.208	-833
831.303	-238
831.398	-152
831.493	-350
831.588	-396
831.683	-834
831.778	-380
831.873	-32
831.967	-741
832.062	-316
832.157	-1650
832.252	1297
832.346	-938
832.441	638
832.536	-490
832.631	1478
832.725	1682
832.820	642
832.914	-1770
833.009	45
833.104	112
833.198	572
833.293	-709
833.387	317
833.482	119
833.576	-1165
833.670	243
833.765	-298
833.859	-825
833.954	42
834.048	-178
834.142	92
834.237	-75
834.331	-1598
834.425	-65
834.519	-762
834.613	78
834.708	372
834.802	-843
834.896	-764
834.990	-547
835.084	-541
835.178	-957
835.272	-200
835.366	-761
835.460	241
835.554	-236
835.648	-472
835.742	-827
835.836	-27
835.930	-1605
836.024	127
836.117	-67
836.211	-75
836.305	-66
836.399	370
836.493	-1094
836.586	207
836.680	-611
836.774	-545
836.867	602
836.961	-620
837.055	-1124
837.148	-626
837.242	-990
837.335	-267
837.429	-921
837.522	-290
837.616	-559
837.709	1547
837.803	-521
837.896	101
837.989	-860
838.083	400
838.176	429
838.269	906
838.363	-20
838.456	-821
838.549	136
838.642	65
838.735	2572
838.829	1557
838.922	-844
839.015	-237
839.108	-554
839.201	-206
839.294	-259
839.387	205
839.480	-684
839.573	-192
839.666	-595
839.759	-386
839.852	-862
839.945	-572
840.038	-1028
840.131	-683
840.223	-677
840.316	142
840.409	-213
840.502	-260
840.594	161
840.687	-507
840.780	-1456
840.873	-215
840.965	140
841.058	-121
841.150	226
841.243	92
841.336	-341
841.428	-33
841.521	-1121
841.613	-469
841.706	-315
841.798	-354
841.890	-713
841.983	-717
842.075	479
842.167	-557
842.260	32
842.352	518
842.444	321
842.537	147
842.629	1760
842.721	102
842.813	-1113
842.905	-1672
842.997	-1106
843.090	43
843.182	-130
843.274	370
843.366	2149
843.458	5197
843.550	4248
843.642	138
843.734	-177
843.826	-639
843.918	-217
844.009	304
844.101	-1160
844.193	-242
844.285	-844
844.377	311
844.469	1209
844.560	1709
844.652	2183
844.744	183
844.835	201
844.927	-44
845.019	-571
845.110	-100
845.202	-119
845.293	-274
845.385	-1063
845.476	-237
845.568	203
845.659	-633
845.751	-15
845.842	-807
845.934	-832
846.025	-445
846.116	-832
846.208	-297
846.299	-565
846.390	-195
846.482	-274
846.573	317
846.664	-561
846.755	-62
846.846	781
846.937	-809
847.029	-989
847.120	-465
847.211	-816
847.302	1413
847.393	-1472
847.484	-54
847.575	-406
847.666	-1252
847.757	-973
847.847	-514
847.938	64
848.029	-566
848.120	-868
848.211	-933
848.302	-797
848.392	-839
848.483	-548
848.574	-1018
848.664	-1151
848.755	-116
848.846	-669
848.936	-1150
849.027	64
849.118	-828
849.208	-980
849.299	-436
849.389	120
849.480	1554
849.570	4384
849.661	7910
849.751	15758
849.841	8082
849.932	821
850.022	-123
850.112	-925
850.203	-83
850.293	-1180
850.383	-451
850.474	-752
850.564	-553
850.654	-185
850.744	-292
850.834	-386
850.924	-667
851.014	95
851.104	-371
851.194	-829
851.284	-26
851.374	-641
851.464	-120
851.554	-67
851.644	-1084
851.734	-569
851.824	-120
851.914	-774
852.004	-211
852.094	-1380
852.183	18
852.273	-736
852.363	-546
852.452	-404
852.542	-1059
852.632	-637
852.721	-142
852.811	-1186
852.901	-244
852.990	-956
853.080	-353
853.169	-1379
853.259	53
853.348	-817
853.438	209
853.527	702
853.617	689
853.706	2640
853.795	5735
853.885	15053
853.974	32874
854.063	57005
854.152	110976
854.242	57544
854.331	7770
854.420	1491
854.509	603
854.598	624
854.687	1114
854.777	618
854.866	-197
854.955	-351
855.044	-815
855.133	-820
855.222	93
855.311	-473
855.400	-400
855.488	-46
855.577	-890
855.666	-708
855.755	-131
855.844	209
855.933	-664
856.021	-753
856.110	-61
856.199	-1225
856.288	-653
856.376	-802
856.465	-1005
856.554	131
856.642	-795
856.731	-1110
856.819	-239
856.908	-714
856.996	-627
857.085	-918
857.173	-768
857.262	-563
857.350	100
857.438	-352
857.527	-1217
857.615	-1079
857.703	-245
857.792	-1876
857.880	-1124
857.968	-945
858.056	-828
858.145	-852
858.233	-708
858.321	-750
858.409	-342
858.497	-819
858.585	-1555
858.673	-564
858.761	-1068
858.849	-682
858.937	-669
859.025	-274
859.113	-416
859.201	-1555
859.289	-630
859.377	-525
859.465	-1026
859.552	-1080
859.640	-851
859.728	-1316
859.816	-677
859.903	-535
859.991	-2124
860.079	-1137
860.166	-757
860.254	-1145
860.342	-914
860.429	-958
860.517	-945
860.604	-925
860.692	-611
860.779	-910
860.867	-219
860.954	-885
861.042	-284
861.129	-873
861.216	-838
861.304	-1268
861.391	-403
861.478	-599
861.565	-326
861.653	-447
861.740	-981
861.827	-1715
861.914	-714
862.001	-1417
862.089	-324
862.176	-472
862.263	-937
862.350	-1194
862.437	-1458
862.524	-1574
862.611	-297
862.698	-74
862.785	72
862.871	107
862.958	-524
863.045	-129
863.132	-523
863.219	-1015
863.306	-1524
863.392	-584
863.479	-1072
863.566	-205
863.652	-934
863.739	-1086
863.826	-1497
863.912	-525
863.999	-1035
864.086	-451
864.172	-460
864.259	-833
864.345	-1130
864.432	-1356
864.518	-1011
864.604	-479
864.691	-1114
864.777	-385
864.863	-192
864.950	-126
865.036	36
865.122	-1138
865.209	391
865.295	802
865.381	-43
865.467	-828
865.553	550
865.639	1495
865.726	2294
865.812	6304
865.898	15145
865.984	24039
866.070	42189
866.156	60899
866.242	20399
866.328	2993
866.414	484
866.499	112
866.585	1128
866.671	421
866.757	261
866.843	-27
866.928	-19
867.014	-759
867.100	-485
867.186	-957
867.271	107
867.357	-388
867.442	526
867.528	-617
867.614	374
867.699	-131
867.785	788
867.870	764
867.956	2413
868.041	1257
868.127	-262
868.212	797
868.297	733
868.383	610
868.468	707
868.553	1478
868.639	1499
868.724	1940
868.809	3164
868.894	129
868.979	-974
869.065	-57
869.150	-822
869.235	-806
869.320	-797
869.405	-795
869.490	-332
869.575	-760
869.660	-503
869.745	-517
869.830	24
869.915	-984
870.000	-580
870.085	-53
870.169	-380
870.254	-211
870.339	-150
870.424	-908
870.509	-761
870.593	-1068
870.678	-508
870.763	-883
870.847	460
870.932	-1182
871.016	71
871.101	-709
871.186	-48
871.270	-680
871.355	-380
871.439	-804
871.523	-44
871.608	-644
871.692	-654
871.777	596
871.861	-241
871.945	-590
872.030	-78
872.114	-578
872.198	-1197
872.282	-583
872.367	-796
872.451	-1095
872.535	-842
872.619	-637
872.703	126
872.787	-1137
872.871	-728
872.955	-418
873.039	66
873.123	-1012
873.207	155
873.291	-851
873.375	-68
873.459	-433
873.543	-1096
873.627	-751
873.711	-181
873.794	-197
873.878	-528
873.962	-1520
874.045	125
874.129	-1620
874.137	-1562
874.213	-980
874.245	-1044
874.296	-1142
874.352	-885
874.380	-766
874.460	-197
874.464	-175
874.547	-355
874.568	-259
874.631	54
874.676	-160
874.714	-352
874.784	-626
874.798	-684
874.881	1049
874.892	763
874.965	-1160
874.999	-739
875.048	-213
875.107	-603
875.131	-749
875.215	-483
875.215	-483
875.298	-869
875.323	-932
875.381	-1137
875.430	-1087
875.465	-1023
875.538	-520
875.548	-458
875.631	-615
875.646	-710
875.714	-1153
875.753	-1270
875.798	-1404
875.861	-492
875.881	-211
875.964	-887
875.968	-879
876.047	-674
876.076	-631
876.130	-591
876.183	-179
876.213	63
876.291	-1009
876.296	-1080
876.379	-709
876.398	-694
876.462	-731
876.506	-693
876.545	-581
876.613	-542
876.628	-550
876.711	-154
876.721	-148
876.794	-40
876.828	-181
876.877	-529
876.935	-699
876.960	-650
877.043	74
877.043	74
877.125	-111
877.150	19
877.208	256
877.258	-77
877.291	-210
877.365	64
877.374	89
877.456	-601
877.472	-371
877.539	610
877.579	200
877.622	-303
877.687	286
877.704	458
877.787	-216
877.794	-209
877.869	-214
877.901	-379
877.952	-569
878.008	-192
878.034	-24
878.115	-304
878.117	-308
878.199	-474
878.222	-481
878.282	-468
878.329	78
878.364	492
878.437	350
878.447	300
878.529	-279
878.544	-398
878.611	-765
878.651	-537
878.694	-188
878.758	82
878.776	67
878.858	-97
878.865	-139
878.941	-391
878.972	-421
879.023	-513
879.078	-502
879.105	-456
879.185	134
879.187	143
879.269	-234
879.292	-394
879.351	-596
879.399	-434
879.433	-301
879.506	399
879.516	443
879.598	-221
879.613	-277
879.680	-335
879.720	-187
879.762	53
879.827	-3
879.844	-41
879.926	-258
879.933	-249
880.007	-168
880.040	-323
880.089	-566
880.147	-492
880.171	-399
880.253	318
880.254	320
880.335	939
880.360	1233
880.417	1943
880.467	1993
880.499	2426
880.574	4664
880.580	4681
880.662	2452
880.680	1869
880.744	187
880.787	-25
880.825	164
880.893	6
880.907	-97
880.989	-129
881.000	-203
881.070	-167
881.106	206
881.152	343
881.213	-115
881.233	-183
881.315	133
881.319	128
881.396	120
881.426	74
881.478	108
881.532	88
881.559	-81
881.639	-246
881.641	-237
881.722	30
881.745	174
881.803	539
881.852	305
881.885	60
881.958	380
881.966	406
882.047	-34
882.064	-41
882.129	374
882.171	428
882.210	290
882.277	642
882.291	772
882.372	698
882.383	710
882.454	412
882.489	289
882.535	288
882.596	297
882.616	378
882.697	567
882.702	581
882.778	251
882.808	107
882.859	-196
882.914	-218
882.940	43
883.020	256
883.021	258
883.102	83
883.127	114
883.183	50
883.233	244
883.264	351
883.339	73
883.345	50
883.426	-190
883.445	-176
883.507	197
883.551	350
883.587	414
883.657	259
883.668	257
883.749	580
883.763	572
883.830	27
883.869	-48
883.910	64
883.975	-154
883.991	-156
884.072	102
884.081	103
884.152	78
884.187	191
884.233	511
884.292	632
884.314	418
884.394	-139
884.398	-168
884.475	-49
884.504	-101
884.555	-124
884.610	-301
884.636	-213
884.716	739
884.716	747
884.797	683
884.821	683
884.877	657
884.927	459
884.958	342
885.033	137
885.038	123
885.118	-186
885.139	-272
885.199	174
885.244	578
885.279	550
885.350	517
885.359	524
885.439	277
885.456	290
885.520	540
885.561	543
885.600	478
885.667	510
885.680	534
885.760	402
885.773	437
885.840	521
885.878	417
885.920	508
885.984	609
886.000	595
886.080	569
886.089	595
886.160	696
886.195	507
886.240	158
886.300	-90
886.320	46
886.400	529
886.406	566
886.480	467
886.511	295
886.560	315
886.616	618
886.640	629
886.720	256
886.722	246
886.800	231
886.827	217
886.879	239
886.932	334
886.959	490
887.038	901
887.039	902
887.119	348
887.143	273
887.198	427
887.248	340
887.278	297
887.354	226
887.358	233
887.437	384
887.459	383
887.517	227
887.564	117
887.596	280
887.669	720
887.676	690
887.755	259
887.774	112
887.835	613
887.880	1107
887.914	827
887.985	81
887.994	104
888.073	311
888.090	336
888.153	417
888.195	540
888.232	604
888.300	638
888.311	631
888.391	586
888.405	569
888.470	655
888.510	682
888.549	667
888.615	675
888.628	597
888.708	92
888.720	13
888.787	478
888.825	710
888.866	640
888.930	519
888.945	504
889.024	493
889.035	475
889.103	317
889.140	271
889.182	319
889.245	307
889.261	330
889.340	472
889.349	487
889.419	437
889.454	399
889.498	324
889.559	209
889.577	247
889.656	423
889.664	440
889.735	901
889.768	1120
889.814	1005
889.873	845
889.978	-140
890.083	582
890.187	762
890.292	492
890.397	1063
890.501	1396
890.606	327
890.710	703
890.815	657
890.919	1043
891.024	493
891.128	716
891.233	658
891.337	397
891.442	461
891.546	678
891.650	354
891.755	824
891.859	1705
891.963	458
892.068	1258
892.172	667
892.276	794
892.380	441
892.484	477
892.589	662
892.693	527
892.797	158
892.901	667
893.005	996
893.109	557
893.213	1064
893.317	534
893.421	1067
893.525	119
893.629	738
893.733	713
893.837	654
893.941	47
894.045	937
894.148	727
894.252	766
894.356	834
894.460	1886
894.564	102
894.667	831
894.771	744
894.875	-226
894.978	724
895.082	63
895.186	1115
895.289	833
895.393	855
895.496	819
895.600	396
895.703	660
895.807	979
895.910	796
896.014	506
896.117	27
896.221	723
896.324	198
896.427	611
896.531	-293
896.634	301
896.737	3
896.840	874
896.944	819
897.047	162
897.150	934
897.253	675
897.356	1887
897.460	95
897.563	129
897.666	1090
897.769	1050
897.872	525
897.975	413
898.078	690
898.181	822
898.284	460
898.387	1230
898.490	35
898.593	192
898.695	500
898.798	276
898.901	659
899.004	930
899.107	465
899.209	1066
899.312	1007
899.415	1698
899.518	700
899.620	-171
899.723	-693
899.826	1272
899.928	991
900.031	745
900.133	514
900.236	415
900.338	554
900.441	117
900.543	-263
900.646	476
900.748	779
900.851	538
900.953	128
901.055	459
901.158	707
901.260	656
901.362	317
901.465	21
901.567	539
901.669	683
901.771	-194
901.873	-206
901.976	427
902.078	364
902.180	346
902.282	-56
902.384	648
902.486	1134
902.588	617
902.690	539
902.792	-180
902.894	1038
902.996	-212
903.098	129
903.200	-434
903.302	540
903.404	213
903.505	988
903.607	234
903.709	1108
903.811	87
903.913	-24
904.014	-13
904.116	713
904.218	778
904.319	354
904.421	798
904.523	1529
904.624	1154
904.726	976
904.827	935
904.929	1151
905.030	578
905.132	1195
905.233	265
905.335	205
905.436	-162
905.537	-192
905.639	842
905.740	742
905.841	212
905.943	493
906.044	1149
906.145	1716
906.247	353
906.348	322
906.449	786
906.550	309
906.651	1377
906.752	121
906.854	-168
906.955	202
907.056	1052
907.157	-407
907.258	866
907.359	158
907.460	354
907.561	-65
907.662	17
907.762	-21
907.863	131
907.964	528
908.065	42
908.166	-295
908.267	265
908.367	790
908.468	104
908.569	-341
908.670	1002
908.770	-352
908.871	-9
908.971	291
909.072	367
909.173	247
909.273	275
909.374	-207
909.474	-222
909.575	494
909.675	607
909.776	441
909.876	101
909.977	543
910.077	1370
910.177	621
910.278	347
910.378	292
910.478	-441
910.579	132
910.679	-57
910.779	1156
910.879	770
910.980	-92
911.080	768
911.180	-229
911.280	359
911.380	-246
911.480	360
911.580	-396
911.680	579
911.780	-241
911.880	262
911.980	61
912.080	55
912.180	194
912.280	1033
912.380	1406
912.480	606
912.580	-148
912.679	-456
912.779	-1
912.879	547
912.979	91
913.078	718
913.178	-169
913.278	-66
913.377	331
913.477	-253
913.577	446
913.676	169
913.776	265
913.875	569
913.975	567
914.074	116
914.174	-108
914.273	64
914.373	-42
914.472	-122
914.572	301
914.671	272
914.770	-337
914.870	-402
914.969	-579
915.068	47
915.167	-71
915.267	-437
915.366	-246
915.465	629
915.564	133
915.663	410
915.763	232
915.862	764
915.961	670
916.060	-243
916.159	-148
916.258	-413
916.357	283
916.456	737
916.555	478
916.654	678
916.752	-173
916.851	314
916.950	293
917.049	491
917.148	191
917.247	-398
917.345	-555
917.444	-722
917.543	487
917.642	480
917.740	-274
917.839	148
917.937	163
918.036	457
918.135	296
918.233	83
918.332	-368
918.430	-559
918.529	-344
918.627	-337
918.726	181
918.824	147
918.923	232
919.021	24
919.119	-167
919.218	584
919.316	437
919.414	-245
919.512	252
919.611	131
919.709	215
919.807	-255
919.905	-116
920.003	191
920.102	79
920.200	-161
920.298	44
920.396	828
920.494	141
920.592	-325
920.690	651
920.788	-687
920.886	-80
920.984	-263
921.082	-77
921.180	263
921.277	280
921.375	-240
921.473	425
921.571	302
921.669	684
921.766	-524
921.864	1016
921.962	807
922.060	19
922.157	266
922.255	658
922.352	95
922.450	1237
922.548	229
922.645	1008
922.743	571
922.840	547
922.938	1254
923.035	1365
923.133	1218
923.230	1220
923.327	1005
923.425	1633
923.522	1513
923.619	1004
923.717	1554
923.814	1316
923.911	1637
924.008	1038
924.106	295
924.203	985
924.300	1212
924.397	1593
924.494	432
924.591	1103
924.688	1027
924.786	1943
924.883	540
924.979	502
925.077	1098
925.173	1040
925.270	1509
925.367	1126
925.464	1510
925.561	1475
925.658	965
925.755	825
925.852	1379
925.948	1651
926.045	1611
926.142	2446
926.239	2843
926.335	964
926.432	2416
926.529	1970
926.625	2935
926.722	2163
926.818	1330
926.915	1841
927.011	1721
927.108	1115
927.204	1103
927.301	1250
927.397	-111
927.494	716
927.590	364
927.687	700
927.783	633
927.879	1315
927.976	1052
928.072	1312
928.168	890
928.264	935
928.361	586
928.457	565
928.553	1100
928.649	477
928.745	965
928.841	463
928.937	622
929.033	1628
929.129	664
929.225	849
929.321	1474
929.417	-219
929.513	1092
929.609	1103
929.705	966
929.801	-59
929.897	1149
929.993	167
930.089	1172
930.184	413
930.280	263
930.376	367
930.471	84
930.567	373
930.663	1219
930.758	617
930.854	508
930.950	213
931.045	49
931.141	579
931.236	1449
931.332	861
931.427	374
931.523	125
931.618	1021
931.714	439
931.809	193
931.905	-69
932.000	-8
932.095	859
932.191	159
932.286	698
932.381	866
932.476	33
932.572	1029
932.667	172
932.762	-170
932.857	1145
932.952	119
933.047	428
933.142	226
933.237	875
933.332	0
933.427	434
933.522	869
933.617	426
933.712	224
933.807	505
933.902	322
933.997	858
934.092	-737
934.187	740
934.282	546
934.376	930
934.471	-37
934.566	698
934.661	-445
934.755	292
934.850	141
934.945	912
935.039	635
935.134	984
935.228	-205
935.323	60
935.417	190
935.512	210
935.606	342
935.701	606
935.795	908
935.890	1180
935.984	578
936.079	-174
936.173	336
936.267	1028
936.362	-126
936.456	535
936.550	1057
936.644	460
936.738	317
936.833	303
936.927	647
937.021	445
937.115	-665
937.209	-23
937.303	323
937.397	587
937.491	564
937.585	327
937.679	432
937.773	-12
937.867	-28
937.961	-680
938.055	276
938.149	290
938.243	304
938.337	688
938.430	516
938.524	1609
938.618	1619
938.712	1910
938.805	-40
938.899	310
938.993	-681
939.086	890
939.180	1908
939.274	2982
939.367	738
939.461	470
939.554	853
939.648	396
939.741	389
939.835	162
939.928	973
940.022	552
940.115	216
940.208	-454
940.302	138
940.395	468
940.488	-4
940.582	237
940.675	-871
940.768	710
940.861	89
940.954	297
941.048	-459
941.141	-2
941.234	270
941.327	319
941.420	1342
941.513	442
941.606	477
941.699	482
941.792	-119
941.885	111
941.978	-75
942.071	-317
942.164	256
942.257	93
942.349	942
942.442	-318
942.535	-404
942.628	-677
942.721	1219
942.813	-872
942.906	910
942.999	-518
943.091	973
943.184	-821
943.277	249
943.369	32
943.462	1102
943.554	-288
943.647	-562
943.739	1208
943.832	195
943.924	-1122
944.017	-449
944.109	-190
944.201	-301
944.294	360
944.386	-147
944.478	74
944.571	343
944.663	-125
944.755	-117
944.847	-106
944.940	-429
945.032	-257
945.124	-79
945.216	397
945.308	-5
945.400	383
945.492	171
945.584	191
945.676	194
945.768	178
945.860	955
945.952	92
946.044	-123
946.136	373
946.228	-247
946.320	81
946.412	163
946.503	151
946.595	993
946.687	-282
946.779	-131
946.870	-35
946.962	-326
947.054	-152
947.145	81
947.237	-186
947.329	126
947.420	-1142
947.512	-240
947.603	-768
947.695	-121
947.786	-343
947.878	-62
947.969	298
948.061	-193
948.152	-176
948.243	237
948.335	-608
948.426	-182
948.517	-258
948.609	208
948.700	-361
948.791	-136
948.882	266
948.973	-152
949.065	651
949.156	618
949.247	-244
949.338	-304
949.429	-421
949.520	84
949.611	-594
949.702	1119
949.793	471
949.884	-876
949.975	207
950.066	710
950.157	58
950.247	235
950.338	129
950.429	52
950.520	-515
950.611	-852
950.701	-471
950.792	90
950.883	308
950.973	-201
951.064	-81
951.155	-358
951.245	-406
951.336	89
951.427	-395
951.517	590
951.608	266
951.698	-316
951.788	79
951.879	-326
951.969	496
952.060	-1
952.150	114
952.240	214
952.331	-1291
952.421	490
952.511	-518
952.602	-249
952.692	-865
952.782	-417
952.872	540
952.962	-148
953.052	183
953.143	-374
953.233	495
953.323	-176
953.413	-17
953.503	608
953.593	-611
953.683	-651
953.773	-519
953.863	-134
953.953	10
954.042	-178
954.132	-604
954.222	24
954.312	-172
954.402	0
954.492	-22
954.581	418
954.671	15
954.761	-427
954.850	491
954.940	-305
955.030	-626
955.119	-170
955.209	3
955.298	-407
955.388	-545
955.477	19
955.567	-277
955.656	62
955.746	643
955.835	289
955.925	-707
956.014	-371
956.103	0
956.193	278
956.282	-162
956.371	-38
956.461	-210
956.550	-172
956.639	-295
956.728	-175
956.817	-191
956.906	-564
956.995	-189
957.085	-211
957.174	506
957.263	555
957.352	-1009
957.441	-730
957.530	38
957.619	283
957.708	-712
957.796	-528
957.885	-143
957.974	90
958.063	-737
958.152	-699
958.241	-357
958.329	-386
958.418	-364
958.507	-1046
958.596	541
958.684	-445
958.773	-21
958.861	-189
958.950	322
959.039	492
959.127	-334
959.216	902
959.304	136
959.393	-190
959.481	75
959.570	-74
959.658	-650
959.746	-520
959.835	40
959.923	518
960.011	-89
960.100	624
960.188	-775
960.276	559
960.365	-107
960.453	-17
960.541	-1017
960.629	541
960.717	51
960.805	-700
960.893	-607
960.981	-687
961.069	417
961.158	102
961.245	784
961.333	254
961.421	-535
961.509	-710
961.597	-322
961.685	153
961.773	-286
961.861	-1008
961.949	-571
962.036	-120
962.124	281
962.212	-314
962.299	279
962.387	-560
962.475	-532
962.562	-602
962.650	114
962.738	-607
962.825	370
962.913	220
963.000	-253
963.088	-239
963.175	-357
963.263	-317
963.350	-969
963.438	-490
963.525	-718
963.612	52
963.700	648
963.787	2272
963.874	790
963.962	76
964.049	-735
964.136	-1143
964.223	-565
964.310	-15
964.398	148
964.485	-613
964.572	-648
964.659	-549
964.746	-120
964.833	-308
964.920	-538
965.007	-791
965.094	-47
965.181	-492
965.268	-362
965.355	-847
965.441	-859
965.528	-1365
965.615	-314
965.702	-480
965.789	-750
965.875	-730
965.962	9
966.049	-1377
966.136	-327
966.222	-608
966.309	361
966.395	-726
966.482	5
966.569	-519
966.655	-769
966.742	-688
966.828	-493
966.915	-967
967.001	-843
967.087	-1186
967.174	-159
967.260	-666
967.347	-831
967.433	-163
967.519	227
967.605	377
967.692	-747
967.778	-448
967.864	-113
967.950	-443
968.036	-945
968.123	401
968.209	-862
968.295	-889
968.381	243
968.467	-682
968.553	-935
968.639	-263
968.725	-1262
968.811	444
968.897	-609
968.983	177
969.069	-244
969.154	-625
969.240	-37
969.326	-728
969.412	-953
969.497	-594
969.583	-424
969.669	379
969.755	-612
969.840	-518
969.926	-201
970.012	-396
970.097	-37
970.183	-802
970.268	-152
970.354	-530
970.439	-1636
970.525	464
970.610	-590
970.696	287
970.781	-392
970.866	-1203
970.952	-968
971.037	-1180
971.122	-448
971.208	-732
971.293	-1072
971.378	-1131
971.463	-748
971.549	-722
971.634	-1392
971.719	-1198
971.804	-436
971.889	120
971.974	-683
972.059	-647
972.144	-440
972.229	-393
972.314	-16
972.399	-394
972.484	-1276
972.569	-527
972.654	-936
972.739	-141
972.824	-479
972.908	-642
972.993	-523
973.078	-1114
973.163	-1090
973.247	-521
973.332	-1270
973.417	416
973.501	-1271
973.586	-596
973.671	-602
973.755	72
973.840	-57
973.924	-305
974.009	-120
974.093	-720
974.178	207
974.262	-584
974.346	-479
974.431	-367
974.515	-1102
974.600	-363
974.684	-788
974.768	-362
974.852	-730
974.937	-1839
975.021	-332
975.105	-1334
975.189	-596
975.273	-410
975.358	-842
975.442	-1570
975.526	-916
975.610	-1119
975.694	-899
975.778	-461
975.862	-996
975.946	-2049
976.030	310
976.114	-1070
976.198	-455
976.281	-270
976.365	-226
976.449	-1002
976.533	-67
976.617	-1198
976.700	-1093
976.784	-101
976.868	-852
976.951	-72
977.035	-799
977.119	-858
977.202	-1040
977.286	-238
977.369	-80
977.453	-627
977.536	-1045
977.620	-1041
977.703	309
977.787	-1258
977.870	-895
977.953	532
978.037	-1442
978.120	166
978.203	-696
978.287	-281
978.370	-613
978.453	-1050
978.536	-1199
978.620	-486
978.703	-226
978.786	-1415
978.869	-1408
978.952	-1726
979.035	460
979.118	175
979.201	-1184
979.284	-1
979.367	-521
979.450	-865
979.533	-866
979.616	-1595
979.699	-1496
979.782	-847
979.865	-690
979.948	-1235
980.030	-920
980.113	-755
980.196	-1953
980.279	-1436
980.361	-846
980.444	-1055
980.526	-184
980.609	-428
980.692	-462
980.774	226
980.857	-1781
980.939	-435
981.022	-484
981.104	105
981.187	-1466
981.269	-911
981.352	-609
981.434	-1012
981.516	-1035
981.599	-565
981.681	-1373
981.763	-939
981.846	-629
981.928	-121
982.010	-856
982.092	-920
982.174	-553
982.256	-614
982.339	-1278
982.421	-1226
982.503	-1291
982.585	-1806
982.667	-815
982.749	-447
982.831	-434
982.913	-1586
982.995	351
983.077	-2061
983.158	-498
983.240	-2308
983.322	-156
983.404	-280
983.486	-865
983.568	-542
983.649	-1388
983.731	-578
983.813	-321
983.894	-695
983.976	-1018
984.058	-906
984.139	-130
984.221	-1503
984.302	-559
984.384	-852
984.465	-1129
984.547	-942
984.628	-1088
984.710	-921
984.791	-942
984.872	-655
984.954	-1000
985.035	-139
985.116	-421
985.198	-1086
985.279	-393
985.360	-534
985.441	-994
985.522	-397
985.604	-701
985.685	-2229
985.766	156
985.847	129
985.928	-1545
986.009	-539
986.090	-739
986.171	158
986.252	-1018
986.333	-339
986.414	-664
986.495	-656
986.576	-1270
986.656	-839
986.737	-691
986.818	-819
986.899	-770
986.980	-824
987.060	-476
987.141	-953
987.222	-126
987.302	-580
987.383	89
987.464	-1391
987.544	-575
987.625	-722
987.705	-922
987.786	-513
987.866	-670
987.947	-1101
988.027	-617
988.108	-1204
988.188	-168
988.268	-930
988.349	-399
988.429	-623
988.509	-735
988.589	-447
988.670	-1599
988.750	321
988.830	-1027
988.910	-455
988.990	-1306
989.070	-1344
989.151	-516
989.231	-1565
989.311	25
989.391	-781
989.471	-1323
989.551	-1030
989.631	-1036
989.711	667
989.791	-1604
989.870	-1568
989.950	-365
990.030	-1437
990.110	-621
990.190	-1803
990.269	-901
990.349	-836
990.429	-1122
990.509	-452
990.588	-1950
990.668	-904
990.747	-671
990.827	-1087
990.907	-689
990.986	-1273
991.066	-941
991.145	-1555
991.225	-890
991.304	-1009
991.383	-997
991.463	-1038
991.542	-562
991.622	-1520
991.701	-1058
991.780	-1319
991.859	-1319
991.939	-1458
992.018	-814
992.097	-273
992.176	-519
992.256	-1199
992.335	-1476
992.414	-204
992.493	-1147
992.572	-1249
992.651	-321
992.730	-1546
992.809	-1198
992.888	-2358
992.967	-851
993.046	-1020
993.125	-1630
993.203	-1778
993.282	-945
993.361	-827
993.440	-1564
993.519	-1301
993.597	-999
993.676	-1744
993.755	51
993.834	-1930
993.912	-1495
993.991	105
994.069	-1553
994.148	-1729
994.226	-1508
994.305	-1273
994.384	-2007
994.462	-181
994.540	-1551
994.619	-1913
994.697	-189
994.776	-2056
994.854	-1132
994.932	-1215
995.011	-621
995.089	-749
995.167	-2058
995.245	-1060
995.324	-1874
995.402	-724
995.480	-1628
995.558	-1443
995.636	-2521
995.714	-2296
995.792	-551
995.870	-1754
995.948	-799
996.026	-1070
996.104	-2156
996.182	-627
996.260	-1206
996.338	-902
996.416	-1798
996.494	-1747
996.572	-303
996.649	-1656
996.727	-1907
996.805	-1211
996.883	-1601
996.960	-1753
997.038	-927
997.116	-1620
997.193	-2366
997.271	-665
997.348	-1689
997.426	-1576
997.504	-2196
997.581	-959
997.658	1
997.736	-2063
997.813	-2794
997.891	-1510
997.968	-2470
998.046	-1428
998.123	-1039
998.200	-1285
998.277	-2077
998.355	-1184
998.432	-1920
998.509	-968
998.586	-1487
998.663	-1754
998.741	-1274
998.818	-1505
998.895	-1935
998.972	-1242
999.049	-627
999.126	-2266
999.203	-793
999.280	-1748
999.357	-2799
999.434	-2643
999.511	-1281
999.587	-1581
999.664	-2219
999.741	-1684
999.818	-927
999.895	-1805
999.971	-2359
1000.048	-1321
1000.125	-1697
1000.202	-1209
1000.278	-1381
1000.355	-1838
1000.431	-2078
1000.508	-1534
1000.584	-1961
1000.661	-1910
1000.738	-1436
1000.814	-1255
1000.890	-787
1000.967	-2369
1001.043	-2303
1001.120	-2072
1001.196	-1475
1001.272	-1652
1001.349	-1540
1001.425	-751
1001.501	-1038
1001.577	-2082
1001.654	-1533
1001.730	-1928
1001.806	-1752
1001.882	-2706
1001.958	-1390
1002.034	-1433
1002.110	-1361
1002.186	-2355
1002.262	-1913
1002.338	-2052
1002.414	-1794
1002.490	-1842
1002.566	-1527
1002.642	-1713
1002.718	-1254
1002.794	-2569
1002.870	-2006
1002.945	-1641
1003.021	-1902
1003.097	-2006
1003.173	-958
1003.248	-1552
1003.324	-2466
1003.400	-1734
1003.475	-1654
1003.551	-1283
1003.626	-1094
1003.702	-1983
1003.777	-2221
1003.853	-2759
1003.928	-1498
1004.004	-1847
1004.079	-2247
1004.155	-1909
1004.230	-2583
1004.305	-1217
1004.381	-2174
1004.456	-2376
1004.531	-1423
1004.607	-2403
1004.682	-2219
1004.757	-2252
1004.832	-1959
1004.907	-2006
1004.982	-1596
1005.057	-1572
1005.133	-2396
1005.208	-2505
1005.283	-1592
1005.358	-1783
1005.433	-1590
1005.508	-2133
1005.583	-1959
1005.657	-1768
1005.732	-1234
1005.807	-2617
1005.882	-1412
1005.957	-1972
1006.032	-1227
1006.106	-1553
1006.181	-1334
1006.256	-1761
1006.331	-2373
1006.405	-1467
1006.480	-1326
1006.554	-1755
1006.629	-2136
1006.704	-1977
1006.778	-2224
1006.853	-1413
1006.927	-1746
1007.002	-1985
1007.076	-1453
1007.150	-2821
1007.225	-1718
1007.299	-2092
1007.373	-1845
1007.448	-1590
1007.522	-1354
1007.596	-1840
1007.671	-2068
1007.745	-2283
1007.819	-1888
1007.893	-2558
1007.967	-1804
1008.041	-2815
1008.115	-1671
1008.190	-2236
1008.264	-779
1008.338	-2337
1008.412	-2157
1008.486	-1761
1008.560	-1923
1008.633	-2227
1008.707	-2388
1008.781	-1719
1008.855	-1795
1008.929	-1441
1009.003	-1196
1009.076	-1746
1009.150	-1838
1009.224	-1785
1009.298	-1676
1009.371	-2713
1009.445	-1110
1009.519	-1404
1009.592	-2259
1009.666	-1867
1009.739	-2357
1009.813	-2288
1009.886	-1494
1009.960	-2906
1010.033	-2215
1010.107	-1776
1010.180	-2876
1010.253	-1622
1010.327	-2607
1010.400	-1728
1010.473	-1906
1010.547	-1601
1010.620	-2005
1010.693	-1943
1010.766	-2337
1010.840	-1701
1010.913	-1180
1010.986	-2249
1011.059	-1645
1011.132	-1840
1011.205	-1178
1011.278	-1391
1011.351	-1055
1011.424	-1079
1011.497	-2231
1011.570	-1971
1011.643	-1567
1011.716	-1922
1011.789	-1852
1011.862	-1543
1011.934	-1787
1012.007	-2496
1012.080	-2022
1012.153	-2730
1012.225	-1333
1012.298	-2477
1012.371	-2538
1012.443	-1394
1012.516	-2547
1012.588	-1254
1012.661	-2138
1012.733	-1752
1012.806	-1275
1012.879	-1752
1012.951	-2009
1013.023	-1997
1013.096	-850
1013.168	-2076
1013.241	-1902
1013.313	-2053
1013.385	-2139
1013.458	-1812
1013.530	-1451
1013.602	-2182
1013.674	-1467
1013.746	-2361
1013.819	-2043
1013.891	-1367
1013.963	-2848
1014.035	-1349
1014.107	-2322
1014.179	-1720
1014.251	-2496
1014.323	-1257
1014.395	-2161
1014.467	-1748
1014.539	-1825
1014.611	-1798
1014.683	-1564
1014.754	-2017
1014.826	-2525
1014.898	-1991
1014.970	-2833
1015.042	-1474
1015.113	-1454
1015.185	-2359
1015.257	-2461
1015.328	-1678
1015.400	-2127
1015.471	-1210
1015.543	-2083
1015.615	-1798
1015.686	-1623
1015.757	-2274
1015.829	-1619
1015.901	-1555
1015.972	-2589
1016.043	-1874
1016.115	-2484
1016.186	-1771
1016.257	-1734
1016.328	-2096
1016.400	-1421
1016.471	-2041
1016.542	-1638
1016.613	-1615
1016.685	-1761
1016.756	-1508
1016.827	-2137
1016.898	-2196
1016.969	-860
1017.040	-2047
1017.111	-1777
1017.182	-1749
1017.253	-2199
1017.324	-1817
1017.395	-2351
1017.466	-1532
1017.537	-1447
1017.608	-1725
1017.678	-1979
1017.749	-1278
1017.820	-1242
1017.891	-2628
1017.961	-2172
1018.032	-1513
1018.103	-1372
1018.173	-1440
1018.244	-2164
1018.315	-1752
1018.385	-1308
1018.456	-1827
1018.526	-1984
1018.597	-1546
1018.667	-1931
1018.738	-2561
1018.808	-1736
1018.878	-1948
1018.949	-2000
1019.019	-1411
1019.089	-1736
1019.160	-1582
1019.230	-2133
1019.300	-1749
1019.371	-2477
1019.441	-1525
1019.511	-1662
1019.581	-1479
1019.651	-2056
1019.721	-1510
1019.791	-2051
1019.861	-2554
1019.931	-1712
1020.001	-1531
1020.071	-2250
1020.141	-1552
1020.211	-1832
1020.281	-1677
1020.351	-2428
1020.421	-1359
1020.491	-1929
1020.560	-2161
1020.630	-1424
1020.700	-2060
1020.770	-2110
1020.839	-2015
1020.909	-2237
1020.979	-1908
1021.048	-1825
1021.118	-2348
1021.187	-1705
1021.257	-1714
1021.326	-1376
1021.396	-1814
1021.465	-1148
1021.535	-1686
1021.604	-1904
1021.674	-1908
1021.743	-1419
1021.812	-2017
1021.882	-3044
1021.951	-1613
1022.020	-1516
1022.089	-2293
1022.159	-2041
1022.228	-1745
1022.297	-2259
1022.366	-2133
1022.435	-2013
1022.504	-1900
1022.573	-2862
1022.642	-1453
1022.711	-1971
1022.781	-1285
1022.849	-2090
1022.918	-2053
1022.987	-2082
1023.056	-2426
1023.125	-2060
1023.194	-1912
1023.263	-1643
1023.331	-899
1023.400	-1824
1023.469	-1866
1023.538	-1691
1023.606	-2097
1023.675	-1634
1023.744	-2143
1023.812	-2788
1023.881	-2240
1023.949	-2086
1024.018	-2163
1024.086	-1707
1024.155	-700
1024.223	-2069
1024.292	-2237
1024.360	-1387
1024.429	-2148
1024.497	-1881
1024.565	-1716
1024.634	-1847
1024.702	-1946
1024.770	-2047
1024.838	-2253
1024.907	-1542
1024.975	-1809
1025.043	-1382
1025.111	-2461
1025.179	-1958
1025.247	-1792
1025.315	-2353
1025.383	-1944
1025.451	-2053
1025.519	-1659
1025.587	-1631
1025.655	-1712
1025.723	-1758
1025.791	-2456
1025.859	-2121
1025.927	-2037
1025.995	-2080
1026.062	-1973
1026.130	-1365
1026.198	-1335
1026.266	-2103
1026.333	-1704
1026.401	-1848
1026.469	-1988
1026.536	-1773
1026.604	-2137
1026.671	-2275
1026.739	-1770
1026.806	-2004
1026.874	-1518
1026.941	-1959
1027.009	-2474
1027.076	-2507
1027.144	-811
1027.211	-1825
1027.278	-2119
1027.345	-1971
1027.413	-2319
1027.480	-1998
1027.547	-2166
1027.614	-1782
1027.682	-1549
1027.749	-2370
1027.816	-1925
1027.883	-1535
1027.950	-1973
1028.017	-2269
1028.084	-1281
1028.151	-2549
1028.218	-1577
1028.285	-1199
1028.352	-2435
1028.419	-2369
1028.486	-1504
1028.553	-1605
1028.619	-1990
1028.686	-1857
1028.753	-2268
1028.820	-2736
1028.886	-1706
1028.953	-2249
1029.020	-1101
1029.086	-2707
1029.153	-2201
1029.220	-2188
1029.286	-2055
1029.353	-1704
1029.419	-1891
1029.486	-2070
1029.552	-1824
1029.619	-2828
1029.685	-2220
1029.751	-1668
1029.818	-1062
1029.884	-2020
1029.951	-1703
1030.017	-2108
1030.083	-1909
1030.149	-2247
1030.216	-2025
1030.282	-1302
1030.348	-1641
1030.414	-1839
1030.480	-1905
1030.546	-1503
1030.612	-1456
1030.678	-1561
1030.744	-2016
1030.810	-1955
1030.876	-1579
1030.942	-2363
1031.008	-2686
1031.074	-1585
1031.140	-1682
1031.206	-1928
1031.272	-2178
1031.337	-2322
1031.403	-1985
1031.469	-1914
1031.534	-1757
1031.600	-2384
1031.666	-2001
1031.731	-2359
1031.797	-2004
1031.863	-1282
1031.928	-1877
1031.994	-2112
1032.059	-1959
1032.125	-2440
1032.190	-2009
1032.256	-1927
1032.321	-2858
1032.386	-1979
1032.452	-2235
1032.517	-2158
1032.582	-2125
1032.647	-1344
1032.713	-1625
1032.778	-1774
1032.843	-1377
1032.908	-2402
1032.974	-1351
1033.039	-2601
1033.104	-2271
1033.169	-1976
1033.234	-1558
1033.299	-1105
1033.364	-1916
1033.429	-1644
1033.494	-1203
1033.559	-1937
1033.624	-1187
1033.688	-2434
1033.753	-2730
1033.818	-1686
1033.883	-2004
1033.948	-1600
1034.013	-2202
1034.077	-2135
1034.142	-1021
1034.207	-999
1034.271	-1555
1034.336	-975
1034.400	-469
1034.465	-2706
1034.530	-1271
1034.594	-2217
1034.658	-1813
1034.723	-2294
1034.787	-2150
1034.852	-2826
1034.916	-2386
1034.981	-2021
1035.045	-1999
1035.109	-2107
1035.173	-1021
1035.238	-1577
1035.302	-1964
1035.366	-2522
1035.430	-1366
1035.495	-2753
1035.559	-1213
1035.623	-1801
1035.687	-2004
1035.751	-2246
1035.815	-2346
1035.879	-2601
1035.943	-2074
1036.007	-1934
1036.071	-2185
1036.135	-1723
1036.198	-2059
1036.262	-2137
1036.326	-1498
1036.390	-2485
1036.454	-2757
1036.517	-2019
1036.581	-2124
1036.645	-1686
1036.709	-1455
1036.772	-1761
1036.836	-2683
1036.900	-2619
1036.963	-903
1037.026	-1869
1037.090	-2689
1037.154	-1907
1037.217	-2431
1037.280	-1777
1037.344	-2310
1037.407	-1952
1037.471	-1436
1037.534	-2525
1037.597	-2131
1037.661	-1640
1037.724	-2001
1037.787	-2900
1037.850	-1826
1037.913	-2409
1037.977	-1581
1038.040	-1917
1038.103	-2024
1038.166	-2695
1038.229	-1635
1038.292	-2586
1038.355	-1856
1038.418	-2112
1038.481	-1424
1038.544	-2132
1038.607	-2798
1038.670	-2422
1038.732	-1185
1038.795	-2269
1038.858	-1931
1038.921	-1965
1038.984	-1421
1039.046	-2170
1039.109	-1422
1039.172	-1821
1039.234	-1884
1039.297	-2086
1039.360	-2449
1039.422	-1571
1039.485	-2267
1039.547	-2464
1039.610	-1482
1039.672	-2594
1039.734	-1867
1039.797	-2139
1039.859	-2084
1039.922	-2550
1039.984	-2036
1040.046	-2082
1040.109	-2281
1040.171	-2321
1040.233	-2083
1040.295	-1900
1040.358	-2124
1040.420	-2549
1040.482	-2949
1040.544	-2770
1040.606	-1102
1040.668	-2094
1040.730	-2362
1040.792	-2155
1040.854	-3321
1040.916	-1565
1040.978	-1701
1041.040	-1919
1041.102	-2159
1041.164	-2279
1041.225	-2190
1041.287	-2607
1041.349	-2317
1041.411	-1752
1041.472	-2605
1041.534	-1249
1041.596	-1897
1041.657	-1951
1041.719	-1957
1041.781	-1968
1041.842	-1715
1041.904	-1704
1041.965	-2025
1042.027	-2791
1042.088	-1532
1042.150	-1903
1042.211	-1761
1042.272	-1611
1042.334	-1758
1042.395	-2428
1042.456	-1914
1042.518	-1752
1042.579	-2517
1042.640	-2176
1042.701	-2562
1042.763	-2360
1042.824	-2426
1042.885	-2790
1042.946	-2401
1043.007	-2342
1043.068	-1830
1043.129	-2393
1043.190	-2100
1043.251	-1905
1043.312	-1911
1043.373	-858
1043.434	-2402
1043.495	-1990
1043.556	-1202
1043.616	-2725
1043.677	-2669
1043.738	-2223
1043.799	-1523
1043.859	-2566
1043.920	-2749
1043.981	-2458
1044.041	-1678
1044.102	-1711
1044.162	-2176
1044.223	-1990
1044.284	-1919
1044.344	-1184
1044.405	-2126
1044.465	-2002
1044.525	-2128
1044.586	-2711
1044.646	-2620
1044.707	-2002
1044.767	-1241
1044.827	-2621
1044.887	-2410
1044.948	-1943
1045.008	-1967
1045.068	-2057
1045.128	-1296
1045.188	-1663
1045.249	-2090
1045.309	-1951
1045.369	-1936
1045.429	-1714
1045.489	-1962
1045.549	-1490
1045.609	-1920
1045.669	-1628
1045.729	-1784
1045.789	-2139
1045.848	-2238
1045.908	-1271
1045.968	-2074
1046.028	-2096
1046.088	-1348
1046.147	-1783
1046.207	-1748
1046.267	-1900
1046.326	-1952
1046.386	-1397
1046.446	-1677
1046.505	-1796
1046.565	-923
1046.624	-945
1046.684	-787
1046.743	-926
1046.803	-299
1046.862	-1222
1046.922	0
