'Start Wavelength	183.907
'End Wavelength	1046.922
'Gate Delay	5.000
'Gate Width (ms)	1.050
'Laser Output Level	0.000
'X Position	0.000
'Y Position	0.000
'Z Position	0.000
'Grid Point Number	1.000
'Shot Number	100.000
183.907	349.000
183.977	417.000
184.047	-438
184.116	-384
184.186	645
184.256	73
184.325	196
184.395	-440
184.465	-138
184.534	1179
184.604	-870
184.674	241
184.743	-568
184.813	193
184.883	368
184.952	286
185.022	288
185.092	193
185.161	-351
185.231	-248
185.301	48
185.370	180
185.440	-271
185.509	-333
185.579	46
185.649	356
185.718	514
185.788	782
185.857	-24
185.927	552
185.996	-251
186.066	-246
186.136	-192
186.205	-328
186.275	209
186.344	-156
186.414	219
186.483	-83
186.553	33
186.622	588
186.692	-127
186.761	329
186.831	-241
186.900	444
186.970	-95
187.039	142
187.109	370
187.178	498
187.248	-275
187.317	-263
187.387	-450
187.456	169
187.526	257
187.595	-69
187.664	-322
187.734	230
187.803	331
187.873	261
187.942	37
188.012	-69
188.081	-409
188.150	-130
188.220	226
188.289	833
188.358	287
188.428	574
188.497	-114
188.567	872
188.636	194
188.705	182
188.775	317
188.844	-426
188.913	698
188.983	-167
189.052	-82
189.121	658
189.191	-333
189.260	796
189.329	-414
189.399	372
189.468	21
189.537	-211
189.606	-112
189.676	466
189.745	-387
189.814	495
189.883	-157
189.953	527
190.022	15
190.091	1004
190.161	1726
190.230	1065
190.299	469
190.368	545
190.437	-400
190.507	67
190.576	-336
190.645	51
190.714	-736
190.783	31
190.853	278
190.922	494
190.991	825
191.060	844
191.129	-56
191.198	510
191.268	184
191.337	158
191.406	1
191.475	-153
191.544	-278
191.613	-360
191.682	-41
191.752	-11
191.821	-439
191.890	496
191.959	459
192.028	333
192.097	61
192.166	-180
192.235	-1511
192.304	462
192.373	-141
192.442	487
192.511	-218
192.580	391
192.650	18
192.719	168
192.788	706
192.857	719
192.926	71
192.995	112
193.064	-40
193.133	24
193.202	-422
193.271	340
193.340	13
193.409	634
193.478	430
193.547	381
193.615	-365
193.684	1224
193.753	-112
193.822	444
193.891	931
193.960	461
194.029	-18
194.098	753
194.167	-245
194.236	609
194.305	-701
194.374	650
194.443	-303
194.512	827
194.580	765
194.649	678
194.718	-22
194.787	49
194.856	75
194.925	599
194.994	-506
195.062	183
195.131	-247
195.200	75
195.269	879
195.338	-190
195.407	305
195.475	-250
195.544	320
195.613	685
195.682	-26
195.751	970
195.819	364
195.888	502
195.957	1010
196.026	189
196.094	735
196.163	508
196.232	295
196.301	1125
196.369	359
196.438	318
196.507	767
196.576	231
196.644	236
196.713	920
196.782	-386
196.850	636
196.919	176
196.988	54
197.056	-246
197.125	569
197.194	-124
197.262	-3
197.331	189
197.400	-155
197.468	-420
197.537	54
197.606	81
197.674	267
197.743	1482
197.812	217
197.880	1189
197.949	488
198.017	1230
198.086	889
198.155	-128
198.223	90
198.292	1245
198.360	1051
198.429	-558
198.497	647
198.566	1174
198.635	1328
198.703	1082
198.772	968
198.840	530
198.909	1292
198.977	201
199.046	690
199.114	1336
199.183	586
199.251	-428
199.320	303
199.388	-306
199.457	487
199.525	683
199.594	373
199.662	-194
199.731	-283
199.799	-12
199.867	520
199.936	-152
200.004	275
200.073	-247
200.141	697
200.210	31
200.278	417
200.346	-246
200.415	399
200.483	-175
200.552	353
200.620	520
200.688	-282
200.757	-156
200.825	536
200.893	-228
200.962	766
201.030	-188
201.098	286
201.167	-107
201.235	53
201.303	-355
201.372	391
201.440	41
201.508	930
201.577	-141
201.645	880
201.713	-204
201.781	81
201.850	203
201.918	635
201.986	-88
202.055	730
202.123	-5
202.191	-14
202.259	209
202.327	185
202.396	-198
202.464	71
202.532	268
202.600	2741
202.669	407
202.737	328
202.805	-835
202.873	119
202.941	872
203.009	846
203.078	342
203.146	178
203.214	-108
203.282	-425
203.350	831
203.418	-48
203.487	791
203.555	170
203.623	-302
203.691	591
203.759	281
203.827	-7
203.895	354
203.963	443
204.031	-107
204.099	924
204.168	-548
204.236	-219
204.304	468
204.372	667
204.440	-498
204.508	-308
204.576	-257
204.644	675
204.712	-292
204.780	610
204.848	757
204.916	-105
204.984	-506
205.052	482
205.120	94
205.188	-157
205.256	41
205.324	632
205.392	-547
205.460	791
205.528	808
205.596	237
205.664	13
205.732	457
205.799	2180
205.867	2650
205.935	-171
206.003	651
206.071	-368
206.139	972
206.207	-94
206.275	426
206.343	-364
206.411	384
206.478	424
206.546	240
206.614	-109
206.682	724
206.750	549
206.818	1297
206.885	330
206.953	-321
207.021	1460
207.089	837
207.157	-58
207.225	240
207.292	-69
207.360	-68
207.428	-374
207.496	-102
207.563	62
207.631	614
207.699	249
207.767	329
207.834	406
207.902	111
207.970	642
208.038	433
208.105	731
208.173	-169
208.241	1235
208.309	99
208.376	466
208.444	1567
208.512	281
208.579	-382
208.647	669
208.715	535
208.782	-84
208.850	115
208.918	360
208.985	156
209.053	234
209.120	601
209.188	-211
209.256	-52
209.323	-172
209.391	231
209.459	765
209.526	704
209.594	32
209.661	614
209.729	10
209.796	987
209.864	399
209.932	31
209.999	830
210.067	845
210.134	330
210.202	725
210.269	1626
210.337	1325
210.404	-183
210.472	661
210.539	475
210.607	204
210.674	357
210.742	369
210.809	407
210.877	1115
210.944	575
211.012	329
211.079	1107
211.146	232
211.214	484
211.281	1286
211.349	1005
211.416	78
211.484	307
211.551	599
211.618	407
211.686	748
211.753	623
211.821	742
211.888	378
211.955	736
212.023	540
212.090	650
212.157	412
212.225	627
212.292	2135
212.359	3039
212.427	8568
212.494	3795
212.561	1308
212.629	308
212.696	123
212.763	1260
212.831	-455
212.898	1025
212.965	715
213.032	803
213.100	991
213.167	1000
213.234	508
213.301	782
213.369	140
213.436	612
213.503	234
213.570	933
213.638	1270
213.705	608
213.772	-63
213.839	862
213.906	741
213.973	757
214.041	169
214.108	1431
214.175	436
214.242	1043
214.309	353
214.376	721
214.444	917
214.511	999
214.578	526
214.645	698
214.712	919
214.779	452
214.846	468
214.913	963
214.980	382
215.048	1094
215.115	1752
215.182	933
215.249	14
215.316	1243
215.383	619
215.450	297
215.517	595
215.584	1371
215.651	559
215.718	355
215.785	710
215.852	1032
215.919	1172
215.986	1687
216.053	-609
216.120	342
216.187	170
216.254	1023
216.321	768
216.388	999
216.455	892
216.522	669
216.589	1485
216.656	2524
216.722	1712
216.789	962
216.856	688
216.923	626
216.990	1480
217.057	897
217.124	1554
217.191	1319
217.258	951
217.324	1530
217.391	1509
217.458	1396
217.525	301
217.592	951
217.659	679
217.725	977
217.792	2034
217.859	2022
217.926	-213
217.993	1402
218.059	286
218.126	1065
218.193	733
218.260	1090
218.327	714
218.393	869
218.460	542
218.527	488
218.594	804
218.660	2734
218.727	2666
218.794	645
218.860	368
218.927	386
218.994	-221
219.061	-17
219.127	597
219.194	1989
219.261	1191
219.327	656
219.394	494
219.461	21
219.527	852
219.594	1259
219.661	87
219.727	229
219.794	847
219.860	301
219.927	832
219.994	1719
220.060	2903
220.127	2493
220.193	338
220.260	700
220.326	1172
220.393	1331
220.460	1790
220.526	1040
220.593	1035
220.659	1569
220.726	456
220.792	4342
220.859	2279
220.925	3207
220.992	4596
221.058	4968
221.125	6166
221.191	3900
221.258	1710
221.324	639
221.391	757
221.457	639
221.524	920
221.590	1570
221.657	5571
221.723	3750
221.789	3129
221.856	3808
221.922	1004
221.989	835
222.055	1146
222.121	360
222.188	1410
222.254	1188
222.321	656
222.387	296
222.453	808
222.520	1300
222.586	-387
222.652	809
222.719	-176
222.785	778
222.851	153
222.918	946
222.984	-43
223.050	518
223.116	-10
223.183	1499
223.249	543
223.315	248
223.382	482
223.448	1271
223.514	-226
223.580	1033
223.647	413
223.713	429
223.779	588
223.845	773
223.911	542
223.978	-91
224.044	-53
224.110	424
224.176	454
224.242	806
224.309	12
224.375	609
224.441	341
224.507	108
224.573	-362
224.639	1251
224.705	-3
224.772	1135
224.838	-109
224.904	805
224.970	-672
225.036	1052
225.102	556
225.168	1040
225.234	623
225.300	823
225.366	965
225.432	1200
225.499	164
225.565	915
225.631	-67
225.697	1332
225.763	920
225.829	1058
225.895	1961
225.961	2507
226.027	1553
226.093	705
226.159	2241
226.225	1688
226.291	4024
226.357	7507
226.423	2559
226.489	2180
226.554	1855
226.620	849
226.686	1891
226.752	3608
226.818	2865
226.884	10260
226.950	7633
227.016	2643
227.082	2119
227.148	1633
227.214	997
227.279	1638
227.345	57
227.411	1452
227.477	1301
227.543	5097
227.609	3618
227.674	2516
227.740	865
227.806	1305
227.872	415
227.938	961
228.003	1916
228.069	563
228.135	227
228.201	592
228.267	590
228.332	1056
228.398	1147
228.464	1371
228.530	205
228.595	777
228.661	-268
228.727	1968
228.792	1190
228.858	912
228.924	531
228.990	2247
229.055	726
229.121	1552
229.187	586
229.252	830
229.318	385
229.384	861
229.449	1621
229.515	-771
229.581	-194
229.646	1299
229.712	1359
229.777	3142
229.843	3441
229.909	2628
229.974	1879
230.040	2457
230.105	1369
230.171	1366
230.236	1589
230.302	3621
230.368	2041
230.433	1506
230.499	1416
230.564	1984
230.630	437
230.695	643
230.761	1295
230.826	-396
230.892	2695
230.957	699
231.023	457
231.088	1097
231.154	522
231.219	1345
231.284	1206
231.350	958
231.415	-285
231.481	1545
231.546	1099
231.612	442
231.677	382
231.742	-101
231.808	971
231.873	614
231.939	-1341
232.004	2958
232.069	2195
232.135	178
232.200	331
232.265	778
232.331	604
232.396	1019
232.461	-367
232.527	191
232.592	-587
232.657	1107
232.723	2169
232.788	1563
232.853	746
232.918	792
232.984	-341
233.049	404
233.114	1653
233.179	1509
233.245	3387
233.310	4801
233.375	894
233.440	1194
233.506	379
233.571	508
233.636	729
233.701	984
233.766	2944
233.832	3633
233.897	1711
233.962	374
234.027	2198
234.092	931
234.157	960
234.222	625
234.288	2245
234.353	9440
234.418	7878
234.483	4867
234.548	2591
234.613	2081
234.678	1093
234.743	2095
234.808	9797
234.873	4786
234.938	2286
235.004	1607
235.069	921
235.134	1050
235.199	996
235.264	1255
235.329	1063
235.394	1175
235.459	1953
235.524	1551
235.589	1066
235.654	196
235.719	-158
235.784	1387
235.849	1599
235.913	4641
235.978	4977
236.043	5554
236.108	1400
236.173	1421
236.238	2092
236.303	1110
236.368	395
236.433	3137
236.498	4843
236.563	3105
236.627	3397
236.692	14163
236.757	8787
236.822	4016
236.887	3542
236.952	3583
237.017	1045
237.081	2906
237.146	1897
237.211	4932
237.276	12761
237.341	24538
237.405	10340
237.470	4504
237.535	3383
237.600	1793
237.664	2532
237.729	1597
237.794	1256
237.859	4228
237.923	3117
237.988	2321
238.053	4286
238.118	4249
238.182	10802
238.247	10412
238.312	4083
238.376	2859
238.441	1111
238.506	3233
238.570	76
238.635	2800
238.700	1123
238.764	1964
238.829	5528
238.893	5316
238.958	2769
239.023	1926
239.087	1546
239.152	2351
239.216	555
239.281	1711
239.346	774
239.410	680
239.475	2088
239.539	11933
239.604	7109
239.668	2681
239.733	1148
239.797	2790
239.862	8673
239.926	9985
239.991	3239
240.055	1794
240.120	1912
240.184	1319
240.249	826
240.313	1410
240.378	679
240.442	6383
240.507	10364
240.571	2829
240.635	5053
240.700	5636
240.764	2233
240.829	1260
240.893	393
240.957	1636
241.022	6735
241.086	11542
241.151	4755
241.215	1360
241.279	3598
241.344	6130
241.408	2685
241.472	1674
241.537	2257
241.601	1415
241.665	56
241.730	1207
241.794	1562
241.858	968
241.922	1012
241.987	1805
242.051	988
242.115	341
242.179	776
242.244	672
242.308	1879
242.372	1356
242.436	1859
242.501	1136
242.565	493
242.629	666
242.693	936
242.757	918
242.822	649
242.886	1779
242.950	1699
243.014	1627
243.078	2090
243.142	2013
243.206	773
243.271	1571
243.335	891
243.399	2278
243.463	9994
243.527	28542
243.591	7815
243.655	3511
243.719	1640
243.783	3525
243.847	3985
243.911	4866
243.975	6277
244.040	3878
244.104	3174
244.168	1766
244.232	3007
244.296	4940
244.360	4837
244.424	2921
244.488	2259
244.552	2259
244.615	64
244.679	1118
244.743	1628
244.807	1808
244.871	1591
244.935	976
244.999	-41
245.063	2022
245.127	2850
245.191	4339
245.255	3078
245.319	3305
245.383	1590
245.446	2662
245.510	-58
245.574	2166
245.638	1617
245.702	1519
245.766	6001
245.829	4161
245.893	1589
245.957	1659
246.021	1527
246.085	2054
246.149	2717
246.212	8491
246.276	11405
246.340	4473
246.404	3649
246.467	4578
246.531	5206
246.595	4731
246.659	2546
246.722	2292
246.786	3349
246.850	4715
246.913	5059
246.977	1869
247.041	1709
247.104	1988
247.168	2827
247.232	7249
247.295	15836
247.359	7283
247.423	2950
247.486	6896
247.550	3882
247.614	3565
247.677	3713
247.741	2595
247.804	1906
247.868	3818
247.932	6053
247.995	14605
248.059	4902
248.122	2561
248.186	4554
248.249	6248
248.313	23471
248.376	23787
248.440	14712
248.503	4368
248.567	6220
248.630	6971
248.694	9320
248.757	12887
248.821	25529
248.884	14599
248.948	13479
249.011	19942
249.075	29763
249.138	23120
249.202	9005
249.265	6558
249.328	8436
249.392	5222
249.455	5154
249.519	3589
249.582	4739
249.645	7883
249.709	4958
249.772	3216
249.835	3164
249.899	4894
249.962	3543
250.025	2274
250.089	9800
250.152	13646
250.215	6480
250.279	3850
250.342	4454
250.405	3450
250.468	3022
250.532	5486
250.595	8035
250.658	28426
250.721	42538
250.785	14908
250.848	8672
250.911	5060
250.974	5379
251.038	7222
251.101	14859
251.164	6996
251.227	8279
251.290	6455
251.354	9829
251.417	40239
251.480	35008
251.543	23746
251.606	72728
251.669	46239
251.732	17992
251.795	19705
251.859	21278
251.922	46423
251.985	22599
252.048	10135
252.111	7160
252.174	7172
252.237	14060
252.300	29065
252.363	29787
252.426	58021
252.489	22927
252.552	11720
252.615	8341
252.678	9659
252.741	22143
252.804	26565
252.867	59181
252.930	34366
252.993	19085
253.056	11544
253.119	7924
253.182	6362
253.245	10025
253.308	8784
253.371	7964
253.434	7542
253.497	7765
253.559	15182
253.622	9775
253.685	12538
253.748	12435
253.811	5658
253.874	8578
253.937	7448
254.000	4678
254.062	10241
254.125	14303
254.188	12753
254.251	10114
254.314	5742
254.376	10056
254.439	11494
254.502	9788
254.565	10520
254.628	17971
254.690	9821
254.753	5772
254.816	5494
254.878	5369
254.941	10771
255.004	10635
255.067	5398
255.129	4719
255.192	3452
255.255	1846
255.317	4120
255.380	2248
255.443	1968
255.505	1315
255.568	2006
255.631	1343
255.693	2626
255.756	889
255.819	2339
255.881	1094
255.944	1405
256.006	1909
256.069	1160
256.132	650
256.194	3332
256.257	10306
256.319	6814
256.382	5367
256.444	4032
256.507	1810
256.569	2068
256.632	1210
256.694	3260
256.757	7622
256.819	20345
256.882	6381
256.944	4111
257.007	4099
257.069	4270
257.132	1933
257.194	2845
257.257	2308
257.319	2261
257.381	596
257.444	5837
257.506	25587
257.569	26198
257.631	21516
257.693	10225
257.756	4751
257.818	4361
257.880	1704
257.943	3718
258.005	1506
258.067	2161
258.130	868
258.192	3560
258.254	7663
258.317	3294
258.379	2416
258.441	9976
258.503	8438
258.566	13847
258.628	16456
258.690	2885
258.753	3999
258.815	6906
258.877	3262
258.939	2489
259.001	1861
259.064	1583
259.126	2621
259.188	4366
259.250	2619
259.312	5196
259.375	14767
259.437	7726
259.499	2112
259.561	2545
259.623	2738
259.685	2063
259.747	3030
259.809	12448
259.872	22482
259.934	34192
259.996	24630
260.058	6108
260.120	3748
260.182	3181
260.244	2141
260.306	1169
260.368	1521
260.430	1968
260.492	3762
260.554	11184
260.616	9396
260.678	18084
260.740	23517
260.802	6022
260.864	4846
260.926	2437
260.988	2822
261.050	1932
261.112	4837
261.174	20205
261.236	17095
261.298	5543
261.359	10390
261.421	15083
261.483	3258
261.545	3960
261.607	1001
261.669	2556
261.731	6530
261.793	16192
261.854	5709
261.916	3330
261.978	1992
262.040	3287
262.102	3083
262.164	5621
262.225	4864
262.287	2855
262.349	7094
262.411	5669
262.472	2840
262.534	5976
262.596	14665
262.658	4479
262.719	1445
262.781	5333
262.843	13633
262.904	6289
262.966	3966
263.028	4303
263.090	24966
263.151	55156
263.213	15375
263.275	7309
263.336	3662
263.398	3241
263.459	1351
263.521	1972
263.583	7325
263.644	4495
263.706	1545
263.767	302
263.829	1401
263.891	883
263.952	982
264.014	202
264.075	609
264.137	3861
264.198	2070
264.260	427
264.321	875
264.383	4725
264.444	7891
264.506	1457
264.567	1414
264.629	3308
264.690	2244
264.752	2043
264.813	1768
264.875	591
264.936	1566
264.998	867
265.059	699
265.120	1492
265.182	1552
265.243	8317
265.305	6380
265.366	1986
265.427	1430
265.489	1286
265.550	-374
265.611	1547
265.673	984
265.734	760
265.795	516
265.857	249
265.918	175
265.979	2892
266.040	15029
266.102	9936
266.163	3718
266.224	3570
266.286	1757
266.347	1156
266.408	1072
266.469	1543
266.530	861
266.592	1501
266.653	4570
266.714	7123
266.775	2387
266.836	1207
266.898	148
266.959	2790
267.020	1406
267.081	1745
267.142	997
267.203	1266
267.264	-97
267.326	1913
267.387	608
267.448	992
267.509	1186
267.570	626
267.631	309
267.692	155
267.753	372
267.814	1093
267.875	4449
267.936	9386
267.997	3055
268.058	1757
268.119	1692
268.180	2568
268.241	1011
268.302	1364
268.363	767
268.424	1520
268.485	1229
268.546	893
268.607	56
268.668	1487
268.729	-566
268.790	862
268.851	1579
268.912	5383
268.972	6399
269.033	2814
269.094	920
269.155	967
269.216	490
269.277	1371
269.338	262
269.398	1779
269.459	1246
269.520	2672
269.581	3738
269.642	6057
269.702	2929
269.763	2106
269.824	1849
269.885	2627
269.945	4448
270.006	1553
270.067	621
270.128	1337
270.188	1664
270.249	1202
270.310	15
270.370	918
270.431	881
270.492	591
270.553	890
270.613	5190
270.674	9431
270.734	3606
270.795	2229
270.856	3895
270.916	1735
270.977	1100
271.038	1949
271.098	2317
271.159	3952
271.219	3935
271.280	664
271.340	2045
271.401	1696
271.462	7916
271.522	3205
271.583	1062
271.643	1856
271.704	1871
271.764	2567
271.825	6919
271.885	23360
271.946	29328
272.006	8940
272.066	15061
272.127	23821
272.187	7739
272.248	4049
272.308	4940
272.369	17592
272.429	8657
272.489	6666
272.550	6527
272.610	7533
272.671	4978
272.731	5017
272.791	9179
272.852	4500
272.912	4017
272.972	1898
273.033	2325
273.093	3795
273.153	4348
273.214	2827
273.274	3520
273.334	11411
273.394	25474
273.455	10075
273.515	10100
273.575	22654
273.635	8928
273.696	14291
273.756	24841
273.816	9786
273.876	6728
273.936	14584
273.997	24563
274.057	5900
274.117	3881
274.177	6686
274.237	30789
274.297	25453
274.358	20460
274.418	21072
274.478	14399
274.538	5682
274.598	5438
274.658	21905
274.718	26672
274.778	9417
274.838	4534
274.898	12694
274.958	37774
275.018	27811
275.078	16414
275.138	6934
275.198	3844
275.258	2541
275.318	3976
275.378	7634
275.438	7842
275.498	5757
275.558	17998
275.618	35098
275.678	18227
275.738	11201
275.798	6987
275.858	3546
275.918	1779
275.978	3776
276.038	2797
276.098	2481
276.157	6784
276.217	17376
276.277	8004
276.337	6391
276.397	2525
276.457	4422
276.517	2366
276.576	1853
276.636	2323
276.696	4560
276.756	11460
276.815	6985
276.875	3207
276.935	4340
276.995	3811
277.055	1903
277.114	3052
277.174	4989
277.234	15287
277.293	6023
277.353	3128
277.413	2714
277.472	2745
277.532	3257
277.592	4590
277.651	15147
277.711	26066
277.771	8708
277.830	32464
277.890	24148
277.950	19092
278.009	51204
278.069	18252
278.128	19302
278.188	26224
278.248	11846
278.307	30829
278.367	17302
278.426	5785
278.486	4132
278.545	3061
278.605	3151
278.664	2502
278.724	3463
278.783	11647
278.843	26121
278.902	7097
278.962	4702
279.021	5338
279.081	7546
279.140	6130
279.199	4420
279.259	4101
279.318	5526
279.378	8271
279.437	13800
279.496	52895
279.556	145904
279.615	109198
279.675	30626
279.734	17902
279.793	26799
279.853	38348
279.912	14582
279.971	9335
280.031	7114
280.090	15833
280.149	26455
280.208	23181
280.268	97357
280.327	95900
280.386	23883
280.445	18077
280.505	15350
280.564	7840
280.623	5458
280.682	9830
280.742	13145
280.801	5260
280.860	2805
280.919	2543
280.978	2625
281.037	3201
281.097	2043
281.156	2975
281.215	1618
281.274	4191
281.333	18030
281.392	13212
281.451	3196
281.510	2222
281.569	1972
281.628	2014
281.688	1874
281.747	3111
281.806	2428
281.865	2168
281.924	2227
281.983	2683
282.042	1895
282.101	1157
282.160	1763
282.219	1087
282.278	3179
282.337	10055
282.396	6298
282.454	3577
282.513	4265
282.572	15707
282.631	8191
282.690	2695
282.749	1825
282.808	3933
282.867	3034
282.926	3543
282.985	1454
283.043	1706
283.102	1000
283.161	3317
283.220	7274
283.279	16950
283.338	4877
283.396	2915
283.455	2278
283.514	3459
283.573	5340
283.631	4219
283.690	2553
283.749	2555
283.808	6160
283.866	8320
283.925	2824
283.984	3483
284.043	3810
284.101	5241
284.160	2553
284.219	2883
284.277	3389
284.336	6823
284.395	22163
284.453	18258
284.512	6570
284.570	8529
284.629	7500
284.688	7458
284.746	7768
284.805	8529
284.863	11945
284.922	14822
284.981	16358
285.039	23654
285.098	41881
285.156	97078
285.215	169021
285.273	158776
285.332	98054
285.390	53146
285.449	32170
285.507	23940
285.566	16982
285.624	13515
285.683	9952
285.741	7732
285.799	6979
285.858	6053
285.916	4952
285.975	5067
286.033	2703
286.091	3490
286.150	2459
286.208	3625
286.267	3735
286.325	4298
286.383	5541
286.442	5581
286.500	1743
286.558	2276
286.616	1710
286.675	3850
286.733	3850
286.791	3359
286.850	3388
286.908	4830
286.966	7894
287.024	3113
287.083	2190
287.141	1742
287.199	2420
287.257	4031
287.315	2460
287.374	3329
287.432	8190
287.490	5539
287.548	2973
287.606	3288
287.664	2710
287.723	3271
287.781	4189
287.839	2526
287.897	2913
287.955	4024
288.013	6166
288.071	16578
288.129	64576
288.187	169213
288.245	69733
288.303	21836
288.361	11942
288.419	9569
288.477	6997
288.535	4466
288.593	3368
288.651	3008
288.709	2101
288.767	1920
288.825	1662
288.883	983
288.941	1387
288.999	1869
289.057	1375
289.115	965
289.173	866
289.231	2080
289.289	1826
289.346	1512
289.404	2574
289.462	4534
289.520	4433
289.578	2369
289.636	803
289.694	471
289.751	639
289.809	845
289.867	1741
289.925	2040
289.983	2359
290.040	1733
290.098	680
290.156	2105
290.214	2197
290.271	1142
290.329	754
290.387	971
290.444	875
290.502	428
290.560	413
290.617	-223
290.675	580
290.733	1475
290.790	1483
290.848	1420
290.906	1859
290.963	1791
291.021	514
291.078	867
291.136	768
291.194	6716
291.251	14588
291.309	4651
291.366	1208
291.424	1417
291.481	1624
291.539	2391
291.596	1195
291.654	673
291.711	635
291.769	2023
291.826	5226
291.884	3455
291.941	994
291.999	1837
292.056	1982
292.114	3187
292.171	736
292.228	1817
292.286	3302
292.343	6357
292.401	6905
292.458	4209
292.515	2649
292.573	4052
292.630	3704
292.687	3600
292.745	1799
292.802	2826
292.859	6712
292.917	18746
292.974	11738
293.031	3417
293.089	2823
293.146	2219
293.203	1411
293.260	1496
293.318	2583
293.375	2968
293.432	1369
293.489	1654
293.546	1065
293.604	3522
293.661	11704
293.718	30800
293.775	14258
293.832	7648
293.889	5315
293.947	6806
294.004	4061
294.061	4065
294.118	8382
294.175	16464
294.232	12382
294.289	5700
294.346	2485
294.403	3284
294.460	2992
294.517	2518
294.574	1508
294.631	1814
294.688	2953
294.745	9456
294.802	30859
294.859	26732
294.916	11896
294.973	9292
295.030	7144
295.087	5391
295.144	3723
295.201	3083
295.258	2467
295.315	3665
295.372	13834
295.429	25624
295.486	10739
295.542	4753
295.599	7367
295.656	12755
295.713	13466
295.770	22962
295.827	7780
295.883	4411
295.940	3167
295.997	7121
296.054	6823
296.111	2462
296.167	2572
296.224	1488
296.281	1250
296.338	1816
296.394	1631
296.451	2520
296.508	9908
296.564	20275
296.621	13447
296.678	27908
296.734	38484
296.791	13770
296.848	6203
296.904	7337
296.961	17889
297.018	30052
297.074	19965
297.131	7866
297.187	6119
297.244	9962
297.301	29150
297.357	49150
297.414	18027
297.470	7186
297.527	4406
297.583	3947
297.640	4163
297.696	3147
297.753	2242
297.809	1841
297.866	1263
297.922	2453
297.979	1507
298.035	2856
298.092	5335
298.148	15946
298.204	16123
298.261	7980
298.317	12002
298.374	32438
298.430	20207
298.486	9432
298.543	5672
298.599	5662
298.656	5285
298.712	12083
298.768	25358
298.824	18285
298.881	6139
298.937	3838
298.993	3705
299.050	4753
299.106	4084
299.162	2974
299.218	2744
299.275	3158
299.331	3612
299.387	8982
299.443	30597
299.500	34664
299.556	15556
299.612	7108
299.668	6707
299.724	9501
299.780	10960
299.837	5662
299.893	8859
299.949	28846
300.005	34844
300.061	29083
300.117	42508
300.173	23411
300.229	10526
300.285	11851
300.341	14024
300.397	7228
300.453	4359
300.510	3225
300.566	4246
300.622	7333
300.678	20033
300.734	35119
300.790	30236
300.845	34260
300.901	22687
300.957	31798
301.013	24308
301.069	9762
301.125	7360
301.181	7727
301.237	4488
301.293	3213
301.349	2430
301.405	2094
301.461	1487
301.516	2756
301.572	4385
301.628	9323
301.684	8286
301.740	10566
301.796	18136
301.851	13449
301.907	21256
301.963	24106
302.019	35537
302.074	86004
302.130	85298
302.186	39615
302.242	14714
302.297	10044
302.353	10628
302.409	19492
302.464	17254
302.520	14620
302.576	32823
302.631	38985
302.687	23078
302.743	9425
302.798	5267
302.854	3597
302.910	3948
302.965	4824
303.021	10083
303.076	11136
303.132	13208
303.187	16539
303.243	9216
303.299	4253
303.354	2746
303.410	2463
303.465	2576
303.521	2951
303.576	2493
303.632	3705
303.687	9300
303.743	27507
303.798	23389
303.853	9178
303.909	4494
303.964	4873
304.020	7764
304.075	12828
304.130	11359
304.186	20510
304.241	22060
304.297	16741
304.352	9082
304.358	8646
304.407	5104
304.449	4870
304.463	4797
304.518	5185
304.539	4571
304.573	3581
304.629	4507
304.630	4562
304.684	7276
304.720	16319
304.739	20884
304.794	31692
304.811	27379
304.850	16904
304.902	6987
304.905	6354
304.960	3942
304.992	3900
305.015	3887
305.071	3458
305.083	3317
305.126	2809
305.173	2043
305.181	1920
305.236	1968
305.264	2129
305.292	2328
305.347	3293
305.354	3415
305.402	4115
305.445	3362
305.457	3180
305.512	5528
305.535	5741
305.567	5895
305.622	6832
305.626	7008
305.678	11515
305.716	23051
305.733	27355
305.788	33723
305.807	29940
305.843	23165
305.897	27001
305.898	27028
305.953	28368
305.988	19183
306.008	14069
306.063	8848
306.078	7865
306.118	5591
306.168	3906
306.173	3781
306.228	2947
306.259	3007
306.283	3036
306.338	2096
306.349	2007
306.393	1744
306.440	2565
306.448	2695
306.503	2944
306.530	3188
306.558	4028
306.613	9277
306.620	10114
306.668	17208
306.711	26560
306.723	27872
306.778	24808
306.801	19705
306.833	13433
306.888	6487
306.892	6210
306.943	4031
306.982	3451
306.997	3235
307.052	2479
307.072	2418
307.107	2696
307.162	2695
307.163	2712
307.217	4602
307.253	5419
307.272	5610
307.327	6352
307.343	6034
307.381	5317
307.434	5689
307.436	5865
307.491	11072
307.524	17023
307.546	19577
307.600	24638
307.614	22622
307.655	13875
307.704	6573
307.710	6155
307.765	5290
307.795	6060
307.819	7111
307.874	11132
307.885	11145
307.929	9148
307.975	6865
307.984	6811
308.038	8488
308.065	10896
308.093	18144
308.148	37555
308.156	42853
308.202	75139
308.246	96704
308.257	95433
308.312	52271
308.336	38387
308.366	30528
308.421	21778
308.426	20861
308.475	12934
308.517	8368
308.530	7449
308.585	6517
308.607	5903
308.639	5713
308.694	6300
308.697	6380
308.748	9574
308.787	13311
308.803	13523
308.857	11433
308.877	10107
308.912	8646
308.967	7813
308.967	7832
309.021	12140
309.058	16018
309.076	19923
309.130	35716
309.148	41830
309.185	69573
309.238	117131
309.239	117603
309.293	146688
309.328	139917
309.348	120583
309.402	57645
309.418	42429
309.457	29202
309.508	18695
309.511	18405
309.566	18539
309.598	19882
309.620	25261
309.674	42882
309.688	47440
309.729	45797
309.778	35818
309.783	34835
309.837	23254
309.868	18266
309.892	20546
309.946	28827
309.959	31951
310.001	43347
310.049	53574
310.055	51917
310.109	31134
310.139	18984
310.163	14450
310.218	7940
310.229	6911
310.272	5667
310.319	4824
310.326	4597
310.381	3138
310.409	2626
310.435	2512
310.489	2143
310.499	2155
310.543	2689
310.589	3042
310.598	2997
310.652	2877
310.679	2704
310.706	2432
310.760	2214
310.769	2142
310.814	2066
310.859	2106
310.868	2127
310.923	2287
310.948	2354
310.977	2816
311.031	3788
311.038	3927
311.085	3727
311.128	3291
311.139	3233
311.193	3030
311.218	2936
311.247	2704
311.301	2333
311.308	2277
311.356	2213
311.398	2245
311.410	2274
311.464	2303
311.488	2344
311.518	2313
311.572	2247
311.578	2258
311.626	3818
311.668	5108
311.680	4948
311.734	4114
311.758	3731
311.788	3503
311.842	3203
311.847	3170
311.896	3726
311.937	4246
311.950	4204
312.004	4004
312.027	3923
312.058	3684
312.112	3257
312.117	3216
312.165	2754
312.207	2366
312.297	2838
312.386	2526
312.476	3275
312.566	8998
312.656	4116
312.745	1469
312.835	1967
312.925	3299
313.015	3230
313.104	2296
313.194	2651
313.284	1893
313.374	3404
313.463	3756
313.553	2850
313.643	1812
313.732	1405
313.822	1688
313.912	2745
314.001	3583
314.091	2949
314.180	3370
314.270	4864
314.360	4115
314.449	4167
314.539	1965
314.628	2824
314.718	2953
314.808	3459
314.897	2800
314.987	2999
315.076	4826
315.166	5688
315.255	4390
315.345	4814
315.434	3712
315.524	3373
315.613	4551
315.703	6871
315.792	11033
315.881	37121
315.971	13873
316.060	9409
316.150	9264
316.239	8547
316.328	3887
316.418	2697
316.507	2964
316.597	4843
316.686	4141
316.775	4150
316.865	8531
316.954	2826
317.043	3070
317.133	3394
317.222	2536
317.311	2548
317.400	2663
317.490	5093
317.579	6200
317.668	4585
317.757	7395
317.847	18414
317.936	66179
318.025	27116
318.114	15064
318.203	8860
318.293	7961
318.382	15869
318.471	12846
318.560	13786
318.649	19077
318.738	5574
318.828	5011
318.917	5975
319.006	4763
319.095	10805
319.184	27117
319.273	21326
319.362	15304
319.451	4971
319.540	4507
319.629	10314
319.718	19247
319.807	7288
319.896	10565
319.985	35503
320.074	17655
320.163	3887
320.252	6106
320.341	4601
320.430	4901
320.519	8887
320.608	4979
320.697	4192
320.786	3450
320.875	6774
320.964	8938
321.053	13242
321.142	19463
321.230	21311
321.319	13196
321.408	31892
321.497	14712
321.586	13438
321.675	11597
321.764	11971
321.852	7540
321.941	18464
322.030	13330
322.119	10706
322.207	31826
322.296	16328
322.385	9481
322.474	13991
322.562	42481
322.651	22343
322.740	14698
322.829	20171
322.917	13815
323.006	11430
323.095	10644
323.183	6177
323.272	8037
323.361	14503
323.449	36698
323.538	13902
323.626	23582
323.715	17575
323.804	6341
323.892	21239
323.981	16684
324.069	5636
324.158	9935
324.246	11482
324.335	6842
324.424	12721
324.512	4466
324.601	5728
324.689	7458
324.778	11120
324.866	9853
324.954	4198
325.043	3766
325.131	6292
325.220	8618
325.308	10005
325.397	8056
325.485	6605
325.574	2532
325.662	3151
325.750	3332
325.839	2375
325.927	2312
326.015	3829
326.104	3545
326.192	5250
326.280	2919
326.369	3142
326.457	5189
326.545	10054
326.634	4532
326.722	2364
326.810	2740
326.898	2920
326.987	3821
327.075	8419
327.163	7673
327.251	3169
327.340	5097
327.428	5721
327.516	3260
327.604	2917
327.692	2756
327.781	2549
327.869	3664
327.957	4047
328.045	4391
328.133	2390
328.221	2305
328.309	2317
328.397	2700
328.485	4295
328.574	6265
328.662	21511
328.750	10809
328.838	3486
328.926	3066
329.014	2589
329.102	3986
329.190	8430
329.278	6219
329.366	1860
329.454	1364
329.542	1612
329.630	1144
329.718	1787
329.806	3608
329.893	2989
329.981	1795
330.069	2218
330.157	5747
330.245	16862
330.333	9865
330.421	3686
330.509	6189
330.597	26177
330.684	17089
330.772	4827
330.860	3322
330.948	4684
331.036	2741
331.123	1594
331.211	1695
331.299	2796
331.387	4219
331.475	9053
331.562	3065
331.650	1535
331.738	2553
331.825	3037
331.913	1783
332.001	1688
332.089	2423
332.176	3169
332.264	9646
332.352	9493
332.439	3138
332.527	2892
332.614	2360
332.702	2542
332.790	2870
332.877	5775
332.965	11385
333.052	5542
333.140	5588
333.228	12629
333.315	4020
333.403	2578
333.490	5814
333.578	7456
333.665	17895
333.753	7158
333.840	2689
333.928	2983
334.015	7035
334.103	10396
334.190	32139
334.278	11412
334.365	6032
334.452	7192
334.540	3518
334.627	3864
334.715	5409
334.802	9341
334.889	37236
334.977	50212
335.064	13352
335.151	5138
335.239	3315
335.326	5488
335.413	15488
335.501	23546
335.588	4576
335.675	3754
335.762	4164
335.850	5912
335.937	5762
336.024	14231
336.111	49601
336.199	32487
336.286	8119
336.373	3753
336.460	2939
336.547	2282
336.635	3990
336.722	3599
336.809	2777
336.896	4703
336.983	11308
337.070	24050
337.157	36676
337.245	25240
337.332	19251
337.419	3449
337.506	2177
337.593	2768
337.680	6287
337.767	20330
337.854	7559
337.941	7543
338.028	9542
338.115	3775
338.202	3623
338.289	6800
338.376	25643
338.463	9579
338.550	10574
338.637	13096
338.724	5016
338.811	7479
338.898	2264
338.984	2239
339.071	1830
339.158	3878
339.245	11348
339.332	6803
339.419	5202
339.506	5711
339.593	1737
339.679	2579
339.766	2198
339.853	2638
339.940	9435
340.027	2892
340.113	3411
340.200	5174
340.287	3367
340.374	4280
340.460	9257
340.547	3639
340.634	6318
340.720	24793
340.807	16409
340.894	2845
340.980	2746
341.067	2468
341.154	3072
341.240	5191
341.327	13287
341.414	4763
341.500	3721
341.587	2233
341.674	3198
341.760	8363
341.847	10427
341.933	2644
342.020	1904
342.106	1591
342.193	2514
342.279	6549
342.366	4546
342.452	8314
342.539	5625
342.625	10942
342.712	28817
342.798	12965
342.885	4484
342.971	1695
343.058	2018
343.144	1879
343.230	2900
343.317	2295
343.403	1429
343.490	1476
343.576	1658
343.662	2856
343.749	3221
343.835	4870
343.921	8760
344.008	44882
344.094	112225
344.180	27521
344.267	10544
344.353	29774
344.439	31899
344.525	13900
344.612	4442
344.698	5070
344.784	3059
344.870	2720
344.957	2668
345.043	5399
345.129	3534
345.215	7829
345.301	5035
345.387	2550
345.474	1702
345.560	1677
345.646	1260
345.732	2552
345.818	3211
345.904	2431
345.990	3534
346.076	2635
346.162	3233
346.249	3027
346.335	2271
346.421	2598
346.507	10865
346.593	45591
346.679	11424
346.765	3412
346.851	3257
346.937	3278
347.023	2783
347.108	2927
347.194	2241
347.280	2938
347.366	4622
347.452	14188
347.538	54435
347.624	40558
347.710	32629
347.796	5369
347.882	2911
347.967	1578
348.053	2087
348.139	1721
348.225	1739
348.311	2903
348.397	2181
348.482	3812
348.568	4171
348.654	1789
348.740	4321
348.825	4280
348.911	6220
348.997	22554
349.083	49870
349.168	7891
349.254	2602
349.340	3099
349.425	2054
349.511	4522
349.597	4940
349.682	9658
349.768	32632
349.854	16715
349.939	2827
350.025	1364
350.110	1578
350.196	1680
350.282	773
350.367	1657
350.453	3417
350.538	2252
350.624	3702
350.709	3417
350.795	2080
350.880	2013
350.966	2491
351.051	3375
351.137	2775
351.222	3237
351.308	9392
351.393	29724
351.479	8054
351.564	2256
351.649	2207
351.735	1719
351.820	2072
351.906	2718
351.991	3410
352.076	16913
352.162	29016
352.247	6607
352.332	3148
352.418	7317
352.503	8514
352.588	39658
352.673	36487
352.759	7821
352.844	3417
352.929	4411
353.014	5681
353.100	3720
353.185	8846
353.270	11303
353.355	11056
353.441	3630
353.526	3108
353.611	7901
353.696	11109
353.781	6335
353.866	2376
353.952	4117
354.037	8273
354.122	21923
354.207	19424
354.292	7175
354.377	2956
354.462	2950
354.547	3947
354.632	4043
354.717	5174
354.802	10260
354.887	3875
354.972	2195
355.057	1902
355.142	1970
355.227	3849
355.312	5652
355.397	14030
355.482	33973
355.567	16694
355.652	10881
355.737	12828
355.822	36612
355.907	32933
355.991	5639
356.076	2144
356.161	3006
356.246	2252
356.331	3230
356.416	8331
356.501	55259
356.585	64989
356.670	9521
356.755	7147
356.840	8803
356.924	38691
357.009	144061
357.094	58353
357.179	12086
357.263	8929
357.348	7644
357.433	7065
357.517	6745
357.602	5934
357.687	4894
357.771	5325
357.856	5907
357.941	6649
358.025	27153
358.110	128566
358.195	66716
358.279	10712
358.364	7729
358.448	25182
358.533	71424
358.617	54419
358.702	50298
358.787	20459
358.871	11210
358.956	9347
359.040	3633
359.125	2571
359.209	1805
359.294	2798
359.378	4008
359.462	7255
359.547	5495
359.631	2241
359.716	2421
359.800	2010
359.885	4500
359.969	2790
360.053	3081
360.138	2934
360.222	4807
360.306	10023
360.391	7774
360.475	8307
360.559	19592
360.644	25918
360.728	20849
360.812	30592
360.896	90134
360.981	35764
361.065	17684
361.149	5750
361.233	5057
361.318	3993
361.402	6005
361.486	4544
361.570	3956
361.654	5822
361.739	12613
361.823	53590
361.907	90611
361.991	17379
362.075	9101
362.159	20521
362.243	14890
362.327	14683
362.411	24223
362.495	11187
362.580	6378
362.664	2837
362.748	3126
362.832	4874
362.916	8250
363.000	32457
363.084	93773
363.168	115790
363.252	27219
363.336	9366
363.420	10825
363.503	24576
363.587	29363
363.671	7435
363.755	6149
363.839	10349
363.923	4339
364.007	10231
364.091	11609
364.175	10583
364.258	43088
364.342	44558
364.426	82019
364.510	48677
364.594	16443
364.677	16607
364.761	73997
364.845	58202
364.929	18111
365.013	15165
365.096	11714
365.180	13734
365.264	10479
365.347	39250
365.431	17541
365.515	5169
365.598	4465
365.682	3819
365.766	3562
365.849	5275
365.933	4102
366.017	4215
366.100	2409
366.184	916
366.267	2422
366.351	3290
366.435	1953
366.518	1683
366.602	1416
366.685	2932
366.769	3570
366.852	3977
366.936	9686
367.019	7304
367.103	2484
367.186	5731
367.270	2115
367.353	2191
367.436	3327
367.520	2343
367.603	4003
367.687	5677
367.770	12731
367.853	6796
367.937	22342
368.020	41153
368.104	10035
368.187	9318
368.270	13645
368.353	11504
368.437	10388
368.520	17852
368.603	14915
368.687	25312
368.770	54160
368.853	13975
368.936	11137
369.020	8658
369.103	4661
369.186	2836
369.269	2916
369.352	7157
369.436	10850
369.519	7125
369.602	2344
369.685	4688
369.768	4491
369.851	3189
369.934	2757
370.018	2959
370.101	10744
370.184	8588
370.267	5248
370.350	8934
370.433	14145
370.516	39657
370.599	59512
370.682	18645
370.765	28311
370.848	32541
370.931	63880
371.014	23524
371.097	5082
371.180	4005
371.263	2624
371.346	214
371.429	2759
371.511	2643
371.594	6060
371.677	8590
371.760	7383
371.843	8933
371.926	41423
372.009	108032
372.091	35639
372.174	23033
372.257	57459
372.340	23070
372.423	11188
372.505	11649
372.588	6492
372.671	17202
372.754	62929
372.836	32888
372.919	12009
373.002	21810
373.085	10366
373.167	9609
373.250	25868
373.332	59052
373.415	70088
373.498	150840
373.580	58338
373.663	75142
373.746	107583
373.828	24166
373.911	9268
373.993	7995
374.076	20249
374.159	20296
374.241	14847
374.324	51863
374.406	36628
374.489	38721
374.571	125928
374.654	54683
374.736	22789
374.819	73560
374.901	103736
374.983	115043
375.066	21624
375.148	6797
375.231	16689
375.313	33141
375.395	15152
375.478	5013
375.560	3781
375.643	6667
375.725	20008
375.807	93001
375.890	68605
375.972	20051
376.054	12940
376.136	14191
376.219	8006
376.301	24087
376.383	85587
376.465	34176
376.548	20114
376.630	22265
376.712	72795
376.794	35751
376.877	4958
376.959	1570
377.041	3580
377.123	4098
377.205	4603
377.287	1645
377.369	3240
377.452	2586
377.534	3065
377.616	2507
377.698	2830
377.780	2066
377.862	2909
377.944	3247
378.026	1645
378.108	2288
378.190	2078
378.272	1861
378.354	1611
378.436	1363
378.518	2749
378.600	10912
378.682	12675
378.764	36530
378.846	30291
378.928	6913
379.010	11159
379.091	7036
379.173	3184
379.255	2800
379.337	4876
379.419	15634
379.501	53108
379.583	21004
379.664	5278
379.746	12054
379.828	35069
379.910	48974
379.991	46065
380.073	8245
380.155	4563
380.237	4088
380.318	2684
380.400	3074
380.482	7498
380.564	13840
380.645	13649
380.727	13113
380.809	7057
380.890	4994
380.972	3639
381.053	3662
381.135	5070
381.217	11485
381.298	38600
381.380	19871
381.461	15026
381.543	65885
381.624	90499
381.706	17055
381.787	7101
381.869	8787
381.951	25791
382.032	113488
382.113	77525
382.195	15596
382.276	10722
382.358	22405
382.439	65833
382.521	68916
382.602	112129
382.684	48544
382.765	87978
382.846	96288
382.928	149408
383.009	83941
383.090	46772
383.172	175760
383.253	306013
383.334	103488
383.416	102370
383.497	54640
383.578	22606
383.659	38649
383.741	138650
383.822	410296
383.903	226904
383.984	73636
384.066	124822
384.147	80667
384.228	17359
384.309	13205
384.390	9652
384.471	7446
384.553	7070
384.634	10258
384.715	10702
384.796	5658
384.877	6624
384.958	32309
385.039	42150
385.120	16301
385.201	6356
385.282	5912
385.363	7060
385.444	6018
385.525	13124
385.606	48113
385.687	45251
385.768	9755
385.849	10026
385.930	48172
386.011	93647
386.092	24848
386.173	6995
386.254	3454
386.335	5863
386.416	5211
386.496	20534
386.577	36831
386.658	11056
386.739	6838
386.820	5362
386.901	3426
386.981	4513
387.062	3801
387.143	8285
387.224	35939
387.304	35068
387.385	12042
387.466	6163
387.547	7770
387.627	6911
387.708	13442
387.789	61272
387.869	81545
387.950	22585
388.031	3636
388.111	1575
388.192	5129
388.273	8480
388.353	5371
388.434	4977
388.514	10605
388.595	54461
388.676	77121
388.756	37543
388.837	35056
388.917	23205
388.998	4121
389.078	4657
389.159	3934
389.239	3114
389.320	7491
389.400	5507
389.480	11256
389.561	37062
389.641	19761
389.722	5889
389.802	11207
389.883	15086
389.963	44287
390.043	27158
390.124	6367
390.204	11570
390.284	41936
390.365	26962
390.445	17867
390.525	52080
390.605	54892
390.686	22312
390.766	9437
390.846	5649
390.927	3100
391.007	3469
391.087	3643
391.167	5837
391.247	4399
391.328	4961
391.408	5799
391.488	4515
391.568	2110
391.648	5805
391.728	7689
391.808	8047
391.888	8850
391.969	19149
392.049	35365
392.129	14003
392.209	14140
392.289	45266
392.369	24429
392.449	11233
392.529	10172
392.609	10617
392.689	13389
392.769	43148
392.849	41321
392.929	23983
393.009	56951
393.089	55360
393.169	52597
393.248	146510
393.328	494874
393.408	563584
393.488	186307
393.568	54819
393.648	26910
393.728	16852
393.807	11757
393.887	10557
393.967	7850
394.047	8107
394.127	9461
394.206	10811
394.286	28685
394.366	145380
394.446	170487
394.525	34660
394.605	9429
394.685	8044
394.764	13944
394.844	23899
394.924	20933
395.003	9349
395.083	7043
395.163	6239
395.242	5572
395.322	6169
395.402	3283
395.481	5765
395.561	9351
395.640	33787
395.720	33425
395.799	31450
395.879	21499
395.958	11223
396.038	37765
396.117	186431
396.197	222125
396.276	54415
396.356	17276
396.435	14125
396.515	15207
396.594	21990
396.673	43198
396.753	148849
396.832	460535
396.912	374088
396.991	99744
397.070	28628
397.150	15135
397.229	11577
397.308	15097
397.388	28212
397.467	13159
397.546	5673
397.625	2721
397.705	7142
397.784	6950
397.863	4706
397.942	3631
398.022	3152
398.101	6760
398.180	22776
398.259	11611
398.338	4674
398.417	4814
398.497	2956
398.576	4170
398.655	2186
398.734	2936
398.813	1599
398.892	5700
398.971	23947
399.050	12418
399.129	1089
399.208	1959
399.287	1892
399.366	490
399.445	1071
399.524	2138
399.603	1441
399.682	4668
399.761	11448
399.840	27347
399.919	22311
399.998	3722
400.077	958
400.156	-5
400.235	2995
400.313	885
400.392	2626
400.471	17037
400.550	33855
400.629	8153
400.708	3503
400.786	1372
400.865	3983
400.944	5061
401.023	4372
401.102	606
401.180	946
401.259	781
401.338	1479
401.416	3148
401.495	2424
401.574	1591
401.652	1307
401.731	2405
401.810	3199
401.888	2257
401.967	693
402.046	2198
402.124	2781
402.203	3665
402.281	2740
402.360	4494
402.438	6930
402.517	3534
402.596	2128
402.674	733
402.753	1210
402.831	1438
402.910	2761
402.988	11774
403.066	51721
403.145	31647
403.223	15067
403.302	41929
403.380	31641
403.459	33132
403.537	12996
403.615	3959
403.694	818
403.772	1764
403.850	770
403.929	1219
404.007	2034
404.085	6362
404.164	7243
404.242	2647
404.320	2840
404.398	4022
404.477	14482
404.555	84873
404.633	82362
404.711	12301
404.789	3843
404.868	2277
404.946	1285
405.024	215
405.102	1148
405.180	152
405.258	-269
405.336	1679
405.415	966
405.493	3629
405.571	4837
405.649	1012
405.727	192
405.805	2865
405.883	2996
405.961	2674
406.039	1526
406.117	530
406.195	4097
406.273	17140
406.351	76972
406.429	48538
406.507	5408
406.585	1044
406.663	2544
406.740	3281
406.818	2991
406.896	1362
406.974	2534
407.052	4814
407.130	41232
407.208	66221
407.285	13510
407.363	2067
407.441	2573
407.519	1453
407.596	1994
407.674	4735
407.752	10635
407.830	12083
407.907	5935
407.985	2821
408.063	1610
408.141	202
408.218	2866
408.296	2787
408.373	3060
408.451	3074
408.529	3095
408.606	805
408.684	825
408.762	288
408.839	1012
408.917	42
408.994	980
409.072	720
409.149	978
409.227	3280
409.304	5109
409.382	3725
409.459	4510
409.537	7640
409.614	5962
409.692	3005
409.769	3431
409.846	8030
409.924	10115
410.001	5116
410.079	3620
410.156	3409
410.233	2768
410.311	2210
410.388	1995
410.465	2106
410.543	1685
410.620	1946
410.697	2098
410.775	2947
410.852	804
410.929	3043
411.006	4321
411.083	1356
411.161	5196
411.238	5102
411.315	2787
411.392	902
411.469	2621
411.547	2585
411.624	876
411.701	1094
411.778	2514
411.855	6533
411.932	2906
412.009	827
412.086	1392
412.163	1819
412.240	2097
412.317	1552
412.394	1530
412.471	955
412.548	624
412.625	976
412.702	1772
412.779	4271
412.856	2925
412.933	-402
413.010	1013
413.087	2435
413.164	16313
413.241	27679
413.318	6628
413.395	4380
413.471	5537
413.548	2398
413.625	1788
413.702	1074
413.779	1365
413.855	226
413.932	-308
414.009	-813
414.086	1193
414.162	889
414.239	2770
414.316	15625
414.393	42017
414.469	15438
414.546	1711
414.623	857
414.699	890
414.776	1929
414.853	845
414.929	797
415.006	1259
415.082	896
415.159	960
415.236	775
415.312	1456
415.389	3766
415.465	5419
415.542	2945
415.618	308
415.695	4081
415.771	2891
415.848	1518
415.924	1127
416.000	-195
416.077	1262
416.153	-263
416.230	-48
416.306	-233
416.383	742
416.459	901
416.535	-238
416.612	-412
416.688	476
416.764	526
416.841	159
416.917	475
416.993	562
417.069	1689
417.146	1396
417.222	2540
417.298	1602
417.374	653
417.451	1658
417.527	1337
417.603	3378
417.679	2805
417.755	1382
417.831	399
417.908	579
417.984	300
418.060	15
418.136	4512
418.212	7531
418.288	2713
418.364	863
418.440	611
418.516	2807
418.592	2470
418.668	6868
418.744	12885
418.820	10367
418.896	2745
418.972	441
419.048	1492
419.124	5978
419.200	4424
419.276	481
419.352	-428
419.428	397
419.504	1034
419.579	1952
419.655	1511
419.731	2088
419.807	7678
419.883	15591
419.959	11671
420.034	2631
420.110	5449
420.186	24034
420.262	21498
420.337	3407
420.413	3207
420.489	1549
420.565	2270
420.640	976
420.716	1746
420.792	225
420.867	1682
420.943	1023
421.019	3437
421.094	3269
421.170	2008
421.245	824
421.321	1879
421.397	1586
421.472	3633
421.548	6402
421.623	7298
421.699	4535
421.774	4165
421.850	2897
421.925	7008
422.001	6748
422.076	5550
422.152	6863
422.227	10448
422.302	13345
422.378	17648
422.453	32427
422.529	74827
422.604	190435
422.679	276339
422.755	216931
422.830	98876
422.905	41787
422.981	22443
423.056	15056
423.131	11150
423.207	8093
423.282	7095
423.357	11524
423.432	8708
423.508	7723
423.583	15370
423.658	12993
423.733	4624
423.808	4471
423.883	5847
423.959	5165
424.034	4722
424.109	4301
424.184	1717
424.259	1797
424.334	1451
424.409	1136
424.484	2106
424.559	2294
424.634	2025
424.709	4080
424.784	4798
424.859	2148
424.934	3110
425.009	17756
425.084	33956
425.159	13600
425.234	2265
425.309	685
425.384	1486
425.459	113
425.534	1401
425.609	833
425.683	1048
425.758	846
425.833	965
425.908	2475
425.983	9737
426.058	35179
426.132	16576
426.207	1755
426.282	2618
426.357	1346
426.431	281
426.506	1315
426.581	1033
426.655	704
426.730	885
426.805	948
426.879	2196
426.954	1017
427.029	4365
427.103	26202
427.178	74671
427.253	36521
427.327	4410
427.402	1249
427.476	3427
427.551	1021
427.625	1320
427.700	1664
427.774	38
427.849	1258
427.923	758
427.998	1084
428.072	1053
428.147	4653
428.221	21292
428.296	72665
428.370	45383
428.444	6521
428.519	2979
428.593	4612
428.667	4368
428.742	5240
428.816	8263
428.890	35060
428.965	68825
429.039	21002
429.113	7087
429.188	3329
429.262	1306
429.336	3445
429.410	15454
429.485	11250
429.559	4831
429.633	3496
429.707	2548
429.781	6255
429.855	37151
429.930	75878
430.004	30185
430.078	24113
430.152	29829
430.226	83593
430.300	102748
430.374	20181
430.448	5224
430.522	7872
430.596	22166
430.670	22451
430.744	73250
430.818	125632
430.892	31211
430.966	5132
431.040	2452
431.114	576
431.188	-83
431.262	910
431.336	775
431.410	2838
431.484	8182
431.557	9374
431.631	1841
431.705	1902
431.779	10860
431.853	61918
431.927	53902
432.000	7750
432.074	1594
432.148	1632
432.222	1462
432.295	1029
432.369	549
432.443	3226
432.516	22229
432.590	76062
432.664	34811
432.737	4413
432.811	644
432.885	742
432.958	1308
433.032	189
433.106	-513
433.179	9
433.253	320
433.326	204
433.400	611
433.473	255
433.547	-851
433.620	1026
433.694	3243
433.767	3754
433.841	709
433.914	265
433.988	-428
434.061	264
434.134	-67
434.208	315
434.281	32
434.355	228
434.428	525
434.501	37
434.575	-40
434.648	251
434.721	-236
434.795	-739
434.868	148
434.941	-245
435.014	-9
435.088	385
435.161	1750
435.234	3825
435.307	5599
435.381	2953
435.454	2312
435.527	4614
435.600	4533
435.673	3397
435.746	1999
435.819	1029
435.892	1205
435.966	449
436.039	-101
436.112	663
436.185	-387
436.258	486
436.331	-18
436.404	-289
436.477	-166
436.550	51
436.623	-193
436.696	-411
436.769	482
436.842	1038
436.915	241
436.987	1763
437.060	788
437.133	361
437.206	-303
437.279	819
437.352	420
437.425	332
437.498	133
437.570	3490
437.643	5301
437.716	1490
437.789	577
437.861	2507
437.934	9654
438.007	6912
438.080	991
438.152	1793
438.225	4189
438.298	30803
438.370	110416
438.443	60849
438.516	14163
438.588	3827
438.661	833
438.734	510
438.806	425
438.879	1333
438.951	1972
439.024	4755
439.096	2673
439.169	792
439.241	-384
439.314	433
439.386	282
439.459	1638
439.531	4103
439.604	2505
439.676	227
439.749	561
439.821	16
439.893	374
439.966	306
440.038	1638
440.110	1823
440.183	1421
440.255	1755
440.327	1287
440.400	12323
440.472	65932
440.544	60669
440.617	10318
440.689	4407
440.761	5758
440.833	9358
440.905	7666
440.978	1513
441.050	452
441.122	557
441.194	19
441.266	652
441.338	876
441.411	2266
441.483	20005
441.555	42466
441.627	13446
441.699	2376
441.771	1899
441.843	1426
441.915	558
441.987	735
442.059	503
442.131	1503
442.203	3013
442.275	3742
442.347	4603
442.419	6835
442.491	33885
442.563	109086
442.635	65490
442.706	17644
442.778	13972
442.850	5387
442.922	2215
442.994	2278
443.066	3925
443.137	4911
443.209	3408
443.281	5226
443.353	11825
443.425	42055
443.496	168738
443.568	210401
443.640	102587
443.711	23330
443.783	7192
443.855	4196
443.926	2402
443.998	2363
444.070	2611
444.141	3108
444.213	4671
444.285	8254
444.356	5708
444.428	3780
444.499	1833
444.571	931
444.642	1608
444.714	2055
444.785	5172
444.857	5242
444.928	5806
445.000	5466
445.071	5208
445.143	7759
445.214	8394
445.285	10393
445.357	26367
445.428	99196
445.500	261642
445.571	207338
445.642	129291
445.714	48665
445.785	21204
445.856	10910
445.928	10116
445.999	7970
446.070	6557
446.141	4718
446.213	7536
446.284	5711
446.355	2755
446.426	1287
446.497	1711
446.569	2691
446.640	5470
446.711	8662
446.782	3006
446.853	1516
446.924	2430
446.995	3025
447.066	2395
447.138	1908
447.209	1713
447.280	-262
447.351	324
447.422	88
447.493	901
447.564	2397
447.635	6047
447.706	4463
447.777	328
447.847	121
447.918	-249
447.989	1430
448.060	1968
448.131	2847
448.202	6303
448.273	6904
448.344	3463
448.414	1665
448.485	1098
448.556	970
448.627	859
448.698	1347
448.768	-460
448.839	406
448.910	1308
448.981	3034
449.051	2713
449.122	1232
449.193	-193
449.263	331
449.334	117
449.405	1061
449.475	7612
449.546	7135
449.616	2999
449.687	2841
449.758	963
449.828	427
449.899	840
449.969	327
450.040	-1488
450.110	712
450.181	864
450.251	662
450.322	538
450.392	1016
450.463	297
450.533	-75
450.604	731
450.674	-415
450.744	853
450.815	1141
450.885	1119
450.955	885
451.026	-15
451.096	281
451.166	382
451.237	1928
451.307	6616
451.377	4473
451.447	1099
451.518	953
451.588	687
451.658	173
451.728	265
451.799	4681
451.869	9728
451.939	3127
452.009	465
452.079	598
452.149	539
452.219	2157
452.289	7086
452.360	7823
452.430	2386
452.500	2253
452.570	4066
452.640	6719
452.710	15633
452.780	23626
452.850	21625
452.920	23772
452.990	10899
453.060	4082
453.129	3416
453.199	5607
453.269	8548
453.339	25293
453.409	42087
453.479	30103
453.549	48154
453.619	52067
453.688	30376
453.758	5757
453.828	1214
453.898	853
453.968	693
454.037	948
454.087	920
454.107	900
454.168	120
454.177	-4
454.247	1108
454.249	1103
454.316	721
454.330	697
454.386	590
454.411	1412
454.456	2658
454.492	5086
454.525	7219
454.574	4942
454.595	3986
454.655	1148
454.665	678
454.734	1175
454.736	1231
454.804	2833
454.817	3750
454.873	7240
454.898	8363
454.943	10265
454.979	7377
455.013	4852
455.060	2472
455.082	1411
455.141	1814
455.152	1890
455.221	4855
455.222	4955
455.291	9887
455.303	9358
455.360	7217
455.384	7136
455.430	7034
455.465	7303
455.499	7555
455.546	7517
455.569	7209
455.627	7406
455.638	7529
455.707	2738
455.708	2737
455.777	1194
455.789	1017
455.846	168
455.869	482
455.916	1056
455.950	966
455.985	899
456.031	1273
456.054	1391
456.112	1344
456.124	1376
456.193	915
456.193	899
456.262	1141
456.274	1304
456.332	2472
456.355	2318
456.401	1559
456.436	1362
456.470	1271
456.516	1013
456.540	912
456.597	420
456.609	292
456.678	1224
456.678	1213
456.747	829
456.759	674
456.817	269
456.840	603
456.886	977
456.920	957
456.955	1089
457.001	1301
457.024	1416
457.082	2000
457.093	2123
457.162	2596
457.163	2613
457.232	2700
457.243	2638
457.301	2212
457.324	1913
457.370	1446
457.405	1651
457.439	2020
457.485	2153
457.508	2137
457.566	2531
457.577	2695
457.646	3492
457.647	3519
457.715	7634
457.727	8541
457.784	15213
457.808	20374
457.853	27062
457.889	33623
457.922	34332
457.969	24711
457.991	25538
458.050	27261
458.060	27845
458.129	46092
458.130	46758
458.198	52757
458.211	49297
458.267	33670
458.292	23520
458.336	12978
458.372	10387
458.405	11874
458.453	17268
458.474	22813
458.533	44039
458.543	46045
458.611	79980
458.614	80858
458.680	61253
458.694	50272
458.749	27478
458.775	19405
458.818	9288
458.855	6757
458.887	5172
458.936	3946
458.955	3402
459.016	3108
459.024	3131
459.093	3291
459.097	3303
459.162	3173
459.177	3197
459.230	3864
459.257	4563
459.299	4747
459.338	4584
459.368	4989
459.418	5354
459.437	4991
459.499	4278
459.505	4313
459.574	3290
459.579	3310
459.643	3089
459.659	2776
459.711	2431
459.740	2628
459.780	2652
459.820	3107
459.849	3352
459.900	2984
459.917	2935
459.981	3070
459.986	3057
460.054	2768
460.061	2751
460.123	2595
460.141	2678
460.191	4131
460.222	5038
460.260	5562
460.302	6834
460.328	6643
460.382	5258
460.397	5234
460.462	3144
460.465	3084
460.534	3436
460.543	3561
460.602	7407
460.623	9023
460.671	14221
460.703	19443
460.739	19972
460.783	19676
460.808	18227
460.864	7583
460.876	6504
460.944	2869
460.945	2836
461.013	3348
461.024	3502
461.081	3898
461.104	4136
461.150	4228
461.184	4140
461.218	3846
461.264	3073
461.286	3147
461.345	3781
461.355	3644
461.423	2339
461.425	2306
461.491	2639
461.505	2819
461.559	3649
461.585	3909
461.628	6105
461.665	8638
461.696	9686
461.745	12387
461.764	11707
461.825	7113
461.832	7047
461.901	4016
461.905	3992
461.969	3675
461.985	3676
462.037	4015
462.065	3891
462.105	3478
462.145	3163
462.173	3713
462.225	4916
462.241	5412
462.305	8269
462.310	8187
462.378	7141
462.385	6748
462.446	4760
462.465	4336
462.514	3964
462.545	4048
462.582	3889
462.625	3575
462.650	3371
462.705	2740
462.718	2830
462.785	3677
462.786	3675
462.854	3092
462.865	3058
462.922	4771
462.945	5573
462.990	4709
463.025	3901
463.058	4077
463.104	3726
463.126	3236
463.184	2353
463.194	2475
463.262	3527
463.264	3565
463.330	3878
463.344	3913
463.398	4334
463.424	4442
463.466	3818
463.504	3360
463.533	3786
463.583	4455
463.601	4343
463.663	4019
463.669	4165
463.737	5992
463.743	6142
463.805	6888
463.823	7171
463.873	9457
463.903	10649
463.940	10837
463.982	11796
464.008	10530
464.062	6763
464.076	6386
464.142	3736
464.144	3724
464.211	3633
464.221	3729
464.279	3992
464.301	4040
464.347	4298
464.381	4710
464.414	4757
464.461	4402
464.482	4620
464.540	5513
464.550	5409
464.617	4476
464.620	4438
464.685	5715
464.699	6016
464.753	6699
464.779	7058
464.820	6732
464.859	6272
464.888	5861
464.938	5140
464.956	5439
465.018	6573
465.023	6476
465.091	5205
465.098	5050
465.158	5121
465.177	5141
465.226	4934
465.257	4826
465.293	5629
465.336	6589
465.361	6811
465.416	7316
465.428	7630
465.495	9368
465.496	9392
465.563	11330
465.575	11612
465.631	13342
465.654	14321
465.698	10142
465.734	6270
465.765	6063
465.813	5336
465.833	5228
465.893	5431
465.900	5381
465.968	5008
465.972	4970
466.035	3985
466.052	3712
466.102	4374
466.131	4810
466.170	4712
466.210	4479
466.237	5050
466.290	6218
466.304	6009
466.369	5000
466.372	5055
466.439	6502
466.449	6689
466.506	6257
466.528	6109
466.573	7791
466.607	9013
466.641	12254
466.687	16760
466.708	19103
466.766	25711
466.775	24215
466.842	12741
466.845	12174
466.909	8505
466.925	7641
466.977	7222
467.004	7088
467.044	6975
467.083	6830
467.111	6901
467.163	7055
467.178	7536
467.242	9490
467.245	9479
467.312	8989
467.321	8914
467.379	8831
467.400	8775
467.446	8296
467.480	7930
467.559	7087
467.638	6602
467.717	7958
467.796	8696
467.875	11412
467.955	8397
468.034	10400
468.113	17259
468.192	27684
468.271	12313
468.350	11492
468.429	15592
468.508	19801
468.588	12176
468.667	9221
468.746	8087
468.825	8520
468.904	6950
468.983	7799
469.062	9418
469.141	12168
469.220	6926
469.299	7676
469.378	5939
469.456	8596
469.535	7898
469.614	7352
469.693	7242
469.772	8578
469.851	10232
469.930	9481
470.009	8146
470.088	8479
470.166	11185
470.245	20788
470.324	26585
470.403	15785
470.482	8893
470.560	8434
470.639	7788
470.718	12308
470.797	8119
470.875	9440
470.954	10214
471.033	11412
471.111	6542
471.190	6628
471.269	4781
471.347	5885
471.426	5555
471.505	6736
471.583	6311
471.662	7219
471.740	5859
471.819	6805
471.898	5859
471.976	5818
472.055	5117
472.133	6936
472.212	7006
472.290	7677
472.369	5864
472.447	6395
472.526	5126
472.604	6702
472.683	7115
472.761	8979
472.839	7155
472.918	6996
472.996	5836
473.075	7873
473.153	5414
473.231	6603
473.310	6893
473.388	8440
473.466	6674
473.545	7714
473.623	12283
473.701	13407
473.780	8085
473.858	6713
473.936	7337
474.014	7312
474.093	7223
474.171	9445
474.249	9788
474.327	9398
474.405	6225
474.484	6327
474.562	6952
474.640	6841
474.718	5856
474.796	6918
474.874	5733
474.952	6049
475.030	5165
475.108	5906
475.187	5448
475.265	9285
475.343	14688
475.421	19199
475.499	5850
475.577	6076
475.655	6947
475.733	10463
475.811	15559
475.889	14846
475.966	12211
476.044	7201
476.122	10553
476.200	15617
476.278	11589
476.356	6870
476.434	5528
476.512	9310
476.590	14711
476.667	12129
476.745	5730
476.823	6863
476.901	6032
476.979	6028
477.056	5457
477.134	5877
477.212	6414
477.290	6684
477.367	4613
477.445	6237
477.523	4786
477.601	4961
477.678	5411
477.756	6216
477.834	5928
477.911	5690
477.989	5285
478.066	6029
478.144	5988
478.222	9089
478.299	19772
478.377	19125
478.454	5481
478.532	5772
478.609	5654
478.687	7588
478.764	5283
478.842	6913
478.919	7217
478.997	8069
479.074	4871
479.152	5373
479.229	6135
479.307	5788
479.384	3397
479.461	4842
479.539	3908
479.616	6123
479.694	4670
479.771	5987
479.848	5715
479.926	5298
480.003	7434
480.080	6327
480.157	4539
480.235	5006
480.312	4276
480.389	5013
480.467	5584
480.544	8579
480.621	5656
480.698	6792
480.775	6585
480.853	5724
480.930	5655
481.007	4767
481.084	4547
481.161	5829
481.238	5969
481.315	4784
481.392	4511
481.470	5185
481.547	4517
481.624	5436
481.701	4230
481.778	5340
481.855	4674
481.932	6822
482.009	10030
482.086	9372
482.163	6359
482.240	13037
482.317	26530
482.393	22984
482.470	7253
482.547	6630
482.624	4772
482.701	6198
482.778	4912
482.855	5438
482.932	4359
483.009	6415
483.085	5611
483.162	8240
483.239	8364
483.316	7429
483.393	6994
483.469	7237
483.546	5729
483.623	6270
483.699	4231
483.776	5744
483.853	5254
483.930	8443
484.006	13233
484.083	24377
484.160	13337
484.236	19946
484.313	15489
484.389	13279
484.466	11895
484.543	11670
484.619	13098
484.696	15491
484.772	12536
484.849	12431
484.925	9984
485.002	11196
485.078	11275
485.155	12211
485.231	9431
485.308	10354
485.384	9319
485.461	11581
485.537	15687
485.614	19178
485.690	10104
485.766	10543
485.843	10755
485.919	21357
485.995	23723
486.072	10174
486.148	9192
486.224	9083
486.301	8392
486.377	12226
486.453	11809
486.530	11011
486.606	12288
486.682	13966
486.758	14969
486.835	17695
486.911	14114
486.987	24103
487.063	39683
487.139	64748
487.215	42794
487.292	18313
487.368	12642
487.444	16740
487.520	21766
487.596	25581
487.672	40879
487.748	138723
487.824	241238
487.900	73546
487.976	20117
488.052	15578
488.128	19435
488.204	15567
488.280	10807
488.356	11727
488.432	17393
488.508	28163
488.584	13267
488.660	10962
488.736	10699
488.812	12972
488.888	15508
488.964	21514
489.039	55937
489.115	100164
489.191	61492
489.267	11777
489.343	9270
489.418	7855
489.494	7098
489.570	7685
489.646	8467
489.722	8576
489.797	7552
489.873	10586
489.949	17988
490.024	18638
490.100	7295
490.176	8820
490.251	10665
490.327	19113
490.403	10163
490.478	8547
490.554	6777
490.629	7327
490.705	5978
490.781	8280
490.856	7173
490.932	9224
491.007	11539
491.083	9899
491.158	6840
491.234	9647
491.309	13787
491.385	16656
491.460	6996
491.536	9223
491.611	9219
491.686	10966
491.762	15254
491.837	36814
491.913	65522
491.988	85266
492.063	130522
492.139	26850
492.214	9707
492.289	7574
492.365	6562
492.440	9719
492.515	7343
492.590	8144
492.666	5178
492.741	8390
492.816	9783
492.891	7122
492.967	6499
493.042	6878
493.117	4836
493.192	6504
493.267	7586
493.342	12242
493.418	14476
493.493	7455
493.568	4913
493.643	5956
493.718	7205
493.793	11872
493.868	17316
493.943	13276
494.018	7431
494.093	5586
494.168	5172
494.243	4858
494.318	5244
494.393	5843
494.468	6096
494.543	6882
494.618	7694
494.693	6817
494.768	4097
494.842	5975
494.917	4685
494.992	6732
495.067	5193
495.142	5145
495.217	6138
495.292	7456
495.366	8107
495.441	10703
495.516	14777
495.591	20673
495.665	72902
495.740	216134
495.815	98899
495.890	11851
495.964	6177
496.039	8121
496.114	6517
496.188	6376
496.263	7040
496.338	5891
496.412	5820
496.487	7821
496.561	10241
496.636	12477
496.710	7053
496.785	8040
496.860	8193
496.934	7229
497.009	7369
497.083	7617
497.158	6600
497.232	8298
497.307	9958
497.381	8465
497.455	7999
497.530	9821
497.604	7536
497.679	8036
497.753	11105
497.827	15147
497.902	14006
497.976	15354
498.050	28317
498.125	120547
498.199	152937
498.273	33269
498.348	23187
498.422	17141
498.496	16457
498.570	17102
498.645	7834
498.719	8030
498.793	10122
498.867	16009
498.941	18844
499.016	41459
499.090	137520
499.164	60827
499.238	9110
499.312	8551
499.386	11867
499.460	9569
499.534	8141
499.609	9921
499.683	11993
499.757	12345
499.831	19182
499.905	79428
499.979	91021
500.053	16036
500.127	18887
500.201	19675
500.275	10384
500.349	8741
500.422	9909
500.496	16761
500.570	38767
500.644	58649
500.718	93312
500.792	28107
500.866	7438
500.940	8855
501.013	7923
501.087	9469
501.161	18795
501.235	24140
501.309	24435
501.382	66532
501.456	74200
501.530	20279
501.603	22167
501.677	12158
501.751	5592
501.825	8610
501.898	9299
501.972	26096
502.046	20301
502.119	7769
502.193	14823
502.266	32020
502.340	17576
502.413	12744
502.487	26118
502.561	16435
502.634	7645
502.708	8779
502.781	7059
502.855	6755
502.928	4191
503.002	5797
503.075	3385
503.149	4660
503.222	3850
503.295	5854
503.369	6628
503.442	6901
503.516	16770
503.589	48614
503.662	36152
503.736	13562
503.809	25216
503.882	25113
503.956	34096
504.029	44209
504.102	76317
504.175	130627
504.249	40024
504.322	13583
504.395	9091
504.468	6078
504.542	5881
504.615	4594
504.688	4615
504.761	3929
504.834	6652
504.907	9087
504.980	18429
505.053	7801
505.127	9529
505.200	12890
505.273	5258
505.346	4168
505.419	2373
505.492	4549
505.565	3155
505.638	3883
505.711	2665
505.784	3229
505.857	2878
505.930	5562
506.003	2613
506.076	5008
506.149	3749
506.221	5153
506.294	5980
506.367	9262
506.440	37175
506.513	27918
506.586	6509
506.659	3967
506.731	4433
506.804	5695
506.877	10196
506.950	6675
507.022	3166
507.095	3837
507.168	5856
507.241	6088
507.313	3691
507.386	4532
507.459	9916
507.531	7313
507.604	3289
507.677	4932
507.749	2506
507.822	7190
507.894	12237
507.967	14217
508.040	6297
508.112	6712
508.185	6314
508.257	5526
508.330	12342
508.402	6674
508.475	3328
508.547	5804
508.620	4302
508.692	7525
508.765	4876
508.837	4706
508.909	2903
508.982	4500
509.054	5385
509.127	5362
509.199	2930
509.271	3642
509.344	2530
509.416	2783
509.488	3038
509.560	3407
509.633	5636
509.705	7019
509.777	5362
509.849	10115
509.922	5763
509.994	4352
510.066	3349
510.138	2574
510.210	7601
510.283	6545
510.355	4975
510.427	6018
510.499	4479
510.571	5302
510.643	4398
510.715	11575
510.787	11387
510.859	6355
510.931	6205
511.003	11997
511.076	11867
511.148	4959
511.219	2804
511.291	6259
511.363	6962
511.435	4135
511.507	2181
511.579	5480
511.651	4061
511.723	4051
511.795	3296
511.867	4788
511.939	4288
512.010	7299
512.082	7209
512.154	4281
512.226	4195
512.298	7600
512.369	11856
512.441	9265
512.513	9867
512.585	7208
512.656	6719
512.728	8634
512.800	5406
512.871	6020
512.943	4864
513.015	4361
513.086	6197
513.158	7446
513.230	5763
513.301	12252
513.373	17389
513.444	7893
513.516	5634
513.588	6175
513.659	6700
513.731	10697
513.802	7185
513.874	18861
513.945	43096
514.016	12964
514.088	5482
514.159	6612
514.231	8835
514.302	12297
514.374	6289
514.445	5293
514.516	9621
514.588	7899
514.659	5010
514.730	8336
514.802	10725
514.873	6731
514.944	7298
515.016	6700
515.087	7621
515.158	8084
515.229	10374
515.301	5649
515.372	6087
515.443	5401
515.514	4612
515.585	4343
515.656	5932
515.728	6012
515.799	5130
515.870	6561
515.941	6514
516.012	6622
516.083	8015
516.154	11138
516.225	16678
516.296	17053
516.367	13989
516.438	19143
516.509	23729
516.580	32001
516.651	89327
516.722	399522
516.793	210671
516.864	33736
516.935	30810
517.006	35589
517.077	45908
517.148	100448
517.219	365396
517.289	727640
517.360	129542
517.431	33449
517.502	12681
517.573	12776
517.643	10507
517.714	11218
517.785	12427
517.856	14028
517.926	20290
517.997	27171
518.068	34471
518.138	48904
518.209	67483
518.280	217493
518.350	980229
518.421	462635
518.492	50015
518.562	26006
518.633	23321
518.703	23560
518.774	42622
518.845	126370
518.915	148429
518.986	37041
519.056	19676
519.127	31608
519.197	41125
519.268	58525
519.338	34828
519.408	12281
519.479	19257
519.549	16668
519.620	9088
519.690	6170
519.760	5113
519.831	6928
519.901	6850
519.971	5116
520.042	4127
520.112	5419
520.182	8331
520.253	11253
520.323	5739
520.393	5289
520.463	7848
520.534	3455
520.604	7049
520.674	5713
520.744	4823
520.814	9771
520.885	11949
520.955	12456
521.025	44661
521.095	23526
521.165	5034
521.235	5043
521.305	3518
521.375	5050
521.445	6335
521.515	9689
521.585	11206
521.655	12133
521.725	8374
521.795	7658
521.865	2285
521.935	6824
522.005	4876
522.075	3954
522.145	5283
522.215	4407
522.285	6787
522.355	8802
522.424	13433
522.494	14169
522.564	11815
522.634	24569
522.704	93529
522.774	42816
522.843	7621
522.913	7646
522.983	10181
523.053	8465
523.122	7163
523.192	9774
523.262	45968
523.331	56104
523.401	8749
523.471	5558
523.540	5719
523.610	4047
523.680	4366
523.749	3565
523.819	4294
523.888	5099
523.958	3111
524.027	4214
524.097	4138
524.166	4252
524.236	5703
524.305	6613
524.375	4079
524.444	3835
524.514	4522
524.583	3790
524.653	3724
524.722	6539
524.791	3012
524.861	5369
524.930	3654
524.999	4604
525.069	8586
525.138	5536
525.207	4243
525.277	5868
525.346	5350
525.415	5575
525.484	6125
525.554	6860
525.623	6456
525.692	8255
525.761	9614
525.830	12801
525.900	16192
525.969	25378
526.038	40832
526.107	73347
526.176	257650
526.245	239013
526.314	67671
526.383	120069
526.452	187210
526.522	264750
526.591	323358
526.660	79848
526.729	43414
526.797	44330
526.867	69221
526.935	284916
527.004	612182
527.073	406922
527.142	39308
527.211	15986
527.280	13119
527.349	13107
527.418	5966
527.487	7096
527.555	4682
527.624	4305
527.693	3549
527.762	5607
527.831	3389
527.899	5239
527.968	4212
528.037	3747
528.106	5846
528.174	15080
528.243	9301
528.312	11858
528.380	20796
528.449	6432
528.518	4405
528.586	1731
528.655	4245
528.723	3788
528.792	2508
528.861	4139
528.929	2077
528.998	3795
529.066	3244
529.135	3605
529.203	1958
529.272	2853
529.340	3619
529.409	5148
529.477	2502
529.545	3574
529.614	5492
529.682	3900
529.751	4565
529.819	6918
529.887	4601
529.956	2881
530.024	4474
530.092	3803
530.161	6160
530.229	11159
530.297	6236
530.365	5358
530.434	3128
530.502	3171
530.570	3276
530.638	2544
530.707	3656
530.775	6079
530.843	3057
530.911	4012
530.979	3546
531.047	4271
531.115	3985
531.183	4762
531.252	3584
531.320	3704
531.388	2734
531.456	4936
531.524	2525
531.592	5026
531.660	5612
531.728	4407
531.796	3782
531.864	3884
531.932	4482
532.000	4713
532.067	4161
532.135	6274
532.203	7208
532.271	6837
532.339	11804
532.407	39218
532.475	27414
532.542	11980
532.610	11582
532.678	14556
532.746	52608
532.814	189251
532.881	52531
532.949	10016
533.017	6464
533.084	5462
533.152	3867
533.220	5400
533.287	6463
533.355	5476
533.423	4046
533.490	4021
533.558	3436
533.625	4778
533.693	4860
533.761	5236
533.828	5465
533.896	5580
533.963	11772
534.031	15918
534.098	23275
534.166	13304
534.233	4921
534.300	6707
534.368	6490
534.435	6044
534.503	6490
534.570	8367
534.637	8774
534.705	11998
534.772	12840
534.840	20013
534.907	97983
534.974	168292
535.041	20935
535.109	9028
535.176	5718
535.243	6934
535.310	6156
535.378	5744
535.445	4783
535.512	6423
535.579	5782
535.646	5232
535.714	4286
535.781	6452
535.848	6241
535.915	6089
535.982	4590
536.049	5487
536.116	7487
536.183	6256
536.250	4860
536.317	6949
536.384	8034
536.451	11852
536.518	14559
536.585	8583
536.652	11257
536.719	17617
536.786	15265
536.853	11156
536.920	13940
536.987	24889
537.053	22347
537.120	79291
537.187	89592
537.254	10966
537.321	6548
537.388	8371
537.454	5175
537.521	6044
537.588	5401
537.654	7260
537.721	6818
537.788	8616
537.855	6715
537.921	7236
537.988	6489
538.055	7947
538.121	5564
538.188	7918
538.254	9709
538.321	25815
538.388	17640
538.454	8252
538.521	6608
538.587	6853
538.654	5360
538.720	5917
538.787	5422
538.853	7023
538.920	7080
538.986	8708
539.053	5025
539.119	7675
539.185	6945
539.252	10045
539.318	13570
539.385	13004
539.451	7450
539.517	9692
539.583	10187
539.650	18613
539.716	65897
539.782	22649
539.849	8249
539.915	7977
539.981	7986
540.047	10599
540.114	8879
540.180	9245
540.246	8314
540.312	12465
540.378	22958
540.444	29042
540.510	22739
540.576	76093
540.643	28980
540.709	7310
540.775	6744
540.841	7333
540.907	7510
540.973	10834
541.039	10698
541.105	16599
541.171	9248
541.237	7458
541.303	8541
541.369	9326
541.435	10264
541.500	22496
541.566	15567
541.632	7575
541.698	5894
541.764	7274
541.830	5814
541.896	5578
541.961	6059
542.027	7629
542.093	7411
542.159	8043
542.224	7076
542.290	11989
542.356	19279
542.421	29316
542.487	12314
542.553	7225
542.618	7775
542.684	8862
542.750	7279
542.815	10098
542.881	14131
542.947	57689
543.012	55648
543.078	9245
543.143	7095
543.209	8519
543.274	7216
543.340	10180
543.405	19732
543.471	41899
543.536	11138
543.602	7486
543.667	4424
543.732	7474
543.798	4995
543.863	7414
543.928	5546
543.994	5906
544.059	5604
544.124	7240
544.190	6133
544.255	7367
544.320	7922
544.386	7844
544.451	11533
544.516	14504
544.581	12033
544.646	33789
544.712	68372
544.777	15349
544.842	7608
544.907	7973
544.972	7065
545.037	8018
545.102	7970
545.168	9098
545.233	8244
545.298	10296
545.363	10493
545.428	12749
545.493	20665
545.558	55324
545.623	24514
545.688	9793
545.753	8695
545.818	8167
545.883	9609
545.947	8918
546.012	9790
546.077	9946
546.142	9793
546.207	9550
546.272	14862
546.337	15711
546.401	12619
546.466	11988
546.531	10456
546.596	13425
546.661	13991
546.725	14008
546.790	12984
546.855	15147
546.919	14264
546.984	17571
547.049	18290
547.113	21516
547.178	21704
547.243	26359
547.307	29919
547.372	34491
547.436	33350
547.501	34531
547.565	37334
547.630	38708
547.695	35571
547.759	35196
547.823	33988
547.888	34878
547.952	35148
548.017	36154
548.081	38070
548.146	40334
548.210	39574
548.274	41500
548.339	40135
548.403	37339
548.468	34082
548.532	34396
548.596	34276
548.660	34753
548.725	37078
548.789	42083
548.853	41918
548.917	38270
548.982	37776
549.046	36062
549.110	30543
549.174	31498
549.238	34999
549.303	38989
549.367	40699
549.431	39612
549.495	35135
549.559	37004
549.623	42085
549.687	49164
549.751	50646
549.815	54797
549.879	55263
549.943	50537
550.007	54038
550.071	54541
550.135	54031
550.199	48361
550.263	45388
550.327	44034
550.391	43672
550.455	48622
550.519	50024
550.582	55294
550.646	65122
550.710	69894
550.774	62002
550.838	62147
550.901	62645
550.965	67357
551.029	70292
551.093	76261
551.156	81539
551.220	97454
551.284	123568
551.347	92661
551.411	74148
551.475	75158
551.538	66703
551.602	63787
551.666	55952
551.729	53241
551.793	51262
551.856	52142
551.920	49435
551.983	49884
552.047	49483
552.110	50064
552.174	49879
552.237	53235
552.301	49478
552.364	46433
552.428	43864
552.491	46774
552.554	48649
552.618	48474
552.681	49974
552.745	49088
552.808	60853
552.871	76150
552.934	57197
552.998	49117
553.061	46187
553.124	44906
553.187	44124
553.251	45988
553.314	45089
553.377	45984
553.440	48606
553.503	51107
553.567	54174
553.630	49022
553.693	47189
553.756	47284
553.819	46452
553.882	44610
553.945	45031
554.008	45410
554.071	44501
554.134	46815
554.197	42732
554.260	41500
554.323	44880
554.386	44030
554.449	44458
554.512	45041
554.575	41814
554.638	44021
554.701	44008
554.764	42348
554.827	39679
554.889	39558
554.952	36321
555.015	35242
555.078	36767
555.141	37798
555.203	34963
555.266	36231
555.329	35902
555.391	35190
555.454	34790
555.517	34958
555.580	32325
555.642	31247
555.705	29650
555.768	29958
555.830	30059
555.893	28499
555.955	27609
556.018	28333
556.080	26976
556.143	29520
556.206	28779
556.268	29014
556.330	27842
556.393	27447
556.455	25420
556.518	27001
556.580	28054
556.643	24434
556.705	23383
556.767	22939
556.830	24336
556.892	24784
556.955	30262
557.017	27851
557.079	21477
557.142	22189
557.204	23289
557.266	35871
557.328	32512
557.391	19192
557.453	19272
557.515	18931
557.577	21023
557.639	22868
557.701	19311
557.764	19322
557.826	20499
557.888	23733
557.950	24590
558.012	25932
558.074	32053
558.136	66621
558.198	191285
558.260	82395
558.322	27566
558.384	28083
558.446	32670
558.508	38091
558.570	47653
558.632	65088
558.694	92722
558.756	103989
558.818	256742
558.880	751755
558.942	293910
559.003	203078
559.065	120777
559.127	43349
559.189	41794
559.251	47646
559.312	61205
559.374	128283
559.436	485345
559.498	303895
559.559	52066
559.621	43838
559.683	47002
559.744	69974
559.806	210818
559.868	400477
559.929	88683
559.991	44660
560.052	58784
560.114	177644
560.176	135351
560.237	90789
560.299	184190
560.360	47380
560.422	16295
560.483	13721
560.545	12109
560.606	11653
560.667	10469
560.729	10315
560.790	9578
560.852	9940
560.913	10212
560.974	10021
561.036	8576
561.097	10662
561.158	10047
561.220	11961
561.281	10372
561.342	11168
561.403	12426
561.465	16249
561.526	32810
561.587	53587
561.648	15257
561.709	10107
561.771	8843
561.832	8685
561.893	7932
561.954	8920
562.015	8099
562.076	8736
562.137	8432
562.198	9279
562.259	8546
562.320	8203
562.381	9529
562.442	14892
562.503	12717
562.564	8719
562.625	8899
562.686	8849
562.747	8640
562.808	9849
562.869	7337
562.930	8823
562.991	7627
563.051	8079
563.112	7145
563.173	8130
563.234	6576
563.294	8067
563.355	7165
563.416	9450
563.477	7805
563.537	8442
563.598	8103
563.659	8415
563.720	7533
563.780	8888
563.841	8623
563.901	8616
563.962	6958
564.023	7410
564.083	7722
564.144	8034
564.204	8081
564.265	7521
564.325	7807
564.386	11794
564.446	11323
564.507	7709
564.567	7368
564.628	7244
564.688	6990
564.749	8152
564.809	7667
564.869	8781
564.930	7278
564.990	8198
565.050	7212
565.111	7879
565.171	6775
565.231	7435
565.292	8031
565.352	7263
565.412	8455
565.472	7428
565.532	8712
565.593	7949
565.653	7372
565.713	7369
565.773	8749
565.833	10944
565.893	14711
565.953	9179
566.013	7234
566.074	8570
566.134	8630
566.194	12471
566.254	14205
566.314	10637
566.374	7240
566.434	7385
566.494	7480
566.554	8163
566.614	7487
566.673	8542
566.733	8289
566.793	8867
566.853	8350
566.913	8002
566.973	8383
567.033	9049
567.092	8525
567.152	10506
567.212	9607
567.272	9338
567.331	8387
567.391	8637
567.451	9638
567.511	10567
567.570	10786
567.630	8909
567.690	7562
567.749	8954
567.809	9070
567.868	10127
567.928	9451
567.988	11156
568.047	11263
568.107	11932
568.166	13707
568.226	17713
568.285	24329
568.345	21227
568.404	17116
568.464	15435
568.523	15043
568.582	16069
568.642	16838
568.701	20292
568.761	23647
568.820	39292
568.879	36568
568.939	27487
568.998	20992
569.057	16084
569.116	13940
569.176	13029
569.235	10398
569.294	11056
569.353	10055
569.413	9829
569.472	8946
569.531	9068
569.590	8008
569.649	8870
569.708	7760
569.767	8822
569.827	10831
569.886	10413
569.945	7664
570.004	9283
570.063	9125
570.122	9344
570.181	8969
570.240	9610
570.299	9489
570.358	11512
570.417	9120
570.475	8107
570.534	8781
570.593	10608
570.652	9317
570.711	10241
570.770	8105
570.829	10337
570.887	8494
570.946	11960
571.005	8717
571.064	9266
571.122	9884
571.181	10759
571.240	9003
571.299	8730
571.357	8115
571.416	8764
571.475	7807
571.533	10811
571.592	7716
571.650	9557
571.709	7455
571.768	8938
571.826	8728
571.885	8628
571.943	7653
572.002	7190
572.060	7226
572.119	7226
572.177	7288
572.236	7801
572.294	6783
572.352	9500
572.411	7225
572.469	7622
572.528	7098
572.586	8182
572.644	8255
572.703	12529
572.761	8292
572.819	7682
572.877	5655
572.936	6704
572.994	7459
573.052	7028
573.110	7762
573.169	9111
573.227	7162
573.285	7488
573.343	6019
573.401	7693
573.459	7657
573.517	6731
573.576	7078
573.634	7080
573.692	7573
573.750	8527
573.808	6555
573.866	7335
573.924	8324
573.982	9227
574.040	6755
574.098	7703
574.155	6067
574.213	6652
574.271	7656
574.329	8437
574.387	6687
574.445	6424
574.503	6163
574.560	6054
574.618	6779
574.676	6019
574.734	6018
574.792	7236
574.849	6278
574.907	6725
574.965	4985
575.022	6369
575.080	6200
575.138	6206
575.195	5758
575.253	7412
575.311	7645
575.368	6951
575.426	5479
575.483	6529
575.541	5532
575.598	6556
575.656	5474
575.713	6502
575.771	6589
575.828	7321
575.886	6222
575.943	6718
576.001	5433
576.058	6537
576.115	5368
576.173	7481
576.230	8692
576.287	11377
576.345	8188
576.402	7887
576.459	6318
576.517	7066
576.574	7060
576.631	6875
576.688	6760
576.746	6776
576.803	5528
576.860	6353
576.917	5906
576.974	6806
577.031	5980
577.089	6163
577.146	5661
577.203	6777
577.260	6039
577.317	7045
577.374	6665
577.431	7168
577.488	6632
577.545	6463
577.602	5844
577.659	6323
577.716	6374
577.773	6548
577.830	5516
577.886	5609
577.943	4635
578.000	5948
578.057	6278
578.114	7309
578.171	5279
578.227	5934
578.284	5168
578.341	6985
578.398	5578
578.454	7327
578.511	6201
578.568	7784
578.625	6653
578.681	6347
578.738	5578
578.794	6576
578.851	5211
578.908	7223
578.964	6996
579.021	8388
579.077	5592
579.134	6861
579.190	6790
579.247	6210
579.303	6514
579.360	6342
579.416	5580
579.473	6188
579.529	5446
579.586	7330
579.642	6227
579.698	7611
579.755	6671
579.811	7608
579.867	6029
579.924	6570
579.980	6345
580.036	6793
580.093	6865
580.149	7239
580.205	6613
580.261	6925
580.317	6778
580.374	8201
580.430	8463
580.486	8172
580.542	6242
580.598	8266
580.619	8162
580.654	7991
580.692	7530
580.710	7312
580.765	6730
580.767	6716
580.823	7433
580.838	7274
580.879	6873
580.911	7704
580.935	8337
580.984	6599
580.991	6363
581.047	8199
581.057	7876
581.103	6490
581.130	6778
581.159	7076
581.203	6520
581.215	6386
581.270	7869
581.276	7734
581.326	6449
581.349	6734
581.382	7175
581.422	6867
581.438	6741
581.494	7483
581.494	7473
581.550	6784
581.567	7091
581.606	7719
581.640	7200
581.661	6928
581.713	7426
581.717	7458
581.773	7153
581.786	7084
581.829	6926
581.859	7127
581.885	7309
581.932	7986
581.940	8112
581.996	8272
582.004	8228
582.052	7922
582.077	7490
582.107	7020
582.150	7773
582.163	7992
582.219	7341
582.223	7376
582.274	8051
582.296	7835
582.330	7296
582.368	7712
582.386	7994
582.441	6751
582.441	6750
582.497	7204
582.514	7503
582.552	8244
582.587	8293
582.608	8331
582.659	6702
582.663	6574
582.719	8498
582.732	8341
582.774	7781
582.805	7588
582.830	7465
582.877	7828
582.885	7886
582.941	7990
582.950	7820
582.996	6995
583.023	7758
583.052	8576
583.095	8508
583.107	8509
583.162	8446
583.168	8425
583.218	8086
583.240	8140
583.273	8317
583.313	7640
583.328	7340
583.384	8428
583.385	8398
583.439	7736
583.458	8101
583.494	8413
583.531	7444
583.549	7222
583.603	8517
583.605	8542
583.660	7914
583.676	7969
583.715	8184
583.748	8061
583.770	8012
583.820	8227
583.825	8254
583.881	7961
583.893	8044
583.936	8072
583.965	7886
583.991	7916
584.038	8795
584.046	8910
584.101	7874
584.110	8068
584.156	9020
584.183	8419
584.211	7734
584.255	8706
584.266	9016
584.321	8402
584.328	8444
584.376	8596
584.400	8442
584.431	8339
584.472	9183
584.486	9443
584.541	8818
584.545	8851
584.596	9398
584.617	9252
584.651	9070
584.689	9789
584.706	10044
584.761	9431
584.762	9435
584.816	10133
584.834	10113
584.871	10171
584.906	11173
584.926	11533
584.978	11112
584.980	11120
585.035	12644
585.051	12883
585.090	13284
585.123	14567
585.145	15505
585.195	16099
585.200	16187
585.254	19422
585.267	20258
585.309	22885
585.340	25145
585.364	27068
585.412	30369
585.419	30865
585.473	37127
585.484	38394
585.528	45718
585.556	54283
585.583	69493
585.628	108993
585.637	124251
585.692	258021
585.700	288139
585.747	426716
585.772	384166
585.801	261785
585.845	91912
585.856	66952
585.910	33275
585.917	30364
585.965	23217
585.989	20511
586.019	18403
586.061	16961
586.074	16552
586.128	16319
586.133	16251
586.183	16245
586.205	16610
586.237	16735
586.277	15995
586.292	15689
586.346	15064
586.349	15048
586.401	15230
586.421	15322
586.455	15638
586.493	16214
586.509	16896
586.564	18578
586.565	18683
586.618	25684
586.637	27361
586.672	26177
586.709	22163
586.727	21141
586.781	22014
586.781	22015
586.835	18123
586.853	17179
586.889	15762
586.925	14686
586.944	14758
586.996	16045
586.998	16058
587.052	15330
587.068	15451
587.106	16301
587.140	16244
587.161	15954
587.212	15739
587.215	15767
587.269	16800
587.284	16935
587.323	17279
587.356	17456
587.377	17536
587.427	18025
587.431	18087
587.485	18783
587.499	19001
587.539	19103
587.571	19088
587.593	19567
587.643	20730
587.648	20795
587.702	21016
587.715	21217
587.755	22115
587.786	22692
587.810	22942
587.858	23243
587.864	23381
587.917	24952
587.930	25320
587.971	26652
588.001	27788
588.025	28644
588.073	30696
588.079	30981
588.133	32706
588.145	33313
588.187	36401
588.217	38462
588.241	40352
588.288	45154
588.295	45917
588.348	52555
588.360	54290
588.402	61023
588.431	65149
588.456	68850
588.503	78969
588.510	80775
588.564	95875
588.575	99719
588.617	116566
588.646	129156
588.671	142910
588.718	172996
588.725	180889
588.778	252247
588.789	270806
588.832	416127
588.861	529742
588.886	695106
588.932	1040533
588.939	1068237
588.993	1194668
589.004	1204006
589.047	930210
589.075	712554
589.100	551553
589.147	289808
589.154	274595
589.207	194443
589.218	180960
589.261	166188
589.290	159509
589.314	164128
589.361	180039
589.368	187832
589.421	263592
589.433	283831
589.475	470070
589.504	618485
589.528	770985
589.576	1059995
589.582	1042894
589.635	775641
589.647	705739
589.689	405683
589.718	220818
589.742	173537
589.790	102748
589.795	99493
589.849	75837
589.861	71311
589.902	64124
589.932	58805
589.955	53626
590.004	43334
590.009	42903
590.062	38972
590.075	38138
590.115	35597
590.146	33504
590.168	32781
590.218	31467
590.222	31380
590.275	30223
590.289	29861
590.328	29644
590.360	29546
590.381	29073
590.431	27731
590.435	27702
590.488	26860
590.503	26712
590.541	26463
590.574	26187
590.594	26223
590.645	26149
590.647	26157
590.700	25665
590.716	25619
590.753	25688
590.787	25457
590.806	25368
590.859	25444
590.859	25470
590.912	25393
590.930	25420
590.965	25194
591.001	24797
591.018	24789
591.071	24901
591.072	24876
591.124	24951
591.143	24962
591.177	25047
591.214	25061
591.230	25375
591.283	26535
591.285	26548
591.336	27125
591.356	27388
591.389	27293
591.427	26786
591.442	26234
591.495	24248
591.498	24078
591.547	24402
591.569	24613
591.600	24777
591.640	24699
591.653	24658
591.706	24556
591.711	24507
591.759	24701
591.782	24847
591.811	26159
591.853	27899
591.864	27638
591.917	26197
591.924	25934
591.969	25588
591.995	25456
592.022	25638
592.066	25773
592.075	25878
592.127	26417
592.137	26489
592.180	28500
592.208	29790
592.233	29003
592.279	27231
592.285	27165
592.338	26490
592.350	26285
592.390	26630
592.421	26887
592.443	26768
592.491	26385
592.495	26465
592.548	27206
592.562	27384
592.600	27528
592.633	27601
592.653	27247
592.704	26116
592.705	26289
592.775	27506
592.846	28472
592.916	29348
592.987	31227
593.058	30150
593.128	27651
593.199	28037
593.270	28181
593.341	28472
593.411	29128
593.482	31583
593.553	29741
593.623	30434
593.694	30603
593.764	31940
593.835	31161
593.906	31250
593.976	31068
594.047	32615
594.117	34873
594.188	36764
594.258	33027
594.329	32331
594.399	33249
594.470	34469
594.540	35166
594.611	35532
594.681	36080
594.751	35926
594.822	38604
594.892	39675
594.963	39292
595.033	40332
595.103	41334
595.174	43054
595.244	47323
595.314	51659
595.384	45266
595.455	44219
595.525	46417
595.595	46466
595.665	47848
595.736	47384
595.806	46303
595.876	47314
595.946	47974
596.016	49342
596.087	51656
596.157	51079
596.227	50380
596.297	53226
596.367	56301
596.437	61593
596.507	62611
596.577	67130
596.647	61702
596.717	63308
596.787	65148
596.857	65143
596.927	65895
596.997	65116
597.067	66019
597.137	66304
597.207	68064
597.277	68503
597.347	65906
597.417	63418
597.487	64013
597.557	66219
597.626	67007
597.696	68147
597.766	68509
597.836	70890
597.906	62361
597.975	59393
598.045	60110
598.115	61775
598.185	66726
598.254	74115
598.324	80351
598.394	83597
598.464	82564
598.533	78564
598.603	73703
598.672	72249
598.742	73319
598.812	73956
598.881	74381
598.951	74038
599.020	74193
599.090	76195
599.159	78598
599.229	76246
599.299	73187
599.368	74985
599.437	75581
599.507	70378
599.576	66615
599.646	66184
599.715	66142
599.785	65431
599.854	64647
599.924	63557
599.993	62434
600.062	63229
600.132	63407
600.201	68911
600.270	81300
600.340	85723
600.409	81285
600.478	81721
600.547	82126
600.617	78540
600.686	63395
600.755	57287
600.824	55807
600.894	53495
600.963	53058
601.032	51485
601.101	51821
601.170	48623
601.239	48297
601.308	49552
601.378	49952
601.447	48195
601.516	47752
601.585	50192
601.654	54259
601.723	51067
601.792	50754
601.861	52958
601.930	56299
601.999	59551
602.068	54434
602.137	59857
602.206	61223
602.275	58037
602.343	61850
602.412	63184
602.481	59294
602.550	57768
602.619	60719
602.688	61987
602.756	60729
602.825	60393
602.894	62936
602.963	62484
603.032	65407
603.100	64524
603.169	64129
603.238	64521
603.307	64693
603.375	65437
603.444	66859
603.513	69039
603.581	68289
603.650	72056
603.719	68077
603.787	69715
603.856	71078
603.924	74193
603.993	75630
604.061	78236
604.130	81408
604.198	84395
604.267	85780
604.335	86204
604.404	86882
604.472	88891
604.541	88873
604.609	90416
604.678	90718
604.746	91010
604.815	94714
604.883	95108
604.951	94303
605.020	96216
605.088	97911
605.156	98995
605.225	100461
605.293	99930
605.361	101507
605.429	101026
605.498	104332
605.566	108276
605.634	112144
605.702	114857
605.771	119369
605.839	119382
605.907	117698
605.975	113645
606.043	110370
606.111	109858
606.180	109508
606.248	107491
606.316	107155
606.384	108526
606.452	112570
606.520	118508
606.588	116424
606.656	114234
606.724	112392
606.792	105229
606.860	95949
606.928	86321
606.996	82613
607.064	80419
607.132	81351
607.200	87757
607.267	91780
607.335	92282
607.403	94948
607.471	91684
607.539	87633
607.607	91220
607.674	79884
607.742	79193
607.810	81062
607.878	80208
607.946	80382
608.013	84065
608.081	85159
608.149	87460
608.216	89251
608.284	92817
608.352	91844
608.419	91907
608.487	93015
608.555	89666
608.622	89857
608.690	95530
608.757	105176
608.825	108111
608.893	107202
608.960	103502
609.028	101112
609.095	100020
609.163	96353
609.230	87066
609.298	77259
609.365	81116
609.432	87178
609.500	94417
609.567	108330
609.635	126368
609.702	134341
609.769	130454
609.837	104667
609.904	85540
609.971	86917
610.039	98502
610.106	127157
610.173	243281
610.241	585089
610.308	402128
610.375	123679
610.442	95076
610.509	87680
610.577	88336
610.644	88532
610.711	91248
610.778	94724
610.845	96849
610.912	103465
610.980	109040
611.047	109667
611.114	108808
611.181	104193
611.248	101962
611.315	107966
611.382	110617
611.449	114856
611.516	118333
611.583	114064
611.650	116238
611.717	118720
611.784	121361
611.851	126033
611.918	135905
611.984	157257
612.051	222477
612.118	440339
612.185	1101588
612.252	861645
612.319	210307
612.386	158902
612.452	144378
612.519	136859
612.586	134533
612.653	135256
612.719	139301
612.786	133719
612.853	122774
612.919	118607
612.986	122541
613.053	114274
613.120	108042
613.186	103454
613.253	104717
613.319	103698
613.386	104477
613.453	106347
613.519	112340
613.586	112969
613.652	128263
613.719	118525
613.785	117144
613.852	107779
613.918	105129
613.985	107191
614.051	113953
614.118	114937
614.184	112268
614.250	105903
614.317	108642
614.383	107439
614.449	109142
614.516	108571
614.582	109701
614.648	107216
614.715	107215
614.781	104783
614.847	103395
614.914	104447
614.980	101212
615.046	99883
615.112	103426
615.179	103118
615.245	106737
615.311	105467
615.377	108874
615.443	112718
615.509	109038
615.575	111487
615.642	111295
615.708	113973
615.774	119791
615.840	125936
615.906	137351
615.972	167490
616.038	253826
616.104	529861
616.170	1246808
616.236	1291565
616.302	308625
616.368	208523
616.434	152295
616.500	135341
616.565	148307
616.631	190911
616.697	155950
616.763	153830
616.829	227364
616.895	431138
616.961	443661
617.026	182552
617.092	119013
617.158	110920
617.224	108910
617.289	101134
617.355	95286
617.421	92338
617.487	94442
617.552	88385
617.618	86236
617.684	86516
617.749	89898
617.815	84108
617.880	82472
617.946	81083
618.012	83496
618.077	86031
618.143	83647
618.208	82488
618.274	88861
618.339	93005
618.405	74391
618.470	73537
618.536	73353
618.601	73608
618.667	69502
618.732	64108
618.798	64346
618.863	62851
618.928	63164
618.994	64650
619.059	67804
619.124	77119
619.190	69153
619.255	61667
619.320	62202
619.386	61668
619.451	61226
619.516	60046
619.581	60244
619.647	62829
619.712	62414
619.777	59459
619.842	59529
619.907	61911
619.972	64078
620.038	62826
620.103	60997
620.168	59376
620.233	60688
620.298	61408
620.363	61636
620.428	63463
620.493	65255
620.558	64784
620.623	66175
620.688	65826
620.753	65571
620.818	66956
620.883	66443
620.948	67059
621.013	66664
621.078	66984
621.143	66208
621.207	69728
621.272	67354
621.337	65828
621.402	64747
621.467	66364
621.532	67536
621.596	66459
621.661	62978
621.726	60914
621.791	62064
621.855	62202
621.920	63263
621.985	62367
622.049	66428
622.114	65572
622.179	64485
622.243	67366
622.308	68143
622.373	71051
622.437	70812
622.502	66050
622.566	65441
622.631	64047
622.695	65752
622.760	65571
622.824	64869
622.889	66709
622.953	69728
623.018	84847
623.082	89538
623.147	71917
623.211	69495
623.276	69887
623.340	67177
623.404	63268
623.469	63274
623.533	63588
623.597	63548
623.662	61337
623.726	57693
623.790	53293
623.854	52438
623.919	54250
623.983	55140
624.047	55478
624.111	54876
624.176	57243
624.240	60030
624.304	63202
624.368	58431
624.432	56449
624.496	59135
624.560	64538
624.625	68874
624.689	61576
624.753	63026
624.817	60920
624.881	59817
624.945	54614
625.009	51966
625.073	52812
625.137	57861
625.201	65348
625.265	67181
625.329	56236
625.393	57593
625.456	57321
625.520	59138
625.584	60462
625.648	65154
625.712	70295
625.776	91184
625.839	98802
625.903	65445
625.967	47376
626.031	56517
626.095	75946
626.158	60474
626.222	44787
626.286	40787
626.349	38879
626.413	36780
626.477	38278
626.540	38295
626.604	36883
626.668	37149
626.731	35048
626.795	35739
626.858	35695
626.922	35166
626.986	35342
627.049	33855
627.113	36488
627.176	35678
627.240	32845
627.303	35540
627.366	33521
627.430	35665
627.493	35334
627.557	33748
627.620	35121
627.684	35663
627.747	35858
627.810	34499
627.874	30554
627.937	29132
628.000	31346
628.064	29723
628.127	25846
628.190	26942
628.253	26125
628.317	25376
628.380	23926
628.443	23632
628.506	23871
628.569	23558
628.632	21127
628.696	21408
628.759	21284
628.822	20400
628.885	20363
628.948	19803
629.011	20675
629.074	20131
629.137	18641
629.200	18198
629.263	19988
629.326	18092
629.389	18074
629.452	18567
629.515	18561
629.578	17712
629.641	18453
629.704	18958
629.767	19167
629.830	17871
629.892	18104
629.955	17100
630.018	19060
630.081	21073
630.144	24875
630.207	19883
630.269	20196
630.332	18549
630.395	17528
630.458	17382
630.520	16333
630.583	18033
630.646	16672
630.708	16931
630.771	16617
630.834	18181
630.896	16434
630.959	16736
631.021	15679
631.084	17379
631.146	17892
631.209	19048
631.272	17571
631.334	17347
631.397	16476
631.459	16795
631.522	17518
631.584	19173
631.646	20680
631.709	22436
631.771	25638
631.834	23104
631.896	18729
631.958	17873
632.021	17567
632.083	15718
632.145	17063
632.208	16027
632.270	17176
632.332	15759
632.395	14527
632.457	16883
632.519	15747
632.581	15393
632.643	15295
632.706	15579
632.768	14591
632.830	15576
632.892	16122
632.954	15663
633.016	16888
633.078	15296
633.141	15592
633.203	15184
633.265	15984
633.327	15599
633.389	15380
633.451	17505
633.513	20715
633.575	18580
633.637	18847
633.698	19066
633.760	17611
633.822	16957
633.884	17103
633.946	17688
634.008	18883
634.070	19102
634.132	20327
634.193	22129
634.255	24196
634.317	25078
634.379	25767
634.441	22972
634.502	19260
634.564	18276
634.626	16353
634.687	16323
634.749	15765
634.811	15781
634.873	14183
634.934	15658
634.996	15173
635.057	14173
635.119	13700
635.181	15576
635.242	16634
635.304	14469
635.365	16353
635.427	15153
635.488	15984
635.550	14850
635.611	15407
635.673	15259
635.734	17255
635.796	17750
635.857	19803
635.918	19857
635.980	22950
636.041	24825
636.102	26436
636.164	27260
636.225	26107
636.286	21569
636.348	19611
636.409	17160
636.470	15307
636.531	15375
636.593	15032
636.654	15587
636.715	13310
636.776	12781
636.838	12840
636.899	12847
636.960	12393
637.021	12001
637.082	11804
637.143	12749
637.204	11655
637.265	11350
637.326	12227
637.387	11750
637.448	11354
637.509	12882
637.570	12219
637.631	11783
637.692	10350
637.753	10335
637.814	11235
637.875	10462
637.936	11943
637.997	10498
638.058	11190
638.119	11981
638.179	11134
638.240	11057
638.301	10685
638.362	11459
638.423	10588
638.483	11552
638.544	9631
638.605	10510
638.666	9399
638.726	10785
638.787	11375
638.848	9797
638.908	11180
638.969	9879
639.030	9215
639.090	9380
639.151	9741
639.211	11064
639.272	13515
639.332	21685
639.393	16281
639.453	12102
639.514	11007
639.574	9799
639.635	9011
639.695	10689
639.756	9564
639.816	9659
639.877	11651
639.937	18252
639.997	25804
640.058	11728
640.118	8596
640.178	10238
640.239	9076
640.299	8462
640.359	8355
640.420	10180
640.480	10469
640.540	13263
640.600	12906
640.661	11758
640.721	9994
640.781	15017
640.841	9589
640.901	10086
640.961	9448
641.021	10972
641.082	12234
641.142	16904
641.202	12791
641.262	7678
641.322	8588
641.382	7539
641.442	8991
641.502	8162
641.562	8447
641.622	8180
641.682	8876
641.742	10650
641.802	10634
641.861	9380
641.921	9131
641.981	10917
642.041	9928
642.101	12781
642.161	9588
642.221	8196
642.280	6942
642.340	8087
642.400	7193
642.460	8210
642.519	7706
642.579	8568
642.639	8163
642.698	5954
642.758	10334
642.818	8786
642.877	8949
642.937	9601
642.997	10345
643.056	14985
643.116	10057
643.175	9628
643.235	8680
643.294	9333
643.354	10001
643.414	11374
643.473	13176
643.532	16344
643.592	22054
643.651	37415
643.711	68646
643.770	134830
643.830	322440
643.889	816773
643.948	264624
644.008	37376
644.067	20099
644.126	14619
644.186	11822
644.245	11223
644.304	9294
644.363	10770
644.423	8705
644.482	8999
644.541	8978
644.600	8466
644.659	12480
644.719	15340
644.778	25038
644.837	41907
644.896	89359
644.955	233575
645.014	100539
645.073	17004
645.132	11542
645.191	10729
645.250	10099
645.309	10870
645.368	10235
645.427	14669
645.486	22747
645.545	48182
645.604	17162
645.663	10034
645.722	8705
645.781	10303
645.840	10527
645.898	14955
645.957	21840
646.016	34112
646.075	65039
646.134	134673
646.192	338946
646.251	644793
646.310	120187
646.369	24369
646.427	18760
646.486	13854
646.545	10386
646.603	10052
646.662	9175
646.721	7796
646.779	7870
646.838	8373
646.896	12148
646.955	15207
647.014	24674
647.072	47909
647.131	140526
647.189	92210
647.248	11956
647.306	8235
647.365	6959
647.423	5345
647.481	7175
647.540	4544
647.598	5819
647.657	5563
647.715	6472
647.773	4939
647.832	5536
647.890	4316
647.948	4500
648.007	6000
648.065	3817
648.123	5008
648.181	6099
648.240	4945
648.298	4526
648.356	4409
648.414	5770
648.472	4310
648.531	4716
648.589	4911
648.647	4328
648.705	4867
648.763	4251
648.821	5003
648.879	4619
648.937	6446
648.995	8011
649.053	9234
649.111	16530
649.169	29588
649.227	54454
649.285	113416
649.343	355632
649.401	235936
649.459	40356
649.516	25278
649.574	9913
649.632	11804
649.690	12334
649.748	12762
649.806	17092
649.863	33697
649.921	94911
649.979	86261
650.037	11377
650.094	5383
650.152	5781
650.210	4539
650.268	4339
650.325	4321
650.383	4157
650.440	3201
650.498	4307
650.556	4302
650.613	2755
650.671	4374
650.728	4143
650.786	4592
650.843	5758
650.901	4126
650.958	3137
651.016	3811
651.073	3359
651.131	3471
651.188	1948
651.246	3371
651.303	2861
651.360	4238
651.418	2749
651.475	3676
651.532	1463
651.590	3624
651.647	2557
651.704	3454
651.762	2981
651.819	3161
651.876	2075
651.933	3405
651.990	2630
652.048	2215
652.105	2467
652.162	2757
652.219	2706
652.276	2845
652.333	2742
652.390	1816
652.448	2432
652.505	1800
652.562	2809
652.619	2244
652.676	2667
652.733	3517
652.790	1808
652.847	1727
652.904	2664
652.961	1571
653.017	2348
653.074	3028
653.131	2690
653.188	1896
653.245	2054
653.302	2686
653.359	2079
653.415	2443
653.472	1666
653.529	3186
653.586	1814
653.642	2722
653.699	3274
653.756	1700
653.813	2190
653.869	3428
653.926	1514
653.983	1560
654.039	2443
654.096	2322
654.152	3180
654.209	1703
654.266	3002
654.322	1380
654.379	3178
654.435	4102
654.492	3499
654.548	4500
654.605	7292
654.661	5181
654.717	2631
654.774	2713
654.830	2907
654.887	3122
654.943	1359
655.000	2062
655.056	2125
655.112	2684
655.168	1717
655.225	2718
655.281	2866
655.337	2250
655.394	3721
655.450	3806
655.506	2487
655.562	4162
655.618	4874
655.675	1760
655.731	2526
655.787	1660
655.843	2833
655.899	1168
655.955	2644
656.011	1783
656.067	1090
656.123	2037
656.179	2909
656.235	4234
656.291	1194
656.347	2945
656.403	1630
656.459	2409
656.515	2335
656.571	2031
656.627	2876
656.683	1628
656.739	2184
656.795	2039
656.850	2587
656.906	3347
656.962	3527
657.018	2290
657.074	2774
657.129	3834
657.185	5199
657.241	12230
657.297	9363
657.352	2471
657.408	1855
657.464	3964
657.519	3006
657.575	1522
657.630	1277
657.686	1899
657.742	955
657.797	2179
657.853	1886
657.908	2977
657.964	1674
658.019	2569
658.075	2324
658.130	2029
658.186	671
658.241	1863
658.297	716
658.352	1479
658.407	1924
658.463	880
658.518	1658
658.573	1752
658.629	218
658.684	1709
658.739	2486
658.795	1133
658.850	2340
658.905	1037
658.960	1748
659.016	1378
659.071	1924
659.126	2606
659.181	2208
659.236	5267
659.291	6328
659.346	2547
659.401	1719
659.457	2689
659.512	1458
659.567	2834
659.622	1188
659.677	1382
659.732	612
659.787	2918
659.842	1273
659.897	2831
659.952	1905
660.007	1811
660.061	1344
660.116	1713
660.171	1178
660.226	1894
660.281	1658
660.336	-88
660.391	2905
660.445	1381
660.500	1469
660.555	1375
660.610	705
660.664	1927
660.719	736
660.774	1921
660.828	1850
660.883	2140
660.938	1163
660.992	678
661.047	1574
661.101	1899
661.156	836
661.211	862
661.265	1300
661.320	2188
661.374	1320
661.429	1434
661.483	2126
661.538	-74
661.592	1040
661.647	1535
661.701	1360
661.755	1466
661.810	1611
661.864	494
661.919	974
661.973	1478
662.027	1386
662.081	1642
662.136	1085
662.190	1146
662.244	1815
662.299	992
662.353	1599
662.407	1480
662.461	540
662.515	1448
662.569	515
662.624	2116
662.678	821
662.732	1342
662.786	949
662.840	1195
662.894	1621
662.948	1316
663.002	1241
663.056	2216
663.110	427
663.164	1103
663.218	991
663.272	1654
663.326	1784
663.380	1084
663.434	1404
663.488	529
663.542	1058
663.595	1257
663.649	1029
663.703	2967
663.757	1798
663.811	450
663.864	1016
663.918	2827
663.972	1134
664.026	1350
664.079	1354
664.133	1327
664.187	1077
664.240	1053
664.294	524
664.348	1876
664.401	1208
664.455	1575
664.508	952
664.562	1823
664.615	745
664.669	945
664.722	763
664.776	1547
664.829	829
664.883	1197
664.936	942
664.990	1479
665.043	1346
665.097	1123
665.150	2133
665.203	1410
665.257	530
665.310	1585
665.363	1672
665.417	1749
665.470	1660
665.523	1453
665.576	1164
665.630	845
665.683	1021
665.736	843
665.789	1619
665.842	1849
665.895	1225
665.949	1210
666.002	699
666.055	710
666.108	1520
666.161	1152
666.214	2062
666.267	1967
666.320	2637
666.373	2080
666.426	984
666.479	1800
666.532	1457
666.585	1691
666.638	2244
666.691	1081
666.744	2266
666.796	1503
666.849	1325
666.902	1703
666.955	921
667.008	1010
667.060	1053
667.113	1105
667.166	1481
667.219	973
667.271	1465
667.324	1341
667.377	1141
667.430	1159
667.482	1624
667.535	2186
667.587	1400
667.640	2189
667.693	3130
667.745	5623
667.798	6521
667.850	2030
667.903	924
667.955	1401
668.008	1723
668.060	1885
668.113	1087
668.165	2237
668.218	1279
668.270	1910
668.322	902
668.375	1560
668.427	1827
668.479	1638
668.532	1771
668.584	1968
668.636	776
668.689	1309
668.741	1496
668.793	1139
668.845	995
668.898	1345
668.950	1293
669.002	1378
669.054	1020
669.106	308
669.158	1524
669.211	945
669.263	863
669.315	1262
669.367	1103
669.419	1391
669.471	1226
669.523	2365
669.575	2180
669.627	990
669.679	1490
669.731	1435
669.783	1335
669.835	2202
669.886	707
669.938	1615
669.990	633
670.042	639
670.094	987
670.146	1775
670.197	1332
670.249	2371
670.301	2059
670.353	2925
670.404	3310
670.456	4832
670.508	7637
670.560	12552
670.611	22357
670.663	40628
670.715	91704
670.766	183088
670.818	57628
670.869	7419
670.921	4294
670.972	3192
671.024	2381
671.075	2060
671.127	1870
671.178	1984
671.230	1741
671.281	2286
671.333	2448
671.384	1840
671.436	2825
671.487	4901
671.538	5880
671.590	10627
671.641	18451
671.692	32154
671.744	71172
671.795	49735
671.846	13041
671.897	5885
671.949	3953
672.000	2415
672.051	2069
672.102	2746
672.153	1187
672.204	1524
672.256	1079
672.307	1641
672.358	1442
672.409	1404
672.460	591
672.511	1353
672.562	-162
672.613	969
672.664	825
672.715	1700
672.766	1071
672.817	1124
672.868	840
672.919	1318
672.970	376
673.021	1197
673.071	-83
673.122	1448
673.173	1181
673.224	465
673.275	685
673.326	1099
673.376	586
673.427	-140
673.478	411
673.528	1153
673.579	1291
673.630	757
673.680	1103
673.731	1026
673.782	723
673.832	694
673.883	1611
673.934	947
673.984	1027
674.035	893
674.085	855
674.136	835
674.186	1622
674.237	918
674.287	1791
674.338	1744
674.388	620
674.438	108
674.489	1390
674.539	1303
674.589	1087
674.640	1637
674.690	114
674.740	344
674.791	1079
674.841	1199
674.891	909
674.942	1261
674.992	756
675.042	500
675.092	782
675.142	100
675.193	917
675.243	678
675.293	992
675.343	451
675.393	597
675.443	662
675.493	-271
675.543	451
675.593	-67
675.643	-145
675.693	6
675.743	1265
675.793	308
675.843	973
675.893	345
675.943	529
675.993	346
676.043	314
676.093	264
676.142	-117
676.192	40
676.242	568
676.292	84
676.341	-138
676.391	615
676.441	946
676.491	130
676.540	-18
676.590	255
676.640	168
676.689	136
676.739	-36
676.789	-116
676.838	374
676.888	-10
676.937	451
676.987	-183
677.037	39
677.086	-306
677.136	515
677.185	196
677.235	51
677.284	783
677.333	-356
677.383	444
677.432	186
677.482	360
677.531	470
677.580	333
677.630	65
677.679	100
677.728	658
677.778	151
677.827	219
677.876	-131
677.925	174
677.975	485
678.024	7
678.073	-420
678.122	-581
678.171	596
678.220	406
678.269	530
678.319	719
678.368	603
678.417	830
678.466	468
678.515	783
678.564	29
678.613	516
678.662	-336
678.711	239
678.760	-475
678.809	1019
678.857	821
678.906	-115
678.955	160
679.004	-9
679.053	-289
679.102	-238
679.151	-657
679.199	380
679.248	-514
679.297	106
679.346	-78
679.394	-165
679.443	368
679.492	28
679.540	-452
679.589	-434
679.638	-274
679.686	796
679.735	20
679.784	696
679.832	110
679.881	-643
679.929	29
679.978	-144
680.026	-744
680.075	592
680.123	-247
680.172	84
680.220	-863
680.268	139
680.317	125
680.365	83
680.414	-289
680.462	95
680.510	-1
680.559	516
680.607	-512
680.655	512
680.703	367
680.752	12
680.800	-339
680.848	-36
680.896	-299
680.945	197
680.993	-456
681.041	-344
681.089	696
681.137	73
681.185	-650
681.233	-204
681.258	-222
681.281	-273
681.329	-577
681.377	452
681.380	455
681.425	-158
681.473	640
681.502	280
681.521	-28
681.569	766
681.617	983
681.624	898
681.665	98
681.713	924
681.745	434
681.761	148
681.809	621
681.857	928
681.867	1014
681.904	1149
681.952	697
681.989	689
682.000	647
682.048	756
682.096	549
682.111	769
682.143	1118
682.191	1034
682.233	1497
682.239	1535
682.286	2050
682.334	1867
682.354	1815
682.382	1670
682.430	1263
682.476	1900
682.477	1884
682.525	1423
682.572	2043
682.598	1834
682.620	1617
682.667	1794
682.715	1688
682.720	1766
682.763	2189
682.810	2206
682.841	2352
682.857	2356
682.905	2093
682.952	2523
682.963	2476
683.000	2175
683.047	3130
683.085	3152
683.095	3131
683.142	2600
683.190	2256
683.206	2383
683.237	2574
683.284	2809
683.328	3574
683.332	3605
683.379	2945
683.426	2776
683.449	2744
683.473	2698
683.521	3276
683.568	2955
683.571	3003
683.615	3339
683.662	3213
683.693	3431
683.709	3472
683.757	2752
683.804	4089
683.814	4004
683.851	3754
683.898	3870
683.936	3446
683.945	3302
683.992	4141
684.039	4625
684.057	4749
684.086	4927
684.133	5041
684.179	4977
684.180	4944
684.227	5125
684.274	5065
684.300	5238
684.321	5352
684.368	4812
684.415	5123
684.422	5173
684.462	5274
684.509	4465
684.543	4529
684.556	4556
684.603	4296
684.649	4791
684.665	4628
684.696	4320
684.743	4911
684.786	4799
684.790	4773
684.837	5077
684.883	5833
684.908	6095
684.930	6291
684.977	5940
685.023	5877
685.029	5883
685.070	5519
685.117	6062
685.150	5849
685.164	5854
685.210	6317
685.257	6611
685.272	6755
685.303	6955
685.350	6724
685.393	6459
685.396	6451
685.443	6718
685.490	7621
685.514	7736
685.536	7413
685.583	7026
685.629	7115
685.636	7126
685.675	7444
685.722	7078
685.757	7533
685.768	7654
685.815	7150
685.861	7196
685.878	7095
685.908	6934
685.954	6863
686.000	6793
686.000	6791
686.047	7751
686.093	8615
686.121	9363
686.139	9530
686.185	8386
686.232	7990
686.242	8019
686.278	7996
686.324	7308
686.363	6560
686.370	6475
686.416	7092
686.463	7309
686.484	7171
686.509	7014
686.555	7080
686.601	7298
686.606	7345
686.647	7755
686.693	7719
686.727	7334
686.739	7179
686.785	8100
686.831	7664
686.848	7668
686.877	7683
686.923	7063
686.969	7721
686.969	7723
687.015	7735
687.061	7692
687.090	8116
687.107	8292
687.153	8831
687.199	8456
687.211	8342
687.245	8089
687.291	7597
687.332	8171
687.336	8249
687.382	8290
687.428	8144
687.453	8577
687.474	8718
687.520	8690
687.565	8224
687.574	8097
687.611	7858
687.657	8478
687.695	8496
687.702	8527
687.748	9096
687.794	9260
687.816	9274
687.839	9066
687.885	9122
687.931	8922
687.937	8918
687.976	9184
688.022	8705
688.058	9807
688.067	10074
688.113	9091
688.158	9396
688.179	9406
688.204	9341
688.249	9070
688.295	9579
688.300	9587
688.340	9989
688.386	9773
688.421	9889
688.431	9855
688.477	9834
688.522	10051
688.542	10126
688.567	10469
688.613	10725
688.658	10645
688.663	10714
688.703	10965
688.749	10598
688.784	10958
688.794	11034
688.839	10445
688.884	10321
688.905	10187
688.930	10228
688.975	9994
689.020	9998
689.026	10059
689.065	10543
689.110	9733
689.146	10334
689.155	10455
689.201	10037
689.246	9876
689.267	9762
689.291	9820
689.336	10140
689.381	10122
689.388	10156
689.426	10314
689.471	10205
689.509	10389
689.516	10427
689.561	10333
689.606	10174
689.630	10072
689.651	10023
689.696	10513
689.741	10131
689.750	10178
689.785	10525
689.830	10499
689.871	10769
689.875	10795
689.920	10692
689.965	10592
689.992	10767
690.010	10923
690.054	10642
690.099	10447
690.112	10473
690.144	10544
690.189	10759
690.233	10313
690.233	10328
690.278	10807
690.323	10614
690.354	10922
690.367	11010
690.412	11001
690.457	10879
690.474	10722
690.501	10478
690.546	10644
690.590	10426
690.595	10397
690.635	10677
690.680	11005
690.716	10934
690.724	10862
690.769	10676
690.813	10931
690.836	10687
690.857	10730
690.902	10616
690.946	11484
690.957	11405
690.991	11401
691.035	12266
691.077	12740
691.080	12775
691.124	13383
691.168	13553
691.198	13352
691.213	13162
691.257	13322
691.301	13562
691.318	13273
691.346	12767
691.390	12386
691.434	12225
691.439	12178
691.478	12458
691.522	12625
691.559	13008
691.567	13156
691.611	13520
691.655	14290
691.680	14353
691.699	14027
691.743	13418
691.787	12931
691.800	12780
691.831	12910
691.875	12995
691.919	12858
691.921	12852
691.964	13711
692.008	13537
692.041	13457
692.052	13402
692.096	13800
692.139	13658
692.162	13639
692.183	13557
692.227	13226
692.271	13247
692.282	13112
692.315	13008
692.359	13138
692.402	13233
692.403	13260
692.447	13253
692.490	12945
692.523	12963
692.534	13093
692.578	13517
692.622	13955
692.643	13975
692.666	13884
692.709	14004
692.753	13943
692.763	13897
692.797	13829
692.840	13657
692.884	13558
692.884	13589
692.928	13733
692.971	14009
693.004	14043
693.015	14018
693.059	13853
693.102	13885
693.124	13636
693.146	13725
693.189	14187
693.233	14617
693.245	14644
693.276	14596
693.320	14944
693.363	14607
693.365	14582
693.407	14723
693.450	14743
693.485	14600
693.493	14677
693.537	14878
693.580	15153
693.605	15354
693.624	15443
693.667	15509
693.710	15301
693.725	15201
693.753	15757
693.797	16842
693.840	18171
693.845	18222
693.883	17987
693.926	17977
693.966	17800
693.970	17726
694.013	16685
694.056	15603
694.086	14637
694.099	14614
694.142	14735
694.185	14791
694.206	14829
694.229	15149
694.272	15691
694.315	15950
694.326	16030
694.358	16744
694.401	17443
694.444	18414
694.446	18408
694.487	18561
694.530	18852
694.566	19060
694.573	18894
694.616	17400
694.659	15962
694.686	15036
694.702	15037
694.745	14920
694.787	14689
694.806	14597
694.830	14667
694.873	14715
694.916	14821
694.926	14799
694.959	15116
695.002	15408
695.044	15820
695.046	15787
695.087	15864
695.130	16209
695.166	16352
695.172	16369
695.215	16284
695.258	16155
695.286	15931
695.301	15920
695.343	15719
695.386	15992
695.406	15801
695.428	15600
695.471	15428
695.514	15304
695.526	15202
695.556	15903
695.599	17048
695.641	17888
695.646	17942
695.684	17401
695.726	16803
695.766	16188
695.769	16231
695.811	16335
695.854	16314
695.886	16299
695.896	16392
695.938	16406
695.981	16778
696.005	16782
696.023	16879
696.065	17108
696.108	17253
696.125	17312
696.150	17618
696.192	18000
696.235	18501
696.245	18525
696.277	18200
696.319	17896
696.361	17554
696.365	17462
696.404	17350
696.446	17393
696.485	17510
696.488	17561
696.530	17211
696.572	17216
696.604	17039
696.614	17152
696.656	17538
696.698	17799
696.724	18019
696.740	18078
696.783	17903
696.825	18007
696.844	17902
696.867	17927
696.909	17921
696.951	17840
696.964	17832
696.992	17738
697.034	17323
697.076	17028
697.083	16937
697.118	17627
697.160	18241
697.202	19018
697.203	18986
697.244	18763
697.286	18512
697.323	18252
697.327	18320
697.369	18440
697.411	18610
697.442	18648
697.453	18795
697.494	19186
697.536	19594
697.562	19879
697.578	19974
697.620	19883
697.661	19906
697.682	19815
697.703	20190
697.744	20859
697.786	21661
697.801	21849
697.828	22359
697.869	23120
697.911	23804
697.921	23923
697.952	22881
697.994	21378
698.035	19855
698.040	19622
698.077	19658
698.118	19593
698.160	19526
698.160	19471
698.201	19401
698.243	19204
698.279	19082
698.284	19212
698.325	19825
698.367	20472
698.399	20940
698.408	20926
698.449	20538
698.491	20249
698.518	19936
698.532	20098
698.573	20455
698.614	20811
698.638	20962
698.656	20988
698.697	20901
698.738	20828
698.757	20720
698.779	20896
698.820	21142
698.862	21395
698.877	21426
698.903	21676
698.944	21985
698.985	22297
698.996	22323
699.026	22234
699.067	22027
699.116	21722
699.235	20006
699.354	20282
699.474	21339
699.593	21371
699.713	21338
699.832	20798
699.951	23260
700.070	21647
700.190	19655
700.309	19876
700.428	21099
700.547	19746
700.667	19932
700.786	20585
700.905	18591
701.024	19953
701.143	20144
701.262	19188
701.381	18954
701.500	19873
701.619	22384
701.738	20043
701.857	19043
701.976	17924
702.095	17630
702.214	19495
702.333	22717
702.452	20419
702.571	18672
702.690	17897
702.809	18312
702.928	17444
703.047	17543
703.165	17683
703.284	17011
703.403	16902
703.522	18422
703.640	18005
703.759	21150
703.878	26453
703.997	17838
704.115	16745
704.234	17493
704.353	17611
704.471	17025
704.590	15976
704.708	15608
704.827	15762
704.946	15486
705.064	17735
705.183	16816
705.301	17214
705.420	19832
705.538	19490
705.656	17069
705.775	17183
705.893	18560
706.012	20765
706.130	18190
706.249	17736
706.367	18099
706.485	18757
706.604	17940
706.722	18301
706.840	21833
706.958	20957
707.077	17119
707.195	17635
707.313	16678
707.431	16303
707.549	15393
707.668	15625
707.786	17347
707.904	16942
708.022	15954
708.140	16104
708.258	16338
708.376	17045
708.494	15597
708.612	17250
708.730	20536
708.848	20296
708.966	20035
709.084	20827
709.202	18091
709.320	17766
709.438	17861
709.556	17997
709.674	17233
709.791	18686
709.909	16890
710.027	15900
710.145	17173
710.263	17037
710.380	17645
710.498	17267
710.616	16130
710.733	17071
710.851	17385
710.969	17705
711.086	15330
711.204	17138
711.322	16176
711.439	16719
711.557	17082
711.674	15267
711.792	15956
711.909	15491
712.027	15363
712.144	15976
712.262	15198
712.379	17123
712.497	20082
712.614	20459
712.732	17884
712.849	18067
712.966	19434
713.084	26228
713.201	20748
713.318	19542
713.436	18091
713.553	18577
713.670	20526
713.787	21227
713.905	21212
714.022	18873
714.139	18397
714.256	24351
714.373	32744
714.490	55871
714.608	132211
714.725	582156
714.842	871068
714.959	76584
715.076	30793
715.193	21935
715.310	20348
715.427	17293
715.544	17752
715.661	17172
715.778	16096
715.895	18022
716.011	17844
716.128	15637
716.245	16667
716.362	19756
716.479	22096
716.596	16063
716.713	15577
716.829	15879
716.946	16554
717.063	14022
717.180	13129
717.296	14092
717.413	13446
717.530	14031
717.646	14094
717.763	14081
717.880	13909
717.996	13824
718.113	15502
718.229	14080
718.346	12902
718.462	14814
718.579	18727
718.695	37053
718.812	27360
718.928	19000
719.045	16028
719.161	14082
719.277	13248
719.394	13879
719.510	14214
719.626	16045
719.743	19843
719.859	25560
719.975	46979
720.092	178242
720.208	551111
720.324	91837
720.440	20163
720.557	18740
720.673	28242
720.789	33775
720.905	51971
721.021	25992
721.137	13266
721.253	12707
721.369	13285
721.486	14387
721.602	19700
721.718	12510
721.834	11207
721.950	12941
722.066	12009
722.181	12151
722.297	12731
722.413	12172
722.529	10817
722.645	11117
722.761	10336
722.877	11264
722.993	11768
723.108	13945
723.224	13094
723.340	10902
723.456	10186
723.571	11180
723.687	10226
723.803	10804
723.918	10882
724.034	11221
724.150	10496
724.265	11141
724.381	17709
724.497	29909
724.612	10318
724.728	10016
724.843	9853
724.959	11087
725.074	18193
725.190	26046
725.305	10051
725.421	11145
725.536	9838
725.651	9605
725.767	9379
725.882	8994
725.997	9106
726.113	10112
726.228	9017
726.343	8704
726.459	8491
726.574	10069
726.689	10189
726.804	8335
726.920	9009
727.035	8619
727.150	9322
727.265	9235
727.380	10517
727.495	9361
727.610	9062
727.725	8531
727.841	8297
727.956	9534
728.071	11277
728.186	9368
728.301	8587
728.416	9182
728.531	9396
728.645	7571
728.760	8564
728.875	11022
728.990	9674
729.105	9710
729.220	10080
729.335	11504
729.449	7683
729.564	7910
729.679	7402
729.794	8474
729.908	8345
730.023	8959
730.138	7630
730.253	7672
730.367	7389
730.482	7966
730.596	7881
730.711	9245
730.826	8782
730.940	10089
731.055	9923
731.169	9096
731.284	8521
731.398	8358
731.513	9846
731.627	9930
731.742	11361
731.856	13304
731.970	12058
732.085	15732
732.199	21003
732.313	35553
732.428	88860
732.542	291257
732.656	235501
732.771	37405
732.885	17895
732.999	14660
733.113	12958
733.227	12884
733.342	11241
733.456	10960
733.570	10585
733.684	10872
733.798	10903
733.912	9289
734.026	9267
734.140	10151
734.254	10416
734.368	13380
734.482	18965
734.596	8967
734.710	9422
734.824	9543
734.938	9119
735.052	10254
735.166	10085
735.280	9681
735.393	9115
735.507	9321
735.621	10222
735.735	16621
735.849	11010
735.962	8776
736.076	8788
736.190	9715
736.303	11606
736.417	15154
736.531	8456
736.644	8728
736.758	7810
736.872	8039
736.985	8267
737.099	8589
737.212	6729
737.326	8056
737.439	8617
737.553	7750
737.666	9197
737.780	7512
737.893	7438
738.007	7268
738.120	8296
738.233	8258
738.347	8098
738.460	8192
738.573	9434
738.687	8505
738.800	8915
738.913	12740
739.026	9704
739.140	7454
739.253	7503
739.366	7309
739.479	7074
739.592	7093
739.705	6543
739.818	7927
739.932	6069
740.045	7689
740.158	8050
740.271	7403
740.384	7419
740.497	7887
740.610	7705
740.723	7560
740.836	6807
740.949	8024
741.062	11963
741.174	10789
741.287	7022
741.400	7408
741.513	7220
741.626	8631
741.739	7966
741.851	7997
741.964	7459
742.077	6298
742.189	6915
742.302	7315
742.415	7689
742.527	6862
742.640	6394
742.753	6424
742.865	6295
742.978	5979
743.090	6957
743.203	6281
743.316	5899
743.428	5673
743.541	5452
743.653	6028
743.766	5691
743.878	6483
743.990	7578
744.103	8401
744.215	6555
744.327	6925
744.440	8607
744.552	15894
744.664	9107
744.777	5736
744.889	5790
745.001	6311
745.113	5610
745.226	5143
745.338	5874
745.450	5659
745.562	5868
745.674	5238
745.786	5929
745.898	4972
746.010	5912
746.122	5501
746.234	5125
746.347	5765
746.459	6381
746.570	5988
746.682	5001
746.794	5913
746.906	5075
747.018	6157
747.130	6201
747.242	5511
747.354	6095
747.466	6168
747.577	5877
747.689	5543
747.801	5650
747.913	5819
748.024	4634
748.136	5016
748.248	4731
748.359	5468
748.471	4503
748.583	4572
748.694	4994
748.806	5711
748.918	6173
749.029	6709
749.141	7431
749.252	7244
749.364	8418
749.475	16152
749.587	11651
749.698	6306
749.809	5625
749.921	5895
750.032	4693
750.144	3576
750.255	4081
750.366	5036
750.478	5256
750.589	5502
750.700	6113
750.811	6478
750.923	7406
751.034	17123
751.145	23257
751.256	6918
751.367	4522
751.479	4657
751.590	4399
751.701	4399
751.812	4814
751.923	4921
752.034	4656
752.145	4854
752.256	4664
752.367	4818
752.478	4726
752.589	4571
752.700	4457
752.811	4523
752.922	4913
753.032	5919
753.143	7270
753.254	4274
753.365	5065
753.476	5652
753.586	4424
753.697	4100
753.808	3484
753.919	3352
754.029	4706
754.140	4331
754.251	4012
754.361	4512
754.472	4418
754.582	4558
754.693	4422
754.804	4790
754.914	3939
755.025	4133
755.135	3424
755.246	4465
755.356	4021
755.466	3426
755.577	4060
755.687	3975
755.798	3323
755.908	4502
756.018	4181
756.129	4301
756.239	4283
756.349	4690
756.460	4347
756.570	5833
756.680	4109
756.790	4474
756.900	5470
757.011	4440
757.121	3791
757.231	3914
757.341	3918
757.451	3667
757.561	3751
757.671	3580
757.781	3241
757.891	4492
758.001	3556
758.111	5238
758.221	4480
758.331	5924
758.441	6507
758.551	9034
758.661	8598
758.771	5551
758.880	5083
758.990	5182
759.100	4194
759.210	4119
759.320	4756
759.429	5037
759.539	4622
759.649	5722
759.758	6157
759.868	6202
759.978	6354
760.087	7424
760.197	6897
760.307	7007
760.416	6125
760.526	5165
760.635	6117
760.745	7188
760.854	6524
760.964	7996
761.073	7679
761.182	6864
761.292	6078
761.401	6728
761.511	4876
761.620	4198
761.729	3889
761.839	4791
761.948	4948
762.057	5922
762.166	5069
762.276	3076
762.385	4201
762.494	4237
762.603	5108
762.712	3705
762.822	4958
762.931	4236
763.040	3507
763.149	3217
763.258	3498
763.367	4805
763.476	3578
763.585	4218
763.694	4027
763.803	4475
763.912	4571
764.021	4208
764.130	3142
764.238	3857
764.347	4051
764.456	5625
764.565	4759
764.674	3796
764.783	4288
764.891	4160
765.000	4567
765.109	5076
765.217	4210
765.326	5660
765.435	6839
765.543	5667
765.652	5641
765.761	6408
765.869	8000
765.978	11810
766.086	19251
766.195	35395
766.303	89520
766.412	329275
766.520	440334
766.629	80188
766.737	22888
766.846	13063
766.954	9285
767.062	9479
767.171	6848
767.279	6503
767.387	4998
767.496	5092
767.604	4811
767.712	3941
767.820	4326
767.928	4507
768.037	4010
768.145	4185
768.253	4760
768.361	3843
768.469	4314
768.577	3497
768.685	4745
768.793	4810
768.901	4192
769.009	5496
769.117	4252
769.225	5427
769.333	7262
769.441	9267
769.549	15044
769.657	31002
769.765	106090
769.873	356044
769.981	148233
770.088	20623
770.196	9643
770.304	7848
770.412	6878
770.519	5583
770.627	4686
770.735	5151
770.842	4814
770.950	5133
771.058	4977
771.165	5270
771.273	5636
771.380	4813
771.488	5793
771.595	4737
771.703	5683
771.810	5407
771.918	5480
772.025	5110
772.133	5444
772.240	6118
772.348	5586
772.455	6239
772.562	5668
772.670	5053
772.777	6302
772.884	5960
772.991	4837
773.099	5841
773.206	4408
773.313	5835
773.420	4837
773.528	5024
773.635	4466
773.742	5896
773.849	5294
773.956	5449
774.063	4869
774.170	4416
774.277	4838
774.384	4979
774.491	3974
774.598	4398
774.705	5551
774.812	8097
774.919	6271
775.026	5673
775.133	4738
775.239	5540
775.346	5555
775.453	4571
775.560	4375
775.667	4374
775.773	4071
775.880	5402
775.987	5116
776.093	4167
776.200	4673
776.307	3897
776.413	4828
776.520	4186
776.627	5220
776.733	4164
776.840	3355
776.946	6042
777.053	4289
777.159	4445
777.266	3232
777.372	4836
777.478	5114
777.585	5221
777.691	4253
777.798	5105
777.904	4998
778.010	7211
778.117	7617
778.223	4995
778.329	4537
778.435	4028
778.542	4218
778.648	3847
778.754	2418
778.860	4295
778.966	5226
779.072	4546
779.178	3824
779.284	3092
779.391	3218
779.497	3484
779.603	4461
779.708	3321
779.815	3856
779.920	5929
780.026	9888
780.132	4479
780.238	3700
780.344	4260
780.450	4101
780.556	3923
780.661	3017
780.767	3777
780.873	4128
780.979	4004
781.085	3509
781.190	4349
781.296	3226
781.402	3072
781.507	3322
781.613	2974
781.719	3355
781.824	3482
781.930	3312
782.035	3051
782.141	3861
782.246	3148
782.352	3178
782.457	2629
782.563	3580
782.668	4098
782.773	3625
782.879	2895
782.984	3208
783.090	4486
783.195	7708
783.300	6155
783.405	3425
783.511	3605
783.616	2639
783.721	3091
783.826	2804
783.932	3886
784.037	2606
784.142	3448
784.247	3199
784.352	2538
784.457	2358
784.562	3208
784.667	3712
784.772	2870
784.877	2129
784.982	2996
785.087	3269
785.192	3779
785.297	3481
785.402	2977
785.507	2738
785.611	3737
785.716	2898
785.821	2995
785.926	2929
786.031	2482
786.135	2582
786.240	3017
786.345	2410
786.450	3350
786.554	1976
786.659	1860
786.763	2435
786.868	4019
786.973	3409
787.077	3232
787.182	2844
787.286	3138
787.391	3134
787.495	2472
787.600	2660
787.704	2226
787.809	2598
787.913	1752
788.017	2314
788.122	2905
788.226	2251
788.330	2040
788.435	3204
788.539	3528
788.643	2479
788.747	1774
788.852	2350
788.956	1726
789.060	3040
789.164	2551
789.268	1804
789.372	2935
789.476	2736
789.580	2413
789.684	2153
789.788	3276
789.892	2825
789.996	2640
790.100	2467
790.204	3096
790.308	2837
790.412	1855
790.516	2218
790.620	2392
790.724	2316
790.828	2113
790.931	1558
791.035	3298
791.139	2273
791.242	2185
791.346	3301
791.450	2119
791.554	2539
791.657	1795
791.761	2524
791.864	2563
791.968	3113
792.072	2704
792.175	1949
792.279	2127
792.382	2158
792.486	2435
792.589	2136
792.693	2506
792.796	2083
792.899	3079
793.003	2470
793.106	1337
793.209	2313
793.313	2390
793.416	1761
793.519	2807
793.623	5390
793.726	9072
793.829	3109
793.932	2322
794.035	2096
794.138	3790
794.242	2821
794.345	3792
794.448	4599
794.551	6464
794.654	7287
794.757	5982
794.860	3044
794.963	2870
795.066	1653
795.169	2793
795.272	1425
795.375	2560
795.477	1425
795.580	2394
795.683	559
795.786	1656
795.889	819
795.991	3283
796.094	1957
796.197	2098
796.300	2235
796.402	1647
796.505	2154
796.608	2356
796.710	2250
796.813	2389
796.915	1984
797.018	2561
797.120	2501
797.223	1335
797.326	2528
797.428	1955
797.530	1548
797.633	1563
797.735	2689
797.838	3755
797.940	4206
798.042	2039
798.145	1142
798.247	2472
798.349	852
798.452	2281
798.554	1149
798.656	2210
798.758	2601
798.860	2553
798.962	1722
799.065	1383
799.167	1317
799.269	2535
799.371	2629
799.473	3405
799.575	2300
799.677	3852
799.779	4996
799.881	5613
799.983	4279
800.085	2235
800.187	2130
800.289	1098
800.390	1690
800.492	1578
800.594	2528
800.696	2349
800.798	1806
800.899	1128
801.001	1109
801.103	1814
801.205	2207
801.306	2540
801.408	2107
801.509	1079
801.611	1757
801.713	1694
801.814	592
801.916	2043
802.017	1626
802.119	1137
802.220	1714
802.322	645
802.423	2808
802.525	1751
802.626	1900
802.727	1796
802.829	2795
802.930	369
803.031	2875
803.133	2158
803.234	2075
803.335	1110
803.436	184
803.538	1383
803.639	734
803.740	1504
803.841	1468
803.942	1561
804.043	1860
804.144	1464
804.245	1443
804.346	1075
804.447	1536
804.548	4011
804.649	4812
804.750	1791
804.851	1256
804.952	1408
805.053	901
805.154	261
805.255	2076
805.355	1465
805.456	1121
805.557	1433
805.658	319
805.758	1608
805.859	823
805.960	1382
806.061	612
806.161	1079
806.262	1833
806.362	442
806.463	1311
806.564	1895
806.664	385
806.765	1952
806.865	2266
806.966	1301
807.066	1532
807.166	1770
807.267	1423
807.367	1357
807.468	2125
807.568	476
807.668	1749
807.769	1919
807.869	1193
807.969	945
808.069	1477
808.170	1687
808.270	931
808.370	2608
808.470	2886
808.570	2456
808.670	999
808.770	1296
808.870	196
808.970	897
809.070	1022
809.170	836
809.271	1283
809.370	784
809.470	489
809.570	969
809.670	490
809.770	1491
809.870	1171
809.970	1530
810.070	566
810.169	1626
810.269	-533
810.369	1240
810.469	911
810.568	823
810.668	436
810.768	1517
810.867	916
810.967	1142
811.066	563
811.166	1388
811.265	995
811.365	828
811.464	141
811.564	1338
811.663	1544
811.763	332
811.862	745
811.962	1968
812.061	-353
812.160	500
812.260	852
812.359	1293
812.458	808
812.557	1388
812.657	1536
812.756	2082
812.855	1729
812.954	786
813.053	1308
813.153	1322
813.252	1169
813.351	1398
813.450	722
813.549	1405
813.648	1638
813.747	315
813.846	1645
813.945	567
814.044	762
814.143	492
814.242	1524
814.341	1739
814.439	1411
814.538	1750
814.637	-73
814.736	536
814.835	2408
814.933	946
815.032	1366
815.131	1756
815.229	2095
815.328	3815
815.427	2510
815.525	2858
815.624	2293
815.722	2626
815.821	2519
815.919	2913
816.018	3309
816.116	3393
816.215	2840
816.313	2853
816.412	3028
816.510	4157
816.609	4664
816.707	4018
816.805	4077
816.904	2811
817.002	3987
817.100	4877
817.198	5041
817.296	4334
817.395	4460
817.493	5969
817.591	4137
817.689	5201
817.787	5885
817.885	8770
817.983	14930
818.081	30236
818.179	70426
818.277	185686
818.375	222552
818.473	62624
818.571	19590
818.669	13581
818.767	12184
818.865	11292
818.963	12619
819.061	17313
819.158	28402
819.256	59350
819.354	138905
819.452	341961
819.549	302746
819.647	80954
819.745	28856
819.842	16249
819.940	12315
820.038	8595
820.135	7006
820.233	6963
820.330	4689
820.428	4064
820.525	5301
820.623	5166
820.720	3335
820.818	3535
820.915	3661
821.012	3900
821.110	2941
821.207	3989
821.304	1949
821.402	2631
821.499	3133
821.596	3547
821.693	3421
821.791	4163
821.888	4774
821.985	9711
822.082	9626
822.179	4003
822.276	2920
822.373	1876
822.470	2005
822.567	2558
822.664	2301
822.761	1951
822.858	1984
822.955	2992
823.052	2120
823.149	3161
823.246	2729
823.343	1838
823.440	2116
823.536	1682
823.633	1307
823.730	1940
823.827	1463
823.923	2328
824.020	2824
824.117	2120
824.213	1944
824.310	2613
824.407	1394
824.503	2342
824.600	2001
824.696	1624
824.793	2926
824.889	1384
824.986	1755
825.082	843
825.179	2270
825.275	1301
825.371	1258
825.468	1576
825.564	1040
825.660	2751
825.757	1640
825.853	2164
825.949	1006
826.045	2247
826.142	979
826.238	2627
826.334	2165
826.430	1429
826.526	2045
826.622	1238
826.718	1503
826.814	1754
826.910	2435
827.006	1241
827.102	398
827.198	1937
827.294	1005
827.390	1734
827.486	1328
827.582	1298
827.678	1080
827.774	1935
827.869	1157
827.965	1966
828.061	832
828.157	1091
828.252	1348
828.348	1087
828.444	1201
828.539	168
828.635	1729
828.731	2519
828.826	443
828.922	1871
829.017	1378
829.113	1852
829.208	1719
829.304	1854
829.399	3017
829.495	1996
829.590	1814
829.685	1521
829.781	853
829.876	1833
829.971	954
830.066	918
830.162	438
830.257	1390
830.352	1853
830.447	1913
830.543	1737
830.638	146
830.733	2075
830.828	1832
830.923	1520
831.018	1806
831.113	1434
831.208	1141
831.303	951
831.398	1734
831.493	1344
831.588	1621
831.683	1645
831.778	1136
831.873	1472
831.967	1977
832.062	1454
832.157	337
832.252	2132
832.346	690
832.441	2860
832.536	3759
832.631	8496
832.725	9525
832.820	2101
832.914	617
833.009	1317
833.104	2013
833.198	2997
833.293	1467
833.387	1276
833.482	1512
833.576	1732
833.670	1802
833.765	2268
833.859	1510
833.954	2756
834.048	1624
834.142	1881
834.237	871
834.331	1000
834.425	1208
834.519	1082
834.613	1619
834.708	365
834.802	871
834.896	-257
834.990	1297
835.084	1415
835.178	1172
835.272	-85
835.366	736
835.460	906
835.554	931
835.648	1040
835.742	10
835.836	1297
835.930	224
836.024	1561
836.117	1464
836.211	914
836.305	1131
836.399	2299
836.493	853
836.586	1850
836.680	437
836.774	288
836.867	2559
836.961	189
837.055	458
837.148	435
837.242	1293
837.335	963
837.429	1775
837.522	411
837.616	1624
837.709	2115
837.803	2096
837.896	1215
837.989	278
838.083	1810
838.176	3113
838.269	3767
838.363	2016
838.456	930
838.549	2811
838.642	4882
838.735	10516
838.829	6086
838.922	851
839.015	333
839.108	406
839.201	987
839.294	990
839.387	802
839.480	36
839.573	915
839.666	2643
839.759	727
839.852	143
839.945	732
840.038	637
840.131	401
840.223	632
840.316	328
840.409	684
840.502	-36
840.594	1566
840.687	-205
840.780	386
840.873	542
840.965	1131
841.058	1428
841.150	2680
841.243	2861
841.336	1847
841.428	323
841.521	1579
841.613	1322
841.706	1107
841.798	426
841.890	858
841.983	1034
842.075	890
842.167	781
842.260	682
842.352	1658
842.444	2325
842.537	3091
842.629	6092
842.721	1650
842.813	420
842.905	89
842.997	958
843.090	1317
843.182	2524
843.274	2303
843.366	7023
843.458	14888
843.550	13208
843.642	2494
843.734	784
843.826	1420
843.918	1560
844.009	1130
844.101	224
844.193	272
844.285	326
844.377	1079
844.469	1002
844.560	146
844.652	974
844.744	336
844.835	425
844.927	1456
845.019	1502
845.110	898
845.202	493
845.293	238
845.385	692
845.476	653
845.568	1469
845.659	530
845.751	158
845.842	339
845.934	512
846.025	139
846.116	1486
846.208	159
846.299	662
846.390	878
846.482	806
846.573	1651
846.664	2177
846.755	2207
846.846	4477
846.937	439
847.029	536
847.120	744
847.211	603
847.302	893
847.393	-314
847.484	1179
847.575	407
847.666	-103
847.757	-347
847.847	411
847.938	1492
848.029	504
848.120	87
848.211	304
848.302	-343
848.392	-461
848.483	267
848.574	298
848.664	259
848.755	1018
848.846	558
848.936	647
849.027	1081
849.118	496
849.208	1072
849.299	2374
849.389	4400
849.480	8925
849.570	19540
849.661	35952
849.751	75038
849.841	38311
849.932	5153
850.022	1870
850.112	490
850.203	881
850.293	1111
850.383	343
850.474	805
850.564	-76
850.654	138
850.744	180
850.834	802
850.924	1533
851.014	501
851.104	21
851.194	945
851.284	2192
851.374	2466
851.464	1418
851.554	984
851.644	165
851.734	1573
851.824	1506
851.914	377
852.004	1257
852.094	1059
852.183	219
852.273	757
852.363	126
852.452	1780
852.542	532
852.632	711
852.721	158
852.811	744
852.901	752
852.990	1355
853.080	1076
853.169	1580
853.259	1606
853.348	2539
853.438	2424
853.527	3852
853.617	5794
853.706	12313
853.795	20853
853.885	46552
853.974	92905
854.063	162715
854.152	284609
854.242	155870
854.331	32140
854.420	11243
854.509	7556
854.598	5599
854.687	3461
854.777	3958
854.866	3068
854.955	2003
855.044	2221
855.133	1262
855.222	1406
855.311	1305
855.400	1073
855.488	1138
855.577	734
855.666	1691
855.755	1196
855.844	822
855.933	1487
856.021	1000
856.110	752
856.199	457
856.288	866
856.376	246
856.465	423
856.554	1231
856.642	259
856.731	600
856.819	112
856.908	452
856.996	850
857.085	732
857.173	304
857.262	324
857.350	442
857.438	274
857.527	202
857.615	346
857.703	1113
857.792	730
857.880	69
857.968	418
858.056	-101
858.145	872
858.233	-315
858.321	84
858.409	565
858.497	367
858.585	140
858.673	461
858.761	500
858.849	-599
858.937	-487
859.025	834
859.113	-7
859.201	208
859.289	993
859.377	-152
859.465	79
859.552	670
859.640	638
859.728	574
859.816	466
859.903	751
859.991	-942
860.079	855
860.166	-170
860.254	415
860.342	1042
860.429	78
860.517	-57
860.604	650
860.692	-358
860.779	187
860.867	-435
860.954	146
861.042	599
861.129	1437
861.216	610
861.304	895
861.391	738
861.478	403
861.565	113
861.653	811
861.740	145
861.827	-223
861.914	305
862.001	179
862.089	74
862.176	423
862.263	378
862.350	536
862.437	-81
862.524	-218
862.611	-497
862.698	1064
862.785	-558
862.871	574
862.958	-171
863.045	872
863.132	291
863.219	-558
863.306	-554
863.392	351
863.479	-255
863.566	645
863.652	85
863.739	506
863.826	355
863.912	746
863.999	164
864.086	532
864.172	424
864.259	534
864.345	911
864.432	844
864.518	370
864.604	565
864.691	415
864.777	1005
864.863	986
864.950	1866
865.036	1036
865.122	3529
865.209	3857
865.295	3574
865.381	3038
865.467	3043
865.553	5193
865.639	7249
865.726	12397
865.812	25227
865.898	50043
865.984	80141
866.070	134583
866.156	187828
866.242	69464
866.328	14890
866.414	6771
866.499	5392
866.585	4246
866.671	4043
866.757	3040
866.843	3837
866.928	2714
867.014	1931
867.100	3028
867.186	3040
867.271	2740
867.357	4286
867.442	4094
867.528	2973
867.614	1189
867.699	1376
867.785	1591
867.870	1842
867.956	1721
868.041	2489
868.127	1566
868.212	2283
868.297	2434
868.383	2766
868.468	2903
868.553	5626
868.639	6781
868.724	12439
868.809	14866
868.894	4187
868.979	1394
869.065	2384
869.150	406
869.235	1076
869.320	763
869.405	929
869.490	964
869.575	1660
869.660	719
869.745	1265
869.830	1526
869.915	1378
870.000	1507
870.085	1814
870.169	1692
870.254	2500
870.339	429
870.424	1378
870.509	1000
870.593	1450
870.678	1183
870.763	1832
870.847	1118
870.932	1622
871.016	1630
871.101	458
871.186	1124
871.270	2465
871.355	39
871.439	1505
871.523	879
871.608	1131
871.692	1035
871.777	1521
871.861	1359
871.945	1384
872.030	917
872.114	1143
872.198	1650
872.282	860
872.367	707
872.451	737
872.535	1470
872.619	1250
872.703	715
872.787	1339
872.871	503
872.955	986
873.039	-27
873.123	285
873.207	1664
873.291	629
873.375	643
873.459	1256
873.543	333
873.627	632
873.711	1367
873.794	269
873.878	237
873.962	898
874.045	385
874.129	777
874.137	773
874.213	733
874.245	591
874.296	362
874.352	179
874.380	85
874.460	195
874.464	200
874.547	184
874.568	399
874.631	1050
874.676	664
874.714	338
874.784	724
874.798	802
874.881	1811
874.892	1691
874.965	841
874.999	787
875.048	700
875.107	791
875.131	833
875.215	487
875.215	487
875.298	1037
875.323	905
875.381	647
875.430	889
875.465	1021
875.538	711
875.548	675
875.631	-95
875.646	36
875.714	651
875.753	624
875.798	578
875.861	684
875.881	732
875.964	649
875.968	645
876.047	558
876.076	872
876.130	1479
876.183	1044
876.213	783
876.291	1088
876.296	1104
876.379	233
876.398	360
876.462	782
876.506	409
876.545	96
876.613	-173
876.628	-212
876.711	268
876.721	299
876.794	427
876.828	680
876.877	1044
876.935	194
876.960	-108
877.043	509
877.043	512
877.125	1025
877.150	1214
877.208	1691
877.258	849
877.291	349
877.365	1228
877.374	1311
877.456	724
877.472	689
877.539	656
877.579	602
877.622	490
877.687	1066
877.704	1232
877.787	914
877.794	874
877.869	347
877.901	378
877.952	516
878.008	122
878.034	-93
878.115	333
878.117	346
878.199	296
878.222	354
878.282	368
878.329	457
878.364	623
878.437	825
878.447	825
878.529	209
878.544	198
878.611	193
878.651	387
878.694	650
878.758	741
878.776	741
878.858	744
878.865	746
878.941	811
878.972	715
879.023	499
879.078	619
879.105	783
879.185	1302
879.187	1306
879.269	1188
879.292	1046
879.351	808
879.399	563
879.433	307
879.506	624
879.516	691
879.598	598
879.613	489
879.680	-2
879.720	341
879.762	694
879.827	390
879.844	220
879.926	230
879.933	211
880.007	851
880.040	1310
880.089	1504
880.147	1293
880.171	1416
880.253	4014
880.254	4025
880.335	4996
880.360	5517
880.417	7431
880.467	10432
880.499	12445
880.574	17608
880.580	17753
880.662	7232
880.680	5710
880.744	1488
880.787	711
880.825	344
880.893	31
880.907	-16
880.989	512
881.000	509
881.070	767
881.106	864
881.152	777
881.213	646
881.233	511
881.315	645
881.319	592
881.396	469
881.426	596
881.478	376
881.532	444
881.559	626
881.639	580
881.641	573
881.722	274
881.745	295
881.803	265
881.852	320
881.885	542
881.958	672
881.966	668
882.047	1109
882.064	1083
882.129	976
882.171	1204
882.210	1638
882.277	3085
882.291	3309
882.372	2239
882.383	2115
882.454	878
882.489	702
882.535	771
882.596	620
882.616	589
882.697	1099
882.702	1086
882.778	856
882.808	749
882.859	347
882.914	257
882.940	292
883.020	541
883.021	547
883.102	905
883.127	966
883.183	855
883.233	654
883.264	393
883.339	112
883.345	124
883.426	-74
883.445	-9
883.507	485
883.551	607
883.587	615
883.657	1001
883.668	1005
883.749	907
883.763	831
883.830	625
883.869	392
883.910	136
883.975	365
883.991	497
884.072	505
884.081	544
884.152	721
884.187	753
884.233	670
884.292	676
884.314	722
884.394	432
884.398	425
884.475	159
884.504	138
884.555	414
884.610	588
884.636	506
884.716	283
884.716	286
884.797	705
884.821	754
884.877	836
884.927	684
884.958	581
885.033	596
885.038	569
885.118	-71
885.139	-101
885.199	188
885.244	71
885.279	197
885.350	798
885.359	815
885.439	737
885.456	692
885.520	427
885.561	384
885.600	364
885.667	155
885.680	123
885.760	85
885.773	60
885.840	277
885.878	408
885.920	237
885.984	66
886.000	161
886.080	417
886.089	434
886.160	-117
886.195	-276
886.240	14
886.300	401
886.320	403
886.400	354
886.406	356
886.480	1034
886.511	1253
886.560	1194
886.616	1030
886.640	968
886.720	774
886.722	768
886.800	464
886.827	377
886.879	264
886.932	98
886.959	263
887.038	683
887.039	690
887.119	987
887.143	1097
887.198	691
887.248	279
887.278	392
887.354	683
887.358	692
887.437	716
887.459	748
887.517	955
887.564	1161
887.596	1098
887.669	794
887.676	754
887.755	332
887.774	211
887.835	206
887.880	248
887.914	374
887.985	555
887.994	596
888.073	925
888.090	1010
888.153	1281
888.195	1409
888.232	1281
888.300	1109
888.311	1078
888.391	659
888.405	612
888.470	599
888.510	544
888.549	474
888.615	384
888.628	454
888.708	848
888.720	908
888.787	794
888.825	732
888.866	318
888.930	-378
888.945	-263
889.024	421
889.035	510
889.103	245
889.140	90
889.182	157
889.245	292
889.261	364
889.340	690
889.349	729
889.419	864
889.454	910
889.498	718
889.559	492
889.577	508
889.656	567
889.664	574
889.735	958
889.768	1141
889.814	982
889.873	767
889.978	-116
890.083	1453
890.187	706
890.292	586
890.397	679
890.501	628
890.606	335
890.710	920
890.815	1253
890.919	835
891.024	-71
891.128	1232
891.233	1420
891.337	923
891.442	-173
891.546	270
891.650	198
891.755	895
891.859	1562
891.963	634
892.068	693
892.172	534
892.276	452
892.380	598
892.484	1084
892.589	1124
892.693	117
892.797	256
892.901	392
893.005	61
893.109	382
893.213	1300
893.317	1068
893.421	475
893.525	362
893.629	600
893.733	876
893.837	-80
893.941	122
894.045	412
894.148	645
894.252	850
894.356	523
894.460	1426
894.564	243
894.667	57
894.771	697
894.875	-308
894.978	684
895.082	144
895.186	1095
895.289	786
895.393	273
895.496	1042
895.600	538
895.703	601
895.807	485
895.910	622
896.014	510
896.117	996
896.221	1189
896.324	656
896.427	-224
896.531	642
896.634	1010
896.737	403
896.840	610
896.944	498
897.047	218
897.150	953
897.253	-354
897.356	673
897.460	482
897.563	100
897.666	106
897.769	857
897.872	719
897.975	-22
898.078	1232
898.181	678
898.284	1334
898.387	739
898.490	978
898.593	468
898.695	845
898.798	801
898.901	321
899.004	1337
899.107	-477
899.209	56
899.312	384
899.415	1013
899.518	1225
899.620	113
899.723	306
899.826	1698
899.928	894
900.031	-95
900.133	214
900.236	592
900.338	158
900.441	209
900.543	217
900.646	-17
900.748	75
900.851	1214
900.953	-249
901.055	-121
901.158	62
901.260	422
901.362	451
901.465	561
901.567	180
901.669	328
901.771	-346
901.873	359
901.976	16
902.078	387
902.180	2
902.282	783
902.384	517
902.486	950
902.588	1018
902.690	-41
902.792	204
902.894	1009
902.996	769
903.098	643
903.200	425
903.302	484
903.404	279
903.505	949
903.607	763
903.709	1155
903.811	219
903.913	659
904.014	768
904.116	743
904.218	129
904.319	53
904.421	904
904.523	179
904.624	1359
904.726	598
904.827	-268
904.929	140
905.030	607
905.132	719
905.233	661
905.335	741
905.436	273
905.537	201
905.639	157
905.740	194
905.841	692
905.943	1556
906.044	-57
906.145	368
906.247	-78
906.348	878
906.449	-91
906.550	245
906.651	814
906.752	742
906.854	-521
906.955	372
907.056	106
907.157	483
907.258	432
907.359	297
907.460	642
907.561	248
907.662	233
907.762	802
907.863	545
907.964	157
908.065	718
908.166	267
908.267	504
908.367	200
908.468	205
908.569	815
908.670	336
908.770	1547
908.871	213
908.971	311
909.072	335
909.173	168
909.273	525
909.374	-64
909.474	17
909.575	213
909.675	20
909.776	1242
909.876	749
909.977	234
910.077	806
910.177	470
910.278	921
910.378	-82
910.478	786
910.579	1078
910.679	413
910.779	347
910.879	867
910.980	-198
911.080	171
911.180	-27
911.280	589
911.380	737
911.480	781
911.580	533
911.680	552
911.780	818
911.880	777
911.980	-409
912.080	305
912.180	608
912.280	221
912.380	77
912.480	-414
912.580	262
912.679	985
912.779	845
912.879	756
912.979	199
913.078	558
913.178	-221
913.278	-327
913.377	660
913.477	150
913.577	512
913.676	973
913.776	20
913.875	848
913.975	391
914.074	549
914.174	303
914.273	-410
914.373	1251
914.472	645
914.572	248
914.671	243
914.770	393
914.870	703
914.969	-3
915.068	-135
915.167	138
915.267	328
915.366	413
915.465	605
915.564	450
915.663	156
915.763	-63
915.862	1744
915.961	380
916.060	961
916.159	788
916.258	682
916.357	437
916.456	206
916.555	466
916.654	-491
916.752	280
916.851	923
916.950	276
917.049	278
917.148	-758
917.247	111
917.345	361
917.444	40
917.543	540
917.642	308
917.740	102
917.839	978
917.937	1252
918.036	551
918.135	648
918.233	-17
918.332	316
918.430	217
918.529	254
918.627	-797
918.726	74
918.824	529
918.923	358
919.021	420
919.119	381
919.218	75
919.316	-201
919.414	276
919.512	803
919.611	895
919.709	791
919.807	700
919.905	328
920.003	713
920.102	828
920.200	262
920.298	242
920.396	684
920.494	677
920.592	180
920.690	451
920.788	-78
920.886	-133
920.984	1424
921.082	-41
921.180	743
921.277	726
921.375	1130
921.473	555
921.571	584
921.669	674
921.766	593
921.864	735
921.962	1608
922.060	455
922.157	1053
922.255	778
922.352	289
922.450	1331
922.548	1193
922.645	953
922.743	1217
922.840	989
922.938	2434
923.035	1959
923.133	1914
923.230	2047
923.327	2201
923.425	2238
923.522	1896
923.619	2134
923.717	1137
923.814	1666
923.911	1133
924.008	2555
924.106	1871
924.203	1620
924.300	1285
924.397	1868
924.494	2011
924.591	2244
924.688	1840
924.786	2432
924.883	1739
924.979	1196
925.077	1454
925.173	2226
925.270	1280
925.367	1149
925.464	2247
925.561	1608
925.658	2216
925.755	2015
925.852	2176
925.948	1450
926.045	1854
926.142	1886
926.239	1640
926.335	1793
926.432	1953
926.529	1057
926.625	1730
926.722	1411
926.818	1173
926.915	2133
927.011	2490
927.108	728
927.204	159
927.301	1421
927.397	835
927.494	2611
927.590	1102
927.687	1548
927.783	2154
927.879	1512
927.976	1063
928.072	1896
928.168	1056
928.264	2016
928.361	1627
928.457	1879
928.553	1662
928.649	547
928.745	1994
928.841	746
928.937	2445
929.033	891
929.129	1300
929.225	1445
929.321	1713
929.417	733
929.513	1656
929.609	2132
929.705	1382
929.801	2357
929.897	736
929.993	650
930.089	616
930.184	1448
930.280	785
930.376	1823
930.471	1068
930.567	405
930.663	603
930.758	790
930.854	836
930.950	602
931.045	557
931.141	899
931.236	1563
931.332	796
931.427	973
931.523	1969
931.618	1178
931.714	991
931.809	960
931.905	2037
932.000	1099
932.095	396
932.191	1654
932.286	1444
932.381	698
932.476	411
932.572	581
932.667	1130
932.762	799
932.857	1722
932.952	1842
933.047	1781
933.142	896
933.237	801
933.332	1390
933.427	1229
933.522	887
933.617	662
933.712	663
933.807	956
933.902	1042
933.997	627
934.092	915
934.187	268
934.282	2074
934.376	357
934.471	979
934.566	407
934.661	266
934.755	1290
934.850	969
934.945	749
935.039	851
935.134	374
935.228	1761
935.323	1417
935.417	1450
935.512	675
935.606	-21
935.701	646
935.795	1001
935.890	895
935.984	1141
936.079	-254
936.173	678
936.267	4
936.362	172
936.456	860
936.550	1004
936.644	1365
936.738	-330
936.833	621
936.927	247
937.021	519
937.115	164
937.209	185
937.303	1249
937.397	366
937.491	483
937.585	110
937.679	1567
937.773	944
937.867	-51
937.961	456
938.055	1344
938.149	1469
938.243	126
938.337	977
938.430	879
938.524	1086
938.618	1195
938.712	977
938.805	1193
938.899	645
938.993	99
939.086	1663
939.180	340
939.274	542
939.367	1341
939.461	418
939.554	71
939.648	903
939.741	490
939.835	761
939.928	1242
940.022	1255
940.115	869
940.208	888
940.302	1249
940.395	1467
940.488	565
940.582	1108
940.675	599
940.768	1002
940.861	688
940.954	1236
941.048	695
941.141	246
941.234	1092
941.327	655
941.420	1117
941.513	1584
941.606	232
941.699	1102
941.792	1021
941.885	388
941.978	662
942.071	681
942.164	417
942.257	70
942.349	619
942.442	616
942.535	-66
942.628	1203
942.721	307
942.813	-249
942.906	1205
942.999	637
943.091	198
943.184	-598
943.277	333
943.369	950
943.462	376
943.554	628
943.647	928
943.739	745
943.832	768
943.924	-158
944.017	435
944.109	-36
944.201	164
944.294	428
944.386	391
944.478	449
944.571	-229
944.663	976
944.755	702
944.847	515
944.940	423
945.032	120
945.124	106
945.216	9
945.308	-233
945.400	1564
945.492	185
945.584	1205
945.676	865
945.768	285
945.860	1251
945.952	464
946.044	269
946.136	620
946.228	157
946.320	1091
946.412	210
946.503	289
946.595	222
946.687	-483
946.779	448
946.870	206
946.962	84
947.054	-228
947.145	198
947.237	524
947.329	754
947.420	120
947.512	45
947.603	466
947.695	790
947.786	324
947.878	-71
947.969	637
948.061	-587
948.152	-59
948.243	30
948.335	50
948.426	43
948.517	-74
948.609	406
948.700	-193
948.791	12
948.882	-122
948.973	-352
949.065	70
949.156	749
949.247	-160
949.338	-177
949.429	-554
949.520	1032
949.611	-248
949.702	1173
949.793	103
949.884	100
949.975	763
950.066	-450
950.157	136
950.247	-200
950.338	-125
950.429	27
950.520	598
950.611	159
950.701	56
950.792	125
950.883	542
950.973	856
951.064	860
951.155	34
951.245	-246
951.336	1402
951.427	145
951.517	935
951.608	715
951.698	1018
951.788	-201
951.879	415
951.969	-636
952.060	674
952.150	578
952.240	926
952.331	-69
952.421	842
952.511	222
952.602	-325
952.692	-165
952.782	42
952.872	1013
952.962	59
953.052	-21
953.143	-369
953.233	54
953.323	563
953.413	323
953.503	308
953.593	-131
953.683	1022
953.773	-388
953.863	279
953.953	-862
954.042	848
954.132	-83
954.222	131
954.312	-401
954.402	-245
954.492	362
954.581	35
954.671	221
954.761	-649
954.850	1158
954.940	-307
955.030	-25
955.119	-471
955.209	289
955.298	-127
955.388	382
955.477	247
955.567	-136
955.656	1176
955.746	580
955.835	-635
955.925	240
956.014	-93
956.103	190
956.193	664
956.282	349
956.371	-771
956.461	243
956.550	-229
956.639	140
956.728	-378
956.817	-309
956.906	113
956.995	-422
957.085	-398
957.174	714
957.263	433
957.352	-223
957.441	-135
957.530	25
957.619	-439
957.708	551
957.796	136
957.885	-14
957.974	-254
958.063	445
958.152	27
958.241	-96
958.329	-256
958.418	-285
958.507	-477
958.596	717
958.684	-292
958.773	226
958.861	-550
958.950	-220
959.039	148
959.127	-337
959.216	624
959.304	-151
959.393	18
959.481	164
959.570	199
959.658	-482
959.746	-158
959.835	1055
959.923	-104
960.011	-161
960.100	60
960.188	22
960.276	-14
960.365	-514
960.453	-226
960.541	-917
960.629	54
960.717	-449
960.805	-368
960.893	308
960.981	-449
961.069	447
961.158	91
961.245	377
961.333	-88
961.421	-976
961.509	95
961.597	-92
961.685	-107
961.773	520
961.861	339
961.949	767
962.036	-172
962.124	-478
962.212	-96
962.299	-166
962.387	-283
962.475	-71
962.562	-67
962.650	727
962.738	-486
962.825	-112
962.913	-431
963.000	-339
963.088	-282
963.175	510
963.263	-50
963.350	7
963.438	-195
963.525	-356
963.612	100
963.700	19
963.787	1224
963.874	532
963.962	207
964.049	605
964.136	-208
964.223	-470
964.310	380
964.398	-299
964.485	-980
964.572	708
964.659	50
964.746	405
964.833	-335
964.920	-181
965.007	819
965.094	-587
965.181	-60
965.268	-621
965.355	-488
965.441	-40
965.528	-614
965.615	390
965.702	117
965.789	-458
965.875	-545
965.962	445
966.049	-793
966.136	373
966.222	-118
966.309	-463
966.395	-1203
966.482	-104
966.569	444
966.655	467
966.742	8
966.828	-421
966.915	-337
967.001	-372
967.087	-408
967.174	-20
967.260	-284
967.347	-46
967.433	-190
967.519	636
967.605	28
967.692	270
967.778	-204
967.864	-712
967.950	-674
968.036	-474
968.123	-588
968.209	-436
968.295	-1497
968.381	1000
968.467	-162
968.553	-1468
968.639	-551
968.725	-1187
968.811	117
968.897	46
968.983	-790
969.069	-349
969.154	-367
969.240	222
969.326	-705
969.412	-330
969.497	-1111
969.583	-656
969.669	279
969.755	-454
969.840	-367
969.926	-854
970.012	-327
970.097	916
970.183	524
970.268	-544
970.354	-397
970.439	-783
970.525	518
970.610	-213
970.696	282
970.781	-861
970.866	-1144
970.952	-722
971.037	-510
971.122	-84
971.208	-563
971.293	-259
971.378	-604
971.463	63
971.549	-582
971.634	-289
971.719	-1182
971.804	-637
971.889	-764
971.974	-597
972.059	-377
972.144	-575
972.229	10
972.314	-197
972.399	231
972.484	-76
972.569	-918
972.654	-407
972.739	-326
972.824	244
972.908	-478
972.993	-360
973.078	-938
973.163	-529
973.247	-619
973.332	-1268
973.417	628
973.501	-435
973.586	-1352
973.671	-271
973.755	-110
973.840	-263
973.924	159
974.009	-169
974.093	-1012
974.178	182
974.262	-285
974.346	-204
974.431	-358
974.515	-1460
974.600	-1077
974.684	374
974.768	-968
974.852	350
974.937	-1487
975.021	393
975.105	-912
975.189	84
975.273	-354
975.358	-1054
975.442	-1107
975.526	99
975.610	-1510
975.694	-1789
975.778	73
975.862	-515
975.946	-1910
976.030	687
976.114	-1267
976.198	-720
976.281	-597
976.365	-691
976.449	-908
976.533	-78
976.617	-921
976.700	-151
976.784	-220
976.868	-499
976.951	-227
977.035	-325
977.119	-546
977.202	-100
977.286	-1056
977.369	-817
977.453	449
977.536	-824
977.620	-309
977.703	-925
977.787	-1076
977.870	-184
977.953	-273
978.037	-896
978.120	-353
978.203	-444
978.287	-391
978.370	-569
978.453	-709
978.536	-695
978.620	-331
978.703	-414
978.786	-1119
978.869	-935
978.952	-1132
979.035	883
979.118	-438
979.201	-1521
979.284	-328
979.367	-616
979.450	-415
979.533	-1272
979.616	-633
979.699	-157
979.782	-683
979.865	-420
979.948	-1154
980.030	-1065
980.113	-628
980.196	-1058
980.279	-932
980.361	-160
980.444	-1053
980.526	-187
980.609	45
980.692	-818
980.774	101
980.857	-1310
980.939	168
981.022	-1205
981.104	-786
981.187	-80
981.269	143
981.352	-92
981.434	-938
981.516	-144
981.599	512
981.681	-849
981.763	-788
981.846	-846
981.928	-45
982.010	-1332
982.092	-1178
982.174	158
982.256	-1552
982.339	-843
982.421	-662
982.503	-825
982.585	-715
982.667	-723
982.749	-417
982.831	-346
982.913	-1785
982.995	-498
983.077	-1215
983.158	-540
983.240	-1243
983.322	375
983.404	563
983.486	-447
983.568	-353
983.649	-524
983.731	123
983.813	-316
983.894	-253
983.976	-205
984.058	-827
984.139	-611
984.221	-613
984.302	-215
984.384	-741
984.465	-451
984.547	-493
984.628	-997
984.710	-465
984.791	-389
984.872	-382
984.954	-727
985.035	-970
985.116	-1118
985.198	-584
985.279	684
985.360	-583
985.441	-801
985.522	-399
985.604	-377
985.685	-1116
985.766	450
985.847	602
985.928	-832
986.009	-347
986.090	-522
986.171	-245
986.252	-572
986.333	-55
986.414	-284
986.495	-273
986.576	-566
986.656	-188
986.737	-52
986.818	-784
986.899	-728
986.980	-1202
987.060	52
987.141	-752
987.222	383
987.302	-924
987.383	-472
987.464	-52
987.544	261
987.625	338
987.705	-478
987.786	-60
987.866	-438
987.947	-376
988.027	579
988.108	22
988.188	215
988.268	258
988.349	229
988.429	-565
988.509	99
988.589	-713
988.670	-1726
988.750	-243
988.830	-614
988.910	-347
988.990	-455
989.070	71
989.151	-388
989.231	-970
989.311	439
989.391	-305
989.471	-100
989.551	-856
989.631	-638
989.711	131
989.791	-389
989.870	-495
989.950	873
990.030	-348
990.110	-615
990.190	-889
990.269	-535
990.349	-517
990.429	-451
990.509	-69
990.588	-761
990.668	-1142
990.747	34
990.827	96
990.907	-457
990.986	-1668
991.066	-296
991.145	-342
991.225	-196
991.304	-590
991.383	243
991.463	34
991.542	25
991.622	-800
991.701	-582
991.780	-1148
991.859	-572
991.939	-623
992.018	29
992.097	123
992.176	-440
992.256	-545
992.335	-968
992.414	352
992.493	-607
992.572	-1194
992.651	-305
992.730	-1165
992.809	-568
992.888	-644
992.967	-470
993.046	-9
993.125	-1595
993.203	-29
993.282	79
993.361	120
993.440	-302
993.519	-912
993.597	40
993.676	-1082
993.755	461
993.834	-816
993.912	-637
993.991	65
994.069	-243
994.148	-53
994.226	-1082
994.305	-239
994.384	-931
994.462	355
994.540	-1098
994.619	-1328
994.697	79
994.776	-576
994.854	-189
994.932	-1520
995.011	-1160
995.089	-1322
995.167	237
995.245	-1182
995.324	-1010
995.402	-1157
995.480	-379
995.558	-423
995.636	-1121
995.714	-835
995.792	423
995.870	-915
995.948	-1463
996.026	-557
996.104	-1360
996.182	-484
996.260	-1221
996.338	-1126
996.416	-250
996.494	-633
996.572	-455
996.649	-1478
996.727	-798
996.805	-588
996.883	-819
996.960	-803
997.038	-860
997.116	-753
997.193	-1277
997.271	-558
997.348	-1148
997.426	-155
997.504	-1234
997.581	-517
997.658	-300
997.736	-1521
997.813	-1501
997.891	132
997.968	-772
998.046	-663
998.123	-1146
998.200	-801
998.277	-1157
998.355	-547
998.432	-1105
998.509	-1180
998.586	-77
998.663	-566
998.741	-1804
998.818	-603
998.895	-1368
998.972	-937
999.049	-557
999.126	-1349
999.203	-390
999.280	-872
999.357	-627
999.434	-1282
999.511	-846
999.587	-545
999.664	-791
999.741	-889
999.818	-998
999.895	-1228
999.971	-1280
1000.048	-1066
1000.125	-56
1000.202	-1670
1000.278	-944
1000.355	-1632
1000.431	-1112
1000.508	-1611
1000.584	-362
1000.661	-1430
1000.738	-1140
1000.814	-896
1000.890	-359
1000.967	-948
1001.043	-100
1001.120	-1361
1001.196	-632
1001.272	-1421
1001.349	-967
1001.425	-954
1001.501	-537
1001.577	-1146
1001.654	-5
1001.730	-1411
1001.806	-932
1001.882	-1341
1001.958	-1132
1002.034	-777
1002.110	-668
1002.186	-1700
1002.262	-1770
1002.338	-2009
1002.414	-785
1002.490	-873
1002.566	-1129
1002.642	-1445
1002.718	354
1002.794	-1257
1002.870	-588
1002.945	-1806
1003.021	-626
1003.097	-1489
1003.173	-360
1003.248	-1640
1003.324	-697
1003.400	-1133
1003.475	-850
1003.551	-1193
1003.626	-1473
1003.702	-1084
1003.777	-1235
1003.853	-843
1003.928	-891
1004.004	-750
1004.079	-1205
1004.155	-1172
1004.230	-1774
1004.305	-967
1004.381	-1937
1004.456	-1265
1004.531	-581
1004.607	-1403
1004.682	-885
1004.757	-898
1004.832	-1246
1004.907	-1271
1004.982	-1102
1005.057	154
1005.133	-1168
1005.208	-1409
1005.283	-1548
1005.358	-539
1005.433	-1116
1005.508	-661
1005.583	-1333
1005.657	-404
1005.732	-846
1005.807	-1804
1005.882	-2046
1005.957	-493
1006.032	-209
1006.106	-1490
1006.181	-1768
1006.256	-427
1006.331	-1522
1006.405	-1464
1006.480	-1309
1006.554	-1957
1006.629	-1156
1006.704	-721
1006.778	-1219
1006.853	-772
1006.927	-1202
1007.002	-1670
1007.076	-813
1007.150	-1962
1007.225	-1024
1007.299	-1089
1007.373	-2247
1007.448	-1650
1007.522	-796
1007.596	-1600
1007.671	-1233
1007.745	-899
1007.819	-1373
1007.893	-1339
1007.967	-1770
1008.041	-2043
1008.115	-1386
1008.190	-1672
1008.264	-1448
1008.338	-2261
1008.412	-1398
1008.486	-1311
1008.560	-1695
1008.633	-1684
1008.707	-1513
1008.781	-1477
1008.855	-1790
1008.929	-1451
1009.003	-2077
1009.076	-1547
1009.150	-1223
1009.224	-1184
1009.298	-787
1009.371	-2066
1009.445	-961
1009.519	-1177
1009.592	-1713
1009.666	-1941
1009.739	-1123
1009.813	-2007
1009.886	-1009
1009.960	-1994
1010.033	-614
1010.107	-930
1010.180	-2122
1010.253	-1853
1010.327	-1724
1010.400	-2007
1010.473	-1262
1010.547	-229
1010.620	-1484
1010.693	-1038
1010.766	-2574
1010.840	-1054
1010.913	-1592
1010.986	-1398
1011.059	-2187
1011.132	-1751
1011.205	-1053
1011.278	-2039
1011.351	-1712
1011.424	-1107
1011.497	-2312
1011.570	-1764
1011.643	-521
1011.716	-1306
1011.789	-2274
1011.862	-1454
1011.934	-1408
1012.007	-1752
1012.080	-1201
1012.153	-1676
1012.225	-1395
1012.298	-2147
1012.371	-1429
1012.443	-1071
1012.516	-2418
1012.588	-2261
1012.661	-1425
1012.733	-1370
1012.806	-1115
1012.879	-1367
1012.951	-1885
1013.023	-1895
1013.096	-773
1013.168	-1693
1013.241	-1294
1013.313	-1227
1013.385	-1588
1013.458	-1780
1013.530	-814
1013.602	-2385
1013.674	-993
1013.746	-1863
1013.819	-1889
1013.891	-1175
1013.963	-2205
1014.035	-1363
1014.107	-695
1014.179	-1307
1014.251	-1876
1014.323	-1847
1014.395	-1976
1014.467	-1295
1014.539	-1535
1014.611	-1009
1014.683	-1764
1014.754	-1115
1014.826	-2257
1014.898	-1161
1014.970	-1623
1015.042	-1105
1015.113	-1279
1015.185	-1790
1015.257	-1769
1015.328	-1120
1015.400	-2014
1015.471	-1817
1015.543	-2328
1015.615	-1989
1015.686	-1546
1015.757	-1753
1015.829	-1493
1015.901	-1423
1015.972	-1299
1016.043	-1450
1016.115	-1570
1016.186	-1840
1016.257	-1635
1016.328	-839
1016.400	-1632
1016.471	-1798
1016.542	-1478
1016.613	-1045
1016.685	-2062
1016.756	-1262
1016.827	-1204
1016.898	-2366
1016.969	-1038
1017.040	-1825
1017.111	-1916
1017.182	-1580
1017.253	-949
1017.324	-1766
1017.395	-1810
1017.466	-1384
1017.537	-1364
1017.608	-1086
1017.678	-1575
1017.749	-2044
1017.820	-1265
1017.891	-2136
1017.961	-1520
1018.032	-1168
1018.103	-915
1018.173	-2066
1018.244	-1968
1018.315	-1639
1018.385	-1331
1018.456	-1831
1018.526	-1660
1018.597	-1260
1018.667	-1658
1018.738	-2491
1018.808	-2118
1018.878	-1543
1018.949	-1330
1019.019	-1720
1019.089	-1522
1019.160	-991
1019.230	-2663
1019.300	-1877
1019.371	-2089
1019.441	-1094
1019.511	-2230
1019.581	-2326
1019.651	-1729
1019.721	-1963
1019.791	-1230
1019.861	-1375
1019.931	-1867
1020.001	-1716
1020.071	-1187
1020.141	-1400
1020.211	-1873
1020.281	-1348
1020.351	-1460
1020.421	-2126
1020.491	-1367
1020.560	-1547
1020.630	-1693
1020.700	-1016
1020.770	-1821
1020.839	-1664
1020.909	-2226
1020.979	-1720
1021.048	-1913
1021.118	-2144
1021.187	-2249
1021.257	-1188
1021.326	-1060
1021.396	-1935
1021.465	-1046
1021.535	-1545
1021.604	-2266
1021.674	-2170
1021.743	-1785
1021.812	-982
1021.882	-2126
1021.951	-1906
1022.020	-1231
1022.089	-1724
1022.159	-1075
1022.228	-1534
1022.297	-2142
1022.366	-1846
1022.435	-1420
1022.504	-2682
1022.573	-1697
1022.642	-1751
1022.711	-1449
1022.781	-932
1022.849	-846
1022.918	-1557
1022.987	-1298
1023.056	-2288
1023.125	-1401
1023.194	-1807
1023.263	-1362
1023.331	-1603
1023.400	-1818
1023.469	-2394
1023.538	-803
1023.606	-2547
1023.675	-1571
1023.744	-1950
1023.812	-2238
1023.881	-1326
1023.949	-1272
1024.018	-1879
1024.086	-2123
1024.155	-2330
1024.223	-2413
1024.292	-1238
1024.360	-1143
1024.429	-1255
1024.497	-2040
1024.565	-1459
1024.634	-1650
1024.702	-1644
1024.770	-1180
1024.838	-2147
1024.907	-1161
1024.975	-1987
1025.043	-1194
1025.111	-1972
1025.179	-2711
1025.247	-1990
1025.315	-1627
1025.383	-1978
1025.451	-2064
1025.519	-1682
1025.587	-2021
1025.655	-1557
1025.723	-1588
1025.791	-1876
1025.859	-1389
1025.927	-1341
1025.995	-2300
1026.062	-2071
1026.130	-1223
1026.198	-2201
1026.266	-1877
1026.333	-1328
1026.401	-891
1026.469	-1726
1026.536	-2007
1026.604	-2290
1026.671	-2118
1026.739	-1841
1026.806	-2123
1026.874	-1536
1026.941	-2222
1027.009	-1766
1027.076	-1887
1027.144	-2344
1027.211	-2220
1027.278	-2012
1027.345	-1842
1027.413	-1674
1027.480	-1656
1027.547	-2011
1027.614	-1364
1027.682	-1868
1027.749	-1624
1027.816	-1670
1027.883	-1630
1027.950	-1856
1028.017	-2133
1028.084	-1508
1028.151	-2246
1028.218	-1843
1028.285	-1871
1028.352	-2569
1028.419	-1249
1028.486	-2478
1028.553	-1869
1028.619	-1869
1028.686	-1818
1028.753	-2234
1028.820	-1942
1028.886	-1641
1028.953	-2114
1029.020	-1988
1029.086	-2302
1029.153	-2183
1029.220	-2679
1029.286	-1373
1029.353	-2548
1029.419	-2893
1029.486	-1707
1029.552	-1885
1029.619	-1616
1029.685	-2303
1029.751	-2045
1029.818	-1544
1029.884	-1442
1029.951	-1260
1030.017	-1798
1030.083	-2063
1030.149	-1860
1030.216	-2734
1030.282	-2113
1030.348	-1860
1030.414	-2298
1030.480	-2103
1030.546	-1947
1030.612	-1080
1030.678	-2321
1030.744	-1752
1030.810	-1877
1030.876	-1335
1030.942	-1100
1031.008	-1710
1031.074	-2279
1031.140	-2113
1031.206	-1988
1031.272	-2501
1031.337	-1607
1031.403	-1278
1031.469	-1916
1031.534	-2172
1031.600	-1628
1031.666	-2105
1031.731	-1930
1031.797	-1987
1031.863	-2092
1031.928	-1581
1031.994	-2949
1032.059	-1889
1032.125	-1836
1032.190	-2670
1032.256	-2049
1032.321	-1821
1032.386	-2246
1032.452	-1934
1032.517	-1970
1032.582	-2708
1032.647	-2024
1032.713	-2187
1032.778	-1744
1032.843	-2181
1032.908	-2093
1032.974	-1678
1033.039	-2060
1033.104	-2174
1033.169	-3036
1033.234	-2306
1033.299	-1859
1033.364	-1742
1033.429	-1644
1033.494	-1788
1033.559	-1565
1033.624	-2176
1033.688	-1906
1033.753	-1610
1033.818	-1110
1033.883	-1840
1033.948	-2011
1034.013	-2535
1034.077	-1790
1034.142	-1704
1034.207	-1458
1034.271	-214
1034.336	340
1034.400	-1641
1034.465	-1433
1034.530	-1302
1034.594	-1596
1034.658	-2183
1034.723	-2885
1034.787	-1505
1034.852	-2050
1034.916	-2066
1034.981	-2835
1035.045	-2471
1035.109	-2186
1035.173	-1396
1035.238	-2590
1035.302	-2027
1035.366	-1739
1035.430	-1970
1035.495	-2778
1035.559	-2154
1035.623	-2005
1035.687	-2163
1035.751	-2020
1035.815	-2398
1035.879	-2369
1035.943	-2437
1036.007	-1957
1036.071	-1771
1036.135	-1511
1036.198	-2060
1036.262	-1649
1036.326	-1640
1036.390	-1446
1036.454	-2534
1036.517	-2412
1036.581	-1918
1036.645	-1863
1036.709	-1076
1036.772	-2045
1036.836	-1639
1036.900	-1329
1036.963	-1890
1037.026	-2799
1037.090	-2378
1037.154	-2102
1037.217	-2908
1037.280	-2702
1037.344	-1692
1037.407	-1777
1037.471	-2249
1037.534	-1856
1037.597	-2496
1037.661	-1868
1037.724	-1850
1037.787	-2026
1037.850	-1446
1037.913	-1958
1037.977	-1847
1038.040	-2169
1038.103	-2505
1038.166	-1383
1038.229	-1777
1038.292	-2051
1038.355	-2618
1038.418	-2360
1038.481	-2010
1038.544	-2046
1038.607	-2088
1038.670	-2050
1038.732	-2293
1038.795	-2883
1038.858	-2548
1038.921	-2080
1038.984	-1946
1039.046	-1511
1039.109	-2643
1039.172	-2550
1039.234	-1935
1039.297	-2870
1039.360	-2322
1039.422	-1729
1039.485	-2050
1039.547	-2072
1039.610	-2691
1039.672	-1740
1039.734	-2588
1039.797	-3151
1039.859	-2208
1039.922	-3298
1039.984	-2723
1040.046	-1922
1040.109	-2736
1040.171	-2617
1040.233	-1065
1040.295	-2851
1040.358	-2434
1040.420	-1923
1040.482	-2806
1040.544	-3188
1040.606	-2153
1040.668	-2219
1040.730	-1983
1040.792	-2814
1040.854	-2033
1040.916	-2770
1040.978	-2021
1041.040	-2056
1041.102	-2097
1041.164	-2168
1041.225	-2389
1041.287	-2422
1041.349	-2437
1041.411	-2462
1041.472	-2295
1041.534	-2540
1041.596	-2034
1041.657	-2337
1041.719	-1680
1041.781	-2746
1041.842	-2362
1041.904	-2770
1041.965	-2495
1042.027	-2043
1042.088	-2818
1042.150	-1909
1042.211	-1623
1042.272	-2157
1042.334	-2352
1042.395	-2451
1042.456	-2958
1042.518	-2013
1042.579	-2072
1042.640	-2467
1042.701	-1768
1042.763	-2027
1042.824	-2666
1042.885	-1917
1042.946	-2547
1043.007	-2132
1043.068	-1919
1043.129	-2164
1043.190	-2540
1043.251	-2752
1043.312	-1668
1043.373	-1505
1043.434	-2757
1043.495	-1520
1043.556	-1283
1043.616	-1563
1043.677	-2266
1043.738	-2480
1043.799	-2616
1043.859	-1983
1043.920	-1378
1043.981	-2069
1044.041	-2044
1044.102	-2039
1044.162	-2346
1044.223	-2375
1044.284	-2217
1044.344	-2334
1044.405	-2245
1044.465	-2443
1044.525	-2221
1044.586	-1821
1044.646	-2407
1044.707	-1811
1044.767	-2536
1044.827	-2158
1044.887	-1955
1044.948	-2116
1045.008	-1865
1045.068	-2227
1045.128	-1584
1045.188	-2201
1045.249	-1715
1045.309	-1655
1045.369	-1716
1045.429	-1701
1045.489	-1236
1045.549	-1729
1045.609	-1963
1045.669	-2182
1045.729	-2051
1045.789	-1994
1045.848	-2010
1045.908	-2414
1045.968	-1715
1046.028	-1666
1046.088	-1806
1046.147	-1205
1046.207	-1947
1046.267	-972
1046.326	-966
1046.386	-1628
1046.446	-969
1046.505	-638
1046.565	-839
1046.624	-1131
1046.684	-1708
1046.743	-586
1046.803	-378
1046.862	-39
1046.922	0
