'Start Wavelength	183.907
'End Wavelength	1046.922
'Gate Delay	5.000
'Gate Width (ms)	1.050
'Laser Output Level	0.000
'X Position	0.000
'Y Position	0.000
'Z Position	0.000
'Grid Point Number	1.000
'Shot Number	100.000
183.907	1097.000
183.977	4.000
184.047	946
184.116	887
184.186	229
184.256	-259
184.325	624
184.395	-38
184.465	1236
184.534	807
184.604	258
184.674	623
184.743	367
184.813	658
184.883	412
184.952	352
185.022	121
185.092	892
185.161	704
185.231	996
185.301	842
185.370	786
185.440	941
185.509	262
185.579	109
185.649	770
185.718	1165
185.788	1261
185.857	471
185.927	-171
185.996	931
186.066	435
186.136	792
186.205	395
186.275	714
186.344	1172
186.414	1095
186.483	353
186.553	1069
186.622	2096
186.692	748
186.761	1171
186.831	518
186.900	756
186.970	1701
187.039	1062
187.109	2297
187.178	1137
187.248	1251
187.317	1320
187.387	371
187.456	1462
187.526	1220
187.595	2016
187.664	813
187.734	716
187.803	1819
187.873	1036
187.942	1974
188.012	1443
188.081	1261
188.150	1967
188.220	1463
188.289	1836
188.358	1744
188.428	1670
188.497	1696
188.567	1798
188.636	671
188.705	786
188.775	1769
188.844	603
188.913	2214
188.983	1389
189.052	1670
189.121	535
189.191	1383
189.260	1516
189.329	911
189.399	911
189.468	1292
189.537	954
189.606	659
189.676	1983
189.745	1530
189.814	2101
189.883	1299
189.953	401
190.022	1752
190.091	2596
190.161	3625
190.230	2328
190.299	261
190.368	2096
190.437	1198
190.507	1562
190.576	1995
190.645	899
190.714	1398
190.783	572
190.853	1752
190.922	1658
190.991	1970
191.060	1569
191.129	816
191.198	2155
191.268	744
191.337	1108
191.406	1920
191.475	1665
191.544	1117
191.613	1355
191.682	1038
191.752	1002
191.821	1515
191.890	1985
191.959	1818
192.028	1811
192.097	1643
192.166	1641
192.235	1484
192.304	1081
192.373	483
192.442	1230
192.511	1324
192.580	1135
192.650	1286
192.719	2173
192.788	1347
192.857	1310
192.926	729
192.995	1399
193.064	1849
193.133	2391
193.202	2125
193.271	2579
193.340	2504
193.409	2827
193.478	2688
193.547	2678
193.615	3326
193.684	3899
193.753	2355
193.822	2586
193.891	960
193.960	2026
194.029	1885
194.098	1908
194.167	504
194.236	1903
194.305	1696
194.374	1528
194.443	1604
194.512	2936
194.580	2341
194.649	2564
194.718	3528
194.787	2212
194.856	2113
194.925	2460
194.994	2767
195.062	2666
195.131	3283
195.200	4511
195.269	4417
195.338	2750
195.407	1789
195.475	1885
195.544	4383
195.613	3724
195.682	2562
195.751	3574
195.819	4682
195.888	3956
195.957	4151
196.026	3686
196.094	4093
196.163	4334
196.232	4504
196.301	3325
196.369	3693
196.438	3380
196.507	2251
196.576	2097
196.644	2273
196.713	2448
196.782	2479
196.850	2617
196.919	2230
196.988	2456
197.056	1647
197.125	1775
197.194	2535
197.262	2675
197.331	2108
197.400	2376
197.468	1547
197.537	1558
197.606	2823
197.674	2735
197.743	4456
197.812	2300
197.880	4575
197.949	3144
198.017	4728
198.086	3538
198.155	2587
198.223	3013
198.292	5176
198.360	3246
198.429	1662
198.497	1407
198.566	3324
198.635	5013
198.703	3015
198.772	2678
198.840	5181
198.909	4265
198.977	2068
199.046	2510
199.114	2241
199.183	2586
199.251	2160
199.320	1945
199.388	1656
199.457	2524
199.525	3322
199.594	2779
199.662	2235
199.731	1707
199.799	2852
199.867	1977
199.936	2219
200.004	2425
200.073	2462
200.141	2521
200.210	2046
200.278	2618
200.346	3152
200.415	4080
200.483	3400
200.552	3299
200.620	2340
200.688	3020
200.757	2884
200.825	2124
200.893	2474
200.962	2562
201.030	2477
201.098	2037
201.167	3163
201.235	2699
201.303	3139
201.372	3210
201.440	2922
201.508	3549
201.577	3653
201.645	4016
201.713	2435
201.781	1884
201.850	4211
201.918	2960
201.986	2972
202.055	2743
202.123	2480
202.191	2748
202.259	3071
202.327	3120
202.396	2218
202.464	3366
202.532	3687
202.600	8813
202.669	6015
202.737	2912
202.805	2814
202.873	2737
202.941	2759
203.009	2382
203.078	2421
203.146	2790
203.214	2538
203.282	1981
203.350	3533
203.418	3145
203.487	3622
203.555	2618
203.623	2440
203.691	3252
203.759	3474
203.827	2780
203.895	3850
203.963	3851
204.031	3035
204.099	2789
204.168	2889
204.236	4615
204.304	4057
204.372	3582
204.440	2635
204.508	2596
204.576	2106
204.644	2885
204.712	2034
204.780	2504
204.848	2751
204.916	2425
204.984	3077
205.052	3463
205.120	4011
205.188	2848
205.256	2364
205.324	2644
205.392	2742
205.460	2297
205.528	2323
205.596	2877
205.664	2020
205.732	2954
205.799	5392
205.867	8411
205.935	3418
206.003	3505
206.071	3290
206.139	3450
206.207	3310
206.275	3852
206.343	3052
206.411	3563
206.478	3133
206.546	2944
206.614	3310
206.682	2977
206.750	2947
206.818	3279
206.885	3214
206.953	779
207.021	2547
207.089	2279
207.157	1951
207.225	2585
207.292	2517
207.360	2893
207.428	2822
207.496	2475
207.563	2155
207.631	2336
207.699	2753
207.767	2932
207.834	2448
207.902	2713
207.970	3241
208.038	2590
208.105	3013
208.173	3464
208.241	4081
208.309	3681
208.376	4293
208.444	7098
208.512	3496
208.579	2473
208.647	4482
208.715	5044
208.782	3376
208.850	3448
208.918	3279
208.985	2890
209.053	3402
209.120	3488
209.188	3536
209.256	3973
209.323	3526
209.391	5630
209.459	5449
209.526	3100
209.594	3644
209.661	3271
209.729	3675
209.796	3920
209.864	3887
209.932	3611
209.999	4531
210.067	4730
210.134	5450
210.202	4238
210.269	7129
210.337	5844
210.404	3799
210.472	3694
210.539	3954
210.607	4671
210.674	6368
210.742	4877
210.809	4270
210.877	5402
210.944	6416
211.012	4612
211.079	6724
211.146	4696
211.214	4057
211.281	5210
211.349	5562
211.416	4956
211.484	5653
211.551	4593
211.618	4835
211.686	3997
211.753	4337
211.821	4770
211.888	5301
211.955	4579
212.023	4332
212.090	4594
212.157	5098
212.225	5247
212.292	7071
212.359	12074
212.427	20805
212.494	11870
212.561	7956
212.629	6500
212.696	5643
212.763	5708
212.831	3928
212.898	3953
212.965	4057
213.032	4685
213.100	5677
213.167	5506
213.234	6398
213.301	4337
213.369	4142
213.436	3952
213.503	4418
213.570	5029
213.638	5349
213.705	4143
213.772	3921
213.839	5484
213.906	6896
213.973	7223
214.041	4736
214.108	5575
214.175	6127
214.242	6566
214.309	5088
214.376	7150
214.444	6415
214.511	6031
214.578	5522
214.645	6235
214.712	7491
214.779	6998
214.846	5550
214.913	6132
214.980	6587
215.048	7931
215.115	9027
215.182	8587
215.249	7148
215.316	5587
215.383	5775
215.450	6510
215.517	6854
215.584	6067
215.651	6240
215.718	5376
215.785	6941
215.852	8385
215.919	10199
215.986	9571
216.053	6636
216.120	5208
216.187	7408
216.254	8874
216.321	7309
216.388	7711
216.455	7621
216.522	8921
216.589	11441
216.656	14412
216.722	13869
216.789	8426
216.856	8316
216.923	6716
216.990	6645
217.057	6962
217.124	9094
217.191	7124
217.258	8326
217.324	9579
217.391	8801
217.458	7356
217.525	7019
217.592	6517
217.659	6055
217.725	7822
217.792	9757
217.859	10559
217.926	8085
217.993	5930
218.059	5382
218.126	5919
218.193	6534
218.260	5783
218.327	4778
218.393	6567
218.460	6267
218.527	4202
218.594	6734
218.660	10573
218.727	12554
218.794	6671
218.860	5985
218.927	5034
218.994	5746
219.061	6402
219.127	8655
219.194	10591
219.261	7070
219.327	5498
219.394	5529
219.461	3923
219.527	5201
219.594	7746
219.661	6852
219.727	3483
219.794	4831
219.860	4585
219.927	6992
219.994	10802
220.060	13491
220.127	10674
220.193	7504
220.260	6129
220.326	7776
220.393	9944
220.460	10903
220.526	8357
220.593	5667
220.659	7353
220.726	8056
220.792	13987
220.859	13678
220.925	14187
220.992	16779
221.058	17555
221.125	17967
221.191	14220
221.258	8087
221.324	6845
221.391	7581
221.457	8333
221.524	7494
221.590	8686
221.657	17254
221.723	13390
221.789	11222
221.856	11666
221.922	8338
221.989	8255
222.055	6991
222.121	6794
222.188	11687
222.254	8354
222.321	6913
222.387	5753
222.453	6278
222.520	8985
222.586	7886
222.652	7747
222.719	8530
222.785	10208
222.851	8189
222.918	6256
222.984	11627
223.050	15057
223.116	8735
223.183	7388
223.249	4120
223.315	4622
223.382	6896
223.448	5851
223.514	4907
223.580	4472
223.647	4496
223.713	4829
223.779	5933
223.845	7894
223.911	8390
223.978	4904
224.044	5973
224.110	5465
224.176	6039
224.242	5714
224.309	3908
224.375	4968
224.441	6207
224.507	5360
224.573	5289
224.639	5857
224.705	4539
224.772	5261
224.838	5436
224.904	7559
224.970	5529
225.036	5340
225.102	6363
225.168	6212
225.234	6071
225.300	4910
225.366	5575
225.432	5635
225.499	5257
225.565	6683
225.631	7931
225.697	7027
225.763	7663
225.829	7919
225.895	9399
225.961	13818
226.027	10833
226.093	11256
226.159	11585
226.225	11836
226.291	19979
226.357	29668
226.423	24640
226.489	17524
226.554	11986
226.620	10365
226.686	15119
226.752	25417
226.818	22625
226.884	37896
226.950	33279
227.016	15606
227.082	13008
227.148	12124
227.214	15818
227.279	19076
227.345	16854
227.411	13003
227.477	10256
227.543	18385
227.609	20267
227.674	19811
227.740	13565
227.806	9639
227.872	8628
227.938	10115
228.003	19762
228.069	11123
228.135	6849
228.201	7525
228.267	7344
228.332	10503
228.398	11522
228.464	8675
228.530	6356
228.595	6345
228.661	7020
228.727	12174
228.792	11444
228.858	8291
228.924	8088
228.990	11575
229.055	11258
229.121	13215
229.187	9348
229.252	8626
229.318	7971
229.384	12862
229.449	13527
229.515	5987
229.581	5888
229.646	8173
229.712	8797
229.777	16724
229.843	18779
229.909	15715
229.974	18633
230.040	17059
230.105	12357
230.171	11986
230.236	15201
230.302	21347
230.368	15960
230.433	10675
230.499	11289
230.564	19499
230.630	13667
230.695	8704
230.761	8610
230.826	7324
230.892	13413
230.957	9230
231.023	7356
231.088	8450
231.154	8070
231.219	8568
231.284	10808
231.350	12590
231.415	8901
231.481	7732
231.546	6952
231.612	6935
231.677	6270
231.742	7042
231.808	9480
231.873	7116
231.939	5472
232.004	13489
232.069	13088
232.135	7107
232.200	7635
232.265	7517
232.331	6331
232.396	6248
232.461	5402
232.527	6359
232.592	7238
232.657	7556
232.723	10862
232.788	8808
232.853	7709
232.918	6628
232.984	6850
233.049	6066
233.114	8534
233.179	10088
233.245	11059
233.310	13294
233.375	7398
233.440	8861
233.506	7372
233.571	6955
233.636	6696
233.701	7425
233.766	12046
233.832	14157
233.897	9933
233.962	12294
234.027	15622
234.092	12392
234.157	11129
234.222	11210
234.288	12907
234.353	25148
234.418	24442
234.483	19801
234.548	17060
234.613	15090
234.678	13411
234.743	13520
234.808	27882
234.873	20926
234.938	14082
235.004	11217
235.069	12735
235.134	10233
235.199	10007
235.264	8853
235.329	7888
235.394	8636
235.459	10793
235.524	10775
235.589	9257
235.654	8446
235.719	7967
235.784	8775
235.849	9300
235.913	16302
235.978	17430
236.043	19628
236.108	10418
236.173	10130
236.238	11644
236.303	8497
236.368	8370
236.433	11303
236.498	18639
236.563	12889
236.627	18068
236.692	48168
236.757	41023
236.822	22005
236.887	20122
236.952	18143
237.017	12699
237.081	15383
237.146	17512
237.211	25014
237.276	46720
237.341	78087
237.405	42863
237.470	24000
237.535	19422
237.600	13548
237.664	11358
237.729	11897
237.794	15014
237.859	19785
237.923	16926
237.988	12199
238.053	16737
238.118	16381
238.182	30862
238.247	28705
238.312	19354
238.376	16256
238.441	16038
238.506	14611
238.570	8661
238.635	9515
238.700	9383
238.764	9481
238.829	16707
238.893	19402
238.958	14003
239.023	14379
239.087	9550
239.152	11483
239.216	8932
239.281	10259
239.346	9203
239.410	9351
239.475	10692
239.539	30037
239.604	24993
239.668	12118
239.733	10215
239.797	12536
239.862	25935
239.926	29155
239.991	17373
240.055	11817
240.120	10964
240.184	11548
240.249	9844
240.313	9397
240.378	10090
240.442	22184
240.507	30566
240.571	16008
240.635	18427
240.700	22493
240.764	15328
240.829	11889
240.893	8533
240.957	11128
241.022	18940
241.086	30486
241.151	22064
241.215	12693
241.279	13867
241.344	20054
241.408	15031
241.472	14428
241.537	15695
241.601	14901
241.665	12639
241.730	13697
241.794	15724
241.858	17324
241.922	14475
241.987	14126
242.051	12037
242.115	15251
242.179	14486
242.244	10770
242.308	13106
242.372	14172
242.436	20021
242.501	15751
242.565	11350
242.629	11229
242.693	11465
242.757	11178
242.822	14840
242.886	14205
242.950	12911
243.014	12996
243.078	17453
243.142	18242
243.206	14009
243.271	15667
243.335	16696
243.399	18172
243.463	35447
243.527	77850
243.591	34776
243.655	23555
243.719	15443
243.783	17066
243.847	23015
243.911	25367
243.975	39564
244.040	33118
244.104	23142
244.168	16418
244.232	24891
244.296	30632
244.360	24387
244.424	18396
244.488	14720
244.552	14277
244.615	12105
244.679	12330
244.743	15092
244.807	17221
244.871	13856
244.935	12338
244.999	11522
245.063	14884
245.127	16591
245.191	20672
245.255	21408
245.319	20980
245.383	20256
245.446	15491
245.510	12799
245.574	16470
245.638	16519
245.702	15636
245.766	29095
245.829	22331
245.893	16116
245.957	14964
246.021	17521
246.085	18344
246.149	21791
246.212	40916
246.276	59174
246.340	34870
246.404	26335
246.467	22806
246.531	32603
246.595	22638
246.659	22404
246.722	22315
246.786	29540
246.850	27163
246.913	29267
246.977	18106
247.041	17268
247.104	22775
247.168	19141
247.232	38884
247.295	72240
247.359	42545
247.423	23618
247.486	34996
247.550	25979
247.614	23943
247.677	32812
247.741	21403
247.804	17391
247.868	20672
247.932	39659
247.995	72237
248.059	35946
248.122	21480
248.186	26750
248.249	46687
248.313	98254
248.376	110772
248.440	83697
248.503	41726
248.567	33449
248.630	43588
248.694	57521
248.757	72304
248.821	109780
248.884	88140
248.948	78412
249.011	100951
249.075	125140
249.138	116426
249.202	63824
249.265	43476
249.328	38126
249.392	36622
249.455	32342
249.519	24765
249.582	32145
249.645	43601
249.709	32974
249.772	23506
249.835	23226
249.899	24906
249.962	20643
250.025	22961
250.089	50279
250.152	72497
250.215	41202
250.279	30085
250.342	27422
250.405	25811
250.468	25970
250.532	31382
250.595	40309
250.658	84016
250.721	122232
250.785	64514
250.848	38656
250.911	28607
250.974	25367
251.038	37123
251.101	71021
251.164	41411
251.227	43507
251.290	37108
251.354	42389
251.417	109597
251.480	113155
251.543	84458
251.606	170761
251.669	146402
251.732	79201
251.795	90907
251.859	86113
251.922	128096
251.985	90514
252.048	54416
252.111	46020
252.174	43753
252.237	77450
252.300	129681
252.363	127345
252.426	163597
252.489	97594
252.552	68142
252.615	50192
252.678	50819
252.741	99144
252.804	111724
252.867	167599
252.930	139935
252.993	94472
253.056	62879
253.119	57291
253.182	42410
253.245	51579
253.308	47649
253.371	55891
253.434	54037
253.497	53284
253.559	77855
253.622	66620
253.685	84923
253.748	94148
253.811	46229
253.874	47169
253.937	49817
254.000	41581
254.062	62409
254.125	83620
254.188	86432
254.251	72414
254.314	39379
254.376	61324
254.439	74558
254.502	73870
254.565	64734
254.628	103728
254.690	81576
254.753	49287
254.816	41022
254.878	41213
254.941	59646
255.004	61659
255.067	36187
255.129	41973
255.192	24551
255.255	24490
255.317	29095
255.380	19964
255.443	16992
255.505	17981
255.568	19897
255.631	23093
255.693	25053
255.756	19864
255.819	19124
255.881	17239
255.944	15532
256.006	15522
256.069	17008
256.132	17575
256.194	23518
256.257	37647
256.319	28889
256.382	27943
256.444	21708
256.507	19233
256.569	17136
256.632	17067
256.694	23038
256.757	36281
256.819	81096
256.882	43004
256.944	28389
257.007	27985
257.069	33540
257.132	24781
257.194	18745
257.257	21576
257.319	22296
257.381	18878
257.444	29217
257.506	90689
257.569	120400
257.631	88639
257.693	52362
257.756	27831
257.818	25645
257.880	19748
257.943	20969
258.005	20949
258.067	25855
258.130	25115
258.192	26825
258.254	51146
258.317	31446
258.379	23019
258.441	47188
258.503	39104
258.566	37310
258.628	46676
258.690	21241
258.753	23837
258.815	52313
258.877	31263
258.939	19606
259.001	19540
259.064	20613
259.126	21267
259.188	25976
259.250	20872
259.312	29076
259.375	67036
259.437	46287
259.499	21666
259.561	22284
259.623	27261
259.685	32813
259.747	22956
259.809	37354
259.872	62030
259.934	89001
259.996	114646
260.058	48687
260.120	22865
260.182	19327
260.244	17192
260.306	16411
260.368	18355
260.430	20340
260.492	52635
260.554	83444
260.616	49953
260.678	58321
260.740	67682
260.802	28933
260.864	28030
260.926	24776
260.988	24024
261.050	26625
261.112	69056
261.174	116397
261.236	60969
261.298	32141
261.359	36874
261.421	47353
261.483	24304
261.545	22867
261.607	17263
261.669	17208
261.731	26432
261.793	55092
261.854	37612
261.916	29497
261.978	37543
262.040	41978
262.102	20624
262.164	26030
262.225	23877
262.287	19838
262.349	43097
262.411	36743
262.472	20526
262.534	25927
262.596	44820
262.658	20987
262.719	17633
262.781	20792
262.843	42167
262.904	24435
262.966	22698
263.028	24268
263.090	64999
263.151	158175
263.213	89842
263.275	79955
263.336	32601
263.398	22368
263.459	17739
263.521	20439
263.583	39443
263.644	32582
263.706	19227
263.767	14968
263.829	14326
263.891	13814
263.952	14403
264.014	16669
264.075	39484
264.137	90250
264.198	42812
264.260	21018
264.321	20266
264.383	46583
264.444	113528
264.506	45715
264.567	30320
264.629	51190
264.690	101894
264.752	45096
264.813	28364
264.875	22912
264.936	27003
264.998	25101
265.059	15674
265.120	15733
265.182	22072
265.243	44039
265.305	44121
265.366	19965
265.427	16376
265.489	18919
265.550	15431
265.611	21606
265.673	26492
265.734	26761
265.795	15282
265.857	13591
265.918	13451
265.979	19814
266.040	65811
266.102	60960
266.163	34432
266.224	49880
266.286	25109
266.347	17629
266.408	18934
266.469	18356
266.530	15923
266.592	14387
266.653	31870
266.714	51327
266.775	21785
266.836	17856
266.898	17626
266.959	44478
267.020	31917
267.081	17920
267.142	14534
267.203	14455
267.264	13184
267.326	18578
267.387	17296
267.448	15471
267.509	15970
267.570	15933
267.631	13711
267.692	13273
267.753	14050
267.814	14489
267.875	26516
267.936	50279
267.997	49872
268.058	41168
268.119	22530
268.180	22762
268.241	19559
268.302	15869
268.363	15539
268.424	20722
268.485	23632
268.546	19382
268.607	13214
268.668	13112
268.729	13585
268.790	17291
268.851	22156
268.912	50197
268.972	53298
269.033	35391
269.094	19621
269.155	14784
269.216	14693
269.277	17275
269.338	13955
269.398	14696
269.459	21953
269.520	29776
269.581	40913
269.642	48943
269.702	33221
269.763	22909
269.824	19283
269.885	23683
269.945	35564
270.006	18512
270.067	13745
270.128	13195
270.188	14804
270.249	17274
270.310	14685
270.370	13975
270.431	14148
270.492	13766
270.553	15774
270.613	36396
270.674	55143
270.734	29011
270.795	19606
270.856	28747
270.916	25263
270.977	18450
271.038	24251
271.098	25138
271.159	33262
271.219	33832
271.280	18103
271.340	16543
271.401	19252
271.462	34653
271.522	27246
271.583	19915
271.643	19712
271.704	20109
271.764	26060
271.825	48913
271.885	123489
271.946	154476
272.006	72055
272.066	82833
272.127	122626
272.187	48710
272.248	32404
272.308	32142
272.369	80128
272.429	56021
272.489	54572
272.550	67225
272.610	56557
272.671	44945
272.731	38488
272.791	59226
272.852	38637
272.912	34919
272.972	22115
273.033	21187
273.093	35013
273.153	46071
273.214	32810
273.274	30750
273.334	92020
273.394	132090
273.455	73482
273.515	67661
273.575	128007
273.635	59902
273.696	66916
273.756	111879
273.816	60566
273.876	36771
273.936	51502
273.997	92657
274.057	39479
274.117	32695
274.177	46456
274.237	140549
274.297	118283
274.358	80830
274.418	92224
274.478	83980
274.538	41319
274.598	29915
274.658	60387
274.718	79610
274.778	41482
274.838	28095
274.898	49009
274.958	112224
275.018	110281
275.078	84404
275.138	45878
275.198	27199
275.258	22819
275.318	27599
275.378	51458
275.438	58103
275.498	37693
275.558	51018
275.618	97622
275.678	79966
275.738	68835
275.798	73845
275.858	54689
275.918	23655
275.978	27721
276.038	27567
276.098	21189
276.157	37816
276.217	90529
276.277	48672
276.337	45470
276.397	26049
276.457	34186
276.517	24484
276.576	17945
276.636	19697
276.696	34119
276.756	57352
276.815	44834
276.875	26516
276.935	30967
276.995	30227
277.055	18069
277.114	19345
277.174	25967
277.234	68096
277.293	40506
277.353	28450
277.413	20080
277.472	25079
277.532	26242
277.592	23053
277.651	50184
277.711	80758
277.771	37186
277.830	100576
277.890	86600
277.950	61001
278.009	130165
278.069	63193
278.128	62201
278.188	90227
278.248	50841
278.307	88503
278.367	58625
278.426	27000
278.486	21920
278.545	18565
278.605	17497
278.664	17633
278.724	21954
278.783	45039
278.843	99532
278.902	38599
278.962	30787
279.021	32136
279.081	29033
279.140	29794
279.199	31322
279.259	27465
279.318	26687
279.378	31847
279.437	56228
279.496	166754
279.556	290546
279.615	229762
279.675	85416
279.734	59019
279.793	93551
279.853	137540
279.912	64697
279.971	39727
280.031	37865
280.090	60950
280.149	102277
280.208	75797
280.268	221238
280.327	213806
280.386	77140
280.445	66219
280.505	67220
280.564	46092
280.623	45935
280.682	44525
280.742	59957
280.801	29071
280.860	25761
280.919	29878
280.978	27612
281.037	21551
281.097	20455
281.156	19026
281.215	19032
281.274	25504
281.333	68655
281.392	54303
281.451	21146
281.510	19170
281.569	19980
281.628	16561
281.688	16503
281.747	24365
281.806	29242
281.865	20586
281.924	20360
281.983	19881
282.042	15469
282.101	16488
282.160	17184
282.219	16553
282.278	20197
282.337	47958
282.396	35559
282.454	22390
282.513	27367
282.572	74065
282.631	49543
282.690	23345
282.749	20498
282.808	29611
282.867	28839
282.926	27253
282.985	17743
283.043	17033
283.102	18457
283.161	21319
283.220	40735
283.279	71759
283.338	29895
283.396	22842
283.455	23401
283.514	25072
283.573	38945
283.631	31652
283.690	23644
283.749	22299
283.808	39621
283.866	45918
283.925	22505
283.984	21498
284.043	31357
284.101	32852
284.160	26286
284.219	38205
284.277	30890
284.336	38930
284.395	94886
284.453	76030
284.512	38146
284.570	54526
284.629	49140
284.688	42849
284.746	45676
284.805	51359
284.863	65719
284.922	80833
284.981	94654
285.039	128414
285.098	204603
285.156	334416
285.215	321028
285.273	328049
285.332	352103
285.390	240199
285.449	161100
285.507	115148
285.566	87930
285.624	68170
285.683	55677
285.741	47154
285.799	43620
285.858	40674
285.916	40088
285.975	31069
286.033	28466
286.091	26353
286.150	23808
286.208	25431
286.267	31797
286.325	30971
286.383	45926
286.442	38742
286.500	23102
286.558	19448
286.616	20129
286.675	29893
286.733	27149
286.791	26983
286.850	29713
286.908	34626
286.966	49787
287.024	26018
287.083	20526
287.141	17475
287.199	20380
287.257	32415
287.315	23746
287.374	24619
287.432	47041
287.490	35171
287.548	26222
287.606	20857
287.664	20607
287.723	32543
287.781	44287
287.839	23500
287.897	24133
287.955	25025
288.013	29783
288.071	54820
288.129	150494
288.187	336729
288.245	180578
288.303	70065
288.361	45994
288.419	46938
288.477	37312
288.535	25747
288.593	23813
288.651	24109
288.709	19772
288.767	21005
288.825	22019
288.883	18828
288.941	19908
288.999	18527
289.057	19228
289.115	19921
289.173	21642
289.231	20958
289.289	22347
289.346	20007
289.404	24353
289.462	38718
289.520	40398
289.578	23727
289.636	16295
289.694	15702
289.751	16039
289.809	17723
289.867	19613
289.925	23223
289.983	30123
290.040	18556
290.098	17910
290.156	25314
290.214	28455
290.271	21406
290.329	17976
290.387	15563
290.444	17137
290.502	16092
290.560	21656
290.617	25569
290.675	20657
290.733	18417
290.790	22993
290.848	17922
290.906	21165
290.963	22164
291.021	21282
291.078	19766
291.136	24445
291.194	58172
291.251	109164
291.309	39545
291.366	23023
291.424	23721
291.481	25705
291.539	23252
291.596	19478
291.654	16534
291.711	16433
291.769	21050
291.826	41115
291.884	29776
291.941	20659
291.999	21717
292.056	24152
292.114	27521
292.171	21012
292.228	21457
292.286	28138
292.343	49305
292.401	55411
292.458	35730
292.515	28266
292.573	34330
292.630	32675
292.687	28795
292.745	27052
292.802	40351
292.859	91149
292.917	98647
292.974	63681
293.031	30972
293.089	24463
293.146	23291
293.203	21507
293.260	22380
293.318	32792
293.375	60472
293.432	37797
293.489	24337
293.546	22331
293.604	31665
293.661	60916
293.718	134982
293.775	102691
293.832	55987
293.889	42693
293.947	42647
294.004	35316
294.061	38602
294.118	57956
294.175	104975
294.232	142494
294.289	68417
294.346	39340
294.403	32940
294.460	30297
294.517	29089
294.574	26665
294.631	26031
294.688	31507
294.745	59279
294.802	156675
294.859	197426
294.916	93231
294.973	59699
295.030	52368
295.087	46685
295.144	34693
295.201	29992
295.258	28611
295.315	32421
295.372	63699
295.429	102899
295.486	62210
295.542	50023
295.599	104005
295.656	167636
295.713	127576
295.770	110997
295.827	55307
295.883	39434
295.940	41326
295.997	64628
296.054	63480
296.111	38059
296.167	30508
296.224	27798
296.281	27074
296.338	27774
296.394	26298
296.451	33032
296.508	64080
296.564	118036
296.621	109963
296.678	134860
296.734	187219
296.791	95538
296.848	60356
296.904	60758
296.961	104873
297.018	124616
297.074	107817
297.131	53834
297.187	42161
297.244	52345
297.301	99470
297.357	152807
297.414	73170
297.470	43154
297.527	40147
297.583	34304
297.640	35804
297.696	31144
297.753	28150
297.809	24678
297.866	23737
297.922	23716
297.979	24509
298.035	27459
298.092	38566
298.148	68625
298.204	73405
298.261	48886
298.317	77111
298.374	152261
298.430	95909
298.486	54622
298.543	45726
298.599	42132
298.656	43375
298.712	59798
298.768	97730
298.824	67188
298.881	37382
298.937	30019
298.993	31362
299.050	43652
299.106	40175
299.162	34996
299.218	34225
299.275	29540
299.331	31964
299.387	46426
299.443	113608
299.500	120846
299.556	60238
299.612	41490
299.668	39099
299.724	39255
299.780	38949
299.837	32775
299.893	43077
299.949	100136
300.005	118226
300.061	110055
300.117	158678
300.173	90781
300.229	55760
300.285	67514
300.341	76520
300.397	46914
300.453	34315
300.510	31477
300.566	33712
300.622	35521
300.678	61302
300.734	108282
300.790	102352
300.845	115592
300.901	82083
300.957	105847
301.013	86953
301.069	45366
301.125	40472
301.181	48209
301.237	39077
301.293	29912
301.349	28552
301.405	27285
301.461	28059
301.516	31732
301.572	37197
301.628	59332
301.684	54203
301.740	63069
301.796	81626
301.851	63446
301.907	96881
301.963	99250
302.019	126799
302.074	248390
302.130	263385
302.186	144391
302.242	76237
302.297	56895
302.353	55841
302.409	78602
302.464	74881
302.520	70152
302.576	127215
302.631	142056
302.687	98541
302.743	53020
302.798	40088
302.854	35345
302.910	37445
302.965	46026
303.021	67656
303.076	64443
303.132	76266
303.187	86872
303.243	52383
303.299	35109
303.354	33001
303.410	30926
303.465	30011
303.521	30466
303.576	31488
303.632	36815
303.687	51090
303.743	102563
303.798	97555
303.853	53033
303.909	39527
303.964	37597
304.020	50416
304.075	72494
304.130	65011
304.186	105890
304.241	107441
304.297	89678
304.352	57446
304.358	56101
304.407	45193
304.449	45162
304.463	45165
304.518	50023
304.539	47635
304.573	43824
304.629	42116
304.630	42415
304.684	56936
304.720	81549
304.739	93686
304.794	125380
304.811	111178
304.850	76616
304.902	48973
304.905	47236
304.960	38860
304.992	37233
305.015	36245
305.071	36648
305.083	36464
305.126	35517
305.173	31607
305.181	31044
305.236	29925
305.264	31707
305.292	33727
305.347	40683
305.354	40948
305.402	41769
305.445	41343
305.457	41419
305.512	45105
305.535	47314
305.567	50184
305.622	50890
305.626	51652
305.678	70380
305.716	101925
305.733	112904
305.788	132612
305.807	121863
305.843	102400
305.897	116307
305.898	116419
305.953	118249
305.988	90777
306.008	75758
306.063	59074
306.078	55619
306.118	46950
306.168	36678
306.173	35934
306.228	32557
306.259	31650
306.283	31350
306.338	31072
306.349	31331
306.393	32011
306.440	31622
306.448	31940
306.503	37626
306.530	42890
306.558	60918
306.613	122135
306.620	130391
306.668	155667
306.711	150397
306.723	145822
306.778	110781
306.801	89786
306.833	67899
306.888	45424
306.892	44361
306.943	38282
306.982	37030
306.997	37063
307.052	37950
307.072	38985
307.107	46810
307.162	64254
307.163	64495
307.217	96303
307.253	112162
307.272	112010
307.327	110152
307.343	101322
307.381	81878
307.434	66275
307.436	67565
307.491	114638
307.524	155857
307.546	159675
307.600	131677
307.614	116734
307.655	78068
307.704	49539
307.710	49591
307.765	64223
307.795	78408
307.819	93660
307.874	141405
307.885	143133
307.929	106034
307.975	62853
307.984	60329
308.038	57082
308.065	59362
308.093	80023
308.148	135712
308.156	148319
308.202	218342
308.246	266036
308.257	261226
308.312	164419
308.336	133894
308.366	117759
308.421	96416
308.426	93405
308.475	67477
308.517	53067
308.530	50887
308.585	45195
308.607	43888
308.639	48256
308.694	57932
308.697	58772
308.748	113390
308.787	165339
308.803	162485
308.857	125866
308.877	107099
308.912	91473
308.967	81331
308.967	81136
309.021	85783
309.058	91132
309.076	104104
309.130	152021
309.148	170050
309.185	237672
309.238	342114
309.239	343150
309.293	381922
309.328	368045
309.348	326979
309.402	191114
309.418	156307
309.457	121435
309.508	88366
309.511	87933
309.566	89234
309.598	92251
309.620	107580
309.674	154782
309.688	167303
309.729	167848
309.778	150390
309.783	147758
309.837	112745
309.868	96433
309.892	111231
309.946	153620
309.959	166583
310.001	213118
310.049	257429
310.055	250083
310.109	162400
310.139	113179
310.163	98083
310.218	73901
310.229	69663
310.272	63818
310.319	58706
310.326	59049
310.381	62088
310.409	63478
310.435	64179
310.489	65407
310.499	65677
310.543	71273
310.589	76588
310.598	78413
310.652	89849
310.679	94549
310.706	84838
310.760	63134
310.769	59668
310.814	49417
310.859	40074
310.868	41042
310.923	46371
310.948	49153
310.977	56162
311.031	69957
311.038	71673
311.085	70023
311.128	67410
311.139	67259
311.193	65745
311.218	65089
311.247	60980
311.301	52481
311.308	51369
311.356	62224
311.398	72178
311.410	70446
311.464	61148
311.488	56433
311.518	53665
311.572	49004
311.578	48436
311.626	65443
311.668	80491
311.680	87092
311.734	115384
311.758	127788
311.788	125729
311.842	120838
311.847	119975
311.896	137236
311.937	152125
311.950	151120
312.004	144677
312.027	141157
312.058	115496
312.112	69322
312.117	64570
312.165	64479
312.207	64192
312.297	130914
312.386	117913
312.476	77786
312.566	123927
312.656	70899
312.745	62642
312.835	83974
312.925	96922
313.015	79211
313.104	95682
313.194	54927
313.284	57370
313.374	66143
313.463	63714
313.553	56472
313.643	53739
313.732	47485
313.822	53027
313.912	67894
314.001	73811
314.091	100278
314.180	176291
314.270	98331
314.360	116469
314.449	86054
314.539	61762
314.628	59416
314.718	89711
314.808	111503
314.897	54730
314.987	47245
315.076	60479
315.166	89177
315.255	101552
315.345	87933
315.434	104304
315.524	84762
315.613	90621
315.703	84767
315.792	84218
315.881	86187
315.971	75319
316.060	148201
316.150	271494
316.239	258868
316.328	102476
316.418	51519
316.507	51584
316.597	65191
316.686	64108
316.775	104079
316.865	226763
316.954	62762
317.043	43983
317.133	51991
317.222	50418
317.311	49206
317.400	44146
317.490	57716
317.579	67707
317.668	47983
317.757	63563
317.847	82496
317.936	135833
318.025	139853
318.114	83738
318.203	80077
318.293	114264
318.382	205383
318.471	156187
318.560	205659
318.649	358920
318.738	118293
318.828	86621
318.917	96092
319.006	114721
319.095	267706
319.184	441763
319.273	284611
319.362	155798
319.451	77808
319.540	72264
319.629	128657
319.718	203374
319.807	121175
319.896	194027
319.985	523242
320.074	262843
320.163	125810
320.252	195844
320.341	173825
320.430	160287
320.519	158701
320.608	113998
320.697	108022
320.786	97561
320.875	93904
320.964	115207
321.053	153765
321.142	202166
321.230	224712
321.319	210279
321.408	395393
321.497	211180
321.586	176533
321.675	246303
321.764	268239
321.852	214389
321.941	282760
322.030	180509
322.119	233577
322.207	395321
322.296	380980
322.385	270336
322.474	197741
322.562	416350
322.651	320841
322.740	202765
322.829	318648
322.917	380666
323.006	200510
323.095	162445
323.183	156387
323.272	202797
323.361	245749
323.449	516973
323.538	248888
323.626	452167
323.715	292247
323.804	170913
323.892	425663
323.981	303417
324.069	113054
324.158	242278
324.246	234901
324.335	125172
324.424	161738
324.512	73921
324.601	97593
324.689	171975
324.778	287928
324.866	275782
324.954	94789
325.043	83194
325.131	162029
325.220	279028
325.308	298278
325.397	226565
325.485	146353
325.574	64113
325.662	59776
325.750	64294
325.839	60818
325.927	57119
326.015	87187
326.104	129972
326.192	184272
326.280	64129
326.369	69836
326.457	82617
326.545	125735
326.634	65610
326.722	48705
326.810	51950
326.898	49990
326.987	61435
327.075	131993
327.163	179266
327.251	113826
327.340	143337
327.428	193273
327.516	59508
327.604	56787
327.692	77726
327.781	97235
327.869	183332
327.957	104489
328.045	74587
328.133	47895
328.221	90427
328.309	61790
328.397	53286
328.485	67386
328.574	78451
328.662	185940
328.750	174074
328.838	108570
328.926	60841
329.014	53193
329.102	79195
329.190	206099
329.278	130011
329.366	44943
329.454	58189
329.542	65310
329.630	55812
329.718	55581
329.806	66004
329.893	77185
329.981	81645
330.069	38301
330.157	54909
330.245	96281
330.333	66306
330.421	49327
330.509	82144
330.597	250558
330.684	245479
330.772	143023
330.860	253412
330.948	314595
331.036	130614
331.123	50520
331.211	67557
331.299	114326
331.387	198461
331.475	362993
331.562	144138
331.650	65982
331.738	87771
331.825	149933
331.913	63757
332.001	54853
332.089	95357
332.176	228732
332.264	302772
332.352	276248
332.439	129306
332.527	105120
332.614	84279
332.702	120639
332.790	66959
332.877	148420
332.965	283078
333.052	78718
333.140	81233
333.228	162524
333.315	65354
333.403	76858
333.490	215749
333.578	169491
333.665	106603
333.753	78453
333.840	56352
333.928	77036
334.015	228867
334.103	245365
334.190	529646
334.278	207131
334.365	126881
334.452	76832
334.540	57624
334.627	92833
334.715	134490
334.802	174069
334.889	661014
334.977	546991
335.064	113814
335.151	72144
335.239	92373
335.326	123915
335.413	261896
335.501	341895
335.588	91002
335.675	75380
335.762	112420
335.850	205583
335.937	96289
336.024	184561
336.111	630839
336.199	351786
336.286	94707
336.373	52970
336.460	44228
336.547	50906
336.635	84107
336.722	68929
336.809	74608
336.896	87721
336.983	204514
337.070	436794
337.157	537169
337.245	467967
337.332	319267
337.419	90504
337.506	67404
337.593	84248
337.680	169560
337.767	416747
337.854	181372
337.941	247361
338.028	288373
338.115	123299
338.202	175749
338.289	209983
338.376	441803
338.463	192703
338.550	309908
338.637	294561
338.724	152349
338.811	233088
338.898	74750
338.984	67480
339.071	120555
339.158	83939
339.245	186744
339.332	128345
339.419	174618
339.506	169311
339.593	41693
339.679	42233
339.766	45839
339.853	82187
339.940	109377
340.027	57351
340.113	49767
340.200	70174
340.287	64957
340.374	73696
340.460	104060
340.547	64428
340.634	71637
340.720	185960
340.807	110078
340.894	38695
340.980	54248
341.067	44343
341.154	57043
341.240	65724
341.327	112510
341.414	46125
341.500	51577
341.587	56229
341.674	48887
341.760	87822
341.847	102723
341.933	42314
342.020	26507
342.106	28529
342.193	42811
342.279	74603
342.366	56837
342.452	88901
342.539	56490
342.625	104426
342.712	195789
342.798	100496
342.885	61369
342.971	32493
343.058	30145
343.144	32580
343.230	30166
343.317	31328
343.403	29128
343.490	26811
343.576	32233
343.662	33897
343.749	40895
343.835	54549
343.921	84094
344.008	237520
344.094	447962
344.180	142924
344.267	85435
344.353	190708
344.439	286102
344.525	139085
344.612	57335
344.698	53804
344.784	44134
344.870	32118
344.957	36710
345.043	57701
345.129	47500
345.215	91559
345.301	59935
345.387	47301
345.474	38876
345.560	48391
345.646	82309
345.732	61430
345.818	55138
345.904	47289
345.990	57698
346.076	69612
346.162	156844
346.249	56110
346.335	37951
346.421	34148
346.507	75614
346.593	188466
346.679	84990
346.765	63501
346.851	42291
346.937	45559
347.023	34367
347.108	41693
347.194	38235
347.280	39479
347.366	40198
347.452	76324
347.538	230719
347.624	209362
347.710	245144
347.796	77526
347.882	60697
347.967	53326
348.053	115320
348.139	72430
348.225	41276
348.311	36478
348.397	31151
348.482	43629
348.568	63741
348.654	29973
348.740	25378
348.825	29749
348.911	51149
348.997	137120
349.083	259581
349.168	89660
349.254	40554
349.340	48361
349.425	33183
349.511	56624
349.597	82911
349.682	84737
349.768	161204
349.854	94506
349.939	65091
350.025	40161
350.110	29645
350.196	27386
350.282	27126
350.367	33565
350.453	104014
350.538	105824
350.624	76672
350.709	82448
350.795	43933
350.880	37732
350.966	45121
351.051	92311
351.137	77527
351.222	38452
351.308	69824
351.393	153076
351.479	53655
351.564	30766
351.649	40039
351.735	34815
351.820	24943
351.906	34259
351.991	61904
352.076	119355
352.162	149896
352.247	52394
352.332	43273
352.418	75004
352.503	86634
352.588	254060
352.673	243340
352.759	75306
352.844	44200
352.929	48000
353.014	66972
353.100	49939
353.185	98978
353.270	125239
353.355	109474
353.441	42470
353.526	69224
353.611	106390
353.696	113128
353.781	67244
353.866	38132
353.952	39570
354.037	95780
354.122	201132
354.207	187419
354.292	82642
354.377	39101
354.462	34719
354.547	52375
354.632	61364
354.717	124939
354.802	130692
354.887	49223
354.972	30703
355.057	27109
355.142	26955
355.227	37564
355.312	64422
355.397	134954
355.482	287010
355.567	154689
355.652	125676
355.737	107507
355.822	176428
355.907	142109
355.991	41748
356.076	33110
356.161	33098
356.246	29050
356.331	31584
356.416	64226
356.501	255497
356.585	271179
356.670	76223
356.755	52202
356.840	81458
356.924	285988
357.009	651440
357.094	293778
357.179	118069
357.263	83232
357.348	93270
357.433	115826
357.517	78716
357.602	60246
357.687	46399
357.771	71678
357.856	100261
357.941	73977
358.025	179729
358.110	556813
358.195	314146
358.279	85581
358.364	65169
358.448	180744
358.533	378239
358.617	302244
358.702	273567
358.787	130896
358.871	101046
358.956	84005
359.040	31325
359.125	24381
359.209	27400
359.294	45034
359.378	67016
359.462	78071
359.547	67123
359.631	68611
359.716	37081
359.800	53703
359.885	108169
359.969	54457
360.053	33759
360.138	42877
360.222	55940
360.306	95301
360.391	84870
360.475	98112
360.559	180369
360.644	185608
360.728	151954
360.812	173663
360.896	374405
360.981	298216
361.065	218337
361.149	62806
361.233	70353
361.318	62766
361.402	70753
361.486	52760
361.570	36106
361.654	49091
361.739	109796
361.823	289391
361.907	366642
361.991	106847
362.075	76189
362.159	161485
362.243	116687
362.327	107155
362.411	93742
362.495	91997
362.580	60208
362.664	40719
362.748	33923
362.832	34053
362.916	43864
363.000	102570
363.084	291699
363.168	431710
363.252	160743
363.336	98902
363.420	131646
363.503	377629
363.587	407550
363.671	105364
363.755	93091
363.839	117280
363.923	50966
364.007	97336
364.091	131468
364.175	182829
364.258	492455
364.342	306881
364.426	186963
364.510	139600
364.594	143890
364.677	141728
364.761	318883
364.845	232264
364.929	143236
365.013	129415
365.096	101569
365.180	124426
365.264	170504
365.347	517125
365.431	315914
365.515	134991
365.598	54544
365.682	46519
365.766	124878
365.849	157132
365.933	79766
366.017	119420
366.100	115109
366.184	47918
366.267	48540
366.351	36398
366.435	32097
366.518	26510
366.602	25045
366.685	33099
366.769	44190
366.852	111505
366.936	177151
367.019	80511
367.103	90189
367.186	173325
367.270	51050
367.353	25988
367.436	31143
367.520	31444
367.603	41521
367.687	64365
367.770	109825
367.853	58473
367.937	116315
368.020	172661
368.104	73256
368.187	89284
368.270	116105
368.353	103945
368.437	165743
368.520	392139
368.603	260938
368.687	182777
368.770	262262
368.853	103462
368.936	153178
369.020	183277
369.103	59901
369.186	49088
369.269	53518
369.352	90031
369.436	166783
369.519	100061
369.602	51951
369.685	54185
369.768	68764
369.851	63901
369.934	41077
370.018	70540
370.101	122016
370.184	108232
370.267	102149
370.350	130777
370.433	205203
370.516	220723
370.599	213623
370.682	129895
370.765	236317
370.848	221814
370.931	310939
371.014	211021
371.097	64547
371.180	37879
371.263	24835
371.346	26716
371.429	30052
371.511	42745
371.594	85283
371.677	142841
371.760	188368
371.843	95885
371.926	246245
372.009	479430
372.091	212393
372.174	181252
372.257	259071
372.340	126247
372.423	233180
372.505	319955
372.588	119282
372.671	127862
372.754	283026
372.836	152235
372.919	182149
373.002	343429
373.085	126504
373.167	81008
373.250	164525
373.332	264039
373.415	364395
373.498	642186
373.580	322331
373.663	324923
373.746	401362
373.828	162133
373.911	119806
373.993	119104
374.076	345645
374.159	372645
374.241	162124
374.324	286151
374.406	197359
374.489	206497
374.571	482743
374.654	229388
374.736	154847
374.819	373338
374.901	487203
374.983	458848
375.066	120904
375.148	77814
375.231	269171
375.313	506946
375.395	259808
375.478	69289
375.560	44936
375.643	60659
375.725	162259
375.807	445315
375.890	478650
375.972	354636
376.054	206742
376.136	347123
376.219	148478
376.301	144062
376.383	327914
376.465	147978
376.548	142944
376.630	146066
376.712	287657
376.794	137944
376.877	34262
376.959	33420
377.041	47453
377.123	131659
377.205	155634
377.287	34263
377.369	26352
377.452	33846
377.534	30756
377.616	33604
377.698	32191
377.780	26444
377.862	35215
377.944	35170
378.026	27698
378.108	28849
378.190	31243
378.272	27629
378.354	21104
378.436	28187
378.518	78923
378.600	280359
378.682	183346
378.764	184860
378.846	155805
378.928	125060
379.010	124836
379.091	58467
379.173	33887
379.255	34125
379.337	51603
379.419	109307
379.501	245059
379.583	143955
379.664	65103
379.746	111786
379.828	228604
379.910	246849
379.991	192201
380.073	62976
380.155	65751
380.237	41739
380.318	31660
380.400	35864
380.482	79219
380.564	126766
380.645	135240
380.727	125635
380.809	68038
380.890	53265
380.972	45107
381.053	39814
381.135	51650
381.217	85539
381.298	218546
381.380	139433
381.461	132062
381.543	316532
381.624	353769
381.706	116065
381.787	121017
381.869	105457
381.951	164058
382.032	480997
382.113	363328
382.195	178386
382.276	113470
382.358	162873
382.439	293922
382.521	301691
382.602	434162
382.684	260220
382.765	478132
382.846	524909
382.928	557475
383.009	320819
383.090	255076
383.172	681746
383.253	897747
383.334	489669
383.416	494486
383.497	248502
383.578	158949
383.659	297621
383.741	653863
383.822	1160123
383.903	664031
383.984	349923
384.066	516949
384.147	340862
384.228	115680
384.309	105968
384.390	77863
384.471	66489
384.553	86313
384.634	141468
384.715	118657
384.796	63062
384.877	62099
384.958	160392
385.039	206202
385.120	104088
385.201	72394
385.282	167242
385.363	209842
385.444	117516
385.525	111483
385.606	245445
385.687	196980
385.768	159207
385.849	204360
385.930	299748
386.011	403155
386.092	161376
386.173	80747
386.254	102966
386.335	101955
386.416	87410
386.496	166340
386.577	268964
386.658	235515
386.739	173324
386.820	208182
386.901	192494
386.981	130332
387.062	64207
387.143	72516
387.224	200557
387.304	244193
387.385	161690
387.466	164960
387.547	214045
387.627	100885
387.708	101061
387.789	300404
387.869	334825
387.950	116359
388.031	60924
388.111	126171
388.192	385888
388.273	563348
388.353	279454
388.434	96677
388.514	98805
388.595	252652
388.676	326280
388.756	206522
388.837	227022
388.917	145500
388.998	66950
389.078	52550
389.159	41065
389.239	42991
389.320	68333
389.400	80753
389.480	155760
389.561	254689
389.641	108357
389.722	75020
389.802	128839
389.883	133940
389.963	226098
390.043	256044
390.124	173650
390.204	106211
390.284	227068
390.365	161540
390.445	248114
390.525	330077
390.605	201869
390.686	116204
390.766	53707
390.846	33854
390.927	32608
391.007	46371
391.087	72508
391.167	78248
391.247	60246
391.328	132402
391.408	195851
391.488	130278
391.568	42901
391.648	55953
391.728	67049
391.808	65691
391.888	72161
391.969	116533
392.049	175269
392.129	150176
392.209	127576
392.289	181613
392.369	131572
392.449	219484
392.529	131527
392.609	102009
392.689	94275
392.769	174784
392.849	155001
392.929	172338
393.009	348848
393.089	192288
393.169	120190
393.248	290578
393.328	843266
393.408	853480
393.488	285612
393.568	107978
393.648	62131
393.728	46468
393.807	41899
393.887	32971
393.967	28314
394.047	38904
394.127	47023
394.206	53190
394.286	116193
394.366	417129
394.446	437998
394.525	117185
394.605	46575
394.685	79481
394.764	259129
394.844	396513
394.924	247211
395.003	76708
395.083	48701
395.163	41684
395.242	40567
395.322	40652
395.402	27944
395.481	40132
395.561	148820
395.640	391530
395.720	270417
395.799	377781
395.879	279129
395.958	83906
396.038	154700
396.117	543828
396.197	604775
396.276	320188
396.356	195541
396.435	205883
396.515	99605
396.594	90416
396.673	130233
396.753	307739
396.832	785053
396.912	662591
396.991	226704
397.070	75675
397.150	53763
397.229	35259
397.308	37935
397.388	55980
397.467	36424
397.546	26575
397.625	29814
397.705	42755
397.784	52318
397.863	30079
397.942	23298
398.022	34750
398.101	143146
398.180	393202
398.259	273878
398.338	86331
398.417	65353
398.497	63448
398.576	65304
398.655	37806
398.734	27356
398.813	33832
398.892	127433
398.971	387859
399.050	210067
399.129	43305
399.208	27414
399.287	33448
399.366	31253
399.445	39067
399.524	38674
399.603	34413
399.682	64682
399.761	153702
399.840	404238
399.919	325766
399.998	84749
400.077	32911
400.156	31612
400.235	58610
400.313	61248
400.392	76099
400.471	134259
400.550	192480
400.629	86328
400.708	62801
400.786	85514
400.865	188654
400.944	210192
401.023	89629
401.102	24787
401.180	29229
401.259	53061
401.338	86412
401.416	82496
401.495	80894
401.574	83336
401.652	72850
401.731	94122
401.810	98059
401.888	43693
401.967	24281
402.046	34126
402.124	74497
402.203	117200
402.281	54592
402.360	68540
402.438	205660
402.517	173939
402.596	96604
402.674	118352
402.753	66513
402.831	40646
402.910	44579
402.988	133491
403.066	309331
403.145	169670
403.223	112911
403.302	218655
403.380	176422
403.459	187521
403.537	112153
403.615	80710
403.694	25981
403.772	18604
403.850	20032
403.929	19760
404.007	32276
404.085	66450
404.164	79676
404.242	28734
404.320	30030
404.398	60805
404.477	109678
404.555	352299
404.633	297199
404.711	68125
404.789	33943
404.868	40462
404.946	30700
405.024	16895
405.102	16114
405.180	16149
405.258	20678
405.336	24895
405.415	37440
405.493	110504
405.571	89132
405.649	29300
405.727	42012
405.805	75327
405.883	61706
405.961	72033
406.039	117564
406.117	44592
406.195	37044
406.273	111892
406.351	336664
406.429	268002
406.507	138616
406.585	61206
406.663	33559
406.740	46439
406.818	52518
406.896	39910
406.974	30345
407.052	53418
407.130	215251
407.208	268923
407.285	66809
407.363	26533
407.441	31500
407.519	25756
407.596	30570
407.674	54750
407.752	75901
407.830	174999
407.907	140395
407.985	60131
408.063	26952
408.141	27113
408.218	88168
408.296	97463
408.373	46743
408.451	35954
408.529	32690
408.606	17782
408.684	13852
408.762	11839
408.839	10667
408.917	11269
408.994	14633
409.072	17083
409.149	14289
409.227	24746
409.304	28051
409.382	15431
409.459	16319
409.537	25162
409.614	25297
409.692	18175
409.769	20709
409.846	33731
409.924	56745
410.001	46926
410.079	28082
410.156	21269
410.233	19211
410.311	15134
410.388	16194
410.465	28350
410.543	33611
410.620	19778
410.697	24146
410.775	31531
410.852	18212
410.929	32096
411.006	45352
411.083	30737
411.161	72899
411.238	108966
411.315	80786
411.392	26067
411.469	37695
411.547	42731
411.624	26518
411.701	22710
411.778	27257
411.855	61397
411.932	39739
412.009	30047
412.086	27281
412.163	56092
412.240	78017
412.317	93549
412.394	89790
412.471	28215
412.548	21302
412.625	24889
412.702	56607
412.779	108814
412.856	56865
412.933	30621
413.010	21431
413.087	36889
413.164	133043
413.241	169012
413.318	56243
413.395	39994
413.471	64156
413.548	30860
413.625	28933
413.702	69219
413.779	54054
413.855	18020
413.932	18670
414.009	20433
414.086	17264
414.162	18895
414.239	48673
414.316	152846
414.393	235748
414.469	83499
414.546	21276
414.623	19087
414.699	20125
414.776	28185
414.853	24116
414.929	30200
415.006	40264
415.082	78754
415.159	52254
415.236	25234
415.312	23983
415.389	44772
415.465	67312
415.542	36728
415.618	24415
415.695	39832
415.771	35406
415.848	38774
415.924	46056
416.000	52779
416.077	26505
416.153	14873
416.230	9440
416.306	15422
416.383	30424
416.459	22978
416.535	15699
416.612	22066
416.688	19645
416.764	15725
416.841	17634
416.917	28413
416.993	25517
417.069	38825
417.146	51756
417.222	42008
417.298	29599
417.374	25397
417.451	30926
417.527	34710
417.603	35818
417.679	27912
417.755	23169
417.831	15526
417.908	13167
417.984	15784
418.060	21689
418.136	49417
418.212	63187
418.288	29997
418.364	24741
418.440	25593
418.516	45442
418.592	107531
418.668	128744
418.744	121990
418.820	88957
418.896	35004
418.972	17020
419.048	19318
419.124	53232
419.200	47284
419.276	15051
419.352	9903
419.428	11959
419.504	20875
419.579	27471
419.655	20414
419.731	21587
419.807	71895
419.883	125199
419.959	79161
420.034	33492
420.110	53815
420.186	138707
420.262	104689
420.337	47867
420.413	38883
420.489	17022
420.565	14951
420.640	14836
420.716	17522
420.792	12648
420.867	16243
420.943	17543
421.019	38462
421.094	32991
421.170	20563
421.245	13946
421.321	14740
421.397	15476
421.472	14621
421.548	25839
421.623	33769
421.699	23579
421.774	24471
421.850	20360
421.925	39512
422.001	32144
422.076	19731
422.152	24147
422.227	45341
422.302	38563
422.378	46461
422.453	86585
422.529	163050
422.604	394911
422.679	576373
422.755	433104
422.830	176051
422.905	65964
422.981	40720
423.056	29791
423.131	22540
423.207	21339
423.282	31266
423.357	67752
423.432	48861
423.508	49841
423.583	111544
423.658	79645
423.733	46336
423.808	71177
423.883	50660
423.959	36432
424.034	24233
424.109	17308
424.184	14514
424.259	12472
424.334	14225
424.409	13298
424.484	16065
424.559	24471
424.634	19049
424.709	27174
424.784	34931
424.859	30165
424.934	51622
425.009	136260
425.084	186851
425.159	79039
425.234	26087
425.309	12676
425.384	19580
425.459	27465
425.534	27828
425.609	54794
425.683	38201
425.758	21540
425.833	33077
425.908	38465
425.983	87210
426.058	218380
426.132	122246
426.207	63722
426.282	117640
426.357	124625
426.431	32901
426.506	28150
426.581	47443
426.655	37627
426.730	22455
426.805	21469
426.879	25430
426.954	30775
427.029	64812
427.103	173324
427.178	307169
427.253	154510
427.327	52085
427.402	90024
427.476	171546
427.551	69208
427.625	63801
427.700	61827
427.774	41600
427.849	64230
427.923	37453
427.998	30077
428.072	43716
428.147	85176
428.221	155395
428.296	258300
428.370	103368
428.444	60876
428.519	126812
428.593	208892
428.667	169746
428.742	212196
428.816	165849
428.890	267710
428.965	283478
429.039	190703
429.113	268183
429.188	101473
429.262	30312
429.336	45211
429.410	119785
429.485	95539
429.559	174601
429.633	135771
429.707	38665
429.781	84595
429.855	342673
429.930	468400
430.004	417209
430.078	564317
430.152	384969
430.226	235028
430.300	178139
430.374	49006
430.448	48016
430.522	174926
430.596	430103
430.670	232720
430.744	235396
430.818	311369
430.892	94228
430.966	36396
431.040	24111
431.114	21515
431.188	26277
431.262	28952
431.336	33807
431.410	94664
431.484	245639
431.557	128103
431.631	23559
431.705	18542
431.779	45504
431.853	172927
431.927	124751
432.000	27367
432.074	25785
432.148	71549
432.222	69228
432.295	25766
432.369	23455
432.443	48120
432.516	190717
432.590	317606
432.664	156783
432.737	39749
432.811	14730
432.885	10331
432.958	12553
433.032	13925
433.106	11196
433.179	8380
433.253	10288
433.326	10905
433.400	9552
433.473	15240
433.547	13884
433.620	15167
433.694	36571
433.767	45842
433.841	32882
433.914	14197
433.988	11961
434.061	15712
434.134	17042
434.208	11707
434.281	10974
434.355	14646
434.428	18139
434.501	13908
434.575	23279
434.648	31677
434.721	13920
434.795	10855
434.868	9066
434.941	8595
435.014	8271
435.088	10124
435.161	13454
435.234	27165
435.307	38500
435.381	23740
435.454	20608
435.527	17056
435.600	15692
435.673	12602
435.746	10764
435.819	10932
435.892	11113
435.966	13128
436.039	26501
436.112	24714
436.185	10876
436.258	9512
436.331	7371
436.404	8316
436.477	8020
436.550	8643
436.623	8839
436.696	10748
436.769	17742
436.842	20136
436.915	36287
436.987	51764
437.060	21852
437.133	12016
437.206	18555
437.279	22946
437.352	12115
437.425	10392
437.498	16160
437.570	37202
437.643	33256
437.716	12393
437.789	11681
437.861	31457
437.934	86822
438.007	38864
438.080	11649
438.152	13648
438.225	29354
438.298	142794
438.370	328364
438.443	164825
438.516	74518
438.588	23372
438.661	13523
438.734	15779
438.806	29486
438.879	28644
438.951	30308
439.024	48211
439.096	21253
439.169	13989
439.241	11901
439.314	21441
439.386	70120
439.459	90753
439.531	110558
439.604	37609
439.676	12743
439.749	10324
439.821	11275
439.893	12247
439.966	20717
440.038	31489
440.110	28017
440.183	16258
440.255	12809
440.327	24859
440.400	121963
440.472	318329
440.544	171698
440.617	42501
440.689	37710
440.761	53019
440.833	79535
440.905	49662
440.978	14828
441.050	11504
441.122	11608
441.194	12343
441.266	15419
441.338	13176
441.411	25221
441.483	109368
441.555	149156
441.627	57298
441.699	83411
441.771	95011
441.843	31683
441.915	13230
441.987	11490
442.059	14248
442.131	35780
442.203	67924
442.275	69756
442.347	45711
442.419	31011
442.491	72590
442.563	158732
442.635	140421
442.706	191743
442.778	131975
442.850	26994
442.922	17682
442.994	40475
443.066	68621
443.137	45495
443.209	27163
443.281	32940
443.353	71845
443.425	159210
443.496	250793
443.568	212638
443.640	103637
443.711	51201
443.783	28782
443.855	26881
443.926	16159
443.998	37598
444.070	63038
444.141	45446
444.213	44612
444.285	50824
444.356	67081
444.428	70810
444.499	27225
444.571	13357
444.642	13655
444.714	19760
444.785	38904
444.857	72902
444.928	204238
445.000	113386
445.071	149499
445.143	161124
445.214	61721
445.285	108187
445.357	307188
445.428	308199
445.500	439994
445.571	372385
445.642	158757
445.714	177554
445.785	244524
445.856	73467
445.928	47735
445.999	42149
446.070	35739
446.141	35483
446.213	51753
446.284	42296
446.355	73063
446.426	43022
446.497	31894
446.569	82867
446.640	92795
446.711	42581
446.782	24197
446.853	60329
446.924	49794
446.995	29987
447.066	41803
447.138	101968
447.209	44480
447.280	13737
447.351	12565
447.422	17815
447.493	49421
447.564	44180
447.635	38810
447.706	19999
447.777	13174
447.847	13440
447.918	21122
447.989	56146
448.060	67190
448.131	148989
448.202	102825
448.273	69520
448.344	36390
448.414	17655
448.485	17037
448.556	15857
448.627	11350
448.698	10353
448.768	12715
448.839	28357
448.910	88335
448.981	64482
449.051	21444
449.122	13542
449.193	11951
449.263	21063
449.334	17762
449.405	20973
449.475	52087
449.546	50397
449.616	96084
449.687	70224
449.758	22997
449.828	19395
449.899	13395
449.969	11687
450.040	15433
450.110	37886
450.181	44539
450.251	17671
450.322	14386
450.392	24852
450.463	20346
450.533	15186
450.604	21001
450.674	22746
450.744	18641
450.815	19790
450.885	16818
450.955	14433
451.026	15868
451.096	26268
451.166	38043
451.237	91588
451.307	207138
451.377	73378
451.447	21123
451.518	17177
451.588	21658
451.658	19968
451.728	44080
451.799	192015
451.869	203272
451.939	55026
452.009	19643
452.079	16039
452.149	21851
452.219	58187
452.289	217425
452.360	142758
452.430	31556
452.500	26749
452.570	29080
452.640	39685
452.710	127928
452.780	196031
452.850	92550
452.920	72708
452.990	31197
453.060	25730
453.129	38858
453.199	58594
453.269	167785
453.339	305969
453.409	444204
453.479	480735
453.549	663560
453.619	714572
453.688	288593
453.758	68865
453.828	34260
453.898	31240
453.968	28293
454.037	21427
454.087	22667
454.107	23165
454.168	17722
454.177	16906
454.247	15116
454.249	15214
454.316	17215
454.330	19974
454.386	30300
454.411	65387
454.456	122991
454.492	146169
454.525	167093
454.574	81277
454.595	44179
454.655	24255
454.665	21279
454.734	31700
454.736	32773
454.804	68944
454.817	93486
454.873	190635
454.898	199620
454.943	213685
454.979	150938
455.013	95340
455.060	53787
455.082	37245
455.141	43920
455.152	43906
455.221	130420
455.222	131905
455.291	223540
455.303	198052
455.360	84062
455.384	74303
455.430	61650
455.465	75792
455.499	84944
455.546	162557
455.569	196161
455.627	120385
455.638	107234
455.707	27690
455.708	27707
455.777	23807
455.789	24492
455.846	27432
455.869	24173
455.916	18165
455.950	22138
455.985	25461
456.031	26844
456.054	27363
456.112	17758
456.124	16182
456.193	16312
456.193	16234
456.262	28201
456.274	31120
456.332	42686
456.355	48323
456.401	56976
456.436	43255
456.470	29840
456.516	18919
456.540	14277
456.597	13441
456.609	13231
456.678	12533
456.678	12493
456.747	12096
456.759	11948
456.817	11228
456.840	11466
456.886	11941
456.920	12462
456.955	13456
457.001	15294
457.024	17262
457.082	27237
457.093	28836
457.162	44276
457.163	44415
457.232	65875
457.243	61220
457.301	34026
457.324	26513
457.370	16307
457.405	15034
457.439	14294
457.485	14462
457.508	14587
457.566	17786
457.577	18185
457.646	17309
457.647	17361
457.715	20713
457.727	21267
457.784	24116
457.808	26660
457.853	30439
457.889	33512
457.922	33283
457.969	27360
457.991	27682
458.050	33016
458.060	33671
458.129	44081
458.130	44395
458.198	44014
458.211	41080
458.267	27533
458.292	22814
458.336	19728
458.372	19845
458.405	22180
458.453	27594
458.474	32001
458.533	48144
458.543	49565
458.611	73814
458.614	74219
458.680	57028
458.694	49230
458.749	29304
458.775	24560
458.818	20355
458.855	19710
458.887	19509
458.936	19907
458.955	20110
459.016	23105
459.024	23411
459.093	23327
459.097	23375
459.162	24971
459.177	25548
459.230	26904
459.257	28388
459.299	29381
459.338	28159
459.368	27993
459.418	31197
459.437	30980
459.499	25406
459.505	25119
459.574	21591
459.579	21568
459.643	20923
459.659	20812
459.711	21427
459.740	22028
459.780	24141
459.820	27233
459.849	28872
459.900	33582
459.917	33920
459.981	34803
459.986	34752
460.054	23662
460.061	23127
460.123	22671
460.141	23079
460.191	26193
460.222	28984
460.260	31360
460.302	35540
460.328	34848
460.382	26824
460.397	25794
460.462	22633
460.465	22532
460.534	23564
460.543	23686
460.602	30212
460.623	32748
460.671	40495
460.703	48125
460.739	48129
460.783	44704
460.808	40629
460.864	26397
460.876	25726
460.944	28225
460.945	28193
461.013	26958
461.024	26251
461.081	25207
461.104	26045
461.150	25927
461.184	24613
461.218	23752
461.264	22664
461.286	23071
461.345	25170
461.355	25339
461.423	27067
461.425	27110
461.491	29767
461.505	30268
461.559	53633
461.585	65819
461.628	108729
461.665	154977
461.696	177463
461.745	239086
461.764	222011
461.825	79148
461.832	73468
461.901	35328
461.905	34769
461.969	33830
461.985	33227
462.037	30829
462.065	29072
462.105	33025
462.145	38976
462.173	59468
462.225	99215
462.241	108666
462.305	168209
462.310	165640
462.378	112630
462.385	101234
462.446	44174
462.465	34061
462.514	30109
462.545	30867
462.582	31120
462.625	31243
462.650	30942
462.705	30731
462.718	32540
462.785	41465
462.786	41926
462.854	70151
462.865	75930
462.922	98341
462.945	108541
462.990	87167
463.025	55118
463.058	42872
463.104	33565
463.126	31837
463.184	31493
463.194	31707
463.262	33462
463.264	33539
463.330	37143
463.344	37785
463.398	42366
463.424	44937
463.466	47757
463.504	50986
463.533	50619
463.583	47593
463.601	49146
463.663	53660
463.669	54943
463.737	72656
463.743	74581
463.805	123019
463.823	136052
463.873	206093
463.903	254653
463.940	282367
463.982	325701
464.008	276650
464.062	121562
464.076	107194
464.142	40860
464.144	40146
464.211	35988
464.221	35853
464.279	37214
464.301	37949
464.347	43763
464.381	48120
464.414	56850
464.461	69203
464.482	72743
464.540	87671
464.550	84061
464.617	46822
464.620	45498
464.685	41421
464.699	41449
464.753	43148
464.779	43973
464.820	45051
464.859	45597
464.888	51821
464.938	63373
464.956	65893
465.018	77736
465.023	75969
465.091	47549
465.098	44278
465.158	39655
465.177	39164
465.226	39836
465.257	40313
465.293	42609
465.336	45157
465.361	48539
465.416	56236
465.428	62621
465.495	97533
465.496	98237
465.563	187432
465.575	203630
465.631	250997
465.654	272082
465.698	175513
465.734	83613
465.765	64227
465.813	39561
465.833	37775
465.893	37143
465.900	37122
465.968	36877
465.972	36811
466.035	36078
466.052	35778
466.102	36183
466.131	36465
466.170	36597
466.210	36484
466.237	36921
466.290	37756
466.304	38334
466.369	40605
466.372	40717
466.439	42148
466.449	42284
466.506	48225
466.528	50423
466.573	74540
466.607	92533
466.641	152675
466.687	236428
466.708	264591
466.766	344560
466.775	319283
466.842	121988
466.845	112402
466.909	65794
466.925	55484
466.977	51029
467.004	48934
467.044	49556
467.083	50129
467.111	51473
467.163	53772
467.178	54244
467.242	55739
467.245	55942
467.312	58202
467.321	58403
467.379	67244
467.400	70261
467.446	82472
467.480	91038
467.559	82593
467.638	56188
467.717	59528
467.796	63784
467.875	69488
467.955	69316
468.034	103565
468.113	273061
468.192	399908
468.271	123588
468.350	56178
468.429	56860
468.508	57906
468.588	56871
468.667	65667
468.746	74506
468.825	71007
468.904	60038
468.983	74135
469.062	146853
469.141	186588
469.220	70802
469.299	59096
469.378	63635
469.456	51077
469.535	51405
469.614	57535
469.693	69124
469.772	105662
469.851	159595
469.930	122437
470.009	52493
470.088	49400
470.166	52086
470.245	64009
470.324	74697
470.403	59844
470.482	51426
470.560	48021
470.639	54615
470.718	62996
470.797	59690
470.875	75385
470.954	131533
471.033	158538
471.111	55911
471.190	45204
471.269	44923
471.347	45435
471.426	55373
471.505	65352
471.583	59282
471.662	48688
471.740	47663
471.819	47236
471.898	47923
471.976	47849
472.055	49203
472.133	62005
472.212	103689
472.290	125573
472.369	74631
472.447	49739
472.526	46863
472.604	46531
472.683	50225
472.761	56205
472.839	51022
472.918	50014
472.996	59131
473.075	76557
473.153	77631
473.231	58276
473.310	72617
473.388	74852
473.466	60559
473.545	55745
473.623	68295
473.701	71971
473.780	52673
473.858	52365
473.936	60480
474.014	52091
474.093	61444
474.171	117353
474.249	181882
474.327	135247
474.405	48216
474.484	45149
474.562	46057
474.640	50062
474.718	57624
474.796	57116
474.874	43211
474.952	40182
475.030	41986
475.108	43644
475.187	45695
475.265	51551
475.343	81143
475.421	97473
475.499	55254
475.577	54919
475.655	80951
475.733	201903
475.811	379431
475.889	356682
475.966	261931
476.044	68746
476.122	83705
476.200	105998
476.278	95244
476.356	68665
476.434	72585
476.512	87754
476.590	111139
476.667	105567
476.745	68652
476.823	67894
476.901	75879
476.979	83376
477.056	74229
477.134	77497
477.212	72869
477.290	68401
477.367	63526
477.445	63840
477.523	65050
477.601	64412
477.678	67618
477.756	94196
477.834	118363
477.911	72690
477.989	64848
478.066	71523
478.144	86927
478.222	92817
478.299	119658
478.377	123893
478.454	63786
478.532	60470
478.609	63604
478.687	65689
478.764	60287
478.842	62313
478.919	70409
478.997	69997
479.074	64255
479.152	89540
479.229	122815
479.307	93193
479.384	55142
479.461	55479
479.539	73015
479.616	90587
479.694	77772
479.771	82135
479.848	92647
479.926	132492
480.003	156657
480.080	65963
480.157	62455
480.235	64459
480.312	64265
480.389	84586
480.467	162863
480.544	215318
480.621	113506
480.698	86259
480.775	104250
480.853	113882
480.930	88304
481.007	85623
481.084	100844
481.161	107661
481.238	104812
481.315	80516
481.392	75375
481.470	78159
481.547	83648
481.624	79497
481.701	78482
481.778	82275
481.855	93775
481.932	144133
482.009	246990
482.086	212214
482.163	83402
482.240	96302
482.317	156706
482.393	147523
482.470	83956
482.547	86361
482.624	77449
482.701	82274
482.778	82778
482.855	65194
482.932	63977
483.009	65941
483.085	69880
483.162	78388
483.239	80034
483.316	67359
483.393	65355
483.469	67716
483.546	88608
483.623	103844
483.699	75495
483.776	75370
483.853	83225
483.930	107841
484.006	276828
484.083	472058
484.160	195804
484.236	101746
484.313	95730
484.389	94333
484.466	85403
484.543	78828
484.619	87045
484.696	91894
484.772	127178
484.849	155434
484.925	102375
485.002	84576
485.078	97349
485.155	105041
485.231	89277
485.308	88338
485.384	96451
485.461	129151
485.537	284299
485.614	391451
485.690	131002
485.766	89880
485.843	89687
485.919	121451
485.995	137516
486.072	85172
486.148	78553
486.224	78485
486.301	91612
486.377	122284
486.453	120382
486.530	94008
486.606	94221
486.682	109703
486.758	216543
486.835	313535
486.911	208039
486.987	352414
487.063	347466
487.139	284455
487.215	208213
487.292	105747
487.368	79905
487.444	92922
487.520	114046
487.596	98058
487.672	98082
487.748	189754
487.824	277838
487.900	150224
487.976	96406
488.052	115822
488.128	138183
488.204	118101
488.280	101053
488.356	114766
488.432	313211
488.508	551927
488.584	209716
488.660	84654
488.736	80055
488.812	84101
488.888	99081
488.964	121430
489.039	255268
489.115	427298
489.191	303053
489.267	105236
489.343	104520
489.418	76897
489.494	68418
489.570	71263
489.646	76098
489.722	77739
489.797	84683
489.873	147298
489.949	403853
490.024	432018
490.100	100540
490.176	77809
490.251	96140
490.327	119282
490.403	87276
490.478	68834
490.554	60749
490.629	62168
490.705	65347
490.781	72400
490.856	83935
490.932	89853
491.007	82660
491.083	81305
491.158	84006
491.234	115748
491.309	318287
491.385	414888
491.460	114820
491.536	106945
491.611	78208
491.686	80178
491.762	98084
491.837	188931
491.913	349632
491.988	489647
492.063	574037
492.139	289913
492.214	211065
492.289	70469
492.365	64479
492.440	79746
492.515	106041
492.590	108325
492.666	80852
492.741	111489
492.816	222219
492.891	144411
492.967	60696
493.042	57691
493.117	56298
493.192	56159
493.267	66864
493.342	103295
493.418	126637
493.493	65976
493.568	57980
493.643	60002
493.718	93150
493.793	180598
493.868	173478
493.943	88333
494.018	68054
494.093	74310
494.168	80096
494.243	55829
494.318	56104
494.393	55557
494.468	56490
494.543	52492
494.618	64587
494.693	66117
494.768	71619
494.842	74382
494.917	55247
494.992	54538
495.067	53414
495.142	50819
495.217	55609
495.292	60822
495.366	74336
495.441	105017
495.516	137810
495.591	151578
495.665	368362
495.740	863049
495.815	523119
495.890	145876
495.964	121612
496.039	113460
496.114	108237
496.188	106631
496.263	109558
496.338	112342
496.412	133009
496.487	157816
496.561	138902
496.636	138830
496.710	114898
496.785	134323
496.860	172437
496.934	128283
497.009	108927
497.083	103385
497.158	106744
497.232	135195
497.307	181081
497.381	136146
497.455	158701
497.530	248343
497.604	161009
497.679	134382
497.753	230769
497.827	321238
497.902	204354
497.976	190130
498.050	366188
498.125	1293641
498.199	1598792
498.273	358260
498.348	190300
498.422	146350
498.496	144077
498.570	144326
498.645	116458
498.719	126499
498.793	161817
498.867	283929
498.941	398774
499.016	603397
499.090	1555070
499.164	857285
499.238	153745
499.312	114950
499.386	127124
499.460	137570
499.534	130306
499.609	150316
499.683	255710
499.757	259528
499.831	307770
499.905	1078247
499.979	1303965
500.053	405321
500.127	399367
500.201	208443
500.275	142790
500.349	133233
500.422	140397
500.496	178964
500.570	298643
500.644	682939
500.718	1318581
500.792	513582
500.866	156370
500.940	212677
501.013	195697
501.087	147150
501.161	207818
501.235	305971
501.309	615264
501.382	1338495
501.456	1325280
501.530	394320
501.603	637593
501.677	369234
501.751	130866
501.825	139819
501.898	224641
501.972	658173
502.046	590842
502.119	162845
502.193	286610
502.266	731013
502.340	524683
502.413	353296
502.487	801149
502.561	655457
502.634	243333
502.708	116513
502.781	107403
502.855	93269
502.928	90316
503.002	92254
503.075	91233
503.149	105901
503.222	104020
503.295	113471
503.369	135176
503.442	168501
503.516	471285
503.589	1335792
503.662	1140709
503.736	357225
503.809	645717
503.882	661610
503.956	602150
504.029	701011
504.102	267970
504.175	235141
504.249	137695
504.322	141137
504.395	161490
504.468	106619
504.542	117107
504.615	91252
504.688	73846
504.761	78188
504.834	101602
504.907	99373
504.980	142463
505.053	112782
505.127	108242
505.200	138213
505.273	189060
505.346	142627
505.419	93835
505.492	83396
505.565	72847
505.638	64789
505.711	76108
505.784	76776
505.857	72446
505.930	77636
506.003	78589
506.076	80523
506.149	118180
506.221	182503
506.294	120295
506.367	231842
506.440	759074
506.513	586764
506.586	187491
506.659	131215
506.731	79505
506.804	93575
506.877	133734
506.950	123990
507.022	77698
507.095	115541
507.168	172732
507.241	84989
507.313	62960
507.386	71778
507.459	87889
507.531	69181
507.604	62175
507.677	66386
507.749	57888
507.822	65163
507.894	91654
507.967	99387
508.040	65821
508.112	59066
508.185	65605
508.257	64664
508.330	86765
508.402	76533
508.475	76495
508.547	90984
508.620	87139
508.692	173518
508.765	121620
508.837	60022
508.909	57661
508.982	59057
509.054	64510
509.127	59778
509.199	54325
509.271	56752
509.344	52799
509.416	52085
509.488	58326
509.560	58878
509.633	55818
509.705	65809
509.777	69486
509.849	87506
509.922	72885
509.994	57539
510.066	55583
510.138	54832
510.210	61192
510.283	65516
510.355	68578
510.427	57528
510.499	65185
510.571	81274
510.643	63304
510.715	85220
510.787	91444
510.859	64875
510.931	92693
511.003	100679
511.076	95286
511.148	63766
511.219	65387
511.291	130680
511.363	222832
511.435	77797
511.507	53076
511.579	53200
511.651	52621
511.723	54894
511.795	55133
511.867	59244
511.939	82278
512.010	235009
512.082	250481
512.154	71859
512.226	64170
512.298	58670
512.369	83068
512.441	76026
512.513	73791
512.585	62750
512.656	65809
512.728	86726
512.800	63076
512.871	53767
512.943	57658
513.015	47265
513.086	51156
513.158	57783
513.230	63454
513.301	91537
513.373	103287
513.444	63138
513.516	51818
513.588	52327
513.659	56075
513.731	70424
513.802	69351
513.874	108298
513.945	223413
514.016	107917
514.088	58399
514.159	59943
514.231	77875
514.302	86566
514.374	65320
514.445	78551
514.516	228308
514.588	243024
514.659	94103
514.730	225208
514.802	184789
514.873	63726
514.944	58016
515.016	60285
515.087	76595
515.158	128343
515.229	257175
515.301	95435
515.372	60564
515.443	53766
515.514	48889
515.585	47031
515.656	47581
515.728	46569
515.799	49132
515.870	50694
515.941	56265
516.012	57549
516.083	56508
516.154	64883
516.225	87910
516.296	85433
516.367	75739
516.438	80484
516.509	99724
516.580	127265
516.651	299543
516.722	1075954
516.793	761748
516.864	200981
516.935	201375
517.006	198024
517.077	234734
517.148	396040
517.219	942509
517.289	1730837
517.360	1057135
517.431	532798
517.502	144742
517.573	125880
517.643	117654
517.714	118459
517.785	120253
517.856	122868
517.926	136416
517.997	145125
518.068	159501
518.138	184837
518.209	227505
518.280	566521
518.350	1972130
518.421	1171195
518.492	234537
518.562	155759
518.633	171231
518.703	146068
518.774	157891
518.845	243140
518.915	270909
518.986	175144
519.056	154953
519.127	222948
519.197	338284
519.268	808874
519.338	753867
519.408	234349
519.479	187907
519.549	156599
519.620	106825
519.690	96600
519.760	95582
519.831	98755
519.901	107006
519.971	86695
520.042	107036
520.112	143045
520.182	131388
520.253	123954
520.323	104006
520.393	100764
520.463	116445
520.534	110448
520.604	179767
520.674	136680
520.744	132144
520.814	179332
520.885	180001
520.955	254338
521.025	916075
521.095	578661
521.165	133638
521.235	126450
521.305	112451
521.375	87221
521.445	91568
521.515	106626
521.585	116975
521.655	129838
521.725	106057
521.795	118761
521.865	103487
521.935	156537
522.005	192787
522.075	98187
522.145	102223
522.215	123672
522.285	204110
522.355	262176
522.424	546121
522.494	579085
522.564	218501
522.634	188077
522.704	472496
522.774	285292
522.843	101088
522.913	93340
522.983	105474
523.053	95232
523.122	95896
523.192	101871
523.262	249537
523.331	342725
523.401	108675
523.471	72633
523.540	80060
523.610	70363
523.680	71160
523.749	79926
523.819	108869
523.888	147102
523.958	83795
524.027	85844
524.097	106891
524.166	91315
524.236	88439
524.305	95380
524.375	85801
524.444	81491
524.514	91468
524.583	98553
524.653	142378
524.722	162546
524.791	116419
524.861	91720
524.930	86508
524.999	84093
525.069	112453
525.138	123499
525.207	167211
525.277	113609
525.346	92448
525.415	89119
525.484	86653
525.554	123000
525.623	132661
525.692	83871
525.761	93489
525.830	86250
525.900	89126
525.969	123089
526.038	152370
526.107	151503
526.176	326369
526.245	340567
526.314	198512
526.383	258291
526.452	293988
526.522	385555
526.591	623935
526.660	379178
526.729	189632
526.797	149057
526.867	231737
526.935	825313
527.004	1161782
527.073	724357
527.142	152914
527.211	98471
527.280	90833
527.349	105426
527.418	74603
527.487	74921
527.555	72814
527.624	68728
527.693	68730
527.762	70518
527.831	71647
527.899	73141
527.968	80361
528.037	79794
528.106	84226
528.174	131583
528.243	156311
528.312	191323
528.380	281197
528.449	121956
528.518	78873
528.586	68203
528.655	66433
528.723	67944
528.792	68454
528.861	83167
528.929	87730
528.998	73493
529.066	65492
529.135	64778
529.203	65337
529.272	66397
529.340	67499
529.409	72020
529.477	73701
529.545	108932
529.614	134515
529.682	121529
529.751	188411
529.819	134150
529.887	122628
529.956	71510
530.024	80820
530.092	66775
530.161	69383
530.229	99842
530.297	81867
530.365	64733
530.434	59700
530.502	60048
530.570	61131
530.638	62407
530.707	64262
530.775	77212
530.843	71363
530.911	68806
530.979	63988
531.047	65498
531.115	72765
531.183	70411
531.252	71269
531.320	76050
531.388	74185
531.456	68492
531.524	66274
531.592	65970
531.660	72751
531.728	70275
531.796	69072
531.864	64765
531.932	70526
532.000	69762
532.067	71796
532.135	72506
532.203	77198
532.271	83732
532.339	105322
532.407	234917
532.475	197158
532.542	98604
532.610	94615
532.678	108874
532.746	259649
532.814	785280
532.881	333660
532.949	94042
533.017	78112
533.084	72766
533.152	73513
533.220	72470
533.287	79686
533.355	68427
533.423	70113
533.490	68947
533.558	68949
533.625	70905
533.693	75056
533.761	75897
533.828	81926
533.896	74762
533.963	101374
534.031	133945
534.098	177570
534.166	129433
534.233	74423
534.300	69104
534.368	72412
534.435	74158
534.503	70284
534.570	66863
534.637	68355
534.705	70171
534.772	73706
534.840	81715
534.907	161957
534.974	254082
535.041	102664
535.109	126257
535.176	93383
535.243	65337
535.310	67175
535.378	68243
535.445	62783
535.512	60024
535.579	65584
535.646	70490
535.714	67954
535.781	70343
535.848	71155
535.915	82110
535.982	78710
536.049	76816
536.116	79307
536.183	75522
536.250	77689
536.317	79475
536.384	85862
536.451	107047
536.518	116177
536.585	99059
536.652	109551
536.719	134972
536.786	127010
536.853	98947
536.920	130610
536.987	212104
537.053	165153
537.120	388052
537.187	472026
537.254	101846
537.321	84133
537.388	79679
537.454	74811
537.521	72590
537.588	69751
537.654	75059
537.721	76917
537.788	78713
537.855	70832
537.921	70813
537.988	75838
538.055	74320
538.121	76782
538.188	77960
538.254	97475
538.321	170435
538.388	137366
538.454	85945
538.521	79422
538.587	70131
538.654	73030
538.720	70752
538.787	71771
538.853	79520
538.920	109757
538.986	124102
539.053	109726
539.119	94513
539.185	86071
539.252	89393
539.318	118901
539.385	103203
539.451	90155
539.517	86509
539.583	95079
539.650	165969
539.716	443637
539.782	196974
539.849	84616
539.915	82133
539.981	83051
540.047	91030
540.114	91719
540.180	92145
540.246	87014
540.312	100245
540.378	173793
540.444	195064
540.510	158714
540.576	421331
540.643	226053
540.709	91530
540.775	82922
540.841	84837
540.907	111976
540.973	185465
541.039	124728
541.105	124429
541.171	89684
541.237	80334
541.303	85677
541.369	87175
541.435	100811
541.500	153187
541.566	129246
541.632	83265
541.698	76760
541.764	76739
541.830	76124
541.896	78997
541.961	80469
542.027	83013
542.093	78829
542.159	79171
542.224	87495
542.290	107649
542.356	153422
542.421	191432
542.487	107655
542.553	91424
542.618	111635
542.684	97177
542.750	86772
542.815	99914
542.881	145509
542.947	382123
543.012	356627
543.078	94109
543.143	83407
543.209	87316
543.274	90403
543.340	90320
543.405	148498
543.471	282860
543.536	108992
543.602	86407
543.667	91310
543.732	80353
543.798	76779
543.863	83200
543.928	75914
543.994	71257
544.059	77185
544.124	71717
544.190	72098
544.255	75200
544.320	75478
544.386	79320
544.451	99311
544.516	113965
544.581	107710
544.646	226812
544.712	434192
544.777	145838
544.842	128180
544.907	160788
544.972	133222
545.037	117586
545.102	130064
545.168	135022
545.233	137526
545.298	136669
545.363	162901
545.428	155791
545.493	184087
545.558	369238
545.623	241811
545.688	142038
545.753	130471
545.818	124939
545.883	127399
545.947	124374
546.012	142320
546.077	170068
546.142	133299
546.207	125759
546.272	141706
546.337	151555
546.401	131238
546.466	125507
546.531	125042
546.596	134093
546.661	130682
546.725	123062
546.790	119737
546.855	122998
546.919	121804
546.984	126624
547.049	143010
547.113	177760
547.178	158903
547.243	155127
547.307	170521
547.372	191130
547.436	246781
547.501	169242
547.565	147397
547.630	160872
547.695	178228
547.759	232275
547.823	235999
547.888	147940
547.952	141609
548.017	144974
548.081	168997
548.146	266045
548.210	263220
548.274	154149
548.339	138598
548.403	133674
548.468	130522
548.532	133007
548.596	137563
548.660	139896
548.725	148897
548.789	182818
548.853	219924
548.917	166420
548.982	234135
549.046	300028
549.110	160404
549.174	140155
549.238	138757
549.303	132189
549.367	134350
549.431	138008
549.495	131753
549.559	137747
549.623	138664
549.687	157405
549.751	202543
549.815	184977
549.879	168009
549.943	157592
550.007	167033
550.071	175893
550.135	185010
550.199	181124
550.263	163184
550.327	175226
550.391	279905
550.455	207215
550.519	165946
550.582	170619
550.646	196251
550.710	223882
550.774	178027
550.838	173392
550.901	183874
550.965	189262
551.029	198652
551.093	220585
551.156	272400
551.220	501556
551.284	683264
551.347	308214
551.411	587744
551.475	895825
551.538	261654
551.602	176176
551.666	167435
551.729	153809
551.793	155225
551.856	157882
551.920	148690
551.983	150105
552.047	153526
552.110	145169
552.174	147348
552.237	149170
552.301	148374
552.364	142548
552.428	149358
552.491	148828
552.554	147310
552.618	152015
552.681	156211
552.745	160375
552.808	190298
552.871	226350
552.934	184548
552.998	161245
553.061	180790
553.124	164096
553.187	147069
553.251	154658
553.314	164091
553.377	150499
553.440	156786
553.503	179792
553.567	219305
553.630	158103
553.693	151285
553.756	160525
553.819	145026
553.882	149399
553.945	146614
554.008	141354
554.071	141141
554.134	141900
554.197	143665
554.260	129836
554.323	142187
554.386	150336
554.449	146924
554.512	141863
554.575	140218
554.638	150053
554.701	146211
554.764	133945
554.827	140258
554.889	134788
554.952	127014
555.015	130030
555.078	131293
555.141	132613
555.203	126133
555.266	128499
555.329	138071
555.391	130471
555.454	128964
555.517	137165
555.580	131865
555.642	120290
555.705	121107
555.768	125834
555.830	127528
555.893	121765
555.955	120512
556.018	125256
556.080	128830
556.143	122350
556.206	125653
556.268	139236
556.330	141973
556.393	133949
556.455	137839
556.518	214152
556.580	268669
556.643	131859
556.705	121106
556.767	120481
556.830	128911
556.892	128693
556.955	169364
557.017	154431
557.079	128524
557.142	120518
557.204	130382
557.266	196667
557.328	213112
557.391	131861
557.453	121075
557.515	121253
557.577	136181
557.639	146705
557.701	118915
557.764	115449
557.826	121045
557.888	134268
557.950	129122
558.012	120665
558.074	129088
558.136	169315
558.198	311786
558.260	210994
558.322	147443
558.384	134941
558.446	143651
558.508	149247
558.570	180125
558.632	225584
558.694	334958
558.756	245640
558.818	420036
558.880	1113420
558.942	523756
559.003	331589
559.065	236966
559.127	139639
559.189	139410
559.251	148056
559.312	155221
559.374	241359
559.436	703740
559.498	520312
559.559	163751
559.621	146533
559.683	159282
559.744	234938
559.806	480089
559.868	690711
559.929	278608
559.991	196744
560.052	209547
560.114	331352
560.176	293278
560.237	225063
560.299	355884
560.360	197674
560.422	163014
560.483	159034
560.545	157563
560.606	155765
560.667	153782
560.729	154138
560.790	149356
560.852	147924
560.913	151080
560.974	146060
561.036	146414
561.097	147664
561.158	145910
561.220	147838
561.281	150110
561.342	149562
561.403	160192
561.465	173061
561.526	269720
561.587	386385
561.648	195878
561.709	155101
561.771	149197
561.832	150829
561.893	148115
561.954	142422
562.015	141088
562.076	142932
562.137	144221
562.198	147069
562.259	141914
562.320	144757
562.381	149146
562.442	175761
562.503	171668
562.564	141911
562.625	139824
562.686	139547
562.747	152150
562.808	148838
562.869	154198
562.930	206128
562.991	204701
563.051	181964
563.112	167406
563.173	157578
563.234	153914
563.294	148220
563.355	146877
563.416	149768
563.477	148481
563.537	157422
563.598	169280
563.659	162199
563.720	161783
563.780	158576
563.841	161665
563.901	157142
563.962	156681
564.023	157048
564.083	158533
564.144	161997
564.204	164367
564.265	164361
564.325	191217
564.386	347401
564.446	398042
564.507	167710
564.567	150944
564.628	147509
564.688	147657
564.749	151913
564.809	174231
564.869	226090
564.930	174102
564.990	140407
565.050	137757
565.111	137145
565.171	136710
565.231	137622
565.292	132233
565.352	131414
565.412	139393
565.472	141919
565.532	143325
565.593	137789
565.653	134034
565.713	135473
565.773	142975
565.833	149954
565.893	174041
565.953	150850
566.013	139089
566.074	149808
566.134	201172
566.194	341282
566.254	377851
566.314	240343
566.374	162723
566.434	151452
566.494	148591
566.554	140736
566.614	139372
566.673	136223
566.733	144097
566.793	151513
566.853	154711
566.913	146741
566.973	149951
567.033	152685
567.092	157796
567.152	151349
567.212	155364
567.272	156400
567.331	172255
567.391	161092
567.451	166624
567.511	230950
567.570	281417
567.630	157510
567.690	140719
567.749	135714
567.809	135098
567.868	138690
567.928	149950
567.988	172099
568.047	155231
568.107	139468
568.166	139800
568.226	142845
568.285	161820
568.345	152999
568.404	144583
568.464	138687
568.523	138449
568.582	139819
568.642	145186
568.701	148361
568.761	163166
568.820	190064
568.879	202197
568.939	249325
568.998	206685
569.057	146300
569.116	139802
569.176	129406
569.235	125862
569.294	125916
569.353	126289
569.413	131473
569.472	143735
569.531	131413
569.590	127132
569.649	124828
569.708	119560
569.767	125212
569.827	145462
569.886	137557
569.945	121303
570.004	125357
570.063	129709
570.122	131711
570.181	144862
570.240	172406
570.299	181835
570.358	149788
570.417	133045
570.475	121080
570.534	122904
570.593	124675
570.652	129627
570.711	136484
570.770	130583
570.829	151381
570.887	130885
570.946	130818
571.005	123741
571.064	119465
571.122	130172
571.181	162290
571.240	145049
571.299	126006
571.357	139556
571.416	155965
571.475	169109
571.533	195418
571.592	137354
571.650	155627
571.709	131907
571.768	119704
571.826	118886
571.885	115397
571.943	115649
572.002	125037
572.060	139196
572.119	114905
572.177	110611
572.236	107304
572.294	105946
572.352	106063
572.411	107366
572.469	106814
572.528	104406
572.586	107659
572.644	118162
572.703	137223
572.761	123899
572.819	117619
572.877	111881
572.936	105245
572.994	108393
573.052	105213
573.110	111149
573.169	108373
573.227	101801
573.285	102252
573.343	102663
573.401	109529
573.459	105876
573.517	105461
573.576	106231
573.634	105889
573.692	113550
573.750	107955
573.808	108595
573.866	119726
573.924	166746
573.982	173870
574.040	123070
574.098	110316
574.155	105474
574.213	97585
574.271	98384
574.329	99241
574.387	96500
574.445	98035
574.503	96350
574.560	91918
574.618	91444
574.676	90655
574.734	92268
574.792	92597
574.849	93570
574.907	87438
574.965	90419
575.022	89899
575.080	89434
575.138	90771
575.195	96727
575.253	99322
575.311	103596
575.368	92303
575.426	91060
575.483	92252
575.541	90578
575.598	92726
575.656	102415
575.713	102436
575.771	93589
575.828	93497
575.886	97539
575.943	102398
576.001	110890
576.058	113368
576.115	117035
576.173	138483
576.230	158256
576.287	149272
576.345	132314
576.402	118071
576.459	117816
576.517	123511
576.574	136193
576.631	145879
576.688	129086
576.746	114155
576.803	112625
576.860	110889
576.917	108301
576.974	108131
577.031	106935
577.089	108821
577.146	114527
577.203	112066
577.260	117003
577.317	128488
577.374	147951
577.431	143412
577.488	119640
577.545	106974
577.602	103145
577.659	105276
577.716	99380
577.773	98692
577.830	99488
577.886	100112
577.943	100729
578.000	100329
578.057	112300
578.114	110868
578.171	101160
578.227	108071
578.284	102268
578.341	106345
578.398	108322
578.454	115978
578.511	135522
578.568	154566
578.625	135747
578.681	109948
578.738	98042
578.794	100092
578.851	96765
578.908	96319
578.964	103004
579.021	101964
579.077	99592
579.134	94835
579.190	92703
579.247	91572
579.303	95020
579.360	90322
579.416	89641
579.473	92574
579.529	88256
579.586	89812
579.642	93125
579.698	94997
579.755	98735
579.811	92837
579.867	91943
579.924	88223
579.980	91526
580.036	94324
580.093	94175
580.149	97350
580.205	101218
580.261	99596
580.317	105325
580.374	113774
580.430	132177
580.486	130389
580.542	110075
580.598	102614
580.619	102282
580.654	101816
580.692	100787
580.710	100434
580.765	98060
580.767	98089
580.823	99413
580.838	98669
580.879	97030
580.911	95620
580.935	94754
580.984	93292
580.991	93201
581.047	95668
581.057	96175
581.103	98930
581.130	101058
581.159	103438
581.203	105570
581.215	106224
581.270	105912
581.276	105811
581.326	105695
581.349	105903
581.382	106431
581.422	105665
581.438	105447
581.494	113383
581.494	113270
581.550	109201
581.567	108588
581.606	107336
581.640	107617
581.661	107891
581.713	104696
581.717	104526
581.773	101235
581.786	102179
581.829	105543
581.859	105641
581.885	105822
581.932	103988
581.940	103699
581.996	106199
582.004	105977
582.052	104849
582.077	103174
582.107	101526
582.150	101455
582.163	101488
582.219	106050
582.223	105968
582.274	106162
582.296	109211
582.330	113518
582.368	114819
582.386	115226
582.441	100892
582.441	100900
582.497	100365
582.514	99707
582.552	98709
582.587	98649
582.608	98648
582.659	99476
582.663	99572
582.719	99583
582.732	99245
582.774	98376
582.805	100494
582.830	101971
582.877	101156
582.885	101036
582.941	97624
582.950	97728
582.996	98610
583.023	99740
583.052	101197
583.095	101047
583.107	101099
583.162	103691
583.168	104112
583.218	106792
583.240	105023
583.273	102189
583.313	98566
583.328	97566
583.384	99144
583.385	99212
583.439	100726
583.458	100179
583.494	98572
583.531	96344
583.549	95552
583.603	97372
583.605	97412
583.660	96401
583.676	96455
583.715	97770
583.748	100794
583.770	102759
583.820	107723
583.825	107993
583.881	103198
583.893	102572
583.936	101147
583.965	101277
583.991	101449
584.038	100965
584.046	101076
584.101	104344
584.110	104446
584.156	102925
584.183	102579
584.211	102143
584.255	97448
584.266	96286
584.321	92871
584.328	93124
584.376	96935
584.400	97325
584.431	96889
584.472	96005
584.486	95583
584.541	95527
584.545	95345
584.596	93951
584.617	96754
584.651	102575
584.689	105509
584.706	105925
584.761	105654
584.762	105653
584.816	104680
584.834	104461
584.871	104780
584.906	105601
584.926	105858
584.978	105101
584.980	105126
585.035	107232
585.051	108731
585.090	112303
585.123	113455
585.145	114258
585.195	116131
585.200	116209
585.254	117183
585.267	116959
585.309	116727
585.340	119521
585.364	121938
585.412	123958
585.419	124163
585.473	123858
585.484	125224
585.528	135610
585.556	144497
585.583	157356
585.628	183956
585.637	193827
585.692	290019
585.700	310952
585.747	397545
585.772	358564
585.801	274082
585.845	165222
585.856	148972
585.910	127746
585.917	126054
585.965	124083
585.989	123282
586.019	122068
586.061	123048
586.074	123796
586.128	125040
586.133	125678
586.183	136214
586.205	139586
586.237	143073
586.277	146718
586.292	146942
586.346	145377
586.349	145225
586.401	143743
586.421	145234
586.455	156714
586.493	173023
586.509	193759
586.564	276843
586.565	280013
586.618	468562
586.637	494869
586.672	391580
586.709	234580
586.727	188953
586.781	140956
586.781	140935
586.835	134275
586.853	132254
586.889	129123
586.925	126714
586.944	126310
586.996	127527
586.998	127637
587.052	132897
587.068	133346
587.106	132598
587.140	131923
587.161	132323
587.212	133793
587.215	133954
587.269	138746
587.284	139464
587.323	139410
587.356	138400
587.377	137677
587.427	137103
587.431	137176
587.485	136736
587.499	137113
587.539	139853
587.571	141896
587.593	143326
587.643	145930
587.648	146413
587.702	151215
587.715	152792
587.755	157837
587.786	160674
587.810	158395
587.858	149261
587.864	149554
587.917	157868
587.930	160038
587.971	174519
588.001	186353
588.025	184704
588.073	168024
588.079	166308
588.133	157188
588.145	155457
588.187	158307
588.217	161494
588.241	164985
588.288	172064
588.295	173102
588.348	181819
588.360	184093
588.402	193410
588.431	199908
588.456	206736
588.503	221815
588.510	223908
588.564	242403
588.575	247010
588.617	269305
588.646	286328
588.671	307335
588.718	355036
588.725	367112
588.778	479547
588.789	509644
588.832	721604
588.861	894174
588.886	1112014
588.932	1582571
588.939	1614766
588.993	1698786
589.004	1688498
589.047	1268939
589.075	943691
589.100	745043
589.147	459742
589.154	441181
589.207	355634
589.218	342247
589.261	326738
589.290	323218
589.314	331995
589.361	358634
589.368	369591
589.421	480373
589.433	511530
589.475	771301
589.504	990263
589.528	1180408
589.576	1521473
589.582	1493446
589.635	1044033
589.647	935485
589.689	578719
589.718	380369
589.742	337499
589.790	286350
589.795	291002
589.849	346994
589.861	365009
589.902	426352
589.932	454583
589.955	384708
590.004	219896
590.009	215533
590.062	190933
590.075	184918
590.115	178029
590.146	173597
590.168	174550
590.218	176380
590.222	177254
590.275	187997
590.289	190930
590.328	191771
590.360	189734
590.381	184430
590.431	172106
590.435	172297
590.488	174653
590.503	175262
590.541	176638
590.574	177006
590.594	175836
590.645	172256
590.647	172241
590.700	167993
590.716	166406
590.753	164257
590.787	162372
590.806	162469
590.859	162505
590.859	162604
590.912	159830
590.930	158826
590.965	160463
591.001	162187
591.018	162528
591.071	162948
591.072	162806
591.124	164003
591.143	164101
591.177	167037
591.214	170357
591.230	171810
591.283	175707
591.285	175695
591.336	183847
591.356	186744
591.389	183597
591.427	178483
591.442	176972
591.495	171361
591.498	170784
591.547	168549
591.569	167225
591.600	168023
591.640	168851
591.653	170478
591.706	176799
591.711	177316
591.759	206032
591.782	220698
591.811	236893
591.853	259731
591.864	249302
591.917	191012
591.924	182617
591.969	179688
591.995	177959
592.022	184319
592.066	194336
592.075	203093
592.127	255555
592.137	265130
592.180	310126
592.208	337370
592.233	292606
592.279	204441
592.285	201831
592.338	179341
592.350	174062
592.390	172529
592.421	171110
592.443	172595
592.491	175179
592.495	175341
592.548	174599
592.562	174192
592.600	174101
592.633	173619
592.653	173035
592.704	170031
592.705	171060
592.775	173934
592.846	172640
592.916	179336
592.987	191438
593.058	185413
593.128	172349
593.199	168059
593.270	161991
593.341	163661
593.411	169131
593.482	167781
593.553	163764
593.623	161892
593.694	179293
593.764	213101
593.835	174024
593.906	165114
593.976	174296
594.047	197192
594.117	258932
594.188	267445
594.258	162103
594.329	156246
594.399	158678
594.470	154091
594.540	153203
594.611	153658
594.681	154612
594.751	162086
594.822	166271
594.892	172643
594.963	182479
595.033	182895
595.103	188634
595.174	231228
595.244	402319
595.314	527874
595.384	212185
595.455	180302
595.525	183240
595.595	183249
595.665	186459
595.736	185230
595.806	178580
595.876	176269
595.946	172314
596.016	166311
596.087	174638
596.157	176289
596.227	174338
596.297	186858
596.367	197250
596.437	236400
596.507	371228
596.577	498647
596.647	222772
596.717	181868
596.787	179979
596.857	178337
596.927	178654
596.997	176574
597.067	174699
597.137	182475
597.207	177712
597.277	181445
597.347	182536
597.417	176597
597.487	176507
597.557	186348
597.626	194322
597.696	226500
597.766	322640
597.836	475825
597.906	245132
597.975	178789
598.045	176813
598.115	174678
598.185	174557
598.254	186129
598.324	188091
598.394	187230
598.464	190575
598.533	180456
598.603	168411
598.672	177104
598.742	175461
598.812	177079
598.881	173716
598.951	167374
599.020	162839
599.090	161721
599.159	163272
599.229	160718
599.299	154923
599.368	164518
599.437	157131
599.507	173414
599.576	186861
599.646	166173
599.715	165221
599.785	178995
599.854	216958
599.924	259844
599.993	214877
600.062	174670
600.132	167094
600.201	180192
600.270	186580
600.340	173839
600.409	161237
600.478	165992
600.547	165433
600.617	173434
600.686	166729
600.755	163734
600.824	167373
600.894	165039
600.963	152552
601.032	149422
601.101	152332
601.170	154287
601.239	164740
601.308	176633
601.378	162944
601.447	154918
601.516	147791
601.585	155755
601.654	177065
601.723	164392
601.792	160091
601.861	157800
601.930	159722
601.999	166759
602.068	152867
602.137	175104
602.206	169404
602.275	155714
602.343	178258
602.412	176251
602.481	148391
602.550	144502
602.619	142714
602.688	150806
602.756	147719
602.825	139976
602.894	141748
602.963	149047
603.032	147251
603.100	143022
603.169	143170
603.238	145724
603.307	142145
603.375	134592
603.444	140011
603.513	142075
603.581	137976
603.650	138393
603.719	137634
603.787	140720
603.856	142739
603.924	149200
603.993	148822
604.061	141395
604.130	144952
604.198	146832
604.267	144572
604.335	141243
604.404	140469
604.472	142849
604.541	143754
604.609	141815
604.678	138682
604.746	139870
604.815	144206
604.883	147239
604.951	144550
605.020	139907
605.088	148069
605.156	152909
605.225	146286
605.293	147495
605.361	151219
605.429	145907
605.498	150501
605.566	158231
605.634	155431
605.702	158831
605.771	158596
605.839	157526
605.907	154148
605.975	149986
606.043	151142
606.111	148485
606.180	148980
606.248	151657
606.316	158788
606.384	183768
606.452	236613
606.520	213076
606.588	162885
606.656	146272
606.724	147500
606.792	139871
606.860	136369
606.928	129192
606.996	129391
607.064	125409
607.132	128007
607.200	134017
607.267	134642
607.335	130614
607.403	131836
607.471	135493
607.539	132039
607.607	129932
607.674	128989
607.742	140296
607.810	144404
607.878	130323
607.946	126269
608.013	131073
608.081	138574
608.149	136248
608.216	131925
608.284	135405
608.352	138810
608.419	174477
608.487	288933
608.555	185673
608.622	125736
608.690	128025
608.757	136222
608.825	141410
608.893	148878
608.960	184554
609.028	244032
609.095	337191
609.163	178837
609.230	158148
609.298	147297
609.365	121895
609.432	124054
609.500	133084
609.567	142102
609.635	152520
609.702	156349
609.769	167884
609.837	207011
609.904	158923
609.971	129535
610.039	135940
610.106	165640
610.173	258487
610.241	487564
610.308	323311
610.375	170470
610.442	133311
610.509	120455
610.577	120726
610.644	124002
610.711	123633
610.778	124805
610.845	125105
610.912	130015
610.980	129960
611.047	135828
611.114	141007
611.181	130180
611.248	126771
611.315	131286
611.382	131477
611.449	129016
611.516	132914
611.583	136396
611.650	141897
611.717	142563
611.784	145428
611.851	151576
611.918	173534
611.984	185911
612.051	255035
612.118	434440
612.185	921801
612.252	582328
612.319	187584
612.386	158063
612.452	162306
612.519	200498
612.586	337413
612.653	212411
612.719	144876
612.786	139706
612.853	132404
612.919	129890
612.986	128087
613.053	124660
613.120	120616
613.186	119212
613.253	124155
613.319	120816
613.386	122020
613.453	130260
613.519	146048
613.586	171775
613.652	227499
613.719	190940
613.785	175327
613.852	133949
613.918	120633
613.985	120343
614.051	122053
614.118	135418
614.184	132493
614.250	115340
614.317	118254
614.383	115777
614.449	116938
614.516	123511
614.582	145971
614.648	128810
614.715	118492
614.781	122013
614.847	137851
614.914	149836
614.980	146971
615.046	123588
615.112	119296
615.179	117433
615.245	121815
615.311	123923
615.377	126978
615.443	132509
615.509	136609
615.575	138422
615.642	139401
615.708	149552
615.774	160611
615.840	177881
615.906	197533
615.972	213228
616.038	290247
616.104	532765
616.170	1159036
616.236	970291
616.302	292418
616.368	228049
616.434	193955
616.500	187746
616.565	194329
616.631	213049
616.697	190648
616.763	194018
616.829	247240
616.895	364173
616.961	350651
617.026	212575
617.092	168715
617.158	161534
617.224	159784
617.289	159667
617.355	168766
617.421	180324
617.487	174777
617.552	159517
617.618	151505
617.684	152419
617.749	153340
617.815	147476
617.880	145285
617.946	147757
618.012	148687
618.077	147343
618.143	145273
618.208	148634
618.274	155986
618.339	163270
618.405	155636
618.470	159208
618.536	176589
618.601	212124
618.667	185876
618.732	166941
618.798	164271
618.863	160693
618.928	163685
618.994	176186
619.059	192130
619.124	238641
619.190	191648
619.255	171426
619.320	177531
619.386	167976
619.451	157300
619.516	157177
619.581	160689
619.647	162054
619.712	160428
619.777	160634
619.842	163915
619.907	167899
619.972	166054
620.038	167901
620.103	159995
620.168	153547
620.233	153046
620.298	155606
620.363	153577
620.428	156690
620.493	161330
620.558	154023
620.623	151277
620.688	152493
620.753	148141
620.818	150259
620.883	155563
620.948	153503
621.013	157384
621.078	164493
621.143	178136
621.207	187174
621.272	188046
621.337	198556
621.402	237341
621.467	340801
621.532	359563
621.596	241998
621.661	206564
621.726	192200
621.791	196099
621.855	206563
621.920	228827
621.985	274109
622.049	330556
622.114	301352
622.179	234143
622.243	236463
622.308	221673
622.373	218325
622.437	218650
622.502	206779
622.566	209130
622.631	214065
622.695	206580
622.760	211059
622.824	200784
622.889	207074
622.953	223274
623.018	285720
623.082	272324
623.147	208514
623.211	198360
623.276	205356
623.340	192592
623.404	185787
623.469	187950
623.533	185240
623.597	186343
623.662	185392
623.726	185818
623.790	179795
623.854	186940
623.919	184681
623.983	184014
624.047	188796
624.111	179784
624.176	185972
624.240	206564
624.304	213631
624.368	184130
624.432	182879
624.496	188387
624.560	191813
624.625	212301
624.689	181129
624.753	174225
624.817	174750
624.881	173913
624.945	168097
625.009	172491
625.073	171717
625.137	194019
625.201	214927
625.265	209623
625.329	175782
625.393	191354
625.456	185613
625.520	200136
625.584	229881
625.648	298737
625.712	511224
625.776	1219389
625.839	1294808
625.903	472433
625.967	271374
626.031	487675
626.095	783065
626.158	252591
626.222	164862
626.286	153579
626.349	156711
626.413	153056
626.477	165397
626.540	152369
626.604	155919
626.668	149989
626.731	148882
626.795	170400
626.858	167859
626.922	153725
626.986	145976
627.049	144257
627.113	143733
627.176	138059
627.240	139972
627.303	142840
627.366	147106
627.430	143012
627.493	146563
627.557	159240
627.620	147552
627.684	147433
627.747	147441
627.810	145153
627.874	141205
627.937	139275
628.000	146168
628.064	144983
628.127	132622
628.190	137470
628.253	139513
628.317	135582
628.380	134781
628.443	137245
628.506	138141
628.569	129066
628.632	127666
628.696	127270
628.759	127414
628.822	122203
628.885	121092
628.948	123595
629.011	127225
629.074	127623
629.137	120436
629.200	127620
629.263	138373
629.326	120247
629.389	120022
629.452	126907
629.515	136532
629.578	130339
629.641	137369
629.704	132557
629.767	129864
629.830	114859
629.892	118666
629.955	118746
630.018	124712
630.081	131122
630.144	152439
630.207	131044
630.269	143349
630.332	181380
630.395	140897
630.458	109004
630.520	113162
630.583	107472
630.646	106497
630.708	108030
630.771	110543
630.834	108777
630.896	103950
630.959	103626
631.021	108819
631.084	118506
631.146	142954
631.209	175343
631.272	113942
631.334	102621
631.397	102848
631.459	99561
631.522	103876
631.584	106927
631.646	106488
631.709	114744
631.771	151392
631.834	117326
631.896	100547
631.958	90766
632.021	96662
632.083	99249
632.145	104460
632.208	100317
632.270	100579
632.332	94368
632.395	96999
632.457	105369
632.519	100665
632.581	93395
632.643	93449
632.706	96086
632.768	92522
632.830	92368
632.892	88290
632.954	95026
633.016	98174
633.078	89547
633.141	88302
633.203	92651
633.265	94902
633.327	88729
633.389	92215
633.451	106577
633.513	127305
633.575	144342
633.637	122199
633.698	105307
633.760	93657
633.822	88959
633.884	89194
633.946	89649
634.008	88339
634.070	84812
634.132	86272
634.193	89026
634.255	88445
634.317	86149
634.379	89729
634.441	89614
634.502	88069
634.564	81504
634.626	80940
634.687	81650
634.749	83983
634.811	83702
634.873	76419
634.934	79794
634.996	83581
635.057	82657
635.119	82662
635.181	84381
635.242	84138
635.304	80445
635.365	83697
635.427	84363
635.488	83606
635.550	82098
635.611	81436
635.673	83106
635.734	91476
635.796	87732
635.857	93579
635.918	84952
635.980	88615
636.041	88776
636.102	89678
636.164	85027
636.225	83202
636.286	85702
636.348	84530
636.409	81537
636.470	80151
636.531	89803
636.593	123158
636.654	103202
636.715	73409
636.776	72022
636.838	72372
636.899	80346
636.960	77264
637.021	73843
637.082	74279
637.143	77699
637.204	70206
637.265	69713
637.326	68652
637.387	69176
637.448	67233
637.509	69339
637.570	69957
637.631	67457
637.692	66972
637.753	63922
637.814	67782
637.875	66678
637.936	69408
637.997	71050
638.058	76779
638.119	85419
638.179	74229
638.240	73094
638.301	70991
638.362	70098
638.423	75620
638.483	71130
638.544	66320
638.605	66297
638.666	63856
638.726	68643
638.787	66081
638.848	65086
638.908	64700
638.969	64157
639.030	68466
639.090	62862
639.151	66792
639.211	70811
639.272	85105
639.332	127029
639.393	79908
639.453	68170
639.514	68638
639.574	63354
639.635	60743
639.695	63798
639.756	63885
639.816	65772
639.877	77573
639.937	115914
639.997	141961
640.058	72778
640.118	61329
640.178	59389
640.239	57850
640.299	58843
640.359	57611
640.420	57617
640.480	59366
640.540	57980
640.600	59012
640.661	61694
640.721	64904
640.781	74028
640.841	60692
640.901	62595
640.961	63532
641.021	66323
641.082	70896
641.142	97764
641.202	70188
641.262	57272
641.322	59146
641.382	57926
641.442	60922
641.502	61927
641.562	58995
641.622	58137
641.682	60779
641.742	59540
641.802	63332
641.861	71654
641.921	72316
641.981	71869
642.041	72583
642.101	86115
642.161	64003
642.221	57588
642.280	55923
642.340	56208
642.400	55322
642.460	56255
642.519	59034
642.579	56705
642.639	58959
642.698	55161
642.758	56471
642.818	56450
642.877	58128
642.937	60598
642.997	66997
643.056	89444
643.116	62802
643.175	58194
643.235	53639
643.294	55442
643.354	56196
643.414	57486
643.473	60897
643.532	63870
643.592	68689
643.651	84164
643.711	113377
643.770	182715
643.830	374401
643.889	726596
643.948	199249
644.008	70328
644.067	60497
644.126	54588
644.186	53866
644.245	50616
644.304	47900
644.363	53203
644.423	48271
644.482	52484
644.541	51084
644.600	49349
644.659	56781
644.719	59914
644.778	72740
644.837	82307
644.896	118150
644.955	209440
645.014	98300
645.073	59113
645.132	60242
645.191	58228
645.250	51873
645.309	55122
645.368	54878
645.427	55346
645.486	61871
645.545	75034
645.604	51927
645.663	51138
645.722	51598
645.781	51929
645.840	52594
645.898	56129
645.957	65122
646.016	73545
646.075	102116
646.134	163237
646.192	374785
646.251	522441
646.310	108568
646.369	57768
646.427	52193
646.486	51395
646.545	48707
646.603	49503
646.662	46955
646.721	48200
646.779	45394
646.838	46831
646.896	50320
646.955	52164
647.014	60877
647.072	76697
647.131	139679
647.189	83808
647.248	47224
647.306	44872
647.365	45786
647.423	42872
647.481	44555
647.540	42866
647.598	44730
647.657	41372
647.715	43953
647.773	44626
647.832	46318
647.890	48703
647.948	47825
648.007	48846
648.065	44544
648.123	44985
648.181	48025
648.240	46321
648.298	44209
648.356	48110
648.414	49808
648.472	49810
648.531	49316
648.589	47676
648.647	45879
648.705	47785
648.763	48356
648.821	47355
648.879	46473
648.937	49474
648.995	50954
649.053	53003
649.111	61639
649.169	72985
649.227	92444
649.285	146135
649.343	341960
649.401	201291
649.459	147884
649.516	97480
649.574	56043
649.632	62250
649.690	64606
649.748	68730
649.806	60611
649.863	67091
649.921	110146
649.979	82406
650.037	45009
650.094	44579
650.152	45055
650.210	42435
650.268	43936
650.325	43575
650.383	40846
650.440	41260
650.498	45578
650.556	44797
650.613	41148
650.671	43104
650.728	48048
650.786	59307
650.843	46195
650.901	40583
650.958	39999
651.016	40714
651.073	40648
651.131	41992
651.188	44835
651.246	46588
651.303	41921
651.360	41190
651.418	41084
651.475	42895
651.532	37266
651.590	38881
651.647	40020
651.704	42005
651.762	41626
651.819	42952
651.876	40789
651.933	40937
651.990	41172
652.048	38816
652.105	42280
652.162	40892
652.219	38065
652.276	38448
652.333	38066
652.390	36258
652.448	38560
652.505	39051
652.562	37392
652.619	37604
652.676	39697
652.733	37643
652.790	35307
652.847	33594
652.904	35522
652.961	36470
653.017	35988
653.074	36491
653.131	38529
653.188	34850
653.245	35487
653.302	36568
653.359	35426
653.415	36829
653.472	37248
653.529	37093
653.586	36679
653.642	36648
653.699	34215
653.756	35600
653.813	35383
653.869	34027
653.926	33305
653.983	34776
654.039	35414
654.096	36296
654.152	40000
654.209	39994
654.266	44413
654.322	46264
654.379	50700
654.435	56233
654.492	61805
654.548	85108
654.605	136729
654.661	62183
654.717	45271
654.774	49290
654.830	47365
654.887	45483
654.943	45467
655.000	43466
655.056	42716
655.112	47849
655.168	47612
655.225	51302
655.281	61970
655.337	91736
655.394	168261
655.450	110361
655.506	95758
655.562	169827
655.618	118457
655.675	48467
655.731	45180
655.787	41861
655.843	43437
655.899	41123
655.955	41414
656.011	41906
656.067	38057
656.123	41285
656.179	42934
656.235	43572
656.291	40842
656.347	46253
656.403	48073
656.459	52483
656.515	61450
656.571	62791
656.627	50444
656.683	46800
656.739	42639
656.795	39501
656.850	43649
656.906	48766
656.962	42252
657.018	38237
657.074	40117
657.129	42912
657.185	42790
657.241	47616
657.297	42423
657.352	41300
657.408	39957
657.464	51046
657.519	48720
657.575	37676
657.630	38700
657.686	37800
657.742	39062
657.797	39681
657.853	40166
657.908	41865
657.964	36923
658.019	38762
658.075	41774
658.130	40780
658.186	36186
658.241	36975
658.297	38408
658.352	39669
658.407	38430
658.463	38922
658.518	40680
658.573	39175
658.629	35300
658.684	35660
658.739	35079
658.795	32874
658.850	36189
658.905	36605
658.960	37087
659.016	34848
659.071	38003
659.126	40492
659.181	42433
659.236	57959
659.291	59982
659.346	46370
659.401	45599
659.457	38974
659.512	38497
659.567	40464
659.622	38812
659.677	40455
659.732	42380
659.787	45770
659.842	60115
659.897	80269
659.952	45019
660.007	38951
660.061	41082
660.116	42167
660.171	38722
660.226	37908
660.281	37263
660.336	36462
660.391	36076
660.445	37643
660.500	38897
660.555	40464
660.610	38529
660.664	38425
660.719	37518
660.774	38568
660.828	38653
660.883	38917
660.938	40493
660.992	39533
661.047	38809
661.101	37620
661.156	38014
661.211	37497
661.265	36828
661.320	38905
661.374	37804
661.429	37557
661.483	38833
661.538	39205
661.592	39073
661.647	38039
661.701	38314
661.755	39387
661.810	40259
661.864	39767
661.919	38973
661.973	40084
662.027	39393
662.081	38074
662.136	40948
662.190	45145
662.244	48037
662.299	43146
662.353	39302
662.407	39833
662.461	43307
662.515	43610
662.569	44396
662.624	44774
662.678	44491
662.732	43552
662.786	44603
662.840	47167
662.894	44132
662.948	40321
663.002	37885
663.056	39828
663.110	38791
663.164	39650
663.218	38663
663.272	39664
663.326	42673
663.380	45895
663.434	46528
663.488	45329
663.542	44744
663.595	43717
663.649	43742
663.703	41737
663.757	41754
663.811	41200
663.864	39344
663.918	41143
663.972	40930
664.026	41243
664.079	40249
664.133	42601
664.187	38849
664.240	37863
664.294	37599
664.348	40818
664.401	40510
664.455	38236
664.508	39202
664.562	40797
664.615	40673
664.669	40407
664.722	39578
664.776	40558
664.829	41096
664.883	41908
664.936	44674
664.990	46493
665.043	48244
665.097	54554
665.150	55613
665.203	49850
665.257	47817
665.310	47654
665.363	48349
665.417	50591
665.470	47715
665.523	47698
665.576	47140
665.630	46224
665.683	46615
665.736	49308
665.789	47454
665.842	47232
665.895	47354
665.949	44534
666.002	43954
666.055	46739
666.108	48687
666.161	46826
666.214	49957
666.267	48347
666.320	52315
666.373	50627
666.426	50630
666.479	52848
666.532	62542
666.585	73419
666.638	79326
666.691	73908
666.744	75372
666.796	76924
666.849	69990
666.902	53655
666.955	49201
667.008	46522
667.060	43241
667.113	41469
667.166	42099
667.219	42742
667.271	44768
667.324	43769
667.377	45119
667.430	42321
667.482	45630
667.535	46283
667.587	49166
667.640	52326
667.693	62028
667.745	72912
667.798	75173
667.850	54687
667.903	49318
667.955	49191
668.008	49419
668.060	59100
668.113	59420
668.165	58641
668.218	58145
668.270	54203
668.322	53388
668.375	52028
668.427	52618
668.479	51249
668.532	53150
668.584	55124
668.636	50118
668.689	52259
668.741	52650
668.793	51579
668.845	50878
668.898	53645
668.950	50702
669.002	52084
669.054	51359
669.106	52623
669.158	53503
669.211	49691
669.263	51174
669.315	53851
669.367	50460
669.419	53426
669.471	52170
669.523	48048
669.575	49872
669.627	52158
669.679	47379
669.731	46963
669.783	48350
669.835	48330
669.886	47605
669.938	50210
669.990	47782
670.042	46968
670.094	47626
670.146	47681
670.197	48251
670.249	51416
670.301	50858
670.353	55027
670.404	59304
670.456	66137
670.508	76170
670.560	93709
670.611	121244
670.663	170201
670.715	332773
670.766	525727
670.818	213742
670.869	69178
670.921	54215
670.972	53286
671.024	51321
671.075	49659
671.127	49787
671.178	47592
671.230	49819
671.281	49466
671.333	51738
671.384	56041
671.436	58496
671.487	61383
671.538	63597
671.590	66692
671.641	77846
671.692	82768
671.744	105128
671.795	89724
671.846	63927
671.897	61114
671.949	62216
672.000	55728
672.051	55449
672.102	57273
672.153	55130
672.204	54311
672.256	54872
672.307	55034
672.358	57125
672.409	57124
672.460	51621
672.511	52351
672.562	55667
672.613	53282
672.664	51937
672.715	52433
672.766	52840
672.817	52038
672.868	50849
672.919	50301
672.970	51274
673.021	53201
673.071	50077
673.122	50798
673.173	50228
673.224	51228
673.275	51491
673.326	49237
673.376	47898
673.427	48771
673.478	50915
673.528	48123
673.579	48456
673.630	50789
673.680	50758
673.731	47542
673.782	45679
673.832	51425
673.883	54077
673.934	49988
673.984	48985
674.035	52010
674.085	51141
674.136	56389
674.186	61577
674.237	80045
674.287	114434
674.338	65246
674.388	52106
674.438	50964
674.489	54125
674.539	58165
674.589	54425
674.640	54606
674.690	52248
674.740	56511
674.791	59760
674.841	56705
674.891	56655
674.942	51336
674.992	50544
675.042	47544
675.092	45131
675.142	49386
675.193	48448
675.243	49255
675.293	49956
675.343	51469
675.393	51022
675.443	50696
675.493	45566
675.543	46549
675.593	51830
675.643	48334
675.693	47378
675.743	49352
675.793	46664
675.843	46487
675.893	48087
675.943	45250
675.993	44723
676.043	48135
676.093	47632
676.142	45692
676.192	46570
676.242	45925
676.292	44841
676.341	52333
676.391	52037
676.441	45786
676.491	45032
676.540	43443
676.590	42846
676.640	45226
676.689	44877
676.739	43133
676.789	40070
676.838	42107
676.888	42005
676.937	43386
676.987	40484
677.037	40235
677.086	40419
677.136	43015
677.185	42271
677.235	38348
677.284	40418
677.333	41130
677.383	40382
677.432	38924
677.482	39743
677.531	43374
677.580	45068
677.630	40643
677.679	37773
677.728	41877
677.778	39107
677.827	38768
677.876	38997
677.925	38757
677.975	40043
678.024	41515
678.073	41762
678.122	46387
678.171	47032
678.220	45412
678.269	49339
678.319	49294
678.368	45482
678.417	46990
678.466	47875
678.515	49431
678.564	49662
678.613	46995
678.662	45337
678.711	45521
678.760	43360
678.809	42804
678.857	44251
678.906	44962
678.955	45225
679.004	45477
679.053	44044
679.102	45135
679.151	47710
679.199	42931
679.248	42516
679.297	46857
679.346	48877
679.394	45915
679.443	43337
679.492	42850
679.540	43048
679.589	46874
679.638	44101
679.686	39287
679.735	39467
679.784	44148
679.832	44866
679.881	40930
679.929	38889
679.978	38163
680.026	41398
680.075	41715
680.123	40851
680.172	39091
680.220	36844
680.268	40868
680.317	39746
680.365	39270
680.414	37931
680.462	40354
680.510	39445
680.559	37772
680.607	36928
680.655	38700
680.703	39698
680.752	40198
680.800	35788
680.848	37372
680.896	35382
680.945	36806
680.993	39196
681.041	38116
681.089	35623
681.137	35447
681.185	35215
681.233	38528
681.258	38804
681.281	38926
681.329	36237
681.377	36465
681.380	36766
681.425	39603
681.473	43071
681.502	43465
681.521	43450
681.569	42138
681.617	40154
681.624	40477
681.665	41391
681.713	41789
681.745	40944
681.761	40342
681.809	40866
681.857	40720
681.867	40987
681.904	41320
681.952	41979
681.989	42306
682.000	42223
682.048	42409
682.096	41857
682.111	41773
682.143	41110
682.191	41825
682.233	42994
682.239	43017
682.286	43301
682.334	42315
682.354	42337
682.382	42129
682.430	44325
682.476	43658
682.477	43513
682.525	42292
682.572	42823
682.598	42414
682.620	41910
682.667	42713
682.715	45995
682.720	46110
682.763	45928
682.810	44277
682.841	44365
682.857	44137
682.905	42929
682.952	43926
682.963	44573
683.000	46503
683.047	46587
683.085	45021
683.095	44390
683.142	44257
683.190	45255
683.206	45054
683.237	44577
683.284	44990
683.328	46547
683.332	46550
683.379	45257
683.426	45088
683.449	45169
683.473	45152
683.521	46399
683.568	46892
683.571	46883
683.615	45049
683.662	45813
683.693	46240
683.709	46433
683.757	45348
683.804	47560
683.814	47843
683.851	48267
683.898	47062
683.936	46602
683.945	46443
683.992	48073
684.039	49654
684.057	49911
684.086	49991
684.133	49766
684.179	50468
684.180	50390
684.227	50841
684.274	49666
684.300	50120
684.321	50388
684.368	49089
684.415	50794
684.422	50651
684.462	48973
684.509	48233
684.543	48714
684.556	48872
684.603	49950
684.649	49060
684.665	49225
684.696	49861
684.743	51291
684.786	54441
684.790	54692
684.837	56133
684.883	60687
684.908	62144
684.930	62633
684.977	63536
685.023	62306
685.029	61953
685.070	57532
685.117	56604
685.150	57741
685.164	58873
685.210	63800
685.257	66888
685.272	66227
685.303	62906
685.350	60619
685.393	62002
685.396	62178
685.443	62712
685.490	65860
685.514	66073
685.536	65583
685.583	64511
685.629	63164
685.636	63080
685.675	62371
685.722	62253
685.757	63342
685.768	63886
685.815	65465
685.861	66327
685.878	66337
685.908	66548
685.954	68939
686.000	73828
686.000	73925
686.047	81652
686.093	96204
686.121	95184
686.139	90291
686.185	77674
686.232	71571
686.242	70534
686.278	68967
686.324	65668
686.363	61495
686.370	61142
686.416	61516
686.463	64612
686.484	64631
686.509	64453
686.555	62458
686.601	62752
686.606	62884
686.647	63902
686.693	64390
686.727	63658
686.739	63419
686.785	64156
686.831	63773
686.848	63899
686.877	63562
686.923	61436
686.969	60773
686.969	60771
687.015	63741
687.061	65405
687.090	65686
687.107	65368
687.153	65525
687.199	64209
687.211	63891
687.245	64341
687.291	67669
687.332	72087
687.336	72409
687.382	73130
687.428	71183
687.453	69467
687.474	66716
687.520	65207
687.565	62225
687.574	61604
687.611	61724
687.657	61446
687.695	62499
687.702	62747
687.748	64271
687.794	65189
687.816	65308
687.839	64495
687.885	62097
687.931	60985
687.937	60871
687.976	62547
688.022	64396
688.058	66459
688.067	66717
688.113	66492
688.158	65453
688.179	65331
688.204	65572
688.249	66614
688.295	67820
688.300	68096
688.340	71165
688.386	72899
688.421	73084
688.431	72487
688.477	69868
688.522	68738
688.542	67833
688.567	67588
688.613	68046
688.658	66587
688.663	66627
688.703	68113
688.749	69840
688.784	70824
688.794	70860
688.839	69117
688.884	69056
688.905	68253
688.930	67562
688.975	67221
689.020	68443
689.026	68420
689.065	69431
689.110	69378
689.146	70134
689.155	69876
689.201	66438
689.246	64901
689.267	64169
689.291	65208
689.336	67183
689.381	69527
689.388	69674
689.426	68986
689.471	68148
689.509	67118
689.516	67050
689.561	66151
689.606	66692
689.630	66472
689.651	66663
689.696	67186
689.741	67794
689.750	67885
689.785	67996
689.830	66759
689.871	66172
689.875	66135
689.920	65553
689.965	65114
689.992	64340
690.010	64594
690.054	65994
690.099	67761
690.112	67989
690.144	67822
690.189	66530
690.233	66046
690.233	66108
690.278	65723
690.323	64628
690.354	64101
690.367	64440
690.412	65863
690.457	67764
690.474	68126
690.501	67762
690.546	65073
690.590	64538
690.595	64363
690.635	64645
690.680	65003
690.716	65924
690.724	66261
690.769	66966
690.813	67574
690.836	67166
690.857	66757
690.902	67315
690.946	68093
690.957	67998
690.991	69279
691.035	71587
691.077	73878
691.080	74095
691.124	75649
691.168	77930
691.198	79190
691.213	79781
691.257	81955
691.301	82608
691.318	82329
691.346	78590
691.390	73508
691.434	68513
691.439	68021
691.478	69862
691.522	71377
691.559	72017
691.567	72127
691.611	72328
691.655	72071
691.680	71965
691.699	72319
691.743	73855
691.787	74730
691.800	74925
691.831	76423
691.875	78116
691.919	80626
691.921	80587
691.964	82854
692.008	84496
692.041	85403
692.052	85297
692.096	84582
692.139	83917
692.162	83313
692.183	82653
692.227	81488
692.271	80545
692.282	79976
692.315	79450
692.359	79649
692.402	79348
692.403	79466
692.447	78969
692.490	79163
692.523	79670
692.534	80370
692.578	82502
692.622	83041
692.643	83473
692.666	82100
692.709	79087
692.753	76488
692.763	75645
692.797	75348
692.840	75170
692.884	74945
692.884	75081
692.928	77118
692.971	79259
693.004	80332
693.015	80154
693.059	79610
693.102	77884
693.124	77095
693.146	77980
693.189	80272
693.233	82748
693.245	83272
693.276	84027
693.320	83759
693.363	83275
693.365	83166
693.407	83852
693.450	83685
693.485	83679
693.493	84022
693.537	85001
693.580	85695
693.605	85838
693.624	85017
693.667	82995
693.710	80585
693.725	80039
693.753	83153
693.797	87479
693.840	91375
693.845	91609
693.883	88245
693.926	84606
693.966	80991
693.970	80794
694.013	77306
694.056	74046
694.086	72022
694.099	73504
694.142	78231
694.185	82055
694.206	83645
694.229	84236
694.272	85331
694.315	87033
694.326	87101
694.358	86238
694.401	84371
694.444	83601
694.446	83380
694.487	82427
694.530	81299
694.566	80347
694.573	80035
694.616	76920
694.659	73474
694.686	71521
694.702	71403
694.745	70534
694.787	69727
694.806	69258
694.830	70288
694.873	72164
694.916	73472
694.926	73623
694.959	72762
695.002	71601
695.044	70664
695.046	70487
695.087	72547
695.130	74578
695.166	76219
695.172	76467
695.215	76836
695.258	77217
695.286	77514
695.301	77623
695.343	77304
695.386	76887
695.406	76469
695.428	75424
695.471	73320
695.514	71212
695.526	70450
695.556	71297
695.599	72737
695.641	73610
695.646	73563
695.684	72972
695.726	72278
695.766	71318
695.769	71561
695.811	73388
695.854	74971
695.886	76005
695.896	75627
695.938	73190
695.981	70775
696.005	69287
696.023	70294
696.065	72526
696.108	75004
696.125	75834
696.150	76370
696.192	76503
696.235	77004
696.245	76888
696.277	74861
696.319	72212
696.361	69461
696.365	69092
696.404	69770
696.446	70262
696.485	70591
696.488	70851
696.530	72224
696.572	73806
696.604	74779
696.614	74440
696.656	72178
696.698	69863
696.724	68285
696.740	68412
696.783	68486
696.825	68623
696.844	68501
696.867	69422
696.909	70960
696.951	72472
696.964	72730
696.992	71635
697.034	69693
697.076	68016
697.083	67581
697.118	68744
697.160	69912
697.202	71066
697.203	70939
697.244	70614
697.286	70254
697.323	69497
697.327	69525
697.369	68458
697.411	67434
697.442	66594
697.453	67354
697.494	69797
697.536	72220
697.562	73574
697.578	73449
697.620	72602
697.661	71847
697.682	71268
697.703	71851
697.744	72713
697.786	73659
697.801	73852
697.828	74076
697.869	73914
697.911	73873
697.921	73688
697.952	73140
697.994	72247
698.035	71328
698.040	71041
698.077	69946
698.118	68574
698.160	67235
698.160	67070
698.201	67825
698.243	68469
698.279	68896
698.284	69135
698.325	69842
698.367	70517
698.399	70886
698.408	70529
698.449	68109
698.491	65715
698.518	63948
698.532	64685
698.573	66498
698.614	68314
698.638	69183
698.656	69671
698.697	70415
698.738	71191
698.757	71386
698.779	72323
698.820	73755
698.862	75208
698.877	75571
698.903	77166
698.944	79418
698.985	81674
698.996	82104
699.026	80512
699.067	78042
699.116	74912
699.235	71641
699.354	67411
699.474	74825
699.593	92566
699.713	81504
699.832	70782
699.951	72858
700.070	66838
700.190	68492
700.309	72535
700.428	86181
700.547	71077
700.667	71144
700.786	84771
700.905	66860
701.024	81552
701.143	71677
701.262	58254
701.381	61293
701.500	66160
701.619	64033
701.738	58632
701.857	57309
701.976	57237
702.095	57049
702.214	65091
702.333	62481
702.452	59727
702.571	56890
702.690	57880
702.809	55394
702.928	53717
703.047	59103
703.165	55897
703.284	55281
703.403	56774
703.522	76211
703.640	68976
703.759	94466
703.878	138316
703.997	64831
704.115	57211
704.234	56739
704.353	52803
704.471	51651
704.590	49580
704.708	50111
704.827	49272
704.946	59106
705.064	69860
705.183	60787
705.301	88593
705.420	143459
705.538	115447
705.656	90641
705.775	83363
705.893	93088
706.012	100931
706.130	100764
706.249	99671
706.367	104264
706.485	111555
706.604	103297
706.722	103725
706.840	124075
706.958	107092
707.077	91804
707.195	89453
707.313	87440
707.431	85621
707.549	87866
707.668	87863
707.786	89823
707.904	84601
708.022	82419
708.140	79228
708.258	81066
708.376	82666
708.494	85607
708.612	102678
708.730	164379
708.848	145967
708.966	125649
709.084	115785
709.202	116830
709.320	122423
709.438	125656
709.556	123803
709.674	122603
709.791	119156
709.909	118728
710.027	117771
710.145	114469
710.263	119793
710.380	119880
710.498	111823
710.616	116942
710.733	117259
710.851	126723
710.969	124125
711.086	116045
711.204	109414
711.322	115603
711.439	118794
711.557	122243
711.674	113186
711.792	111551
711.909	103762
712.027	101971
712.144	102563
712.262	107508
712.379	133514
712.497	202095
712.614	187234
712.732	151357
712.849	143695
712.966	158115
713.084	178824
713.201	157625
713.318	152911
713.436	148598
713.553	150101
713.670	153084
713.787	174215
713.905	167804
714.022	143037
714.139	140969
714.256	142709
714.373	148363
714.490	154645
714.608	193729
714.725	428824
714.842	371298
714.959	138039
715.076	128902
715.193	123918
715.310	121779
715.427	122108
715.544	115245
715.661	119597
715.778	124454
715.895	139770
716.011	137118
716.128	120840
716.245	123127
716.362	125871
716.479	131271
716.596	115365
716.713	117948
716.829	114707
716.946	115388
717.063	109722
717.180	110554
717.296	107301
717.413	110099
717.530	106242
717.646	105306
717.763	105928
717.880	100570
717.996	102736
718.113	102601
718.229	103510
718.346	95016
718.462	101387
718.579	113987
718.695	146750
718.812	152125
718.928	166263
719.045	108641
719.161	93252
719.277	88891
719.394	88088
719.510	97039
719.626	98806
719.743	121237
719.859	104281
719.975	111749
720.092	177830
720.208	251597
720.324	114605
720.440	98202
720.557	113364
720.673	143249
720.789	236900
720.905	476122
721.021	151940
721.137	96543
721.253	99502
721.369	104814
721.486	125364
721.602	168207
721.718	91419
721.834	81592
721.950	85451
722.066	81799
722.181	79609
722.297	84597
722.413	76092
722.529	79415
722.645	76381
722.761	78508
722.877	75224
722.993	73750
723.108	79701
723.224	75874
723.340	80800
723.456	69148
723.571	75783
723.687	70677
723.803	73176
723.918	69170
724.034	75751
724.150	74565
724.265	95263
724.381	220136
724.497	222158
724.612	74386
724.728	67041
724.843	72068
724.959	91509
725.074	206788
725.190	192272
725.305	84138
725.421	71817
725.536	59119
725.651	61259
725.767	59498
725.882	57138
725.997	58969
726.113	59885
726.228	59103
726.343	57314
726.459	55041
726.574	66912
726.689	57123
726.804	58269
726.920	60027
727.035	61579
727.150	63461
727.265	58727
727.380	61412
727.495	53009
727.610	49167
727.725	55492
727.841	51133
727.956	56709
728.071	70905
728.186	52995
728.301	46977
728.416	53771
728.531	47406
728.645	45393
728.760	51949
728.875	47153
728.990	47100
729.105	50173
729.220	48457
729.335	47642
729.449	46115
729.564	42908
729.679	44410
729.794	45562
729.908	59469
730.023	49136
730.138	37668
730.253	44446
730.367	40770
730.482	41932
730.596	43219
730.711	44644
730.826	39402
730.940	38192
731.055	44269
731.169	38628
731.284	38668
731.398	42051
731.513	57139
731.627	49568
731.742	64510
731.856	60850
731.970	36290
732.085	39667
732.199	40852
732.313	44987
732.428	65855
732.542	132126
732.656	78182
732.771	38103
732.885	37900
732.999	42302
733.113	45585
733.227	42698
733.342	33600
733.456	36229
733.570	32893
733.684	36034
733.798	38104
733.912	33144
734.026	31077
734.140	34874
734.254	49177
734.368	115151
734.482	112942
734.596	34375
734.710	32650
734.824	32403
734.938	30708
735.052	33694
735.166	47189
735.280	33742
735.393	32596
735.507	35662
735.621	68212
735.735	133786
735.849	41696
735.962	31432
736.076	39283
736.190	40386
736.303	76345
736.417	85007
736.531	34743
736.644	35414
736.758	26151
736.872	27128
736.985	27026
737.099	25002
737.212	24777
737.326	26323
737.439	25435
737.553	25084
737.666	26526
737.780	23598
737.893	22966
738.007	23547
738.120	24218
738.233	24676
738.347	24080
738.460	23558
738.573	27049
738.687	25716
738.800	25317
738.913	31490
739.026	27319
739.140	25465
739.253	21930
739.366	22007
739.479	23080
739.592	21831
739.705	23705
739.818	22789
739.932	21789
740.045	22063
740.158	23267
740.271	24691
740.384	20978
740.497	19553
740.610	21154
740.723	20956
740.836	21685
740.949	23272
741.062	31965
741.174	29064
741.287	24631
741.400	20281
741.513	21731
741.626	22824
741.739	21082
741.851	20508
741.964	20125
742.077	21419
742.189	22732
742.302	21917
742.415	19956
742.527	19524
742.640	19948
742.753	18088
742.865	17659
742.978	20374
743.090	20897
743.203	22482
743.316	20754
743.428	17698
743.541	18953
743.653	17727
743.766	20627
743.878	24530
743.990	46783
744.103	30193
744.215	19345
744.327	20625
744.440	24373
744.552	34595
744.664	20080
744.777	17600
744.889	17447
745.001	17846
745.113	17869
745.226	16424
745.338	17063
745.450	18076
745.562	17545
745.674	15879
745.786	14644
745.898	16825
746.010	16971
746.122	14717
746.234	15325
746.347	15425
746.459	16278
746.570	15986
746.682	15215
746.794	14904
746.906	16742
747.018	16988
747.130	16107
747.242	15287
747.354	16296
747.466	18876
747.577	15873
747.689	16269
747.801	15627
747.913	14615
748.024	15043
748.136	15638
748.248	14878
748.359	15310
748.471	14860
748.583	14921
748.694	16412
748.806	20726
748.918	38363
749.029	20897
749.141	18812
749.252	18054
749.364	23366
749.475	43767
749.587	36945
749.698	17091
749.809	14792
749.921	14289
750.032	14110
750.144	14047
750.255	13497
750.366	13132
750.478	14550
750.589	15829
750.700	15053
750.811	16405
750.923	21206
751.034	44021
751.145	35368
751.256	14074
751.367	13328
751.479	13103
751.590	13246
751.701	12493
751.812	12715
751.923	13043
752.034	12407
752.145	12173
752.256	13723
752.367	12300
752.478	12643
752.589	12397
752.700	12392
752.811	13238
752.922	13091
753.032	15912
753.143	16491
753.254	12517
753.365	13041
753.476	12534
753.586	12681
753.697	11334
753.808	12091
753.919	12293
754.029	12356
754.140	12421
754.251	14688
754.361	13263
754.472	13336
754.582	13948
754.693	12366
754.804	11817
754.914	12796
755.025	12012
755.135	11250
755.246	11687
755.356	12552
755.466	12566
755.577	12763
755.687	12316
755.798	12119
755.908	11405
756.018	10588
756.129	11585
756.239	10633
756.349	11496
756.460	12052
756.570	12670
756.680	12705
756.790	14829
756.900	15077
757.011	12410
757.121	11233
757.231	11101
757.341	11960
757.451	12260
757.561	10875
757.671	11627
757.781	10806
757.891	15070
758.001	16460
758.111	12870
758.221	13973
758.331	15926
758.441	15158
758.551	22394
758.661	18550
758.771	15120
758.880	18349
758.990	18177
759.100	16081
759.210	15749
759.320	15515
759.429	15641
759.539	15568
759.649	15594
759.758	16548
759.868	16035
759.978	15882
760.087	16611
760.197	17154
760.307	15817
760.416	15603
760.526	15926
760.635	15771
760.745	14990
760.854	15864
760.964	16281
761.073	14704
761.182	16062
761.292	18387
761.401	23503
761.511	16759
761.620	15498
761.729	18994
761.839	19102
761.948	17063
762.057	18409
762.166	16579
762.276	14517
762.385	16126
762.494	16061
762.603	15927
762.712	21367
762.822	20054
762.931	18610
763.040	16492
763.149	17143
763.258	18330
763.367	17626
763.476	18170
763.585	18646
763.694	19006
763.803	21449
763.912	21117
764.021	18761
764.130	18443
764.238	18427
764.347	18495
764.456	18285
764.565	18439
764.674	18372
764.783	19717
764.891	18332
765.000	19868
765.109	21349
765.217	21769
765.326	28715
765.435	36633
765.543	25915
765.652	25858
765.761	31384
765.869	39947
765.978	53778
766.086	87582
766.195	163577
766.303	376065
766.412	698421
766.520	526526
766.629	191892
766.737	91734
766.846	62036
766.954	46494
767.062	40471
767.171	39774
767.279	34077
767.387	31116
767.496	28986
767.604	27109
767.712	26675
767.820	25616
767.928	27114
768.037	24745
768.145	27013
768.253	25326
768.361	25086
768.469	25142
768.577	24282
768.685	25993
768.793	24317
768.901	25541
769.009	25249
769.117	27243
769.225	29420
769.333	35166
769.441	46601
769.549	72454
769.657	151551
769.765	398099
769.873	545988
769.981	206424
770.088	72903
770.196	46462
770.304	37607
770.412	34274
770.519	33695
770.627	28700
770.735	28011
770.842	26139
770.950	25450
771.058	25379
771.165	22619
771.273	24095
771.380	22862
771.488	24048
771.595	22305
771.703	22231
771.810	23864
771.918	20934
772.025	22395
772.133	21892
772.240	21558
772.348	22083
772.455	22346
772.562	21492
772.670	19629
772.777	22459
772.884	18717
772.991	21147
773.099	20163
773.206	18920
773.313	20642
773.420	19392
773.528	18262
773.635	18509
773.742	19575
773.849	19119
773.956	18604
774.063	19391
774.170	18618
774.277	23447
774.384	21948
774.491	21636
774.598	21418
774.705	21584
774.812	26912
774.919	26004
775.026	25192
775.133	22409
775.239	22683
775.346	22574
775.453	21048
775.560	20737
775.667	22985
775.773	21165
775.880	20274
775.987	22443
776.093	20247
776.200	21729
776.307	21145
776.413	21892
776.520	21407
776.627	22137
776.733	21591
776.840	20318
776.946	21021
777.053	20944
777.159	20826
777.266	19518
777.372	22614
777.478	19293
777.585	19671
777.691	18576
777.798	19817
777.904	22270
778.010	26607
778.117	25525
778.223	22177
778.329	22306
778.435	20534
778.542	19803
778.648	20410
778.754	19147
778.860	20886
778.966	22562
779.072	21207
779.178	19657
779.284	18764
779.391	18347
779.497	18156
779.603	20769
779.708	18806
779.815	25087
779.920	47977
780.026	54084
780.132	20726
780.238	19353
780.344	18447
780.450	18456
780.556	17887
780.661	17201
780.767	18169
780.873	16884
780.979	18106
781.085	19165
781.190	16585
781.296	15524
781.402	16644
781.507	15215
781.613	15864
781.719	15606
781.824	15975
781.930	16325
782.035	17375
782.141	18095
782.246	17196
782.352	15328
782.457	15229
782.563	16416
782.668	17475
782.773	19390
782.879	18586
782.984	19974
783.090	21399
783.195	26665
783.300	21557
783.405	20994
783.511	19197
783.616	18844
783.721	18397
783.826	15956
783.932	18748
784.037	18308
784.142	18380
784.247	17631
784.352	17143
784.457	17266
784.562	15967
784.667	16239
784.772	15804
784.877	16528
784.982	16745
785.087	15799
785.192	18130
785.297	16567
785.402	16215
785.507	15101
785.611	15301
785.716	16751
785.821	15490
785.926	13741
786.031	14517
786.135	16829
786.240	15704
786.345	14101
786.450	14618
786.554	14487
786.659	14423
786.763	14262
786.868	14538
786.973	16586
787.077	13466
787.182	14441
787.286	15470
787.391	12989
787.495	14164
787.600	13914
787.704	12596
787.809	13131
787.913	13022
788.017	13868
788.122	14403
788.226	11978
788.330	12950
788.435	15317
788.539	12599
788.643	12290
788.747	13123
788.852	12171
788.956	11134
789.060	12872
789.164	12533
789.268	11805
789.372	13128
789.476	12847
789.580	13064
789.684	11187
789.788	12629
789.892	14006
789.996	14973
790.100	12807
790.204	13962
790.308	15294
790.412	13874
790.516	14010
790.620	14674
790.724	14876
790.828	13743
790.931	13958
791.035	14150
791.139	13064
791.242	11428
791.346	13009
791.450	11874
791.554	11811
791.657	10744
791.761	13600
791.864	12745
791.968	12657
792.072	13184
792.175	12802
792.279	12034
792.382	12518
792.486	13518
792.589	17701
792.693	14805
792.796	11388
792.899	11890
793.003	11190
793.106	10349
793.209	11844
793.313	12590
793.416	10379
793.519	13536
793.623	19347
793.726	21834
793.829	13229
793.932	11653
794.035	10896
794.138	13070
794.242	14255
794.345	19714
794.448	19693
794.551	22805
794.654	30478
794.757	33864
794.860	28493
794.963	17543
795.066	10724
795.169	10427
795.272	9399
795.375	10011
795.477	10770
795.580	9878
795.683	8164
795.786	9448
795.889	9719
795.991	13085
796.094	19561
796.197	15106
796.300	11838
796.402	8661
796.505	9066
796.608	9332
796.710	9367
796.813	9560
796.915	8276
797.018	9927
797.120	9060
797.223	7803
797.326	10256
797.428	9318
797.530	10292
797.633	12427
797.735	21159
797.838	45539
797.940	26659
798.042	9134
798.145	9225
798.247	9505
798.349	7409
798.452	8613
798.554	8777
798.656	8126
798.758	10480
798.860	8642
798.962	8644
799.065	9290
799.167	8458
799.269	10672
799.371	12428
799.473	13057
799.575	22143
799.677	22380
799.779	15409
799.881	17153
799.983	11573
800.085	9055
800.187	8936
800.289	10145
800.390	9630
800.492	7776
800.594	8413
800.696	7422
800.798	7324
800.899	6567
801.001	6873
801.103	7471
801.205	7370
801.306	7758
801.408	6518
801.509	7242
801.611	8700
801.713	6797
801.814	7009
801.916	7462
802.017	7512
802.119	7810
802.220	9009
802.322	9884
802.423	24871
802.525	15322
802.626	8365
802.727	8528
802.829	8904
802.930	6722
803.031	8880
803.133	6666
803.234	6517
803.335	6725
803.436	6681
803.538	6307
803.639	5125
803.740	6866
803.841	5948
803.942	6519
804.043	6705
804.144	5738
804.245	6965
804.346	5265
804.447	7037
804.548	11138
804.649	11691
804.750	5809
804.851	5631
804.952	5481
805.053	5784
805.154	4581
805.255	6416
805.355	5274
805.456	5589
805.557	5249
805.658	4809
805.758	6034
805.859	5118
805.960	4809
806.061	4723
806.161	5974
806.262	6367
806.362	7138
806.463	6752
806.564	7654
806.664	9671
806.765	17897
806.865	13258
806.966	8330
807.066	5335
807.166	6270
807.267	5453
807.367	4892
807.468	5821
807.568	3844
807.668	6538
807.769	6691
807.869	5527
807.969	6141
808.069	6053
808.170	4790
808.270	4785
808.370	7102
808.470	11012
808.570	6285
808.670	4534
808.770	5063
808.870	4631
808.970	6133
809.070	5000
809.170	5307
809.271	5620
809.370	4480
809.470	5311
809.570	4311
809.670	4927
809.770	5295
809.870	4690
809.970	4930
810.070	4855
810.169	5249
810.269	4016
810.369	5657
810.469	4264
810.568	4331
810.668	4722
810.768	4326
810.867	5092
810.967	4465
811.066	4312
811.166	3971
811.265	5055
811.365	3390
811.464	4005
811.564	4988
811.663	5558
811.763	2869
811.862	3829
811.962	4764
812.061	5027
812.160	3839
812.260	4044
812.359	4155
812.458	3806
812.557	5672
812.657	6439
812.756	5041
812.855	4373
812.954	3246
813.053	5397
813.153	4747
813.252	4384
813.351	5133
813.450	3668
813.549	3036
813.648	3158
813.747	3561
813.846	4098
813.945	2760
814.044	3805
814.143	3590
814.242	4430
814.341	3166
814.439	3438
814.538	4510
814.637	3871
814.736	3254
814.835	3994
814.933	3059
815.032	4867
815.131	3545
815.229	4198
815.328	5240
815.427	4176
815.525	4046
815.624	4721
815.722	3702
815.821	4441
815.919	4497
816.018	4006
816.116	4630
816.215	4172
816.313	4100
816.412	3906
816.510	4153
816.609	5252
816.707	4654
816.805	4525
816.904	3650
817.002	4218
817.100	5328
817.198	4629
817.296	3257
817.395	4397
817.493	4577
817.591	4555
817.689	4638
817.787	5467
817.885	7634
817.983	10487
818.081	19324
818.179	38996
818.277	89559
818.375	59343
818.473	15628
818.571	8768
818.669	7845
818.767	7360
818.865	6358
818.963	6988
819.061	9592
819.158	16526
819.256	36195
819.354	82739
819.452	163513
819.549	80061
819.647	21380
819.745	10562
819.842	8885
819.940	6892
820.038	5153
820.135	4591
820.233	5479
820.330	4494
820.428	4576
820.525	5167
820.623	4754
820.720	5873
820.818	5268
820.915	5088
821.012	4700
821.110	3605
821.207	4428
821.304	3618
821.402	4017
821.499	5017
821.596	5205
821.693	5276
821.791	5849
821.888	8957
821.985	18390
822.082	12912
822.179	5695
822.276	4626
822.373	4057
822.470	3763
822.567	3541
822.664	2370
822.761	3998
822.858	3353
822.955	3355
823.052	3844
823.149	2879
823.246	4281
823.343	3314
823.440	3522
823.536	3682
823.633	2839
823.730	3353
823.827	3977
823.923	3128
824.020	4812
824.117	3498
824.213	3047
824.310	3604
824.407	2396
824.503	3685
824.600	3460
824.696	2857
824.793	4279
824.889	2563
824.986	3166
825.082	2763
825.179	3550
825.275	3214
825.371	3068
825.468	3372
825.564	2841
825.660	2865
825.757	3317
825.853	3905
825.949	2545
826.045	2679
826.142	2321
826.238	3211
826.334	3233
826.430	2428
826.526	3472
826.622	3474
826.718	4002
826.814	3523
826.910	3738
827.006	2773
827.102	2481
827.198	4142
827.294	2597
827.390	3376
827.486	3479
827.582	2346
827.678	1187
827.774	3859
827.869	2571
827.965	3934
828.061	2822
828.157	3110
828.252	2716
828.348	1916
828.444	3810
828.539	2271
828.635	2773
828.731	3183
828.826	2740
828.922	4103
829.017	3270
829.113	3703
829.208	3308
829.304	3062
829.399	3426
829.495	3071
829.590	4153
829.685	2911
829.781	4079
829.876	2736
829.971	3557
830.066	2249
830.162	3089
830.257	2823
830.352	3290
830.447	4646
830.543	5806
830.638	5251
830.733	5839
830.828	3311
830.923	4287
831.018	3992
831.113	5921
831.208	5641
831.303	4775
831.398	3370
831.493	3113
831.588	2865
831.683	3125
831.778	2443
831.873	3140
831.967	3719
832.062	2706
832.157	2778
832.252	3665
832.346	3556
832.441	5241
832.536	7591
832.631	16709
832.725	12853
832.820	3637
832.914	3559
833.009	3970
833.104	5267
833.198	7200
833.293	4544
833.387	5803
833.482	4545
833.576	2216
833.670	3520
833.765	3143
833.859	3676
833.954	4573
834.048	2730
834.142	4105
834.237	2228
834.331	4060
834.425	2386
834.519	2767
834.613	3722
834.708	2955
834.802	4414
834.896	2832
834.990	3294
835.084	3887
835.178	3886
835.272	5805
835.366	3738
835.460	3848
835.554	3059
835.648	3010
835.742	2837
835.836	3776
835.930	3162
836.024	5551
836.117	7463
836.211	8667
836.305	16861
836.399	20420
836.493	6117
836.586	3879
836.680	2472
836.774	2933
836.867	4669
836.961	1984
837.055	3835
837.148	3013
837.242	3762
837.335	4045
837.429	4557
837.522	6366
837.616	12428
837.709	27462
837.803	17861
837.896	7503
837.989	9952
838.083	16962
838.176	39551
838.269	32559
838.363	7246
838.456	4647
838.549	8526
838.642	12670
838.735	20118
838.829	9036
838.922	5168
839.015	4148
839.108	3508
839.201	4438
839.294	5290
839.387	5536
839.480	7560
839.573	15002
839.666	19351
839.759	5361
839.852	2603
839.945	3503
840.038	2520
840.131	3533
840.223	2712
840.316	3155
840.409	2766
840.502	2914
840.594	4213
840.687	2050
840.780	3839
840.873	4608
840.965	8474
841.058	14804
841.150	32762
841.243	21494
841.336	5280
841.428	4252
841.521	4942
841.613	7312
841.706	7413
841.798	4587
841.890	3277
841.983	2290
842.075	3945
842.167	5134
842.260	7339
842.352	13095
842.444	20417
842.537	39516
842.629	47084
842.721	8644
842.813	4287
842.905	4133
842.997	5900
843.090	9455
843.182	18432
843.274	38066
843.366	79246
843.458	137120
843.550	76674
843.642	14150
843.734	9451
843.826	13889
843.918	9287
844.009	5013
844.101	3994
844.193	4679
844.285	4793
844.377	4158
844.469	4189
844.560	3697
844.652	3507
844.744	4309
844.835	5539
844.927	7005
845.019	10210
845.110	6874
845.202	3871
845.293	3960
845.385	3223
845.476	4334
845.568	3970
845.659	4926
845.751	4855
845.842	2899
845.934	2677
846.025	3778
846.116	4085
846.208	3942
846.299	3712
846.390	4490
846.482	5298
846.573	8716
846.664	12609
846.755	17092
846.846	13252
846.937	3398
847.029	3157
847.120	2679
847.211	2996
847.302	4148
847.393	2959
847.484	4781
847.575	3900
847.666	3619
847.757	2367
847.847	4053
847.938	3837
848.029	3565
848.120	3560
848.211	3809
848.302	3548
848.392	2483
848.483	3352
848.574	2594
848.664	2831
848.755	3634
848.846	2302
848.936	2331
849.027	2791
849.118	3239
849.208	4214
849.299	5237
849.389	6664
849.480	10373
849.570	14928
849.661	20950
849.751	29724
849.841	11597
849.932	3550
850.022	2616
850.112	3575
850.203	2390
850.293	2495
850.383	3363
850.474	2915
850.564	1994
850.654	2954
850.744	3156
850.834	2726
850.924	3722
851.014	3539
851.104	4363
851.194	3769
851.284	5624
851.374	6639
851.464	6305
851.554	7679
851.644	9812
851.734	16731
851.824	10993
851.914	4686
852.004	4528
852.094	4668
852.183	3356
852.273	3283
852.363	3858
852.452	2969
852.542	3157
852.632	3071
852.721	3315
852.811	3006
852.901	3950
852.990	2731
853.080	4495
853.169	3413
853.259	3377
853.348	2444
853.438	4736
853.527	4913
853.617	6187
853.706	10946
853.795	16730
853.885	32564
853.974	56681
854.063	101459
854.152	144990
854.242	51563
854.331	11822
854.420	6525
854.509	5602
854.598	6769
854.687	9016
854.777	9719
854.866	4015
854.955	4122
855.044	3019
855.133	3167
855.222	2774
855.311	2977
855.400	3659
855.488	2846
855.577	2489
855.666	2726
855.755	3573
855.844	3875
855.933	2815
856.021	3171
856.110	2972
856.199	3116
856.288	2865
856.376	3001
856.465	2829
856.554	2845
856.642	3583
856.731	4027
856.819	3292
856.908	3632
856.996	2792
857.085	2494
857.173	3128
857.262	2982
857.350	3072
857.438	2416
857.527	3440
857.615	3243
857.703	3799
857.792	3002
857.880	3355
857.968	2662
858.056	3095
858.145	4037
858.233	2886
858.321	2351
858.409	2991
858.497	2576
858.585	2566
858.673	3250
858.761	2285
858.849	2827
858.937	3051
859.025	2670
859.113	3584
859.201	2438
859.289	3434
859.377	1796
859.465	2488
859.552	2937
859.640	3321
859.728	4098
859.816	3440
859.903	3249
859.991	2683
860.079	2790
860.166	2774
860.254	2488
860.342	2972
860.429	1740
860.517	2611
860.604	2881
860.692	3971
860.779	2055
860.867	2567
860.954	3139
861.042	3593
861.129	3847
861.216	2188
861.304	2020
861.391	3306
861.478	3189
861.565	3747
861.653	3790
861.740	2545
861.827	3546
861.914	2487
862.001	2292
862.089	2335
862.176	2599
862.263	1910
862.350	1982
862.437	1749
862.524	1645
862.611	1567
862.698	2790
862.785	2392
862.871	3490
862.958	2014
863.045	2378
863.132	2403
863.219	961
863.306	2561
863.392	2347
863.479	2185
863.566	2654
863.652	2846
863.739	1879
863.826	2091
863.912	2309
863.999	1763
864.086	2962
864.172	2986
864.259	1637
864.345	2886
864.432	2221
864.518	2207
864.604	2673
864.691	1603
864.777	1623
864.863	2632
864.950	2504
865.036	2363
865.122	3971
865.209	3467
865.295	2706
865.381	3578
865.467	3027
865.553	4299
865.639	5222
865.726	8173
865.812	16109
865.898	30290
865.984	43033
866.070	81947
866.156	78528
866.242	19842
866.328	5387
866.414	4834
866.499	3589
866.585	4326
866.671	3082
866.757	4077
866.843	2707
866.928	3592
867.014	3087
867.100	4945
867.186	5035
867.271	7887
867.357	11218
867.442	16147
867.528	6728
867.614	3426
867.699	2532
867.785	3306
867.870	3254
867.956	3970
868.041	5270
868.127	7433
868.212	8870
868.297	5068
868.383	4421
868.468	6239
868.553	9148
868.639	10884
868.724	21609
868.809	17398
868.894	4878
868.979	3844
869.065	4741
869.150	4524
869.235	2931
869.320	1272
869.405	2185
869.490	1546
869.575	2575
869.660	1848
869.745	3344
869.830	1812
869.915	1600
870.000	1363
870.085	1952
870.169	2910
870.254	1884
870.339	2171
870.424	1478
870.509	2491
870.593	1920
870.678	2202
870.763	1372
870.847	2505
870.932	1257
871.016	2324
871.101	1727
871.186	1253
871.270	1081
871.355	1463
871.439	1887
871.523	1249
871.608	1630
871.692	1813
871.777	2412
871.861	2411
871.945	1300
872.030	2440
872.114	1375
872.198	1757
872.282	1002
872.367	953
872.451	1545
872.535	2154
872.619	1281
872.703	1573
872.787	741
872.871	1344
872.955	684
873.039	2334
873.123	1845
873.207	2884
873.291	3124
873.375	3172
873.459	2385
873.543	1262
873.627	1163
873.711	959
873.794	1233
873.878	1794
873.962	1122
874.045	1663
874.129	778
874.137	832
874.213	1371
874.245	1281
874.296	1136
874.352	891
874.380	769
874.460	611
874.464	604
874.547	1432
874.568	1370
874.631	1166
874.676	1733
874.714	2219
874.784	2460
874.798	2503
874.881	2321
874.892	2158
874.965	1061
874.999	1305
875.048	1601
875.107	1653
875.131	1689
875.215	2026
875.215	2026
875.298	1223
875.323	1318
875.381	1516
875.430	1509
875.465	1528
875.538	1848
875.548	1883
875.631	1469
875.646	1377
875.714	917
875.753	749
875.798	584
875.861	1598
875.881	1902
875.964	1795
875.968	1790
876.047	1834
876.076	1865
876.130	1849
876.183	2419
876.213	2765
876.291	2832
876.296	2829
876.379	2690
876.398	2682
876.462	2805
876.506	3115
876.545	3231
876.613	2196
876.628	2028
876.711	1566
876.721	1622
876.794	2007
876.828	2010
876.877	1967
876.935	1749
876.960	1661
877.043	982
877.043	984
877.125	1874
877.150	2012
877.208	2183
877.258	2227
877.291	2333
877.365	2004
877.374	1938
877.456	1903
877.472	1791
877.539	1520
877.579	1644
877.622	1726
877.687	2791
877.704	3091
877.787	1815
877.794	1815
877.869	1803
877.901	1839
877.952	1796
878.008	1440
878.034	1355
878.115	2131
878.117	2153
878.199	1781
878.222	2078
878.282	2440
878.329	2220
878.364	2213
878.437	2418
878.447	2398
878.529	1232
878.544	1273
878.611	1822
878.651	1755
878.694	1815
878.758	2185
878.776	2223
878.858	2724
878.865	2731
878.941	2615
878.972	2531
879.023	2562
879.078	2779
879.105	2989
879.185	3889
879.187	3904
879.269	3409
879.292	3376
879.351	3018
879.399	2248
879.433	1833
879.506	2410
879.516	2497
879.598	1901
879.613	1983
879.680	2359
879.720	2495
879.762	2592
879.827	2511
879.844	2498
879.926	2267
879.933	2318
880.007	2866
880.040	2598
880.089	2465
880.147	3706
880.171	4107
880.253	5211
880.254	5216
880.335	7330
880.360	7463
880.417	9215
880.467	13565
880.499	16340
880.574	19149
880.580	18733
880.662	8350
880.680	6676
880.744	3898
880.787	3062
880.825	2924
880.893	2263
880.907	2251
880.989	2820
881.000	2881
881.070	2596
881.106	2525
881.152	2614
881.213	2257
881.233	2266
881.315	2807
881.319	2823
881.396	2909
881.426	2656
881.478	2038
881.532	2443
881.559	2933
881.639	3030
881.641	3018
881.722	2770
881.745	2666
881.803	2800
881.852	3097
881.885	3309
881.958	3928
881.966	3980
882.047	4542
882.064	4545
882.129	5207
882.171	5980
882.210	7358
882.277	10060
882.291	10005
882.372	6003
882.383	5667
882.454	3715
882.489	3034
882.535	2818
882.596	2537
882.616	2515
882.697	2583
882.702	2579
882.778	3030
882.808	3209
882.859	3093
882.914	2630
882.940	2522
883.020	2923
883.021	2939
883.102	3406
883.127	3524
883.183	3274
883.233	3191
883.264	3221
883.339	3371
883.345	3392
883.426	2701
883.445	2827
883.507	3137
883.551	2993
883.587	3164
883.657	3619
883.668	3689
883.749	3771
883.763	3811
883.830	3407
883.869	3153
883.910	2962
883.975	2514
883.991	2507
884.072	2852
884.081	2815
884.152	2887
884.187	3223
884.233	3392
884.292	3024
884.314	2942
884.394	3176
884.398	3151
884.475	2681
884.504	2769
884.555	3112
884.610	2771
884.636	2692
884.716	3589
884.716	3605
884.797	3766
884.821	3914
884.877	3781
884.927	3337
884.958	3268
885.033	3377
885.038	3399
885.118	3405
885.139	3510
885.199	3772
885.244	3688
885.279	3709
885.350	3953
885.359	4022
885.439	4315
885.456	4379
885.520	4017
885.561	3779
885.600	3843
885.667	3895
885.680	3897
885.760	4073
885.773	4063
885.840	5151
885.878	5682
885.920	5298
885.984	4673
886.000	4631
886.080	4496
886.089	4464
886.160	4484
886.195	4508
886.240	4835
886.300	5335
886.320	5262
886.400	4532
886.406	4502
886.480	5151
886.511	5275
886.560	5609
886.616	6073
886.640	5939
886.720	5168
886.722	5137
886.800	4779
886.827	4739
886.879	4890
886.932	4843
886.959	4880
887.038	5076
887.039	5097
887.119	5448
887.143	5659
887.198	5545
887.248	5285
887.278	5308
887.354	5236
887.358	5258
887.437	5427
887.459	5474
887.517	5507
887.564	5507
887.596	5409
887.669	5038
887.676	5040
887.755	5016
887.774	4960
887.835	4988
887.880	5054
887.914	5426
887.985	6038
887.994	6049
888.073	6003
888.090	5965
888.153	5467
888.195	5178
888.232	5302
888.300	5397
888.311	5340
888.391	4866
888.405	4761
888.470	4909
888.510	4942
888.549	5185
888.615	5688
888.628	5606
888.708	4901
888.720	4780
888.787	5525
888.825	5920
888.866	5596
888.930	5067
888.945	5159
889.024	5602
889.035	5634
889.103	5627
889.140	5627
889.182	5605
889.245	5539
889.261	5604
889.340	5841
889.349	5849
889.419	5540
889.454	5393
889.498	5232
889.559	4948
889.577	5137
889.656	5927
889.664	5992
889.735	5590
889.768	5373
889.814	5608
889.873	5882
889.978	5992
890.083	6263
890.187	6071
890.292	5931
890.397	5944
890.501	5213
890.606	5420
890.710	5979
890.815	6122
890.919	5651
891.024	6078
891.128	6013
891.233	4799
891.337	5879
891.442	5277
891.546	6039
891.650	5005
891.755	5247
891.859	6016
891.963	6355
892.068	5600
892.172	5022
892.276	5181
892.380	6090
892.484	4988
892.589	6696
892.693	5288
892.797	5625
892.901	4838
893.005	5690
893.109	5772
893.213	5440
893.317	5642
893.421	5570
893.525	3845
893.629	4552
893.733	6419
893.837	5673
893.941	4789
894.045	5847
894.148	5072
894.252	6989
894.356	5748
894.460	6953
894.564	5943
894.667	5095
894.771	4591
894.875	4708
894.978	5545
895.082	4874
895.186	6307
895.289	5295
895.393	5142
895.496	5091
895.600	4979
895.703	5699
895.807	5320
895.910	5327
896.014	4608
896.117	5481
896.221	5512
896.324	5001
896.427	4958
896.531	5479
896.634	5122
896.737	5116
896.840	4951
896.944	5646
897.047	5091
897.150	5222
897.253	5137
897.356	5268
897.460	5474
897.563	6105
897.666	4879
897.769	5591
897.872	4663
897.975	4480
898.078	4638
898.181	5045
898.284	5696
898.387	5950
898.490	5444
898.593	5038
898.695	5618
898.798	5962
898.901	6144
899.004	5091
899.107	4603
899.209	4547
899.312	5684
899.415	4814
899.518	4588
899.620	4078
899.723	5563
899.826	7995
899.928	9594
900.031	4618
900.133	4527
900.236	4282
900.338	3854
900.441	4819
900.543	4179
900.646	4981
900.748	5444
900.851	4853
900.953	4245
901.055	4551
901.158	5535
901.260	4956
901.362	5090
901.465	4848
901.567	4978
901.669	5956
901.771	4846
901.873	5883
901.976	4692
902.078	5070
902.180	4921
902.282	4916
902.384	5353
902.486	5869
902.588	7729
902.690	7645
902.792	5204
902.894	4824
902.996	4058
903.098	4367
903.200	4967
903.302	5448
903.404	4081
903.505	4712
903.607	4750
903.709	4698
903.811	3895
903.913	5113
904.014	4697
904.116	4574
904.218	4365
904.319	5499
904.421	5123
904.523	4191
904.624	3754
904.726	4423
904.827	4840
904.929	3933
905.030	4466
905.132	4688
905.233	4138
905.335	4212
905.436	4698
905.537	3605
905.639	4017
905.740	4308
905.841	4759
905.943	4626
906.044	4734
906.145	4088
906.247	3820
906.348	4772
906.449	4643
906.550	4453
906.651	3964
906.752	4311
906.854	4000
906.955	4631
907.056	4018
907.157	5162
907.258	4462
907.359	4499
907.460	3990
907.561	4573
907.662	4499
907.762	4388
907.863	4958
907.964	5205
908.065	5071
908.166	4302
908.267	4737
908.367	4942
908.468	3829
908.569	5463
908.670	6560
908.770	7344
908.871	6777
908.971	9255
909.072	7344
909.173	4560
909.273	4864
909.374	4985
909.474	4340
909.575	4360
909.675	4573
909.776	5002
909.876	4613
909.977	4993
910.077	4802
910.177	4131
910.278	3726
910.378	4263
910.478	5125
910.579	4818
910.679	4606
910.779	4733
910.879	4847
910.980	4438
911.080	4221
911.180	4402
911.280	4807
911.380	4456
911.480	5068
911.580	5446
911.680	4845
911.780	6193
911.880	5789
911.980	4185
912.080	4264
912.180	4903
912.280	3961
912.380	4751
912.480	3868
912.580	4684
912.679	3865
912.779	4215
912.879	3654
912.979	4449
913.078	3878
913.178	4777
913.278	3933
913.377	3752
913.477	3766
913.577	4884
913.676	4691
913.776	3442
913.875	4556
913.975	4360
914.074	3930
914.174	3991
914.273	3798
914.373	4195
914.472	4605
914.572	4184
914.671	4438
914.770	4750
914.870	3467
914.969	4102
915.068	3619
915.167	4731
915.267	3150
915.366	4936
915.465	3881
915.564	4357
915.663	4274
915.763	4582
915.862	3978
915.961	4083
916.060	3009
916.159	4318
916.258	3499
916.357	3816
916.456	4857
916.555	3736
916.654	4755
916.752	5867
916.851	3494
916.950	4472
917.049	3668
917.148	3851
917.247	3984
917.345	3527
917.444	3225
917.543	4358
917.642	3887
917.740	4576
917.839	4447
917.937	4632
918.036	4716
918.135	3902
918.233	4428
918.332	3767
918.430	3407
918.529	3194
918.627	3944
918.726	3414
918.824	4030
918.923	4425
919.021	4073
919.119	4080
919.218	3084
919.316	4204
919.414	3517
919.512	4396
919.611	4219
919.709	4283
919.807	3857
919.905	3996
920.003	4428
920.102	4954
920.200	3969
920.298	4618
920.396	3571
920.494	3732
920.592	4322
920.690	4211
920.788	4286
920.886	4104
920.984	4667
921.082	4440
921.180	4986
921.277	5281
921.375	4346
921.473	4866
921.571	5086
921.669	4483
921.766	4858
921.864	5155
921.962	4782
922.060	4572
922.157	3840
922.255	5236
922.352	4818
922.450	4221
922.548	4958
922.645	6308
922.743	5033
922.840	6463
922.938	6693
923.035	7495
923.133	6887
923.230	7777
923.327	7647
923.425	7145
923.522	7961
923.619	6521
923.717	6744
923.814	6966
923.911	6095
924.008	6594
924.106	6510
924.203	6415
924.300	6426
924.397	7011
924.494	6991
924.591	7902
924.688	5749
924.786	6381
924.883	6755
924.979	6870
925.077	6362
925.173	6681
925.270	6461
925.367	7017
925.464	7021
925.561	7103
925.658	7271
925.755	6795
925.852	7584
925.948	7232
926.045	6487
926.142	6923
926.239	6223
926.335	6429
926.432	5821
926.529	6308
926.625	6253
926.722	6551
926.818	6755
926.915	5631
927.011	6326
927.108	6874
927.204	6106
927.301	5621
927.397	6082
927.494	6748
927.590	5711
927.687	6279
927.783	6083
927.879	6105
927.976	5986
928.072	5316
928.168	5489
928.264	6478
928.361	5422
928.457	7243
928.553	6901
928.649	6634
928.745	5919
928.841	5549
928.937	6168
929.033	6011
929.129	6038
929.225	5584
929.321	5250
929.417	5528
929.513	5549
929.609	5665
929.705	5053
929.801	6310
929.897	5220
929.993	5493
930.089	4872
930.184	5232
930.280	5781
930.376	5899
930.471	5153
930.567	6183
930.663	5232
930.758	5359
930.854	5991
930.950	4737
931.045	5009
931.141	5925
931.236	6558
931.332	5597
931.427	5640
931.523	5873
931.618	6312
931.714	4972
931.809	5036
931.905	6298
932.000	4722
932.095	5165
932.191	5633
932.286	5021
932.381	5205
932.476	5226
932.572	5680
932.667	5697
932.762	5406
932.857	4731
932.952	6189
933.047	6362
933.142	5035
933.237	4651
933.332	5694
933.427	5845
933.522	4618
933.617	4738
933.712	5420
933.807	5853
933.902	5044
933.997	5337
934.092	4651
934.187	5230
934.282	5096
934.376	5506
934.471	4999
934.566	5718
934.661	3816
934.755	5533
934.850	5253
934.945	5180
935.039	5117
935.134	5697
935.228	5405
935.323	5903
935.417	4595
935.512	4279
935.606	4106
935.701	4947
935.795	4656
935.890	4862
935.984	4991
936.079	4488
936.173	5903
936.267	5235
936.362	4426
936.456	5088
936.550	5364
936.644	5257
936.738	4703
936.833	4619
936.927	4244
937.021	4189
937.115	4123
937.209	4743
937.303	5248
937.397	4173
937.491	4825
937.585	5179
937.679	4448
937.773	4291
937.867	3944
937.961	4069
938.055	4503
938.149	5057
938.243	4310
938.337	4473
938.430	4467
938.524	5050
938.618	4746
938.712	4300
938.805	4924
938.899	5224
938.993	5362
939.086	4107
939.180	3723
939.274	5118
939.367	4848
939.461	4923
939.554	3523
939.648	4402
939.741	3624
939.835	4991
939.928	5630
940.022	5444
940.115	4265
940.208	5072
940.302	4554
940.395	5891
940.488	4181
940.582	4659
940.675	3690
940.768	4438
940.861	3943
940.954	5935
941.048	3325
941.141	4646
941.234	4680
941.327	5717
941.420	6264
941.513	5009
941.606	4578
941.699	4783
941.792	4268
941.885	4291
941.978	4457
942.071	4481
942.164	3947
942.257	4127
942.349	3957
942.442	4553
942.535	2602
942.628	3864
942.721	4190
942.813	2998
942.906	4127
942.999	3920
943.091	4158
943.184	4278
943.277	3080
943.369	4433
943.462	3243
943.554	3614
943.647	2898
943.739	4398
943.832	4232
943.924	2964
944.017	4305
944.109	3282
944.201	2945
944.294	4439
944.386	4627
944.478	3281
944.571	3630
944.663	4078
944.755	3674
944.847	2693
944.940	4182
945.032	2945
945.124	4423
945.216	4654
945.308	4365
945.400	5042
945.492	3502
945.584	4047
945.676	3204
945.768	3580
945.860	4763
945.952	3679
946.044	3586
946.136	3969
946.228	3216
946.320	3491
946.412	3884
946.503	4137
946.595	4098
946.687	3526
946.779	2952
946.870	3586
946.962	3039
947.054	4218
947.145	4063
947.237	4361
947.329	3307
947.420	3876
947.512	3109
947.603	3081
947.695	2957
947.786	3021
947.878	3597
947.969	3604
948.061	2903
948.152	3849
948.243	3710
948.335	3264
948.426	2684
948.517	3680
948.609	3250
948.700	3961
948.791	3162
948.882	3283
948.973	2708
949.065	3195
949.156	3990
949.247	2475
949.338	3218
949.429	3450
949.520	3043
949.611	3505
949.702	2858
949.793	3705
949.884	3143
949.975	3252
950.066	3093
950.157	3383
950.247	3955
950.338	3422
950.429	3438
950.520	4501
950.611	4227
950.701	3926
950.792	4883
950.883	5266
950.973	3708
951.064	5626
951.155	4828
951.245	4128
951.336	3524
951.427	2211
951.517	3683
951.608	3862
951.698	3119
951.788	2991
951.879	3205
951.969	3205
952.060	3037
952.150	2891
952.240	3454
952.331	2248
952.421	3834
952.511	2759
952.602	2920
952.692	3081
952.782	2093
952.872	2560
952.962	3047
953.052	3216
953.143	2101
953.233	3033
953.323	3465
953.413	2696
953.503	2940
953.593	3351
953.683	2849
953.773	2539
953.863	2592
953.953	2911
954.042	2911
954.132	3103
954.222	3426
954.312	3630
954.402	4114
954.492	8644
954.581	10131
954.671	4728
954.761	1681
954.850	3897
954.940	2567
955.030	2612
955.119	1020
955.209	2429
955.298	2028
955.388	2922
955.477	2992
955.567	1901
955.656	2764
955.746	3652
955.835	3050
955.925	2433
956.014	2341
956.103	2554
956.193	2974
956.282	2902
956.371	2824
956.461	2703
956.550	2538
956.639	3147
956.728	2990
956.817	2863
956.906	2248
956.995	3956
957.085	2130
957.174	3469
957.263	2961
957.352	2865
957.441	2038
957.530	2694
957.619	2919
957.708	2309
957.796	2404
957.885	1740
957.974	2574
958.063	2403
958.152	1580
958.241	2486
958.329	2077
958.418	2060
958.507	1683
958.596	3894
958.684	1632
958.773	3890
958.861	2440
958.950	2297
959.039	3080
959.127	2344
959.216	2432
959.304	2238
959.393	2346
959.481	3210
959.570	3223
959.658	3352
959.746	4281
959.835	9332
959.923	12944
960.011	6228
960.100	3507
960.188	3949
960.276	1793
960.365	2475
960.453	1604
960.541	1566
960.629	1669
960.717	2708
960.805	2083
960.893	2594
960.981	1805
961.069	3557
961.158	2776
961.245	3519
961.333	2753
961.421	2141
961.509	1762
961.597	2757
961.685	2660
961.773	2168
961.861	917
961.949	2928
962.036	1962
962.124	2850
962.212	2538
962.299	2215
962.387	1448
962.475	2604
962.562	1701
962.650	2941
962.738	2062
962.825	1736
962.913	2598
963.000	2361
963.088	1957
963.175	2407
963.263	2871
963.350	3146
963.438	4386
963.525	6791
963.612	13196
963.700	33325
963.787	51547
963.874	20463
963.962	3713
964.049	2426
964.136	1219
964.223	1208
964.310	2251
964.398	2407
964.485	3461
964.572	6504
964.659	11509
964.746	8586
964.833	2340
964.920	1292
965.007	2406
965.094	2116
965.181	2211
965.268	1744
965.355	1222
965.441	2117
965.528	1567
965.615	3008
965.702	1341
965.789	1774
965.875	1531
965.962	1740
966.049	1653
966.136	2602
966.222	2120
966.309	2961
966.395	1490
966.482	2526
966.569	1887
966.655	2448
966.742	1885
966.828	1750
966.915	2117
967.001	3289
967.087	1864
967.174	3583
967.260	5807
967.347	10325
967.433	26438
967.519	33005
967.605	10313
967.692	2252
967.778	1462
967.864	2408
967.950	1258
968.036	770
968.123	1595
968.209	1921
968.295	1497
968.381	2359
968.467	1853
968.553	697
968.639	3206
968.725	5092
968.811	7816
968.897	5903
968.983	1807
969.069	1355
969.154	935
969.240	2154
969.326	662
969.412	747
969.497	685
969.583	-169
969.669	1552
969.755	1648
969.840	1323
969.926	3007
970.012	2158
970.097	3464
970.183	2960
970.268	4429
970.354	8269
970.439	15785
970.525	22342
970.610	7156
970.696	3276
970.781	2180
970.866	684
970.952	1974
971.037	69
971.122	1640
971.208	1964
971.293	2363
971.378	-162
971.463	1294
971.549	1786
971.634	2436
971.719	2773
971.804	5806
971.889	4297
971.974	1562
972.059	1356
972.144	1528
972.229	2196
972.314	2068
972.399	2316
972.484	2034
972.569	4152
972.654	6473
972.739	14719
972.824	12265
972.908	3128
972.993	1691
973.078	1119
973.163	2101
973.247	1359
973.332	589
973.417	2140
973.501	781
973.586	1752
973.671	1417
973.755	2216
973.840	3514
973.924	2215
974.009	2490
974.093	2881
974.178	6879
974.262	11219
974.346	9285
974.431	3147
974.515	2024
974.600	1818
974.684	2584
974.768	1594
974.852	2525
974.937	1129
975.021	1910
975.105	-5
975.189	621
975.273	1716
975.358	1295
975.442	976
975.526	1054
975.610	534
975.694	787
975.778	1573
975.862	2083
975.946	280
976.030	2733
976.114	802
976.198	1671
976.281	1535
976.365	2776
976.449	884
976.533	1918
976.617	665
976.700	1646
976.784	2248
976.868	3887
976.951	6137
977.035	3683
977.119	1687
977.202	1671
977.286	1628
977.369	1611
977.453	2264
977.536	1050
977.620	1512
977.703	2092
977.787	780
977.870	2953
977.953	3452
978.037	2442
978.120	5481
978.203	9799
978.287	12958
978.370	6082
978.453	2276
978.536	3179
978.620	6581
978.703	8531
978.786	4296
978.869	1526
978.952	121
979.035	1781
979.118	1142
979.201	769
979.284	898
979.367	885
979.450	1052
979.533	651
979.616	1847
979.699	1332
979.782	1135
979.865	1463
979.948	1041
980.030	2108
980.113	997
980.196	1174
980.279	844
980.361	1144
980.444	310
980.526	1790
980.609	1320
980.692	1254
980.774	1001
980.857	50
980.939	2217
981.022	731
981.104	800
981.187	966
981.269	1886
981.352	990
981.434	1117
981.516	571
981.599	1685
981.681	1025
981.763	978
981.846	1032
981.928	1035
982.010	930
982.092	383
982.174	1516
982.256	1199
982.339	1153
982.421	1087
982.503	1121
982.585	480
982.667	1471
982.749	812
982.831	609
982.913	205
982.995	2756
983.077	1556
983.158	3467
983.240	328
983.322	1984
983.404	1084
983.486	1619
983.568	746
983.649	624
983.731	1745
983.813	549
983.894	1736
983.976	682
984.058	1266
984.139	1457
984.221	90
984.302	1481
984.384	836
984.465	131
984.547	1068
984.628	330
984.710	933
984.791	673
984.872	836
984.954	1415
985.035	1091
985.116	407
985.198	168
985.279	1794
985.360	905
985.441	627
985.522	1757
985.604	768
985.685	-77
985.766	1616
985.847	1692
985.928	1000
986.009	1313
986.090	816
986.171	1656
986.252	1514
986.333	898
986.414	595
986.495	691
986.576	1524
986.656	599
986.737	743
986.818	1339
986.899	1174
986.980	1178
987.060	1502
987.141	43
987.222	1894
987.302	1184
987.383	1514
987.464	-243
987.544	878
987.625	69
987.705	2668
987.786	964
987.866	975
987.947	519
988.027	1812
988.108	343
988.188	1972
988.268	1214
988.349	1347
988.429	1401
988.509	1373
988.589	1444
988.670	-488
988.750	1402
988.830	754
988.910	1430
988.990	2227
989.070	1077
989.151	996
989.231	250
989.311	1903
989.391	348
989.471	512
989.551	1189
989.631	151
989.711	820
989.791	-311
989.870	481
989.950	2276
990.030	263
990.110	-145
990.190	148
990.269	-76
990.349	484
990.429	544
990.509	1236
990.588	147
990.668	1723
990.747	764
990.827	900
990.907	1005
990.986	-28
991.066	1399
991.145	215
991.225	1379
991.304	61
991.383	1244
991.463	523
991.542	1081
991.622	173
991.701	833
991.780	181
991.859	1093
991.939	197
992.018	1174
992.097	396
992.176	821
992.256	751
992.335	128
992.414	1342
992.493	489
992.572	780
992.651	2355
992.730	617
992.809	684
992.888	271
992.967	90
993.046	717
993.125	-852
993.203	117
993.282	539
993.361	350
993.440	653
993.519	-391
993.597	257
993.676	91
993.755	514
993.834	606
993.912	63
993.991	604
994.069	-207
994.148	144
994.226	-219
994.305	17
994.384	-654
994.462	1093
994.540	-339
994.619	-751
994.697	876
994.776	-406
994.854	414
994.932	-1022
995.011	679
995.089	-145
995.167	295
995.245	-387
995.324	-322
995.402	309
995.480	270
995.558	-254
995.636	-441
995.714	-359
995.792	348
995.870	-438
995.948	-112
996.026	-701
996.104	-949
996.182	699
996.260	-537
996.338	-400
996.416	-590
996.494	-616
996.572	874
996.649	-29
996.727	-8
996.805	-404
996.883	286
996.960	-589
997.038	680
997.116	-431
997.193	-32
997.271	-131
997.348	-603
997.426	-290
997.504	-417
997.581	-270
997.658	88
997.736	-1370
997.813	-120
997.891	-246
997.968	-425
998.046	-658
998.123	70
998.200	82
998.277	-1957
998.355	196
998.432	-1585
998.509	-627
998.586	-202
998.663	-624
998.741	335
998.818	-1066
998.895	-766
998.972	34
999.049	-45
999.126	-315
999.203	-427
999.280	-244
999.357	-497
999.434	-486
999.511	-317
999.587	-399
999.664	856
999.741	575
999.818	-25
999.895	-540
999.971	-608
1000.048	-131
1000.125	802
1000.202	-513
1000.278	-169
1000.355	194
1000.431	83
1000.508	-1097
1000.584	-341
1000.661	-1060
1000.738	-188
1000.814	-786
1000.890	-260
1000.967	-466
1001.043	427
1001.120	-672
1001.196	-966
1001.272	-615
1001.349	-159
1001.425	-157
1001.501	-603
1001.577	-1529
1001.654	-546
1001.730	-333
1001.806	7
1001.882	-1332
1001.958	49
1002.034	-849
1002.110	-337
1002.186	-707
1002.262	-106
1002.338	-970
1002.414	166
1002.490	-526
1002.566	-873
1002.642	-1387
1002.718	812
1002.794	-707
1002.870	-475
1002.945	-639
1003.021	-692
1003.097	-1038
1003.173	489
1003.248	-681
1003.324	284
1003.400	-1195
1003.475	-927
1003.551	-829
1003.626	-653
1003.702	-1197
1003.777	-448
1003.853	-111
1003.928	-586
1004.004	-958
1004.079	-208
1004.155	-851
1004.230	-1344
1004.305	-150
1004.381	-1273
1004.456	-825
1004.531	-231
1004.607	-294
1004.682	-636
1004.757	-940
1004.832	-1071
1004.907	-634
1004.982	-659
1005.057	-741
1005.133	-937
1005.208	-1084
1005.283	-491
1005.358	-367
1005.433	-568
1005.508	105
1005.583	-1206
1005.657	55
1005.732	386
1005.807	-672
1005.882	219
1005.957	-1217
1006.032	-1209
1006.106	-1094
1006.181	-682
1006.256	-396
1006.331	-1434
1006.405	-1020
1006.480	-4
1006.554	-1013
1006.629	-380
1006.704	-991
1006.778	-216
1006.853	-94
1006.927	-739
1007.002	-791
1007.076	-519
1007.150	-781
1007.225	-494
1007.299	-50
1007.373	-718
1007.448	-1507
1007.522	-967
1007.596	-502
1007.671	-1104
1007.745	-674
1007.819	-1226
1007.893	-1572
1007.967	345
1008.041	-1973
1008.115	-207
1008.190	-1026
1008.264	-693
1008.338	-1322
1008.412	-436
1008.486	-277
1008.560	-745
1008.633	-1634
1008.707	-1280
1008.781	-727
1008.855	-1046
1008.929	-1288
1009.003	-1226
1009.076	-916
1009.150	-140
1009.224	-1023
1009.298	-314
1009.371	-2426
1009.445	-3
1009.519	-883
1009.592	-1148
1009.666	-520
1009.739	-706
1009.813	-2036
1009.886	23
1009.960	-1194
1010.033	-929
1010.107	-835
1010.180	-1330
1010.253	-1079
1010.327	-1866
1010.400	-737
1010.473	-1117
1010.547	-139
1010.620	-998
1010.693	-859
1010.766	-1933
1010.840	-1518
1010.913	-645
1010.986	-1691
1011.059	-1439
1011.132	-1906
1011.205	-329
1011.278	-2020
1011.351	-822
1011.424	-2055
1011.497	-2218
1011.570	-1921
1011.643	-1510
1011.716	-1063
1011.789	-1187
1011.862	-857
1011.934	-172
1012.007	-1752
1012.080	-1167
1012.153	-1644
1012.225	-578
1012.298	-1325
1012.371	-1451
1012.443	-539
1012.516	-2275
1012.588	-1659
1012.661	-920
1012.733	-1642
1012.806	-797
1012.879	-834
1012.951	-303
1013.023	-1475
1013.096	-411
1013.168	-2244
1013.241	-532
1013.313	-1852
1013.385	-1195
1013.458	-1306
1013.530	54
1013.602	-2140
1013.674	-209
1013.746	-2289
1013.819	-1363
1013.891	-1103
1013.963	-1706
1014.035	-734
1014.107	-2021
1014.179	-1507
1014.251	-1536
1014.323	-796
1014.395	-861
1014.467	-979
1014.539	8
1014.611	-1845
1014.683	-752
1014.754	-1378
1014.826	-1560
1014.898	-1604
1014.970	-1686
1015.042	-861
1015.113	-1009
1015.185	-1878
1015.257	-2142
1015.328	-1128
1015.400	-1468
1015.471	-1617
1015.543	-1792
1015.615	-1472
1015.686	-1037
1015.757	-1398
1015.829	-399
1015.901	-2024
1015.972	-1485
1016.043	-2006
1016.115	-1201
1016.186	-1583
1016.257	-1156
1016.328	-1439
1016.400	-630
1016.471	-2185
1016.542	-1953
1016.613	-1206
1016.685	-1786
1016.756	-1655
1016.827	-1158
1016.898	-1804
1016.969	-221
1017.040	-2006
1017.111	-2147
1017.182	-1823
1017.253	-923
1017.324	-1437
1017.395	-864
1017.466	-1166
1017.537	-1310
1017.608	-1366
1017.678	-1022
1017.749	-2455
1017.820	-595
1017.891	-2151
1017.961	-1678
1018.032	-1374
1018.103	-813
1018.173	-1931
1018.244	-2124
1018.315	-1593
1018.385	-841
1018.456	-1461
1018.526	-1761
1018.597	-1895
1018.667	-1570
1018.738	-1475
1018.808	-1806
1018.878	-1595
1018.949	-400
1019.019	-1502
1019.089	-1458
1019.160	-1367
1019.230	-2249
1019.300	-1466
1019.371	-2118
1019.441	-2476
1019.511	-1394
1019.581	-1446
1019.651	-1399
1019.721	-1548
1019.791	-641
1019.861	-1875
1019.931	-1309
1020.001	-2020
1020.071	-1567
1020.141	-2367
1020.211	-1224
1020.281	-1827
1020.351	-1474
1020.421	-1826
1020.491	-878
1020.560	-1593
1020.630	-1526
1020.700	-1766
1020.770	-2344
1020.839	-1341
1020.909	-1268
1020.979	-3172
1021.048	-1925
1021.118	-2055
1021.187	-2848
1021.257	-1659
1021.326	-1152
1021.396	-2145
1021.465	-1700
1021.535	-1096
1021.604	-1367
1021.674	-1367
1021.743	-1887
1021.812	-2575
1021.882	-1506
1021.951	-1195
1022.020	-1026
1022.089	-2020
1022.159	-2479
1022.228	-1915
1022.297	-1774
1022.366	-2000
1022.435	-1671
1022.504	-2067
1022.573	-1667
1022.642	-1098
1022.711	-2181
1022.781	-1761
1022.849	-1656
1022.918	-2100
1022.987	-2122
1023.056	-2433
1023.125	-1853
1023.194	-2044
1023.263	-2328
1023.331	-1635
1023.400	-1698
1023.469	-2087
1023.538	-1810
1023.606	-2173
1023.675	-1777
1023.744	-1960
1023.812	-1361
1023.881	-1674
1023.949	-1597
1024.018	-1840
1024.086	-1674
1024.155	-1832
1024.223	-1985
1024.292	-1445
1024.360	-1947
1024.429	-1494
1024.497	-1964
1024.565	-1828
1024.634	-1334
1024.702	-2427
1024.770	-1384
1024.838	-1893
1024.907	-1607
1024.975	-2056
1025.043	-1914
1025.111	-2594
1025.179	-1587
1025.247	-1103
1025.315	-1957
1025.383	-1990
1025.451	-1626
1025.519	-2550
1025.587	-2199
1025.655	-2028
1025.723	-2514
1025.791	-2166
1025.859	-2126
1025.927	-2072
1025.995	-2684
1026.062	-2234
1026.130	-1769
1026.198	-2256
1026.266	-2101
1026.333	-2122
1026.401	-1217
1026.469	-2355
1026.536	-1808
1026.604	-2150
1026.671	-1510
1026.739	-2278
1026.806	-2492
1026.874	-2090
1026.941	-1910
1027.009	-1948
1027.076	-1964
1027.144	-1481
1027.211	-2077
1027.278	-2912
1027.345	-1899
1027.413	-2785
1027.480	-2133
1027.547	-2417
1027.614	-2300
1027.682	-1697
1027.749	-1936
1027.816	-2220
1027.883	-2116
1027.950	-2291
1028.017	-1393
1028.084	-2206
1028.151	-2370
1028.218	-1407
1028.285	-2133
1028.352	-1641
1028.419	-2131
1028.486	-2237
1028.553	-1861
1028.619	-2750
1028.686	-1728
1028.753	-2445
1028.820	-3049
1028.886	-2133
1028.953	-1982
1029.020	-1925
1029.086	-2098
1029.153	-3011
1029.220	-1606
1029.286	-1677
1029.353	-2180
1029.419	-2984
1029.486	-2106
1029.552	-2243
1029.619	-2020
1029.685	-3021
1029.751	-2044
1029.818	-1370
1029.884	-2157
1029.951	-1573
1030.017	-1747
1030.083	-1588
1030.149	-1424
1030.216	-2355
1030.282	-1670
1030.348	-2560
1030.414	-2346
1030.480	-2383
1030.546	-1922
1030.612	-1464
1030.678	-2402
1030.744	-1720
1030.810	-2382
1030.876	-2985
1030.942	-2356
1031.008	-3154
1031.074	-2227
1031.140	-2590
1031.206	-1094
1031.272	-2867
1031.337	-2055
1031.403	-2224
1031.469	-2666
1031.534	-2222
1031.600	-1638
1031.666	-2761
1031.731	-1877
1031.797	-2465
1031.863	-2178
1031.928	-1826
1031.994	-1701
1032.059	-1741
1032.125	-940
1032.190	-3039
1032.256	-2027
1032.321	-2768
1032.386	-1475
1032.452	-1989
1032.517	-1613
1032.582	-2379
1032.647	-2557
1032.713	-2453
1032.778	-1236
1032.843	-2851
1032.908	-2510
1032.974	-1960
1033.039	-2335
1033.104	-1848
1033.169	-1982
1033.234	-1942
1033.299	-1734
1033.364	-2126
1033.429	-1233
1033.494	-2372
1033.559	-973
1033.624	-2449
1033.688	-1895
1033.753	-2253
1033.818	-1745
1033.883	-2901
1033.948	-1158
1034.013	-2257
1034.077	-1111
1034.142	-669
1034.207	-812
1034.271	-563
1034.336	-398
1034.400	-1001
1034.465	-689
1034.530	-1193
1034.594	-1381
1034.658	-1504
1034.723	-1341
1034.787	-1887
1034.852	-1908
1034.916	-2433
1034.981	-1530
1035.045	-3101
1035.109	-2350
1035.173	-2169
1035.238	-2629
1035.302	-1817
1035.366	-2174
1035.430	-1537
1035.495	-2017
1035.559	-1952
1035.623	-1098
1035.687	-2683
1035.751	-1652
1035.815	-2210
1035.879	-1675
1035.943	-1964
1036.007	-2497
1036.071	-1952
1036.135	-1769
1036.198	-2571
1036.262	-2275
1036.326	-1935
1036.390	-2056
1036.454	-1420
1036.517	-840
1036.581	-868
1036.645	-811
1036.709	-812
1036.772	-1876
1036.836	-1827
1036.900	-1883
1036.963	-3029
1037.026	-1464
1037.090	-1729
1037.154	-1963
1037.217	-1959
1037.280	-1403
1037.344	-2017
1037.407	-1770
1037.471	-1882
1037.534	-2018
1037.597	-1921
1037.661	-1604
1037.724	-1689
1037.787	-2274
1037.850	-2158
1037.913	-1576
1037.977	-1337
1038.040	-1404
1038.103	-2933
1038.166	-2225
1038.229	-1739
1038.292	-2306
1038.355	-1064
1038.418	-1714
1038.481	-1745
1038.544	-2513
1038.607	-2330
1038.670	-1411
1038.732	-2027
1038.795	-2080
1038.858	-1928
1038.921	-1480
1038.984	-1646
1039.046	-2229
1039.109	-1944
1039.172	-1814
1039.234	-2261
1039.297	-1800
1039.360	-2042
1039.422	-1879
1039.485	-1546
1039.547	-2021
1039.610	-1092
1039.672	-1720
1039.734	-2230
1039.797	-1946
1039.859	-2046
1039.922	-2358
1039.984	-2211
1040.046	-1905
1040.109	-2703
1040.171	-2115
1040.233	-1740
1040.295	-2742
1040.358	-1865
1040.420	-2124
1040.482	-1777
1040.544	-2057
1040.606	-1875
1040.668	-2399
1040.730	-2267
1040.792	-2191
1040.854	-1863
1040.916	-1978
1040.978	-2878
1041.040	-1181
1041.102	-2040
1041.164	-1973
1041.225	-2273
1041.287	-2173
1041.349	-2536
1041.411	-1904
1041.472	-2008
1041.534	-1547
1041.596	-2606
1041.657	-1166
1041.719	-2105
1041.781	-1965
1041.842	-1786
1041.904	-2261
1041.965	-2676
1042.027	-1511
1042.088	-1643
1042.150	-2049
1042.211	-1717
1042.272	-982
1042.334	-2658
1042.395	-2499
1042.456	-2611
1042.518	-2250
1042.579	-1321
1042.640	-1396
1042.701	-2210
1042.763	-2194
1042.824	-2746
1042.885	-1742
1042.946	-2187
1043.007	-1739
1043.068	-2885
1043.129	-1742
1043.190	-2065
1043.251	-1861
1043.312	-1938
1043.373	-2028
1043.434	-1429
1043.495	-2444
1043.556	-2241
1043.616	-1102
1043.677	-1596
1043.738	-1709
1043.799	-1622
1043.859	-1701
1043.920	-2599
1043.981	-1940
1044.041	-2369
1044.102	-2046
1044.162	-1671
1044.223	-1705
1044.284	-1862
1044.344	-2680
1044.405	-2412
1044.465	-1438
1044.525	-2135
1044.586	-1723
1044.646	-1909
1044.707	-1196
1044.767	-1095
1044.827	-1327
1044.887	-1028
1044.948	-1638
1045.008	-1603
1045.068	-1739
1045.128	-1733
1045.188	-2200
1045.249	-1627
1045.309	-1507
1045.369	-1231
1045.429	-1438
1045.489	-1722
1045.549	-2415
1045.609	-2607
1045.669	-1534
1045.729	-2254
1045.789	-1587
1045.848	-1862
1045.908	-2054
1045.968	-1580
1046.028	-2046
1046.088	-1331
1046.147	-1497
1046.207	-1227
1046.267	-1504
1046.326	-1493
1046.386	-704
1046.446	-1950
1046.505	118
1046.565	-1117
1046.624	-19
1046.684	-712
1046.743	-1096
1046.803	-616
1046.862	-27
1046.922	0
