'Start Wavelength	183.907
'End Wavelength	1046.922
'Gate Delay	5.000
'Gate Width (ms)	1.050
'Laser Output Level	0.000
'X Position	0.000
'Y Position	0.000
'Z Position	0.000
'Grid Point Number	1.000
'Shot Number	100.000
183.907	543.000
183.977	-148.000
184.047	594
184.116	-194
184.186	860
184.256	381
184.325	247
184.395	386
184.465	1059
184.534	-402
184.604	275
184.674	132
184.743	263
184.813	577
184.883	630
184.952	494
185.022	393
185.092	542
185.161	956
185.231	805
185.301	1439
185.370	552
185.440	1394
185.509	-447
185.579	561
185.649	477
185.718	1105
185.788	-151
185.857	250
185.927	72
185.996	23
186.066	595
186.136	964
186.205	733
186.275	1134
186.344	40
186.414	1187
186.483	741
186.553	2069
186.622	1710
186.692	1909
186.761	572
186.831	954
186.900	692
186.970	1320
187.039	950
187.109	1610
187.178	987
187.248	1189
187.317	1316
187.387	1702
187.456	1039
187.526	2563
187.595	1863
187.664	1501
187.734	1308
187.803	1880
187.873	1690
187.942	1607
188.012	-141
188.081	552
188.150	499
188.220	2497
188.289	3051
188.358	2491
188.428	1543
188.497	1125
188.567	1648
188.636	1241
188.705	871
188.775	1638
188.844	406
188.913	2138
188.983	970
189.052	1272
189.121	493
189.191	1409
189.260	945
189.329	1798
189.399	457
189.468	1566
189.537	589
189.606	1507
189.676	908
189.745	1629
189.814	2071
189.883	1661
189.953	1570
190.022	2537
190.091	3449
190.161	4865
190.230	1830
190.299	1921
190.368	1811
190.437	1040
190.507	942
190.576	1871
190.645	665
190.714	1926
190.783	449
190.853	2296
190.922	1842
190.991	2582
191.060	1391
191.129	1765
191.198	1976
191.268	1819
191.337	1564
191.406	2534
191.475	1149
191.544	1639
191.613	1004
191.682	1690
191.752	1337
191.821	1847
191.890	1702
191.959	2031
192.028	781
192.097	1505
192.166	1359
192.235	1281
192.304	1148
192.373	1562
192.442	1468
192.511	1298
192.580	465
192.650	1384
192.719	1106
192.788	1357
192.857	909
192.926	1405
192.995	1624
193.064	2420
193.133	1878
193.202	2946
193.271	1928
193.340	2560
193.409	2798
193.478	4007
193.547	3400
193.615	4602
193.684	3764
193.753	3191
193.822	2033
193.891	1958
193.960	1575
194.029	2009
194.098	2035
194.167	1483
194.236	1064
194.305	1911
194.374	1037
194.443	2576
194.512	2767
194.580	2302
194.649	2905
194.718	3551
194.787	1386
194.856	1687
194.925	2076
194.994	2822
195.062	2404
195.131	3491
195.200	2989
195.269	5446
195.338	1993
195.407	2647
195.475	1872
195.544	4285
195.613	2945
195.682	2393
195.751	3673
195.819	4745
195.888	2450
195.957	4007
196.026	3216
196.094	4296
196.163	4397
196.232	3799
196.301	3874
196.369	3883
196.438	3155
196.507	2895
196.576	1541
196.644	1676
196.713	1439
196.782	1585
196.850	1324
196.919	1411
196.988	1292
197.056	1697
197.125	1914
197.194	2520
197.262	1988
197.331	2593
197.400	1751
197.468	1763
197.537	1799
197.606	2381
197.674	3212
197.743	5072
197.812	2844
197.880	5345
197.949	3010
198.017	4406
198.086	3804
198.155	2858
198.223	3170
198.292	5135
198.360	3096
198.429	2921
198.497	1541
198.566	4516
198.635	5341
198.703	3483
198.772	2741
198.840	6752
198.909	5341
198.977	2902
199.046	2076
199.114	3049
199.183	2579
199.251	2380
199.320	2109
199.388	2342
199.457	1666
199.525	3239
199.594	1999
199.662	2355
199.731	1966
199.799	3118
199.867	1950
199.936	3002
200.004	2404
200.073	3171
200.141	1888
200.210	2189
200.278	1911
200.346	2780
200.415	3544
200.483	4894
200.552	3516
200.620	3141
200.688	2083
200.757	2675
200.825	2044
200.893	3536
200.962	2708
201.030	2515
201.098	1881
201.167	3584
201.235	2419
201.303	3416
201.372	3373
201.440	2967
201.508	3894
201.577	3164
201.645	3648
201.713	3488
201.781	3242
201.850	4111
201.918	2457
201.986	2962
202.055	3080
202.123	2528
202.191	2223
202.259	2716
202.327	2265
202.396	2200
202.464	2567
202.532	4382
202.600	11027
202.669	7695
202.737	2656
202.805	3336
202.873	2329
202.941	3043
203.009	2272
203.078	3492
203.146	2659
203.214	2437
203.282	1910
203.350	3334
203.418	2427
203.487	2833
203.555	2301
203.623	2884
203.691	2681
203.759	2607
203.827	2065
203.895	3646
203.963	3113
204.031	3692
204.099	2895
204.168	2911
204.236	2748
204.304	4510
204.372	2464
204.440	3164
204.508	2058
204.576	2274
204.644	2070
204.712	2530
204.780	2136
204.848	2856
204.916	2288
204.984	3716
205.052	2493
205.120	3226
205.188	2786
205.256	2355
205.324	3097
205.392	3228
205.460	2570
205.528	3246
205.596	2951
205.664	3851
205.732	2318
205.799	7818
205.867	9433
205.935	4317
206.003	2876
206.071	3199
206.139	2882
206.207	3613
206.275	2982
206.343	3305
206.411	2522
206.478	2455
206.546	2789
206.614	3841
206.682	2950
206.750	3819
206.818	4283
206.885	4369
206.953	2245
207.021	4006
207.089	2259
207.157	2902
207.225	3418
207.292	3574
207.360	3324
207.428	3580
207.496	2576
207.563	2733
207.631	2331
207.699	3738
207.767	3299
207.834	3676
207.902	3437
207.970	3698
208.038	3930
208.105	3748
208.173	3233
208.241	4287
208.309	3896
208.376	4632
208.444	7472
208.512	4990
208.579	3048
208.647	4776
208.715	4634
208.782	5282
208.850	3370
208.918	3641
208.985	2862
209.053	3238
209.120	4057
209.188	3819
209.256	3972
209.323	4478
209.391	5451
209.459	4056
209.526	3320
209.594	3566
209.661	3667
209.729	3200
209.796	3730
209.864	4696
209.932	3085
209.999	4783
210.067	5160
210.134	4967
210.202	5366
210.269	7147
210.337	6500
210.404	5080
210.472	3654
210.539	4159
210.607	4922
210.674	5934
210.742	3954
210.809	5312
210.877	4542
210.944	6421
211.012	4722
211.079	6466
211.146	4095
211.214	4861
211.281	7642
211.349	7260
211.416	4333
211.484	5384
211.551	4858
211.618	4963
211.686	3927
211.753	4158
211.821	3657
211.888	4507
211.955	4651
212.023	4392
212.090	4372
212.157	4371
212.225	4967
212.292	8729
212.359	14094
212.427	27862
212.494	14092
212.561	7653
212.629	5468
212.696	5494
212.763	4872
212.831	5072
212.898	4394
212.965	4549
213.032	4946
213.100	6989
213.167	5677
213.234	6775
213.301	4272
213.369	5073
213.436	3945
213.503	5516
213.570	5591
213.638	6631
213.705	3955
213.772	5410
213.839	6125
213.906	5996
213.973	6581
214.041	5574
214.108	5746
214.175	5875
214.242	4919
214.309	5075
214.376	5304
214.444	6164
214.511	5912
214.578	5614
214.645	6102
214.712	7326
214.779	6241
214.846	6901
214.913	6824
214.980	7111
215.048	7390
215.115	8945
215.182	8695
215.249	7726
215.316	5476
215.383	6154
215.450	6173
215.517	6818
215.584	5314
215.651	6777
215.718	5647
215.785	7688
215.852	6967
215.919	9950
215.986	7735
216.053	6235
216.120	5626
216.187	8557
216.254	7525
216.321	7118
216.388	7448
216.455	7935
216.522	7469
216.589	10664
216.656	14056
216.722	13505
216.789	7599
216.856	7662
216.923	6461
216.990	7579
217.057	6920
217.124	9385
217.191	7991
217.258	9389
217.324	9180
217.391	9316
217.458	6805
217.525	6975
217.592	6078
217.659	6835
217.725	7546
217.792	10775
217.859	10027
217.926	6583
217.993	5657
218.059	6395
218.126	5585
218.193	5881
218.260	5173
218.327	5897
218.393	6582
218.460	5925
218.527	5952
218.594	6941
218.660	11510
218.727	11784
218.794	5655
218.860	6578
218.927	4954
218.994	5444
219.061	6228
219.127	8555
219.194	10029
219.261	6534
219.327	4826
219.394	6028
219.461	3730
219.527	5361
219.594	8072
219.661	6513
219.727	4724
219.794	5729
219.860	5125
219.927	6895
219.994	8611
220.060	14938
220.127	11757
220.193	8059
220.260	6100
220.326	8883
220.393	9992
220.460	12174
220.526	9798
220.593	7558
220.659	7995
220.726	9373
220.792	16083
220.859	14820
220.925	16006
220.992	18494
221.058	20440
221.125	21952
221.191	16473
221.258	9160
221.324	6872
221.391	7504
221.457	6356
221.524	6748
221.590	8256
221.657	22317
221.723	14922
221.789	14783
221.856	12331
221.922	8635
221.989	7461
222.055	7527
222.121	7329
222.188	9924
222.254	7585
222.321	6890
222.387	4853
222.453	5936
222.520	5638
222.586	5827
222.652	5893
222.719	6273
222.785	5228
222.851	5908
222.918	4926
222.984	6847
223.050	6430
223.116	6158
223.183	5822
223.249	4084
223.315	4026
223.382	4958
223.448	4798
223.514	4883
223.580	4510
223.647	4792
223.713	5256
223.779	5250
223.845	5131
223.911	6218
223.978	4892
224.044	5651
224.110	5211
224.176	5764
224.242	4663
224.309	4726
224.375	4903
224.441	5328
224.507	4478
224.573	5615
224.639	5739
224.705	4493
224.772	4722
224.838	6487
224.904	7048
224.970	5846
225.036	5680
225.102	6117
225.168	5311
225.234	6449
225.300	5663
225.366	5149
225.432	4560
225.499	5921
225.565	7179
225.631	8053
225.697	6790
225.763	7478
225.829	7917
225.895	8676
225.961	12230
226.027	12371
226.093	10063
226.159	11500
226.225	12361
226.291	21887
226.357	29059
226.423	21699
226.489	16317
226.554	11880
226.620	10705
226.686	15500
226.752	21042
226.818	23585
226.884	37123
226.950	31295
227.016	17222
227.082	13458
227.148	12327
227.214	13740
227.279	12890
227.345	11091
227.411	10862
227.477	12815
227.543	22861
227.609	24181
227.674	15002
227.740	12599
227.806	9361
227.872	8427
227.938	8768
228.003	14796
228.069	8770
228.135	6284
228.201	7252
228.267	8033
228.332	9619
228.398	11508
228.464	8089
228.530	5738
228.595	5912
228.661	6653
228.727	11720
228.792	10859
228.858	6938
228.924	9022
228.990	9718
229.055	11910
229.121	12261
229.187	8109
229.252	8716
229.318	6910
229.384	7729
229.449	9686
229.515	5203
229.581	5297
229.646	7268
229.712	9910
229.777	17201
229.843	17599
229.909	14250
229.974	14216
230.040	11850
230.105	11591
230.171	11138
230.236	12956
230.302	16111
230.368	14999
230.433	10081
230.499	10563
230.564	11647
230.630	9548
230.695	7896
230.761	8612
230.826	6718
230.892	13221
230.957	8949
231.023	7403
231.088	7552
231.154	7106
231.219	6984
231.284	11964
231.350	10772
231.415	8088
231.481	6943
231.546	7138
231.612	5978
231.677	6347
231.742	6130
231.808	8640
231.873	6901
231.939	6249
232.004	11492
232.069	11794
232.135	7433
232.200	6910
232.265	5534
232.331	6862
232.396	6063
232.461	6184
232.527	5829
232.592	6958
232.657	7351
232.723	13121
232.788	9696
232.853	8101
232.918	7069
232.984	6793
233.049	6178
233.114	13131
233.179	11330
233.245	16275
233.310	16578
233.375	7926
233.440	7804
233.506	7234
233.571	6656
233.636	7979
233.701	7348
233.766	13980
233.832	15267
233.897	10913
233.962	11519
234.027	14280
234.092	11751
234.157	10899
234.222	10834
234.288	16743
234.353	33256
234.418	32706
234.483	20303
234.548	17907
234.613	14717
234.678	14730
234.743	16135
234.808	36973
234.873	23591
234.938	14043
235.004	10866
235.069	11908
235.134	10590
235.199	10887
235.264	9922
235.329	8630
235.394	9329
235.459	12924
235.524	12018
235.589	10073
235.654	8476
235.719	8603
235.784	8605
235.849	11501
235.913	20074
235.978	23860
236.043	24377
236.108	12554
236.173	12452
236.238	12831
236.303	9635
236.368	9293
236.433	14351
236.498	22302
236.563	13849
236.627	22448
236.692	51972
236.757	42903
236.822	24922
236.887	23257
236.952	16798
237.017	15129
237.081	15784
237.146	19030
237.211	26390
237.276	51160
237.341	78741
237.405	46842
237.470	25242
237.535	21461
237.600	13766
237.664	13401
237.729	11769
237.794	14698
237.859	19094
237.923	19684
237.988	13780
238.053	20134
238.118	19900
238.182	45653
238.247	36982
238.312	25550
238.376	16725
238.441	16334
238.506	14307
238.570	9003
238.635	9859
238.700	10541
238.764	10997
238.829	22187
238.893	23860
238.958	15283
239.023	14008
239.087	11130
239.152	12864
239.216	9945
239.281	9527
239.346	9610
239.410	9794
239.475	13363
239.539	43254
239.604	32552
239.668	13822
239.733	12105
239.797	19184
239.862	40493
239.926	41663
239.991	19715
240.055	12537
240.120	11547
240.184	11206
240.249	11079
240.313	9867
240.378	11321
240.442	29729
240.507	38183
240.571	15643
240.635	23112
240.700	26353
240.764	14805
240.829	11885
240.893	9731
240.957	10218
241.022	26563
241.086	39785
241.151	22014
241.215	11202
241.279	15786
241.344	24160
241.408	15808
241.472	13638
241.537	14385
241.601	13205
241.665	12179
241.730	11510
241.794	13280
241.858	11738
241.922	12969
241.987	12964
242.051	10506
242.115	10222
242.179	11339
242.244	10333
242.308	12307
242.372	12649
242.436	16471
242.501	13780
242.565	11215
242.629	10271
242.693	11208
242.757	9896
242.822	11895
242.886	12372
242.950	12888
243.014	13649
243.078	16152
243.142	16717
243.206	14058
243.271	14685
243.335	13992
243.399	17464
243.463	46763
243.527	89067
243.591	36270
243.655	23175
243.719	15482
243.783	16574
243.847	23093
243.911	26497
243.975	39777
244.040	29516
244.104	17109
244.168	13623
244.232	24427
244.296	28236
244.360	25367
244.424	18834
244.488	16783
244.552	15845
244.615	12306
244.679	11435
244.743	16700
244.807	16796
244.871	13009
244.935	12019
244.999	11973
245.063	13370
245.127	16530
245.191	20922
245.255	20749
245.319	19975
245.383	18850
245.446	14441
245.510	13341
245.574	15556
245.638	16798
245.702	15431
245.766	28619
245.829	19325
245.893	17382
245.957	14732
246.021	17319
246.085	18522
246.149	23392
246.212	40380
246.276	56477
246.340	30985
246.404	24102
246.467	22681
246.531	30810
246.595	21045
246.659	21410
246.722	22119
246.786	26973
246.850	25082
246.913	27729
246.977	16412
247.041	18456
247.104	19788
247.168	18188
247.232	39537
247.295	70600
247.359	38453
247.423	23305
247.486	34672
247.550	23901
247.614	22207
247.677	29414
247.741	19019
247.804	16965
247.868	20194
247.932	41730
247.995	69399
248.059	34130
248.122	20713
248.186	27963
248.249	46016
248.313	102941
248.376	106425
248.440	77487
248.503	37101
248.567	31907
248.630	41879
248.694	55903
248.757	69625
248.821	110775
248.884	79722
248.948	76501
249.011	98282
249.075	127023
249.138	111396
249.202	57167
249.265	40090
249.328	45058
249.392	34686
249.455	30047
249.519	23023
249.582	31931
249.645	40566
249.709	31171
249.772	22068
249.835	23220
249.899	26912
249.962	21937
250.025	22310
250.089	51383
250.152	66040
250.215	39245
250.279	28943
250.342	29753
250.405	25509
250.468	23696
250.532	31985
250.595	42894
250.658	104845
250.721	139753
250.785	64325
250.848	39938
250.911	28353
250.974	27558
251.038	38787
251.101	69559
251.164	42179
251.227	44507
251.290	36513
251.354	47630
251.417	134396
251.480	122740
251.543	99779
251.606	214396
251.669	157774
251.732	82004
251.795	93074
251.859	90002
251.922	148648
251.985	90734
252.048	45937
252.111	41797
252.174	43367
252.237	78622
252.300	127108
252.363	132636
252.426	180595
252.489	96781
252.552	62949
252.615	48411
252.678	50752
252.741	102322
252.804	116773
252.867	188860
252.930	139501
252.993	87289
253.056	59056
253.119	48294
253.182	38336
253.245	53365
253.308	47080
253.371	57177
253.434	50161
253.497	47742
253.559	73273
253.622	58190
253.685	85161
253.748	83566
253.811	43659
253.874	53456
253.937	50717
254.000	40019
254.062	61397
254.125	77620
254.188	72380
254.251	59973
254.314	37485
254.376	61909
254.439	68628
254.502	66794
254.565	64019
254.628	98420
254.690	73290
254.753	43962
254.816	38812
254.878	41533
254.941	60790
255.004	57302
255.067	34717
255.129	37690
255.192	22829
255.255	22878
255.317	26805
255.380	19295
255.443	15061
255.505	17528
255.568	16649
255.631	18561
255.693	19209
255.756	16940
255.819	15457
255.881	15540
255.944	13326
256.006	14039
256.069	15360
256.132	14852
256.194	22996
256.257	44846
256.319	33114
256.382	32323
256.444	20828
256.507	17315
256.569	15023
256.632	16414
256.694	24671
256.757	37709
256.819	79907
256.882	41322
256.944	25526
257.007	25205
257.069	30183
257.132	19956
257.194	16146
257.257	17780
257.319	17144
257.381	17655
257.444	31842
257.506	94561
257.569	117041
257.631	88195
257.693	48834
257.756	27974
257.818	28794
257.880	19140
257.943	18084
258.005	18317
258.067	17720
258.130	17211
258.192	23959
258.254	50300
258.317	26899
258.379	20123
258.441	42003
258.503	36167
258.566	47269
258.628	52790
258.690	20724
258.753	24616
258.815	46470
258.877	27574
258.939	17188
259.001	16660
259.064	15943
259.126	22938
259.188	27271
259.250	20573
259.312	27588
259.375	58986
259.437	37880
259.499	19314
259.561	18916
259.623	20825
259.685	18648
259.747	19253
259.809	48301
259.872	73205
259.934	112034
259.996	93984
260.058	33731
260.120	20514
260.182	17138
260.244	15673
260.306	13922
260.368	17087
260.430	16731
260.492	33133
260.554	55349
260.616	42913
260.678	66030
260.740	75154
260.802	26737
260.864	25437
260.926	22912
260.988	21586
261.050	22150
261.112	43078
261.174	83406
261.236	58918
261.298	28987
261.359	42806
261.421	50680
261.483	22617
261.545	20034
261.607	15779
261.669	16410
261.731	31334
261.793	61184
261.854	32042
261.916	24772
261.978	21417
262.040	21519
262.102	18308
262.164	30056
262.225	22804
262.287	17202
262.349	41046
262.411	30075
262.472	18497
262.534	30476
262.596	53635
262.658	21479
262.719	17869
262.781	22682
262.843	52251
262.904	24978
262.966	23380
263.028	25507
263.090	85459
263.151	162591
263.213	66565
263.275	48552
263.336	24696
263.398	18749
263.459	15311
263.521	16705
263.583	36518
263.644	26954
263.706	15553
263.767	12087
263.829	12928
263.891	11080
263.952	10541
264.014	10724
264.075	21398
264.137	41519
264.198	25837
264.260	12225
264.321	12797
264.383	30460
264.444	59234
264.506	21853
264.567	18045
264.629	26687
264.690	47124
264.752	24594
264.813	18042
264.875	14011
264.936	15136
264.998	12469
265.059	11879
265.120	12351
265.182	18889
265.243	44461
265.305	43041
265.366	17586
265.427	14743
265.489	13892
265.550	12184
265.611	17969
265.673	17719
265.734	13969
265.795	11790
265.857	10952
265.918	11722
265.979	19035
266.040	67284
266.102	56695
266.163	28598
266.224	30211
266.286	19197
266.347	13771
266.408	16449
266.469	17227
266.530	14339
266.592	13340
266.653	31539
266.714	44931
266.775	19125
266.836	14781
266.898	14531
266.959	23690
267.020	17482
267.081	13797
267.142	13400
267.203	11499
267.264	13186
267.326	16033
267.387	14191
267.448	11567
267.509	13236
267.570	13711
267.631	12789
267.692	11543
267.753	12319
267.814	11840
267.875	24867
267.936	42923
267.997	25743
268.058	25400
268.119	18714
268.180	19666
268.241	16475
268.302	14405
268.363	14522
268.424	15950
268.485	17929
268.546	12195
268.607	11040
268.668	10375
268.729	11561
268.790	14639
268.851	16156
268.912	35276
268.972	42561
269.033	27577
269.094	15245
269.155	12065
269.216	13429
269.277	16326
269.338	13304
269.398	13249
269.459	19870
269.520	25259
269.581	35412
269.642	40569
269.702	28499
269.763	19445
269.824	16953
269.885	22351
269.945	30641
270.006	15842
270.067	13127
270.128	11475
270.188	12472
270.249	13885
270.310	12311
270.370	12735
270.431	14136
270.492	11374
270.553	15465
270.613	33211
270.674	50352
270.734	24358
270.795	17493
270.856	25559
270.916	22692
270.977	15771
271.038	20943
271.098	21607
271.159	31943
271.219	28684
271.280	14849
271.340	14031
271.401	20563
271.462	38376
271.522	25715
271.583	18094
271.643	18603
271.704	17875
271.764	23172
271.825	46229
271.885	120173
271.946	139837
272.006	61619
272.066	79575
272.127	111219
272.187	44243
272.248	29955
272.308	30974
272.369	76255
272.429	45407
272.489	45405
272.550	45427
272.610	49673
272.671	37492
272.731	33630
272.791	51099
272.852	33377
272.912	31059
272.972	18660
273.033	19716
273.093	33079
273.153	30086
273.214	20437
273.274	23441
273.334	65239
273.394	107032
273.455	60933
273.515	54610
273.575	98881
273.635	47629
273.696	68721
273.756	107084
273.816	52890
273.876	33896
273.936	61945
273.997	86297
274.057	32362
274.117	28550
274.177	42200
274.237	129925
274.297	107224
274.358	86791
274.418	87777
274.478	70166
274.538	35078
274.598	31184
274.658	80614
274.718	95445
274.778	44335
274.838	28551
274.898	56752
274.958	133952
275.018	113014
275.078	75471
275.138	42212
275.198	25183
275.258	21840
275.318	28149
275.378	51075
275.438	51289
275.498	34966
275.558	67275
275.618	113383
275.678	72317
275.738	56883
275.798	44314
275.858	26582
275.918	17845
275.978	24585
276.038	22797
276.098	19674
276.157	36703
276.217	85966
276.277	44465
276.337	39934
276.397	22647
276.457	30929
276.517	20875
276.576	16358
276.636	17345
276.696	31941
276.756	57333
276.815	41460
276.875	24680
276.935	30239
276.995	26373
277.055	17545
277.114	18747
277.174	25108
277.234	63690
277.293	34870
277.353	24551
277.413	17510
277.472	22362
277.532	23436
277.592	22871
277.651	60190
277.711	87401
277.771	40163
277.830	112069
277.890	88074
277.950	74524
278.009	153907
278.069	65727
278.128	76360
278.188	97035
278.248	55103
278.307	107213
278.367	62292
278.426	28554
278.486	23024
278.545	18303
278.605	17642
278.664	17417
278.724	22135
278.783	48812
278.843	95326
278.902	36079
278.962	30787
279.021	33725
279.081	46401
279.140	43029
279.199	35750
279.259	30693
279.318	32833
279.378	41697
279.437	74979
279.496	209038
279.556	435187
279.615	327433
279.675	125668
279.734	80817
279.793	126596
279.853	153951
279.912	65141
279.971	44121
280.031	41643
280.090	64102
280.149	98076
280.208	101438
280.268	314450
280.327	284255
280.386	100003
280.445	76110
280.505	67314
280.564	39114
280.623	34703
280.682	43655
280.742	56495
280.801	25559
280.860	24163
280.919	20694
280.978	19871
281.037	19016
281.097	18568
281.156	18283
281.215	17885
281.274	22715
281.333	65509
281.392	46731
281.451	19244
281.510	16555
281.569	17231
281.628	14749
281.688	15698
281.747	18958
281.806	20274
281.865	15393
281.924	17208
281.983	16855
282.042	12950
282.101	13758
282.160	14855
282.219	13475
282.278	18227
282.337	45397
282.396	31889
282.454	18158
282.513	23592
282.572	67865
282.631	40835
282.690	19140
282.749	17750
282.808	23644
282.867	23803
282.926	24171
282.985	14764
283.043	13843
283.102	16380
283.161	18803
283.220	36339
283.279	59857
283.338	26460
283.396	19484
283.455	20711
283.514	23201
283.573	36210
283.631	27004
283.690	19915
283.749	19953
283.808	37882
283.866	40704
283.925	21492
283.984	20034
284.043	30284
284.101	30247
284.160	21970
284.219	25745
284.277	25881
284.336	38728
284.395	92424
284.453	68889
284.512	37221
284.570	53465
284.629	47708
284.688	45181
284.746	50277
284.805	56561
284.863	74295
284.922	91019
284.981	106793
285.039	150815
285.098	239491
285.156	386071
285.215	381454
285.273	398262
285.332	391067
285.390	263857
285.449	177709
285.507	128095
285.566	98945
285.624	75754
285.683	61300
285.741	50080
285.799	46078
285.858	41953
285.916	38514
285.975	30630
286.033	27857
286.091	24219
286.150	22479
286.208	22706
286.267	26963
286.325	26902
286.383	42953
286.442	32736
286.500	20194
286.558	17477
286.616	18661
286.675	27193
286.733	23664
286.791	23018
286.850	24745
286.908	30439
286.966	45768
287.024	22523
287.083	17393
287.141	14565
287.199	17883
287.257	29566
287.315	20995
287.374	23221
287.432	44616
287.490	30127
287.548	22979
287.606	17871
287.664	18356
287.723	26247
287.781	30099
287.839	18698
287.897	22236
287.955	22619
288.013	30728
288.071	62765
288.129	193965
288.187	401389
288.245	196297
288.303	76752
288.361	47661
288.419	38403
288.477	29859
288.535	23257
288.593	19251
288.651	18306
288.709	15387
288.767	16806
288.825	17127
288.883	13299
288.941	13542
288.999	13964
289.057	14019
289.115	12098
289.173	14604
289.231	14776
289.289	16473
289.346	14275
289.404	19759
289.462	31609
289.520	33933
289.578	17405
289.636	11943
289.694	10458
289.751	10936
289.809	11664
289.867	14227
289.925	17713
289.983	22113
290.040	12121
290.098	12850
290.156	17904
290.214	21743
290.271	14263
290.329	11987
290.387	10402
290.444	11735
290.502	10261
290.560	11064
290.617	11413
290.675	13728
290.733	13274
290.790	16395
290.848	11434
290.906	15991
290.963	15881
291.021	13748
291.078	12133
291.136	14816
291.194	35667
291.251	66788
291.309	22894
291.366	13394
291.424	14181
291.481	16461
291.539	15513
291.596	15084
291.654	11799
291.711	11383
291.769	15684
291.826	36567
291.884	22478
291.941	15044
291.999	14502
292.056	19843
292.114	20276
292.171	14430
292.228	17032
292.286	22009
292.343	39288
292.401	45220
292.458	27417
292.515	20690
292.573	25828
292.630	25154
292.687	23481
292.745	18182
292.802	23781
292.859	51688
292.917	82256
292.974	51361
293.031	21448
293.089	16855
293.146	15439
293.203	14699
293.260	13201
293.318	20276
293.375	23298
293.432	16117
293.489	13373
293.546	15666
293.604	24286
293.661	59997
293.718	116322
293.775	65841
293.832	40158
293.889	33824
293.947	36955
294.004	26563
294.061	27323
294.118	43866
294.175	73154
294.232	78217
294.289	36148
294.346	23332
294.403	20862
294.460	21988
294.517	19630
294.574	17762
294.631	16335
294.688	21095
294.745	45915
294.802	124669
294.859	122607
294.916	60663
294.973	43646
295.030	39240
295.087	32449
295.144	23565
295.201	19022
295.258	18720
295.315	23539
295.372	58694
295.429	89029
295.486	45191
295.542	29862
295.599	53977
295.656	80031
295.713	66273
295.770	79788
295.827	35433
295.883	23411
295.940	25856
295.997	42589
296.054	41029
296.111	21948
296.167	16323
296.224	14119
296.281	14620
296.338	13218
296.394	15190
296.451	20164
296.508	44796
296.564	73806
296.621	61435
296.678	111335
296.734	143307
296.791	59090
296.848	36465
296.904	41836
296.961	84100
297.018	101595
297.074	70825
297.131	32414
297.187	28321
297.244	39360
297.301	93393
297.357	141476
297.414	59777
297.470	28226
297.527	22847
297.583	20727
297.640	23856
297.696	19050
297.753	15239
297.809	13808
297.866	13494
297.922	13213
297.979	13818
298.035	18347
298.092	27727
298.148	57499
298.204	58405
298.261	35042
298.317	57618
298.374	122210
298.430	74517
298.486	44731
298.543	35612
298.599	28981
298.656	32696
298.712	50441
298.768	92002
298.824	57474
298.881	28373
298.937	19041
298.993	20461
299.050	28108
299.106	24393
299.162	20956
299.218	22069
299.275	17215
299.331	21519
299.387	37649
299.443	110285
299.500	115259
299.556	54004
299.612	30103
299.668	30736
299.724	40031
299.780	40203
299.837	26086
299.893	37776
299.949	98203
300.005	113852
300.061	102168
300.117	144423
300.173	75817
300.229	42850
300.285	53047
300.341	61399
300.397	32961
300.453	23954
300.510	20698
300.566	23566
300.622	28938
300.678	70903
300.734	117098
300.790	99012
300.845	105832
300.901	80602
300.957	110179
301.013	78931
301.069	36450
301.125	31902
301.181	32718
301.237	26087
301.293	18534
301.349	17753
301.405	15297
301.461	18159
301.516	19148
301.572	24609
301.628	44369
301.684	38578
301.740	46241
301.796	67218
301.851	52448
301.907	84372
301.963	85172
302.019	123095
302.074	252691
302.130	257091
302.186	126065
302.242	59672
302.297	42588
302.353	42608
302.409	66427
302.464	59064
302.520	55602
302.576	118630
302.631	127416
302.687	80368
302.743	37819
302.798	25487
302.854	20822
302.910	23595
302.965	28412
303.021	50230
303.076	48708
303.132	63236
303.187	70088
303.243	38018
303.299	22423
303.354	19466
303.410	17114
303.465	17978
303.521	16491
303.576	19324
303.632	22791
303.687	39835
303.743	92946
303.798	79628
303.853	36432
303.909	24497
303.964	23547
304.020	38000
304.075	56858
304.130	52125
304.186	91069
304.241	90345
304.297	70185
304.352	39845
304.358	38365
304.407	26357
304.449	26958
304.463	27184
304.518	27910
304.539	27015
304.573	25554
304.629	25040
304.630	25280
304.684	37117
304.720	64755
304.739	78712
304.794	108275
304.811	93695
304.850	58085
304.902	32970
304.905	31399
304.960	22402
304.992	21529
305.015	20999
305.071	19329
305.083	18952
305.126	17431
305.173	14215
305.181	13735
305.236	13831
305.264	15472
305.292	17279
305.347	23017
305.354	23110
305.402	23187
305.445	23072
305.457	23245
305.512	29086
305.535	30668
305.567	32116
305.622	29825
305.626	30505
305.678	46784
305.716	79460
305.733	91498
305.788	106772
305.807	95489
305.843	75402
305.897	95995
305.898	96206
305.953	93319
305.988	66552
306.008	51693
306.063	35034
306.078	32537
306.118	26960
306.168	19702
306.173	19111
306.228	16897
306.259	15581
306.283	14811
306.338	14261
306.349	14385
306.393	14884
306.440	16211
306.448	16419
306.503	16328
306.530	18361
306.558	23986
306.613	48511
306.620	52235
306.668	77469
306.711	100755
306.723	103146
306.778	83080
306.801	67196
306.833	47611
306.888	26635
306.892	25725
306.943	19688
306.982	18219
306.997	17836
307.052	16260
307.072	16071
307.107	16843
307.162	19688
307.163	19789
307.217	30607
307.253	35453
307.272	36577
307.327	40006
307.343	37770
307.381	32016
307.434	29831
307.436	30434
307.491	53116
307.524	76099
307.546	84313
307.600	87480
307.614	80080
307.655	50508
307.704	27280
307.710	26379
307.765	29232
307.795	34947
307.819	41393
307.874	62238
307.885	62258
307.929	48494
307.975	33819
307.984	33084
308.038	36076
308.065	41914
308.093	63317
308.148	121300
308.156	134859
308.202	215966
308.246	267863
308.257	262474
308.312	158891
308.336	124477
308.366	105507
308.421	79771
308.426	76745
308.475	48975
308.517	33776
308.530	31715
308.585	27054
308.607	26210
308.639	26976
308.694	30028
308.697	30434
308.748	50063
308.787	70937
308.803	71895
308.857	59347
308.877	52195
308.912	44381
308.967	41731
308.967	41748
309.021	57009
309.058	71465
309.076	86351
309.130	142267
309.148	162640
309.185	234030
309.238	345465
309.239	346804
309.293	403741
309.328	400488
309.348	354922
309.402	200298
309.418	160468
309.457	120049
309.508	82180
309.511	81793
309.566	87057
309.598	94282
309.620	116903
309.674	183570
309.688	200845
309.729	196243
309.778	167510
309.783	163434
309.837	113464
309.868	87903
309.892	95112
309.946	122802
309.959	132733
310.001	171514
310.049	204273
310.055	197541
310.109	119185
310.139	75147
310.163	60046
310.218	37012
310.229	33327
310.272	27803
310.319	22292
310.326	21755
310.381	19425
310.409	18220
310.435	17476
310.489	16344
310.499	16221
310.543	16339
310.589	16698
310.598	16818
310.652	17759
310.679	18150
310.706	16553
310.760	12830
310.769	12347
310.814	11930
310.859	11498
310.868	11538
310.923	12075
310.948	12461
310.977	14686
311.031	19145
311.038	19738
311.085	18746
311.128	17364
311.139	17171
311.193	16420
311.218	16063
311.247	14694
311.301	12022
311.308	11725
311.356	12556
311.398	13316
311.410	13093
311.464	12134
311.488	11613
311.518	12144
311.572	13498
311.578	13671
311.626	22086
311.668	29657
311.680	28608
311.734	22949
311.758	20569
311.788	20206
311.842	19623
311.847	19565
311.896	25156
311.937	30197
311.950	30249
312.004	30306
312.027	30216
312.058	25825
312.112	18065
312.117	17294
312.165	15473
312.207	13949
312.297	20098
312.386	17449
312.476	18409
312.566	48035
312.656	24022
312.745	12495
312.835	13075
312.925	17320
313.015	13689
313.104	14993
313.194	12334
313.284	15522
313.374	22265
313.463	21754
313.553	14822
313.643	13967
313.732	12403
313.822	11183
313.912	14441
314.001	18538
314.091	19613
314.180	24979
314.270	26512
314.360	28918
314.449	26668
314.539	16101
314.628	13737
314.718	16370
314.808	21950
314.897	15396
314.987	16164
315.076	25568
315.166	31042
315.255	25095
315.345	28660
315.434	24960
315.524	22052
315.613	29450
315.703	43441
315.792	60309
315.881	162334
315.971	71115
316.060	52866
316.150	57818
316.239	55746
316.328	24683
316.418	16243
316.507	18959
316.597	26365
316.686	23718
316.775	27451
316.865	54975
316.954	18440
317.043	13818
317.133	18930
317.222	16495
317.311	15370
317.400	16442
317.490	25515
317.579	36308
317.668	24977
317.757	41741
317.847	87458
317.936	274700
318.025	141229
318.114	77780
318.203	49235
318.293	45165
318.382	83387
318.471	69725
318.560	73988
318.649	110417
318.738	34268
318.828	30264
318.917	35568
319.006	30459
319.095	66615
319.184	144655
319.273	117740
319.362	82426
319.451	30652
319.540	28386
319.629	61079
319.718	113672
319.807	41016
319.896	59847
319.985	183264
320.074	101004
320.163	27977
320.252	38034
320.341	32471
320.430	32724
320.519	54385
320.608	34162
320.697	23951
320.786	25728
320.875	37361
320.964	52469
321.053	81267
321.142	113783
321.230	125949
321.319	78441
321.408	185523
321.497	82502
321.586	77249
321.675	68688
321.764	73602
321.852	48800
321.941	109212
322.030	82754
322.119	69454
322.207	185272
322.296	99199
322.385	56945
322.474	74047
322.562	215177
322.651	123223
322.740	84849
322.829	120823
322.917	87758
323.006	69849
323.095	63058
323.183	37862
323.272	52270
323.361	83350
323.449	185751
323.538	76064
323.626	137115
323.715	96042
323.804	41763
323.892	127802
323.981	103072
324.069	31106
324.158	61528
324.246	68729
324.335	39023
324.424	76599
324.512	28518
324.601	39072
324.689	63314
324.778	118386
324.866	72543
324.954	24784
325.043	24405
325.131	42448
325.220	56357
325.308	69286
325.397	54447
325.485	40764
325.574	18027
325.662	18637
325.750	22171
325.839	17651
325.927	13706
326.015	23815
326.104	25352
326.192	37133
326.280	16197
326.369	17245
326.457	32073
326.545	60089
326.634	27913
326.722	12880
326.810	17403
326.898	15228
326.987	20923
327.075	50735
327.163	48925
327.251	24523
327.340	41755
327.428	70345
327.516	19197
327.604	16490
327.692	16365
327.781	17222
327.869	27809
327.957	22344
328.045	27723
328.133	12761
328.221	16490
328.309	18833
328.397	15206
328.485	23830
328.574	34182
328.662	111223
328.750	61688
328.838	21935
328.926	15395
329.014	14324
329.102	25093
329.190	53538
329.278	46440
329.366	11808
329.454	10056
329.542	10785
329.630	10592
329.718	11685
329.806	19915
329.893	15247
329.981	12567
330.069	11604
330.157	21982
330.245	58154
330.333	35065
330.421	18042
330.509	33581
330.597	138597
330.684	97026
330.772	29371
330.860	29188
330.948	36260
331.036	21534
331.123	11709
331.211	11918
331.299	16611
331.387	30470
331.475	64465
331.562	23054
331.650	12707
331.738	15980
331.825	19001
331.913	13092
332.001	11761
332.089	16959
332.176	30711
332.264	63149
332.352	59178
332.439	25185
332.527	17596
332.614	13886
332.702	19106
332.790	15975
332.877	37562
332.965	74403
333.052	32105
333.140	31752
333.228	76423
333.315	26369
333.403	19181
333.490	41565
333.578	49393
333.665	96521
333.753	51203
333.840	19681
333.928	20439
334.015	43920
334.103	60473
334.190	164110
334.278	59027
334.365	31172
334.452	28737
334.540	19496
334.627	20863
334.715	29907
334.802	52700
334.889	196993
334.977	222476
335.064	49940
335.151	25270
335.239	21666
335.326	28515
335.413	78064
335.501	118168
335.588	27996
335.675	20748
335.762	23050
335.850	40266
335.937	35565
336.024	68282
336.111	231987
336.199	134563
336.286	38039
336.373	20609
336.460	15053
336.547	14497
336.635	20330
336.722	21016
336.809	16414
336.896	26999
336.983	67198
337.070	139787
337.157	172256
337.245	131311
337.332	101060
337.419	20016
337.506	14577
337.593	16912
337.680	42418
337.767	128538
337.854	50861
337.941	56096
338.028	63557
338.115	26318
338.202	26185
338.289	44164
338.376	144174
338.463	56836
338.550	71835
338.637	83375
338.724	31719
338.811	49237
338.898	15676
338.984	13897
339.071	17171
339.158	22979
339.245	68689
339.332	43134
339.419	37376
339.506	38870
339.593	11874
339.679	16463
339.766	16067
339.853	21054
339.940	55381
340.027	19657
340.113	20039
340.200	30881
340.287	21750
340.374	27791
340.460	54309
340.547	24979
340.634	36589
340.720	117182
340.807	76799
340.894	16542
340.980	16540
341.067	16711
341.154	20074
341.240	31185
341.327	71625
341.414	22645
341.500	21850
341.587	18691
341.674	17125
341.760	48926
341.847	63868
341.933	22020
342.020	10393
342.106	10610
342.193	19859
342.279	43648
342.366	27878
342.452	55135
342.539	32482
342.625	61367
342.712	139874
342.798	66797
342.885	30228
342.971	11584
343.058	10414
343.144	12955
343.230	13678
343.317	14069
343.403	12427
343.490	9426
343.576	10924
343.662	14204
343.749	18277
343.835	23043
343.921	37777
344.008	158476
344.094	357893
344.180	101349
344.267	47804
344.353	101228
344.439	114918
344.525	74121
344.612	28705
344.698	25257
344.784	20921
344.870	13326
344.957	17191
345.043	30579
345.129	24372
345.215	50857
345.301	29566
345.387	19920
345.474	10101
345.560	11131
345.646	14819
345.732	14591
345.818	19103
345.904	16965
345.990	21614
346.076	18028
346.162	27598
346.249	16899
346.335	13937
346.421	15317
346.507	42207
346.593	138011
346.679	45938
346.765	16639
346.851	18186
346.937	19420
347.023	14476
347.108	20532
347.194	18817
347.280	15140
347.366	22252
347.452	52589
347.538	174087
347.624	135056
347.710	115514
347.796	25820
347.882	15199
347.967	12461
348.053	18161
348.139	14863
348.225	13445
348.311	16429
348.397	13418
348.482	20514
348.568	26509
348.654	14260
348.740	22279
348.825	26052
348.911	29101
348.997	81970
349.083	154983
349.168	34694
349.254	16134
349.340	16180
349.425	13781
349.511	23926
349.597	26617
349.682	47121
349.768	117027
349.854	59877
349.939	14811
350.025	13202
350.110	12366
350.196	11652
350.282	11945
350.367	10059
350.453	20100
350.538	24120
350.624	23895
350.709	23141
350.795	13207
350.880	17195
350.966	16265
351.051	22909
351.137	18204
351.222	17693
351.308	43727
351.393	117376
351.479	36815
351.564	14602
351.649	16667
351.735	13024
351.820	11440
351.906	14701
351.991	20203
352.076	70123
352.162	115251
352.247	32297
352.332	22756
352.418	41139
352.503	46506
352.588	175379
352.673	179739
352.759	47196
352.844	25508
352.929	26654
353.014	40059
353.100	24394
353.185	44350
353.270	67086
353.355	66944
353.441	20245
353.526	21409
353.611	54341
353.696	71918
353.781	40288
353.866	21903
353.952	20405
354.037	54812
354.122	128278
354.207	118315
354.292	47276
354.377	20241
354.462	17491
354.547	27438
354.632	23730
354.717	30905
354.802	53389
354.887	23203
354.972	15336
355.057	12858
355.142	12447
355.227	19550
355.312	37183
355.397	81171
355.482	188767
355.567	101221
355.652	65505
355.737	68910
355.822	125589
355.907	114956
355.991	25617
356.076	18364
356.161	14848
356.246	14421
356.331	17298
356.416	35938
356.501	179139
356.585	209626
356.670	44545
356.755	31269
356.840	45441
356.924	165447
357.009	504610
357.094	228674
357.179	69627
357.263	48260
357.348	42671
357.433	45012
357.517	40934
357.602	35459
357.687	27052
357.771	33659
357.856	56015
357.941	47153
358.025	114962
358.110	441982
358.195	253426
358.279	57988
358.364	40916
358.448	119466
358.533	288817
358.617	229180
358.702	198681
358.787	90168
358.871	64033
358.956	56919
359.040	20764
359.125	15546
359.209	16607
359.294	27021
359.378	44618
359.462	48628
359.547	31490
359.631	18879
359.716	16084
359.800	15271
359.885	24543
359.969	23451
360.053	15903
360.138	15398
360.222	31222
360.306	59022
360.391	44907
360.475	51490
360.559	121211
360.644	121411
360.728	96047
360.812	110060
360.896	283012
360.981	159195
361.065	105388
361.149	31623
361.233	31632
361.318	27217
361.402	32449
361.486	26551
361.570	20486
361.654	29523
361.739	65672
361.823	204175
361.907	289768
361.991	71043
362.075	48061
362.159	113253
362.243	81687
362.327	77182
362.411	94129
362.495	52136
362.580	29499
362.664	19903
362.748	20635
362.832	27130
362.916	44788
363.000	130657
363.084	325397
363.168	377087
363.252	118424
363.336	49897
363.420	56969
363.503	124198
363.587	145779
363.671	44795
363.755	38509
363.839	57223
363.923	30142
364.007	57697
364.091	66194
364.175	60327
364.258	192040
364.342	198873
364.426	287773
364.510	172528
364.594	74843
364.677	69621
364.761	240921
364.845	189506
364.929	98737
365.013	89309
365.096	64531
365.180	78214
365.264	53442
365.347	169350
365.431	86810
365.515	37134
365.598	27821
365.682	21462
365.766	29637
365.849	37674
365.933	28535
366.017	30603
366.100	23841
366.184	13793
366.267	16478
366.351	16592
366.435	17066
366.518	14524
366.602	13971
366.685	18543
366.769	22700
366.852	31364
366.936	61703
367.019	44651
367.103	25473
367.186	38493
367.270	18870
367.353	14274
367.436	17379
367.520	16786
367.603	24609
367.687	39941
367.770	72901
367.853	38848
367.937	75901
368.020	128646
368.104	48047
368.187	52071
368.270	76697
368.353	64102
368.437	67967
368.520	106253
368.603	91962
368.687	102545
368.770	186152
368.853	59179
368.936	62045
369.020	55448
369.103	26865
369.186	17363
369.269	20488
369.352	45364
369.436	69363
369.519	43004
369.602	22253
369.685	22071
369.768	28890
369.851	20809
369.934	16495
370.018	23196
370.101	63851
370.184	44943
370.267	27650
370.350	50266
370.433	73502
370.516	137720
370.599	195295
370.682	90205
370.765	139938
370.848	143028
370.931	208668
371.014	89916
371.097	28748
371.180	23435
371.263	14518
371.346	14458
371.429	14541
371.511	17874
371.594	37134
371.677	54988
371.760	49878
371.843	49506
371.926	168358
372.009	386216
372.091	152410
372.174	98645
372.257	180877
372.340	85018
372.423	72953
372.505	77815
372.588	39206
372.671	78235
372.754	218673
372.836	115684
372.919	65466
373.002	125255
373.085	60996
373.167	52252
373.250	114384
373.332	193942
373.415	247634
373.498	512463
373.580	234336
373.663	275742
373.746	374038
373.828	112308
373.911	51326
373.993	47289
374.076	111895
374.159	113782
374.241	66448
374.324	192822
374.406	139856
374.489	140620
374.571	390428
374.654	182754
374.736	91867
374.819	241216
374.901	352540
374.983	376798
375.066	85781
375.148	34980
375.231	85344
375.313	174333
375.395	88350
375.478	28584
375.560	21297
375.643	29722
375.725	81220
375.807	297789
375.890	245343
375.972	116596
376.054	74053
376.136	88111
376.219	47102
376.301	85538
376.383	258186
376.465	114906
376.548	98783
376.630	96452
376.712	219548
376.794	115063
376.877	21835
376.959	15852
377.041	20414
377.123	31160
377.205	37602
377.287	13970
377.369	14048
377.452	17880
377.534	17102
377.616	16518
377.698	18601
377.780	15300
377.862	19916
377.944	17754
378.026	12594
378.108	13539
378.190	13747
378.272	13216
378.354	10013
378.436	10744
378.518	22750
378.600	77130
378.682	73343
378.764	135184
378.846	113847
378.928	40251
379.010	66188
379.091	36860
379.173	18340
379.255	16746
379.337	25074
379.419	67652
379.501	182409
379.583	78972
379.664	27056
379.746	66849
379.828	145754
379.910	185873
379.991	157655
380.073	35172
380.155	27826
380.237	22657
380.318	15526
380.400	18575
380.482	41475
380.564	70836
380.645	71155
380.727	68352
380.809	37990
380.890	28851
380.972	22563
381.053	20356
381.135	23782
381.217	52152
381.298	150587
381.380	85260
381.461	65036
381.543	220190
381.624	289374
381.706	70759
381.787	39340
381.869	41536
381.951	105543
382.032	378154
382.113	277924
382.195	84843
382.276	49560
382.358	94716
382.439	220142
382.521	232407
382.602	357948
382.684	187518
382.765	317025
382.846	410334
382.928	661033
383.009	396235
383.090	263209
383.172	757736
383.253	1096800
383.334	439347
383.416	359750
383.497	209859
383.578	129816
383.659	230794
383.741	651836
383.822	1361819
383.903	814590
383.984	320450
384.066	420642
384.147	282266
384.228	79213
384.309	68333
384.390	55252
384.471	37838
384.553	41572
384.634	56276
384.715	61351
384.796	31800
384.877	37563
384.958	119775
385.039	167275
385.120	78380
385.201	34518
385.282	42067
385.363	38687
385.444	39032
385.525	55957
385.606	159318
385.687	139774
385.768	44040
385.849	56280
385.930	187490
386.011	318917
386.092	106509
386.173	33076
386.254	24667
386.335	23911
386.416	28930
386.496	83031
386.577	145652
386.658	57053
386.739	41342
386.820	31985
386.901	26695
386.981	26519
387.062	21142
387.143	39579
387.224	132932
387.304	134686
387.385	59669
387.466	36306
387.547	41061
387.627	34682
387.708	52882
387.789	208267
387.869	265297
387.950	80252
388.031	21506
388.111	20456
388.192	38554
388.273	58694
388.353	41831
388.434	29385
388.514	48241
388.595	179093
388.676	257616
388.756	148119
388.837	150027
388.917	102862
388.998	25871
389.078	22352
389.159	21320
389.239	21608
389.320	35501
389.400	34289
389.480	47914
389.561	128888
389.641	69641
389.722	33602
389.802	63725
389.883	62529
389.963	138570
390.043	97422
390.124	37415
390.204	50733
390.284	164269
390.365	112674
390.445	90215
390.525	208722
390.605	204896
390.686	97370
390.766	42758
390.846	22425
390.927	16606
391.007	20421
391.087	22897
391.167	30657
391.247	22768
391.328	27133
391.408	39462
391.488	30224
391.568	16241
391.648	28788
391.728	46492
391.808	40827
391.888	45610
391.969	74257
392.049	125481
392.129	58759
392.209	58640
392.289	141427
392.369	84932
392.449	67651
392.529	55202
392.609	51501
392.689	54944
392.769	142423
392.849	139098
392.929	96619
393.009	210685
393.089	194464
393.169	204225
393.248	523968
393.328	1325608
393.408	1407590
393.488	591838
393.568	215378
393.648	110264
393.728	71025
393.807	50872
393.887	41679
393.967	34793
394.047	37800
394.127	40297
394.206	46859
394.286	100607
394.366	395927
394.446	459673
394.525	120253
394.605	39351
394.685	38299
394.764	81812
394.844	140720
394.924	112694
395.003	46445
395.083	32456
395.163	30237
395.242	27470
395.322	28620
395.402	19282
395.481	24369
395.561	57182
395.640	171475
395.720	156258
395.799	148756
395.879	112378
395.958	50704
396.038	130297
396.117	518240
396.197	609780
396.276	204422
396.356	88112
396.435	77296
396.515	68397
396.594	98105
396.673	178495
396.753	501725
396.832	1232275
396.912	1045301
396.991	348533
397.070	113862
397.150	65935
397.229	46447
397.308	58860
397.388	101855
397.467	52055
397.546	26254
397.625	23057
397.705	30634
397.784	38329
397.863	23162
397.942	13672
398.022	15655
398.101	39932
398.180	123720
398.259	73865
398.338	26773
398.417	25577
398.497	17808
398.576	18081
398.655	15286
398.734	12780
398.813	13642
398.892	35678
398.971	126238
399.050	70962
399.129	13758
399.208	10278
399.287	11222
399.366	9812
399.445	10597
399.524	11725
399.603	13491
399.682	28658
399.761	65032
399.840	139850
399.919	108862
399.998	20834
400.077	10413
400.156	10813
400.235	14091
400.313	10938
400.392	18115
400.471	76010
400.550	139895
400.629	43286
400.708	20544
400.786	16420
400.865	34134
400.944	46628
401.023	27856
401.102	8964
401.180	8129
401.259	9287
401.338	13341
401.416	20955
401.495	21141
401.574	13969
401.652	12260
401.731	19328
401.810	21229
401.888	11699
401.967	8753
402.046	15753
402.124	18852
402.203	27965
402.281	16439
402.360	22463
402.438	48028
402.517	36837
402.596	14372
402.674	13378
402.753	9488
402.831	8312
402.910	12503
402.988	47727
403.066	167239
403.145	101950
403.223	53336
403.302	145154
403.380	112247
403.459	119169
403.537	53078
403.615	22995
403.694	9599
403.772	7558
403.850	8177
403.929	7514
404.007	10828
404.085	27545
404.164	39067
404.242	13828
404.320	12487
404.398	23104
404.477	60809
404.555	267550
404.633	252261
404.711	45085
404.789	16069
404.868	16845
404.946	12107
405.024	7589
405.102	8435
405.180	8727
405.258	8360
405.336	10074
405.415	9834
405.493	24538
405.571	26468
405.649	11285
405.727	9538
405.805	15880
405.883	19335
405.961	18094
406.039	17838
406.117	12037
406.195	20885
406.273	70487
406.351	246449
406.429	156934
406.507	31521
406.585	14058
406.663	16740
406.740	26458
406.818	23578
406.896	12474
406.974	11025
407.052	27705
407.130	142837
407.208	216742
407.285	50118
407.363	13129
407.441	13084
407.519	11946
407.596	13634
407.674	25480
407.752	31526
407.830	42934
407.907	33673
407.985	19939
408.063	11538
408.141	7843
408.218	16018
408.296	21595
408.373	20032
408.451	19891
408.529	19752
408.606	10544
408.684	7007
408.762	6601
408.839	6999
408.917	5959
408.994	7697
409.072	8478
409.149	9438
409.227	17056
409.304	22725
409.382	17416
409.459	20488
409.537	29482
409.614	27729
409.692	18767
409.769	19780
409.846	32754
409.924	37911
410.001	28961
410.079	20059
410.156	15265
410.233	13833
410.311	11104
410.388	10700
410.465	13505
410.543	14865
410.620	10216
410.697	13798
410.775	21565
410.852	10653
410.929	16469
411.006	23433
411.083	12988
411.161	26526
411.238	28135
411.315	16833
411.392	10445
411.469	17446
411.547	17177
411.624	10306
411.701	10369
411.778	13575
411.855	37212
411.932	20952
412.009	10063
412.086	10063
412.163	11462
412.240	13961
412.317	14376
412.394	14215
412.471	7728
412.548	7025
412.625	10091
412.702	13034
412.779	24549
412.856	16673
412.933	6728
413.010	7181
413.087	14291
413.164	74635
413.241	122968
413.318	36391
413.395	19225
413.471	34718
413.548	16772
413.625	9521
413.702	14292
413.779	11467
413.855	4872
413.932	4362
414.009	5469
414.086	5575
414.162	7221
414.239	14919
414.316	70548
414.393	170570
414.469	66544
414.546	10526
414.623	7016
414.699	8542
414.776	14888
414.853	10041
414.929	9081
415.006	8654
415.082	9628
415.159	9748
415.236	8859
415.312	9858
415.389	24170
415.465	38561
415.542	20181
415.618	12126
415.695	23640
415.771	17885
415.848	14045
415.924	10908
416.000	8743
416.077	6861
416.153	2793
416.230	3974
416.306	3980
416.383	5946
416.459	5270
416.535	5749
416.612	5737
416.688	5890
416.764	6873
416.841	8349
416.917	7257
416.993	7866
417.069	11126
417.146	14870
417.222	19815
417.298	14316
417.374	9261
417.451	10518
417.527	16297
417.603	22096
417.679	15030
417.755	10862
417.831	7927
417.908	6307
417.984	5193
418.060	5969
418.136	26262
418.212	40729
418.288	15153
418.364	7760
418.440	10432
418.516	17488
418.592	18553
418.668	41865
418.744	73813
418.820	57455
418.896	15631
418.972	6638
419.048	8773
419.124	30243
419.200	30153
419.276	8819
419.352	4254
419.428	6083
419.504	11027
419.579	17105
419.655	12915
419.731	12126
419.807	44479
419.883	83492
419.959	60256
420.034	16412
420.110	25417
420.186	100849
420.262	87471
420.337	19409
420.413	17031
420.489	10448
420.565	8304
420.640	8947
420.716	11664
420.792	7162
420.867	9703
420.943	9718
421.019	22513
421.094	20868
421.170	9376
421.245	8233
421.321	9678
421.397	11835
421.472	11820
421.548	20793
421.623	27212
421.699	19065
421.774	20067
421.850	18097
421.925	32215
422.001	31910
422.076	23138
422.152	28643
422.227	47591
422.302	52518
422.378	70016
422.453	126978
422.529	263866
422.604	583422
422.679	780711
422.755	664093
422.830	323858
422.905	140850
422.981	78936
423.056	52263
423.131	38607
423.207	31003
423.282	32253
423.357	54689
423.432	40956
423.508	33527
423.583	76536
423.658	61807
423.733	21443
423.808	22258
423.883	27891
423.959	26078
424.034	21433
424.109	15901
424.184	10540
424.259	9530
424.334	9533
424.409	7537
424.484	10192
424.559	12411
424.634	11395
424.709	18061
424.784	23517
424.859	13157
424.934	20870
425.009	85232
425.084	140559
425.159	55472
425.234	11113
425.309	6365
425.384	11972
425.459	16764
425.534	9516
425.609	8223
425.683	7183
425.758	7338
425.833	9326
425.908	13001
425.983	46408
426.058	149599
426.132	72350
426.207	14620
426.282	15730
426.357	14685
426.431	7970
426.506	6998
426.581	8497
426.655	9111
426.730	8304
426.805	9864
426.879	8719
426.954	9386
427.029	21024
427.103	105207
427.178	237375
427.253	109767
427.327	17673
427.402	13512
427.476	25545
427.551	14472
427.625	8736
427.700	9581
427.774	6529
427.849	9072
427.923	6629
427.998	7629
428.072	9618
428.147	20578
428.221	78970
428.296	218661
428.370	118392
428.444	20901
428.519	18728
428.593	34910
428.667	29748
428.742	33884
428.816	36923
428.890	121571
428.965	203730
429.039	66411
429.113	42424
429.188	19503
429.262	8828
429.336	18978
429.410	67889
429.485	47112
429.559	28680
429.633	24546
429.707	11578
429.781	26703
429.855	142397
429.930	246579
430.004	118748
430.078	135721
430.152	132743
430.226	237546
430.300	252277
430.374	50442
430.448	17719
430.522	40533
430.596	122788
430.670	89490
430.744	211977
430.818	328185
430.892	81459
430.966	19488
431.040	9646
431.114	6298
431.188	5902
431.262	7079
431.336	6978
431.410	16959
431.484	50997
431.557	41709
431.631	9813
431.705	9242
431.779	36488
431.853	169304
431.927	129058
432.000	19437
432.074	7875
432.148	10134
432.222	8952
432.295	5037
432.369	5490
432.443	12885
432.516	75705
432.590	214485
432.664	91801
432.737	16501
432.811	6662
432.885	4085
432.958	4568
433.032	4049
433.106	3692
433.179	3817
433.253	3434
433.326	3315
433.400	3283
433.473	3113
433.547	3064
433.620	6097
433.694	18909
433.767	18804
433.841	6951
433.914	3682
433.988	3922
434.061	3749
434.134	4180
434.208	2633
434.281	2768
434.355	4088
434.428	4105
434.501	4316
434.575	3753
434.648	5091
434.721	4269
434.795	2749
434.868	3337
434.941	3211
435.014	3328
435.088	4957
435.161	9063
435.234	17624
435.307	24910
435.381	12502
435.454	11002
435.527	15547
435.600	16302
435.673	11296
435.746	8222
435.819	7225
435.892	6733
435.966	4610
436.039	4382
436.112	5620
436.185	3653
436.258	3060
436.331	2957
436.404	2988
436.477	2672
436.550	2868
436.623	3045
436.696	3260
436.769	7920
436.842	7044
436.915	5639
436.987	10935
437.060	6818
437.133	3459
437.206	2938
437.279	4322
437.352	3953
437.425	3953
437.498	6475
437.570	18930
437.643	23485
437.716	7445
437.789	3891
437.861	11124
437.934	32301
438.007	17285
438.080	5616
438.152	7883
438.225	16147
438.298	95560
438.370	281380
438.443	136849
438.516	37965
438.588	10745
438.661	5234
438.734	5490
438.806	8941
438.879	10194
438.951	11072
439.024	18561
439.096	8619
439.169	4825
439.241	3054
439.314	3396
439.386	7663
439.459	11647
439.531	19030
439.604	9410
439.676	4416
439.749	2874
439.821	3526
439.893	3344
439.966	4503
440.038	7054
440.110	9097
440.183	6347
440.255	4549
440.327	9631
440.400	40868
440.472	183708
440.544	140046
440.617	23978
440.689	13893
440.761	19769
440.833	31435
440.905	21763
440.978	5522
441.050	3435
441.122	4462
441.194	4097
441.266	4495
441.338	5314
441.411	12118
441.483	71184
441.555	123797
441.627	31574
441.699	12405
441.771	11326
441.843	5761
441.915	4738
441.987	4197
442.059	4427
442.131	6369
442.203	11378
442.275	16255
442.347	15435
442.419	19309
442.491	88362
442.563	233617
442.635	104664
442.706	53117
442.778	49701
442.850	13264
442.922	7222
442.994	8489
443.066	16887
443.137	13351
443.209	10438
443.281	15155
443.353	31527
443.425	106911
443.496	370865
443.568	391577
443.640	152112
443.711	32443
443.783	14137
443.855	9892
443.926	6636
443.998	7257
444.070	10079
444.141	9248
444.213	18711
444.285	25793
444.356	19394
444.428	13696
444.499	7335
444.571	4370
444.642	5973
444.714	8815
444.785	18805
444.857	17014
444.928	28380
445.000	19309
445.071	20002
445.143	27406
445.214	21771
445.285	28100
445.357	76788
445.428	226642
445.500	518451
445.571	364398
445.642	208045
445.714	74788
445.785	55762
445.856	25100
445.928	27488
445.999	21263
446.070	14538
446.141	17208
446.213	26385
446.284	12598
446.355	9415
446.426	7389
446.497	8433
446.569	11166
446.640	23010
446.711	25278
446.782	8866
446.853	8854
446.924	11430
446.995	11191
447.066	7845
447.138	12076
447.209	7247
447.280	3615
447.351	4132
447.422	3701
447.493	6040
447.564	10831
447.635	22694
447.706	11492
447.777	4026
447.847	3242
447.918	2639
447.989	7880
448.060	10197
448.131	19295
448.202	24469
448.273	23789
448.344	9978
448.414	6072
448.485	7146
448.556	4887
448.627	4031
448.698	3516
448.768	2760
448.839	3710
448.910	10716
448.981	12306
449.051	7681
449.122	4157
449.193	2279
449.263	3002
449.334	3403
449.405	7768
449.475	26857
449.546	19240
449.616	13333
449.687	11052
449.758	4799
449.828	3298
449.899	4177
449.969	3523
450.040	3155
450.110	5033
450.181	7207
450.251	4544
450.322	2995
450.392	3693
450.463	3694
450.533	3178
450.604	3129
450.674	3613
450.744	3659
450.815	4281
450.885	3532
450.955	3527
451.026	3955
451.096	4513
451.166	4753
451.237	11887
451.307	30057
451.377	13551
451.447	4529
451.518	3328
451.588	3145
451.658	3520
451.728	6962
451.799	27775
451.869	35090
451.939	10118
452.009	3566
452.079	2577
452.149	4028
452.219	7915
452.289	32823
452.360	27118
452.430	7475
452.500	7608
452.570	12288
452.640	15593
452.710	38300
452.780	52582
452.850	44914
452.920	53772
452.990	18840
453.060	9151
453.129	13968
453.199	16099
453.269	30454
453.339	73024
453.409	115644
453.479	103872
453.549	156909
453.619	177557
453.688	75228
453.758	13011
453.828	6446
453.898	5220
453.968	4464
454.037	3667
454.087	4025
454.107	4143
454.168	3174
454.177	3006
454.247	3936
454.249	3958
454.316	3785
454.330	4020
454.386	4811
454.411	9109
454.456	15586
454.492	21679
454.525	26961
454.574	14658
454.595	9405
454.655	5086
454.665	4421
454.734	6315
454.736	6568
454.804	13746
454.817	17596
454.873	31308
454.898	34020
454.943	37784
454.979	26001
455.013	15690
455.060	10286
455.082	8547
455.141	9547
455.152	9440
455.221	20545
455.222	20971
455.291	38582
455.303	34608
455.360	16938
455.384	14055
455.430	10735
455.465	12789
455.499	13800
455.546	25862
455.569	30218
455.627	23820
455.638	22819
455.707	7837
455.708	7854
455.777	5675
455.789	5617
455.846	5350
455.869	5131
455.916	4577
455.950	4865
455.985	5041
456.031	5565
456.054	5706
456.112	4945
456.124	4836
456.193	5108
456.193	5076
456.262	6021
456.274	6457
456.332	7891
456.355	8352
456.401	8436
456.436	7785
456.470	7134
456.516	5769
456.540	5255
456.597	5233
456.609	5163
456.678	5249
456.678	5221
456.747	4814
456.759	4685
456.817	4047
456.840	4223
456.886	4577
456.920	4825
456.955	5183
457.001	5910
457.024	6581
457.082	8044
457.093	8244
457.162	12078
457.163	12144
457.232	12449
457.243	12105
457.301	9240
457.324	7828
457.370	6587
457.405	6794
457.439	6883
457.485	6664
457.508	6752
457.566	8061
457.577	8375
457.646	10110
457.647	10182
457.715	19086
457.727	20930
457.784	35206
457.808	44578
457.853	56061
457.889	66088
457.922	62385
457.969	38869
457.991	39600
458.050	53178
458.060	56168
458.129	93315
458.130	94534
458.198	94836
458.211	86582
458.267	43358
458.292	27880
458.336	19104
458.372	18084
458.405	25082
458.453	37876
458.474	51168
458.533	96376
458.543	100461
458.611	159482
458.614	160639
458.680	92445
458.694	72229
458.749	31915
458.775	21475
458.818	14330
458.855	11858
458.887	10795
458.936	9935
458.955	9618
459.016	9798
459.024	9846
459.093	9964
459.097	9995
459.162	11336
459.177	11844
459.230	13352
459.257	14634
459.299	15332
459.338	15152
459.368	15494
459.418	15964
459.437	15209
459.499	12185
459.505	12060
459.574	10482
459.579	10458
459.643	9809
459.659	9616
459.711	9911
459.740	10392
459.780	11078
459.820	11676
459.849	11555
459.900	11342
459.917	11282
459.981	10964
459.986	10906
460.054	9834
460.061	9775
460.123	10444
460.141	10803
460.191	14288
460.222	17020
460.260	19754
460.302	23901
460.328	22381
460.382	15385
460.397	14729
460.462	10557
460.465	10454
460.534	11547
460.543	11662
460.602	17629
460.623	20076
460.671	28420
460.703	36152
460.739	36679
460.783	35162
460.808	30526
460.864	13392
460.876	12303
460.944	10272
460.945	10254
461.013	11896
461.024	12072
461.081	13160
461.104	14226
461.150	14483
461.184	13927
461.218	13463
461.264	12088
461.286	11960
461.345	12061
461.355	11824
461.423	11392
461.425	11353
461.491	11692
461.505	11937
461.559	17733
461.585	20433
461.628	33236
461.665	45589
461.696	51804
461.745	66986
461.764	59801
461.825	24138
461.832	23404
461.901	15397
461.905	15264
461.969	14631
461.985	14428
462.037	13118
462.065	12127
462.105	12611
462.145	13527
462.173	17952
462.225	26259
462.241	29069
462.305	43049
462.310	42199
462.378	28472
462.385	26172
462.446	17157
462.465	15189
462.514	14806
462.545	15289
462.582	14674
462.625	13078
462.650	12644
462.705	12515
462.718	12717
462.785	12948
462.786	13036
462.854	19144
462.865	20077
462.922	24123
462.945	26144
462.990	21282
463.025	16087
463.058	14447
463.104	12484
463.126	12356
463.184	12203
463.194	12434
463.262	14527
463.264	14599
463.330	14424
463.344	14283
463.398	15008
463.424	15390
463.466	15404
463.504	15407
463.533	15495
463.583	15691
463.601	16418
463.663	18543
463.669	18998
463.737	24570
463.743	25141
463.805	33661
463.823	35905
463.873	49259
463.903	57440
463.940	62591
463.982	70131
464.008	58260
464.062	28680
464.076	26703
464.142	16144
464.144	16051
464.211	14336
464.221	14198
464.279	15607
464.301	16077
464.347	17616
464.381	19027
464.414	19835
464.461	20528
464.482	21560
464.540	24749
464.550	24135
464.617	19080
464.620	18874
464.685	22001
464.699	22802
464.753	24395
464.779	25266
464.820	24616
464.859	23451
464.888	23591
464.938	23871
464.956	23911
465.018	24260
465.023	23963
465.091	19302
465.098	18797
465.158	18437
465.177	18384
465.226	19052
465.257	19391
465.293	20977
465.336	22828
465.361	25283
465.416	30767
465.428	32120
465.495	39880
465.496	40043
465.563	56344
465.575	59119
465.631	74162
465.654	81118
465.698	53950
465.734	29571
465.765	24869
465.813	17847
465.833	17580
465.893	17769
465.900	17735
465.968	17330
465.972	17273
466.035	17764
466.052	17844
466.102	17910
466.131	17934
466.170	18239
466.210	18509
466.237	18808
466.290	19287
466.304	19358
466.369	19434
466.372	19505
466.439	20754
466.449	20874
466.506	23009
466.528	23821
466.573	31063
466.607	36373
466.641	57040
466.687	85781
466.708	96977
466.766	127919
466.775	119316
466.842	52828
466.845	49557
466.909	30491
466.925	26044
466.977	24418
467.004	23613
467.044	24138
467.083	24627
467.111	25983
467.163	28423
467.178	29337
467.242	32874
467.245	32913
467.312	32446
467.321	32326
467.379	30997
467.400	30419
467.446	32638
467.480	34137
467.559	30591
467.638	26136
467.717	28081
467.796	35760
467.875	42648
467.955	36140
468.034	41930
468.113	96286
468.192	146491
468.271	56202
468.350	35764
468.429	46315
468.508	50805
468.588	39414
468.667	30848
468.746	30751
468.825	27414
468.904	26962
468.983	30590
469.062	45878
469.141	57139
469.220	29522
469.299	24456
469.378	27387
469.456	28624
469.535	29010
469.614	27388
469.693	28256
469.772	35828
469.851	47629
469.930	40279
470.009	30223
470.088	32794
470.166	39461
470.245	66333
470.324	89573
470.403	59091
470.482	38405
470.560	31466
470.639	34829
470.718	42223
470.797	34319
470.875	34215
470.954	47155
471.033	50688
471.111	24771
471.190	22486
471.269	21885
471.347	22617
471.426	24213
471.505	26142
471.583	27452
471.662	25647
471.740	24056
471.819	23215
471.898	22391
471.976	23626
472.055	23744
472.133	26450
472.212	31843
472.290	35105
472.369	25719
472.447	22660
472.526	22504
472.604	24002
472.683	28141
472.761	32261
472.839	28977
472.918	26309
472.996	24872
473.075	29110
473.153	28998
473.231	25087
473.310	31352
473.388	33106
473.466	27921
473.545	31469
473.623	48555
473.701	52932
473.780	28918
473.858	24807
473.936	28150
474.014	26299
474.093	31706
474.171	37913
474.249	49552
474.327	41633
474.405	25748
474.484	24701
474.562	26012
474.640	25544
474.718	24898
474.796	24841
474.874	22562
474.952	21247
475.030	22313
475.108	23280
475.187	24659
475.265	28575
475.343	50946
475.421	65769
475.499	26772
475.577	24974
475.655	29861
475.733	55389
475.811	93644
475.889	89561
475.966	69398
476.044	28411
476.122	38608
476.200	56007
476.278	48970
476.356	25940
476.434	27630
476.512	36441
476.590	52977
476.667	47431
476.745	26429
476.823	27466
476.901	26141
476.979	25414
477.056	25327
477.134	25502
477.212	27622
477.290	27886
477.367	23741
477.445	22821
477.523	22399
477.601	23662
477.678	24130
477.756	27003
477.834	30538
477.911	23855
477.989	24822
478.066	24036
478.144	28466
478.222	37373
478.299	68514
478.377	71089
478.454	24421
478.532	23107
478.609	27705
478.687	30161
478.764	23054
478.842	25527
478.919	31909
478.997	30431
479.074	22058
479.152	25815
479.229	31630
479.307	25953
479.384	19522
479.461	20932
479.539	21931
479.616	26625
479.694	24422
479.771	25026
479.848	25938
479.926	33761
480.003	39273
480.080	24245
480.157	22215
480.235	23677
480.312	22863
480.389	24492
480.467	36866
480.544	46030
480.621	30305
480.698	28209
480.775	31168
480.853	31094
480.930	25344
481.007	25577
481.084	27716
481.161	27562
481.238	27661
481.315	22857
481.392	22487
481.470	22645
481.547	23880
481.624	22979
481.701	24326
481.778	25033
481.855	26893
481.932	36786
482.009	57731
482.086	52087
482.163	31338
482.240	46937
482.317	92758
482.393	83297
482.470	29541
482.547	28085
482.624	25714
482.701	28715
482.778	27643
482.855	22986
482.932	22391
483.009	23395
483.085	26484
483.162	32242
483.239	33066
483.316	28830
483.393	29338
483.469	26795
483.546	28149
483.623	30400
483.699	25315
483.776	25962
483.853	29805
483.930	37648
484.006	78258
484.083	138699
484.160	71545
484.236	69199
484.313	62208
484.389	49144
484.466	44691
484.543	44748
484.619	47639
484.696	53568
484.772	51661
484.849	52751
484.925	44380
485.002	40862
485.078	45249
485.155	46413
485.231	41426
485.308	40144
485.384	40099
485.461	47679
485.537	80458
485.614	104563
485.690	48495
485.766	41552
485.843	46454
485.919	78119
485.995	97430
486.072	43105
486.148	38369
486.224	36486
486.301	39218
486.377	48033
486.453	50450
486.530	44640
486.606	48339
486.682	54599
486.758	69575
486.835	89295
486.911	69505
486.987	110469
487.063	167727
487.139	254271
487.215	177209
487.292	71706
487.368	47633
487.444	56134
487.520	73656
487.596	79808
487.672	115009
487.748	347479
487.824	626409
487.900	243470
487.976	73084
488.052	58864
488.128	68619
488.204	61400
488.280	45515
488.356	47569
488.432	89766
488.508	154694
488.584	73463
488.660	47442
488.736	46327
488.812	49784
488.888	64627
488.964	86207
489.039	218087
489.115	396071
489.191	258539
489.267	52771
489.343	41254
489.418	34785
489.494	33008
489.570	32313
489.646	35712
489.722	35427
489.797	35734
489.873	48724
489.949	103280
490.024	110816
490.100	38815
490.176	35809
490.251	49913
490.327	77842
490.403	46798
490.478	33369
490.554	29520
490.629	29754
490.705	30504
490.781	34644
490.856	34585
490.932	41726
491.007	47420
491.083	41726
491.158	34676
491.234	41039
491.309	79412
491.385	99655
491.460	39578
491.536	39144
491.611	39462
491.686	45712
491.762	63488
491.837	144045
491.913	260422
491.988	332443
492.063	508980
492.139	131974
492.214	58335
492.289	34042
492.365	32954
492.440	39742
492.515	39650
492.590	36080
492.666	31695
492.741	38727
492.816	55913
492.891	39649
492.967	28787
493.042	27811
493.117	26834
493.192	26802
493.267	30074
493.342	41560
493.418	41735
493.493	28963
493.568	26503
493.643	28169
493.718	34188
493.793	56414
493.868	79859
493.943	56988
494.018	34831
494.093	27641
494.168	29115
494.243	27090
494.318	25502
494.393	26305
494.468	25242
494.543	27502
494.618	35199
494.693	32950
494.768	27528
494.842	29865
494.917	26990
494.992	29570
495.067	29030
495.142	25979
495.217	29436
495.292	33296
495.366	38208
495.441	49367
495.516	63513
495.591	84026
495.665	276434
495.740	814192
495.815	431852
495.890	58033
495.964	38136
496.039	38516
496.114	35887
496.188	36066
496.263	37597
496.338	33516
496.412	37221
496.487	42748
496.561	51165
496.636	59134
496.710	37948
496.785	39979
496.860	45515
496.934	38522
497.009	38396
497.083	35297
497.158	32512
497.232	38786
497.307	51804
497.381	40963
497.455	42179
497.530	54513
497.604	41313
497.679	39202
497.753	57393
497.827	77708
497.902	68540
497.976	72341
498.050	133810
498.125	572119
498.199	781578
498.273	155595
498.348	94551
498.422	70842
498.496	69274
498.570	72212
498.645	44772
498.719	41564
498.793	51549
498.867	78934
498.941	101676
499.016	215429
499.090	703652
499.164	364839
499.238	47053
499.312	40165
499.386	54607
499.460	52751
499.534	42693
499.609	50440
499.683	70669
499.757	66657
499.831	98646
499.905	419737
499.979	540227
500.053	100144
500.127	96654
500.201	95797
500.275	54281
500.349	47188
500.422	53182
500.496	77810
500.570	170329
500.644	298322
500.718	539683
500.792	185443
500.866	43063
500.940	50409
501.013	48101
501.087	47384
501.161	89873
501.235	120847
501.309	146139
501.382	411280
501.456	487295
501.530	117792
501.603	155579
501.677	88214
501.751	37432
501.825	44056
501.898	58922
501.972	173090
502.046	154826
502.119	46903
502.193	83112
502.266	202638
502.340	133314
502.413	79462
502.487	176040
502.561	121788
502.634	51105
502.708	43153
502.781	41041
502.855	33258
502.928	26044
503.002	27425
503.075	27285
503.149	28783
503.222	28184
503.295	31181
503.369	37025
503.442	45145
503.516	111471
503.589	332160
503.662	274661
503.736	85013
503.809	154713
503.882	163528
503.956	187760
504.029	239724
504.102	233689
504.175	368476
504.249	149700
504.322	59789
504.395	48268
504.468	34537
504.542	32862
504.615	26710
504.688	25278
504.761	25639
504.834	34130
504.907	43562
504.980	85873
505.053	46881
505.127	52331
505.200	59215
505.273	40665
505.346	31076
505.419	24664
505.492	22955
505.565	21474
505.638	19779
505.711	21240
505.784	21244
505.857	21203
505.930	23032
506.003	22219
506.076	23503
506.149	29486
506.221	38262
506.294	33602
506.367	63341
506.440	232567
506.513	189756
506.586	45569
506.659	31641
506.731	27576
506.804	32226
506.877	55125
506.950	37215
507.022	23628
507.095	28014
507.168	38883
507.241	29399
507.313	23752
507.386	28680
507.459	46115
507.531	33402
507.604	24262
507.677	23906
507.749	20683
507.822	27711
507.894	55280
507.967	62437
508.040	35534
508.112	29330
508.185	30393
508.257	28550
508.330	52201
508.402	34995
508.475	26001
508.547	27505
508.620	25657
508.692	40059
508.765	32279
508.837	22351
508.909	22399
508.982	22945
509.054	28663
509.127	26630
509.199	22237
509.271	20513
509.344	20578
509.416	20881
509.488	21429
509.560	23066
509.633	26792
509.705	35028
509.777	28901
509.849	46582
509.922	37928
509.994	22532
510.066	21464
510.138	22164
510.210	31751
510.283	32162
510.355	30205
510.427	27710
510.499	27503
510.571	27676
510.643	27261
510.715	51549
510.787	59815
510.859	31386
510.931	34387
511.003	52728
511.076	57439
511.148	26236
511.219	23566
511.291	34683
511.363	46452
511.435	25236
511.507	20963
511.579	24035
511.651	22643
511.723	22408
511.795	22272
511.867	23470
511.939	26396
512.010	48631
512.082	49874
512.154	28861
512.226	27088
512.298	32852
512.369	52552
512.441	43531
512.513	47673
512.585	36579
512.656	33374
512.728	39835
512.800	31547
512.871	27044
512.943	27621
513.015	25068
513.086	28401
513.158	34283
513.230	33242
513.301	52647
513.373	75880
513.444	40347
513.516	28209
513.588	28951
513.659	32735
513.731	47359
513.802	40998
513.874	74770
513.945	183490
514.016	71521
514.088	30548
514.159	34249
514.231	45894
514.302	56978
514.374	36093
514.445	31898
514.516	55509
514.588	53697
514.659	32222
514.730	53816
514.802	54871
514.873	34122
514.944	30116
515.016	31313
515.087	43855
515.158	44705
515.229	61331
515.301	30516
515.372	28980
515.443	26443
515.514	25170
515.585	23203
515.656	26425
515.728	24947
515.799	27504
515.870	30036
515.941	33281
516.012	31640
516.083	38000
516.154	46308
516.225	71167
516.296	68637
516.367	59347
516.438	68990
516.509	90663
516.580	122840
516.651	305230
516.722	1315323
516.793	861179
516.864	145393
516.935	122908
517.006	124344
517.077	166731
517.148	348507
517.219	1086427
517.289	2123422
517.360	625286
517.431	196319
517.502	66073
517.573	55330
517.643	50047
517.714	52067
517.785	55674
517.856	60507
517.926	75066
517.997	91657
518.068	119507
518.138	156057
518.209	215033
518.280	636116
518.350	2433018
518.421	1547749
518.492	212566
518.562	103759
518.633	91685
518.703	90513
518.774	135828
518.845	344534
518.915	437200
518.986	150854
519.056	87051
519.127	134280
519.197	187285
519.268	316768
519.338	240047
519.408	66828
519.479	92290
519.549	81671
519.620	44941
519.690	34875
519.760	33811
519.831	36149
519.901	40784
519.971	30396
520.042	31723
520.112	36173
520.182	44485
520.253	59529
520.323	33822
520.393	34217
520.463	48336
520.534	36560
520.604	55102
520.674	41978
520.744	39636
520.814	64653
520.885	79304
520.955	74735
521.025	285619
521.095	182290
521.165	37548
521.235	32403
521.305	30175
521.375	29418
521.445	33656
521.515	51955
521.585	57919
521.655	66671
521.725	45376
521.795	40282
521.865	28608
521.935	37378
522.005	40196
522.075	27520
522.145	29590
522.215	33366
522.285	43237
522.355	52565
522.424	91943
522.494	98325
522.564	61779
522.634	103584
522.704	377630
522.774	212478
522.843	44196
522.913	37510
522.983	51968
523.053	44380
523.122	37804
523.192	50321
523.262	185732
523.331	257095
523.401	52124
523.471	29554
523.540	32175
523.610	27082
523.680	25703
523.749	25842
523.819	29226
523.888	32825
523.958	25856
524.027	25994
524.097	29993
524.166	27765
524.236	34212
524.305	34773
524.375	26911
524.444	24350
524.514	28127
524.583	27432
524.653	33303
524.722	36245
524.791	29063
524.861	28029
524.930	27030
524.999	30844
525.069	45055
525.138	34940
525.207	36502
525.277	31901
525.346	31555
525.415	30064
525.484	32245
525.554	36468
525.623	36917
525.692	35523
525.761	39807
525.830	46770
525.900	56729
525.969	78334
526.038	126519
526.107	208185
526.176	676918
526.245	720666
526.314	232712
526.383	330348
526.452	548576
526.522	665135
526.591	948693
526.660	314308
526.729	160629
526.797	134136
526.867	210896
526.935	842142
527.004	1622987
527.073	1208075
527.142	156092
527.211	59716
527.280	52940
527.349	58391
527.418	35211
527.487	31607
527.555	28194
527.624	26276
527.693	25213
527.762	27733
527.831	26456
527.899	27522
527.968	26927
528.037	28309
528.106	34208
528.174	66574
528.243	54521
528.312	60725
528.380	107975
528.449	41959
528.518	26746
528.586	21791
528.655	23519
528.723	22405
528.792	22330
528.861	26225
528.929	23584
528.998	22507
529.066	21998
529.135	23491
529.203	22639
529.272	23519
529.340	26263
529.409	27333
529.477	25387
529.545	28527
529.614	33709
529.682	30497
529.751	41049
529.819	36331
529.887	36194
529.956	28966
530.024	30966
530.092	27210
530.161	32689
530.229	56445
530.297	41140
530.365	28254
530.434	26842
530.502	27295
530.570	27106
530.638	25503
530.707	29513
530.775	32641
530.843	26549
530.911	26956
530.979	26209
531.047	26452
531.115	28803
531.183	27936
531.252	27151
531.320	27732
531.388	26364
531.456	27613
531.524	27216
531.592	28954
531.660	31520
531.728	29903
531.796	28637
531.864	29001
531.932	30104
532.000	30677
532.067	33457
532.135	35937
532.203	39585
532.271	43257
532.339	59065
532.407	171201
532.475	139779
532.542	57413
532.610	56936
532.678	67763
532.746	192898
532.814	696621
532.881	273191
532.949	53342
533.017	39017
533.084	32488
533.152	31470
533.220	30871
533.287	38948
533.355	33493
533.423	30810
533.490	30634
533.558	30993
533.625	31417
533.693	32503
533.761	32046
533.828	33883
533.896	34298
533.963	58127
534.031	80984
534.098	110758
534.166	71318
534.233	34934
534.300	34167
534.368	36107
534.435	34712
534.503	35767
534.570	38027
534.637	42307
534.705	46706
534.772	52823
534.840	71361
534.907	255290
534.974	509732
535.041	95745
535.109	46041
535.176	35162
535.243	32145
535.310	34145
535.378	33735
535.445	29006
535.512	28965
535.579	30723
535.646	30239
535.714	29703
535.781	33607
535.848	31436
535.915	33374
535.982	31057
536.049	32158
536.116	34066
536.183	32599
536.250	33229
536.317	35076
536.384	40239
536.451	57949
536.518	68193
536.585	49535
536.652	51445
536.719	78608
536.786	75831
536.853	52167
536.920	66448
536.987	109908
537.053	104209
537.120	299579
537.187	402007
537.254	59888
537.321	39510
537.388	37877
537.454	32811
537.521	32522
537.588	31641
537.654	33388
537.721	36750
537.788	38544
537.855	33313
537.921	34872
537.988	36984
538.055	35586
538.121	34847
538.188	38053
538.254	52267
538.321	112286
538.388	87365
538.454	39517
538.521	36521
538.587	33653
538.654	33324
538.720	32845
538.787	33950
538.853	34332
538.920	41780
538.986	41972
539.053	38045
539.119	39687
539.185	41025
539.252	43593
539.318	71652
539.385	57254
539.451	46149
539.517	48691
539.583	50298
539.650	87523
539.716	297520
539.782	127389
539.849	44427
539.915	39754
539.981	42188
540.047	51578
540.114	46952
540.180	45334
540.246	46910
540.312	58974
540.378	107214
540.444	130220
540.510	98672
540.576	323525
540.643	161206
540.709	43758
540.775	38942
540.841	38065
540.907	42629
540.973	55089
541.039	59055
541.105	75732
541.171	46784
541.237	40193
541.303	41541
541.369	44952
541.435	54580
541.500	98885
541.566	81467
541.632	40252
541.698	34751
541.764	35736
541.830	35353
541.896	34494
541.961	35077
542.027	38589
542.093	40559
542.159	40556
542.224	43154
542.290	53759
542.356	89178
542.421	130403
542.487	60531
542.553	42125
542.618	44642
542.684	42830
542.750	43272
542.815	49486
542.881	68674
542.947	241666
543.012	273974
543.078	51810
543.143	39727
543.209	41439
543.274	43756
543.340	47961
543.405	90400
543.471	206438
543.536	65004
543.602	38821
543.667	36380
543.732	35484
543.798	33249
543.863	35655
543.928	33955
543.994	33069
544.059	35710
544.124	35823
544.190	35812
544.255	38164
544.320	39853
544.386	43190
544.451	55859
544.516	68950
544.581	62974
544.646	139361
544.712	316641
544.777	84334
544.842	45790
544.907	46334
544.972	43226
545.037	41517
545.102	43783
545.168	46008
545.233	48847
545.298	50277
545.363	55926
545.428	62450
545.493	92714
545.558	241480
545.623	140414
545.688	51772
545.753	45243
545.818	45756
545.883	45292
545.947	46455
546.012	48519
546.077	51804
546.142	51122
546.207	52730
546.272	64978
546.337	75987
546.401	59985
546.466	55171
546.531	52488
546.596	57500
546.661	61167
546.725	59198
546.790	56439
546.855	60509
546.919	62512
546.984	68606
547.049	73109
547.113	83452
547.178	84608
547.243	93576
547.307	103907
547.372	119412
547.436	126334
547.501	117268
547.565	124838
547.630	132329
547.695	131119
547.759	122341
547.823	121508
547.888	112853
547.952	116596
548.017	118371
548.081	127119
548.146	138082
548.210	135982
548.274	131244
548.339	133877
548.403	121717
548.468	113967
548.532	114342
548.596	114529
548.660	114017
548.725	125534
548.789	140508
548.853	141775
548.917	128367
548.982	133043
549.046	131291
549.110	108746
549.174	103643
549.238	114976
549.303	126364
549.367	132522
549.431	129905
549.495	120381
549.559	120112
549.623	132396
549.687	154267
549.751	176220
549.815	177963
549.879	174810
549.943	164985
550.007	170709
550.071	175310
550.135	179981
550.199	164271
550.263	151033
550.327	142767
550.391	152344
550.455	158322
550.519	163516
550.582	172508
550.646	208522
550.710	232866
550.774	194760
550.838	195215
550.901	197642
550.965	211268
551.029	218272
551.093	233362
551.156	256045
551.220	318513
551.284	404074
551.347	296277
551.411	266725
551.475	294454
551.538	216423
551.602	198616
551.666	183974
551.729	175408
551.793	167412
551.856	165963
551.920	161444
551.983	163548
552.047	161873
552.110	161130
552.174	159973
552.237	168069
552.301	158811
552.364	149872
552.428	149276
552.491	152200
552.554	159258
552.618	158209
552.681	163387
552.745	165308
552.808	199303
552.871	266784
552.934	204033
552.998	166711
553.061	157447
553.124	149505
553.187	144921
553.251	149141
553.314	153015
553.377	148700
553.440	154381
553.503	163200
553.567	166756
553.630	157784
553.693	156194
553.756	158007
553.819	155462
553.882	149647
553.945	149077
554.008	149269
554.071	148582
554.134	153352
554.197	145671
554.260	139173
554.323	145306
554.386	147812
554.449	152244
554.512	152812
554.575	145237
554.638	145092
554.701	144661
554.764	140775
554.827	135291
554.889	131763
554.952	125215
555.015	122917
555.078	124855
555.141	127427
555.203	124305
555.266	122967
555.329	124249
555.391	120981
555.454	121766
555.517	121551
555.580	113023
555.642	107859
555.705	107367
555.768	107585
555.830	106056
555.893	101032
555.955	97256
556.018	97712
556.080	98398
556.143	101054
556.206	101880
556.268	100172
556.330	102083
556.393	99872
556.455	95687
556.518	103512
556.580	112289
556.643	90820
556.705	87925
556.767	87842
556.830	88742
556.892	91656
556.955	121115
557.017	109063
557.079	85685
557.142	83008
557.204	88728
557.266	135421
557.328	141042
557.391	79962
557.453	73599
557.515	73676
557.577	82325
557.639	92850
557.701	75134
557.764	74104
557.826	75082
557.888	81683
557.950	83510
558.012	87971
558.074	101374
558.136	176251
558.198	518077
558.260	285487
558.322	97728
558.384	94939
558.446	101682
558.508	114187
558.570	136968
558.632	189600
558.694	292187
558.756	267410
558.818	575939
558.880	1735576
558.942	859178
559.003	543699
559.065	379235
559.127	133001
559.189	123555
559.251	130627
559.312	160197
559.374	306969
559.436	1120652
559.498	873141
559.559	167489
559.621	126263
559.683	131234
559.744	183718
559.806	501544
559.868	1049885
559.929	305210
559.991	133254
560.052	164801
560.114	452828
560.176	419078
560.237	243699
560.299	522891
560.360	184230
560.422	68624
560.483	60979
560.545	55617
560.606	54274
560.667	52781
560.729	51476
560.790	49294
560.852	49664
560.913	49189
560.974	47363
561.036	47630
561.097	49255
561.158	49672
561.220	52457
561.281	52419
561.342	53874
561.403	60081
561.465	70606
561.526	137917
561.587	231168
561.648	84424
561.709	53760
561.771	49500
561.832	48526
561.893	49048
561.954	47898
562.015	47235
562.076	47981
562.137	46639
562.198	47905
562.259	48014
562.320	49623
562.381	53551
562.442	70124
562.503	66214
562.564	47455
562.625	45233
562.686	44652
562.747	48143
562.808	48865
562.869	45324
562.930	51497
562.991	51363
563.051	49563
563.112	46407
563.173	45638
563.234	44311
563.294	44358
563.355	46190
563.416	48065
563.477	45214
563.537	45116
563.598	47144
563.659	47046
563.720	47479
563.780	47934
563.841	50334
563.901	46978
563.962	45480
564.023	45012
564.083	45659
564.144	45578
564.204	45465
564.265	45370
564.325	47785
564.386	64543
564.446	74221
564.507	46329
564.567	44945
564.628	43949
564.688	43915
564.749	44502
564.809	45757
564.869	53094
564.930	47486
564.990	44614
565.050	44682
565.111	44754
565.171	41929
565.231	44437
565.292	43603
565.352	42622
565.412	43488
565.472	46162
565.532	47554
565.593	46583
565.653	44230
565.713	45278
565.773	48378
565.833	54360
565.893	72219
565.953	51518
566.013	44509
566.074	45307
566.134	50333
566.194	64871
566.254	77909
566.314	59479
566.374	45263
566.434	44390
566.494	43698
566.554	44321
566.614	43512
566.673	43013
566.733	45136
566.793	45319
566.853	46437
566.913	44779
566.973	44949
567.033	45740
567.092	49710
567.152	48074
567.212	50280
567.272	45874
567.331	45888
567.391	44606
567.451	46456
567.511	53014
567.570	58491
567.630	46892
567.690	42619
567.749	42387
567.809	43468
567.868	45790
567.928	46019
567.988	47575
568.047	46706
568.107	46541
568.166	50419
568.226	55551
568.285	68663
568.345	61207
568.404	53894
568.464	51465
568.523	48695
568.582	51112
568.642	55663
568.701	60086
568.761	64081
568.820	84400
568.879	86080
568.939	72714
568.998	61848
569.057	51636
569.116	48711
569.176	45107
569.235	43335
569.294	42871
569.353	43047
569.413	42126
569.472	42315
569.531	41461
569.590	40543
569.649	40194
569.708	38518
569.767	41934
569.827	48943
569.886	46530
569.945	39935
570.004	42789
570.063	42464
570.122	44261
570.181	47675
570.240	46149
570.299	48557
570.358	50158
570.417	43498
570.475	41243
570.534	43706
570.593	46188
570.652	45407
570.711	47643
570.770	43367
570.829	46506
570.887	46510
570.946	53497
571.005	44694
571.064	42735
571.122	47468
571.181	49318
571.240	44314
571.299	40122
571.357	39245
571.416	41772
571.475	43503
571.533	46723
571.592	41855
571.650	42691
571.709	39768
571.768	42410
571.826	43239
571.885	40170
571.943	37769
572.002	38123
572.060	39180
572.119	37445
572.177	36982
572.236	36348
572.294	36519
572.352	37157
572.411	38034
572.469	36588
572.528	36768
572.586	37480
572.644	39030
572.703	47776
572.761	42486
572.819	36788
572.877	35544
572.936	34252
572.994	34914
573.052	33887
573.110	37443
573.169	37672
573.227	35322
573.285	35218
573.343	34455
573.401	34660
573.459	33490
573.517	33364
573.576	35475
573.634	35259
573.692	36817
573.750	35579
573.808	34766
573.866	35008
573.924	38925
573.982	40816
574.040	36175
574.098	34044
574.155	32713
574.213	32706
574.271	33621
574.329	34257
574.387	34056
574.445	32998
574.503	31584
574.560	31213
574.618	30840
574.676	30856
574.734	31357
574.792	32403
574.849	31436
574.907	30077
574.965	30526
575.022	30222
575.080	30208
575.138	31661
575.195	32789
575.253	33408
575.311	36944
575.368	32199
575.426	29952
575.483	29927
575.541	30868
575.598	29226
575.656	31009
575.713	31285
575.771	31084
575.828	30621
575.886	30645
575.943	31988
576.001	33323
576.058	32857
576.115	32943
576.173	36812
576.230	39908
576.287	47482
576.345	42032
576.402	32905
576.459	33848
576.517	32330
576.574	34636
576.631	35514
576.688	33787
576.746	31493
576.803	30426
576.860	31042
576.917	30741
576.974	32061
577.031	31299
577.089	30118
577.146	30443
577.203	32326
577.260	31367
577.317	30900
577.374	34938
577.431	34453
577.488	32898
577.545	31155
577.602	29933
577.659	30609
577.716	29395
577.773	29912
577.830	28912
577.886	29222
577.943	29954
578.000	29583
578.057	30607
578.114	31107
578.171	29089
578.227	30775
578.284	28568
578.341	29393
578.398	30157
578.454	31649
578.511	33298
578.568	36071
578.625	33303
578.681	30712
578.738	28789
578.794	29837
578.851	29583
578.908	32103
578.964	33805
579.021	36023
579.077	33960
579.134	33029
579.190	29947
579.247	30855
579.303	30040
579.360	30489
579.416	30071
579.473	30112
579.529	28048
579.586	29980
579.642	29993
579.698	30073
579.755	30302
579.811	30512
579.867	29393
579.924	29446
579.980	29009
580.036	29732
580.093	29748
580.149	29680
580.205	30245
580.261	30506
580.317	30876
580.374	33118
580.430	35679
580.486	35599
580.542	32094
580.598	32380
580.619	32687
580.654	33249
580.692	32851
580.710	32698
580.765	33357
580.767	33406
580.823	32813
580.838	32722
580.879	32540
580.911	32271
580.935	32135
580.984	31112
580.991	30999
581.047	31489
581.057	31292
581.103	30518
581.130	30870
581.159	31253
581.203	31173
581.215	31192
581.270	31076
581.276	31036
581.326	30778
581.349	31145
581.382	31751
581.422	31855
581.438	31912
581.494	33001
581.494	32993
581.550	33465
581.567	33710
581.606	34229
581.640	34466
581.661	34650
581.713	33641
581.717	33582
581.773	32428
581.786	32451
581.829	32595
581.859	33676
581.885	34540
581.932	34641
581.940	34710
581.996	35169
582.004	35040
582.052	33954
582.077	33076
582.107	32298
582.150	32741
582.163	32834
582.219	33275
582.223	33284
582.274	33750
582.296	34073
582.330	34409
582.368	35367
582.386	35819
582.441	34390
582.441	34390
582.497	33693
582.514	33784
582.552	34184
582.587	33705
582.608	33412
582.659	35029
582.663	35152
582.719	34869
582.732	34700
582.774	34148
582.805	34529
582.830	34907
582.877	34343
582.885	34224
582.941	34267
582.950	34300
582.996	34662
583.023	35853
583.052	37146
583.095	36573
583.107	36395
583.162	35688
583.168	35800
583.218	36883
583.240	36608
583.273	35976
583.313	35293
583.328	35145
583.384	35760
583.385	35749
583.439	35562
583.458	35656
583.494	35495
583.531	34632
583.549	34341
583.603	35733
583.605	35771
583.660	35272
583.676	35248
583.715	35347
583.748	35537
583.770	35629
583.820	36177
583.825	36221
583.881	36863
583.893	36859
583.936	36795
583.965	36207
583.991	35717
584.038	35337
584.046	35321
584.101	36345
584.110	36424
584.156	36706
584.183	37006
584.211	37229
584.255	37554
584.266	37652
584.321	36205
584.328	36267
584.376	37133
584.400	37513
584.431	38048
584.472	37694
584.486	37477
584.541	37951
584.545	37948
584.596	38289
584.617	38588
584.651	39493
584.689	40303
584.706	40522
584.761	41138
584.762	41136
584.816	42037
584.834	42027
584.871	42361
584.906	42649
584.926	42685
584.978	43714
584.980	43782
585.035	45657
585.051	46235
585.090	48290
585.123	50410
585.145	51664
585.195	53707
585.200	53922
585.254	55705
585.267	56734
585.309	60713
585.340	63682
585.364	66268
585.412	72154
585.419	73112
585.473	80817
585.484	83002
585.528	95759
585.556	109011
585.583	134063
585.628	196731
585.637	222174
585.692	441937
585.700	493120
585.747	732450
585.772	672488
585.801	471809
585.845	186894
585.856	145987
585.910	85704
585.917	80502
585.965	70228
585.989	66004
586.019	62377
586.061	59757
586.074	59507
586.128	59411
586.133	59487
586.183	61733
586.205	62504
586.237	62322
586.277	60509
586.292	59859
586.346	58038
586.349	57940
586.401	58068
586.421	58275
586.455	59068
586.493	59513
586.509	61916
586.564	73387
586.565	73730
586.618	100945
586.637	107243
586.672	99080
586.709	81589
586.727	75987
586.781	71419
586.781	71470
586.835	65516
586.853	63850
586.889	60909
586.925	58905
586.944	59003
586.996	59794
586.998	59883
587.052	60866
587.068	61129
587.106	61972
587.140	62532
587.161	62964
587.212	63996
587.215	64153
587.269	66398
587.284	66641
587.323	66748
587.356	66775
587.377	67257
587.427	69556
587.431	69756
587.485	69253
587.499	69383
587.539	70452
587.571	71174
587.593	72219
587.643	73775
587.648	73948
587.702	74537
587.715	74808
587.755	77249
587.786	78865
587.810	79004
587.858	78323
587.864	78726
587.917	82609
587.930	83497
587.971	87206
588.001	89366
588.025	90262
588.073	90947
588.079	91433
588.133	95385
588.145	96305
588.187	102027
588.217	106143
588.241	110187
588.288	117357
588.295	118882
588.348	132300
588.360	135061
588.402	146040
588.431	153377
588.456	160836
588.503	175536
588.510	178621
588.564	204768
588.575	210356
588.617	239368
588.646	259984
588.671	285860
588.718	339007
588.725	354937
588.778	487199
588.789	518835
588.832	792208
588.861	999306
588.886	1269272
588.932	1832288
588.939	1873880
588.993	2073089
589.004	2079400
589.047	1678253
589.075	1361140
589.100	1070112
589.147	588581
589.154	563425
589.207	411845
589.218	383139
589.261	352533
589.290	336239
589.314	346923
589.361	373601
589.368	390190
589.421	537286
589.433	572954
589.475	914342
589.504	1178256
589.528	1418517
589.576	1886090
589.582	1863769
589.635	1463035
589.647	1357322
589.689	815556
589.718	471389
589.742	385273
589.790	243563
589.795	238742
589.849	198665
589.861	190201
589.902	184010
589.932	178427
589.955	164301
590.004	131442
590.009	130319
590.062	118901
590.075	115969
590.115	112063
590.146	108765
590.168	108054
590.218	106247
590.222	106386
590.275	105368
590.289	104907
590.328	104314
590.360	103198
590.381	101881
590.431	98122
590.435	98295
590.488	97921
590.503	97658
590.541	99239
590.574	100409
590.594	100161
590.645	98122
590.647	98229
590.700	95387
590.716	94395
590.753	95257
590.787	95714
590.806	96015
590.859	96339
590.859	96554
590.912	96507
590.930	96398
590.965	97135
591.001	97369
591.018	98026
591.071	99449
591.072	99237
591.124	98885
591.143	98460
591.177	99981
591.214	101204
591.230	102658
591.283	106907
591.285	106819
591.336	110330
591.356	111406
591.389	111123
591.427	110106
591.442	108400
591.495	100627
591.498	99846
591.547	100071
591.569	99890
591.600	99899
591.640	99269
591.653	99354
591.706	98667
591.711	98376
591.759	101964
591.782	103442
591.811	106953
591.853	111492
591.864	111052
591.917	107149
591.924	106300
591.969	103993
591.995	102411
592.022	103870
592.066	105583
592.075	106708
592.127	111969
592.137	112690
592.180	119157
592.208	122853
592.233	118785
592.279	109917
592.285	109827
592.338	106938
592.350	106010
592.390	105488
592.421	104689
592.443	105154
592.491	105315
592.495	105605
592.548	106038
592.562	105898
592.600	106304
592.633	106172
592.653	106453
592.704	105901
592.705	106542
592.775	108121
592.846	108308
592.916	114148
592.987	121362
593.058	115523
593.128	106032
593.199	107134
593.270	106134
593.341	106693
593.411	110056
593.482	112744
593.553	109697
593.623	106656
593.694	110516
593.764	112213
593.835	110513
593.906	108591
593.976	107816
594.047	114945
594.117	121741
594.188	126066
594.258	114306
594.329	110542
594.399	112811
594.470	112915
594.540	114545
594.611	115337
594.681	115066
594.751	115740
594.822	120997
594.892	125947
594.963	126256
595.033	126192
595.103	127740
595.174	133100
595.244	153752
595.314	177914
595.384	136153
595.455	131473
595.525	134543
595.595	138810
595.665	138934
595.736	136516
595.806	134319
595.876	136867
595.946	136195
596.016	139217
596.087	141243
596.157	143250
596.227	144677
596.297	148983
596.367	156102
596.437	161471
596.507	176454
596.577	198833
596.647	168525
596.717	165904
596.787	168324
596.857	166404
596.927	168421
596.997	167585
597.067	167989
597.137	173847
597.207	175287
597.277	177025
597.347	171205
597.417	169443
597.487	170675
597.557	175442
597.626	177554
597.696	181563
597.766	187730
597.836	200710
597.906	172156
597.975	159746
598.045	160093
598.115	163045
598.185	170332
598.254	185946
598.324	202665
598.394	207895
598.464	203451
598.533	195149
598.603	184799
598.672	183030
598.742	184088
598.812	181566
598.881	183698
598.951	183072
599.020	180206
599.090	185973
599.159	191521
599.229	186064
599.299	177472
599.368	184604
599.437	183639
599.507	173600
599.576	171201
599.646	169107
599.715	166670
599.785	168387
599.854	166864
599.924	170369
599.993	166543
600.062	163680
600.132	167234
600.201	174055
600.270	199451
600.340	207571
600.409	196646
600.478	195914
600.547	198866
600.617	193503
600.686	168333
600.755	158902
600.824	158821
600.894	151913
600.963	144445
601.032	142638
601.101	141825
601.170	138432
601.239	138676
601.308	143224
601.378	142893
601.447	137609
601.516	139528
601.585	143340
601.654	155109
601.723	148054
601.792	146899
601.861	150753
601.930	157337
601.999	170505
602.068	160179
602.137	167001
602.206	170789
602.275	163308
602.343	179254
602.412	187094
602.481	161137
602.550	157977
602.619	161018
602.688	167685
602.756	166852
602.825	163311
602.894	165207
602.963	167497
603.032	167848
603.100	170291
603.169	167080
603.238	171350
603.307	169069
603.375	169446
603.444	171627
603.513	173940
603.581	174126
603.650	180186
603.719	171026
603.787	170911
603.856	175773
603.924	180699
603.993	183537
604.061	188297
604.130	195068
604.198	200728
604.267	201675
604.335	202109
604.404	204826
604.472	207343
604.541	206693
604.609	210524
604.678	210225
604.746	212516
604.815	219088
604.883	220564
604.951	217971
605.020	220807
605.088	223374
605.156	222787
605.225	226372
605.293	227283
605.361	227225
605.429	230333
605.498	234820
605.566	243510
605.634	249551
605.702	254073
605.771	259822
605.839	260091
605.907	253660
605.975	247904
606.043	243902
606.111	239718
606.180	243160
606.248	237129
606.316	235316
606.384	245143
606.452	252055
606.520	276955
606.588	258484
606.656	241030
606.724	238741
606.792	225949
606.860	207364
606.928	189043
606.996	182597
607.064	177935
607.132	182740
607.200	193311
607.267	201768
607.335	202340
607.403	206059
607.471	203492
607.539	194717
607.607	197000
607.674	179832
607.742	179939
607.810	185346
607.878	183221
607.946	182460
608.013	188319
608.081	191279
608.149	192317
608.216	195154
608.284	203615
608.352	200286
608.419	203748
608.487	210742
608.555	203209
608.622	196185
608.690	206070
608.757	224623
608.825	229982
608.893	229656
608.960	226602
609.028	224053
609.095	231049
609.163	212382
609.230	193906
609.298	179130
609.365	182837
609.432	195965
609.500	210289
609.567	236594
609.635	266603
609.702	279681
609.769	274112
609.837	229461
609.904	192934
609.971	194887
610.039	213939
610.106	265747
610.173	465956
610.241	1045510
610.308	769713
610.375	288506
610.442	210869
610.509	195527
610.577	192539
610.644	195894
610.711	203551
610.778	206093
610.845	214891
610.912	225469
610.980	233041
611.047	232523
611.114	230142
611.181	224744
611.248	221172
611.315	229172
611.382	235565
611.449	241843
611.516	246760
611.583	244895
611.650	247021
611.717	248881
611.784	254216
611.851	264394
611.918	284661
611.984	322184
612.051	430335
612.118	801379
612.185	1885417
612.252	1536728
612.319	415109
612.386	321908
612.452	295796
612.519	281716
612.586	293931
612.653	285289
612.719	288803
612.786	279336
612.853	259345
612.919	247703
612.986	254144
613.053	240586
613.120	230740
613.186	222955
613.253	226343
613.319	222865
613.386	224860
613.453	232354
613.519	241223
613.586	262286
613.652	326706
613.719	285475
613.785	276980
613.852	232690
613.918	228210
613.985	228979
614.051	240077
614.118	241269
614.184	234575
614.250	226107
614.317	229802
614.383	225952
614.449	231396
614.516	229773
614.582	232559
614.648	231051
614.715	227707
614.781	225551
614.847	225779
614.914	227675
614.980	222350
615.046	218640
615.112	222408
615.179	223486
615.245	227470
615.311	225574
615.377	233811
615.443	238105
615.509	233291
615.575	239695
615.642	238572
615.708	247410
615.774	260127
615.840	272607
615.906	296901
615.972	347891
616.038	499097
616.104	963949
616.170	2114392
616.236	2204111
616.302	608564
616.368	420426
616.434	318989
616.500	290897
616.565	311283
616.631	382040
616.697	328380
616.763	326224
616.829	445995
616.895	787355
616.961	823693
617.026	382762
617.092	263857
617.158	244637
617.224	242366
617.289	228395
617.355	221127
617.421	217646
617.487	216716
617.552	205730
617.618	200343
617.684	202661
617.749	203831
617.815	195350
617.880	194475
617.946	194071
618.012	202417
618.077	205251
618.143	197889
618.208	195815
618.274	209569
618.339	214667
618.405	188559
618.470	182733
618.536	186300
618.601	189070
618.667	180646
618.732	169486
618.798	169480
618.863	166614
618.928	165937
618.994	174009
619.059	183645
619.124	226319
619.190	197717
619.255	167259
619.320	165816
619.386	165008
619.451	164111
619.516	160372
619.581	162492
619.647	166398
619.712	164888
619.777	160416
619.842	163330
619.907	165334
619.972	169247
620.038	170695
620.103	160641
620.168	159480
620.233	160820
620.298	161340
620.363	163879
620.428	164931
620.493	168451
620.558	169020
620.623	169938
620.688	171004
620.753	170533
620.818	172109
620.883	174192
620.948	174302
621.013	172066
621.078	173079
621.143	174292
621.207	175988
621.272	177814
621.337	180432
621.402	177959
621.467	189675
621.532	196403
621.596	180199
621.661	173141
621.726	169049
621.791	172329
621.855	177553
621.920	184963
621.985	180601
622.049	187085
622.114	185229
622.179	181039
622.243	185635
622.308	188460
622.373	191603
622.437	193339
622.502	182485
622.566	181626
622.631	179510
622.695	184603
622.760	181582
622.824	183691
622.889	186577
622.953	199421
623.018	248270
623.082	266984
623.147	194864
623.211	191334
623.276	193454
623.340	181922
623.404	173750
623.469	175528
623.533	173410
623.597	171594
623.662	171544
623.726	166787
623.790	156332
623.854	154578
623.919	157381
623.983	158661
624.047	162919
624.111	158876
624.176	162826
624.240	167519
624.304	177202
624.368	164449
624.432	160795
624.496	165269
624.560	179449
624.625	198798
624.689	172844
624.753	172854
624.817	168042
624.881	164066
624.945	154854
625.009	151290
625.073	153696
625.137	166987
625.201	191438
625.265	202360
625.329	159744
625.393	164825
625.456	161569
625.520	162825
625.584	171221
625.648	183988
625.712	206744
625.776	312007
625.839	352950
625.903	214183
625.967	146920
626.031	175447
626.095	244919
626.158	171409
626.222	130420
626.286	121316
626.349	118336
626.413	115848
626.477	122776
626.540	118695
626.604	112940
626.668	110896
626.731	108845
626.795	113701
626.858	113425
626.922	110639
626.986	110182
627.049	109041
627.113	112095
627.176	107818
627.240	105498
627.303	105187
627.366	104893
627.430	107283
627.493	106304
627.557	105587
627.620	106175
627.684	107479
627.747	107349
627.810	104428
627.874	96864
627.937	94797
628.000	98818
628.064	100458
628.127	88652
628.190	89899
628.253	86869
628.317	86448
628.380	82843
628.443	82220
628.506	84232
628.569	80886
628.632	76309
628.696	76302
628.759	75419
628.822	74679
628.885	73567
628.948	75188
629.011	75904
629.074	75399
629.137	70798
629.200	71067
629.263	74657
629.326	70328
629.389	70886
629.452	70016
629.515	70721
629.578	69937
629.641	70405
629.704	73962
629.767	75472
629.830	67831
629.892	65526
629.955	67415
630.018	71999
630.081	80794
630.144	97363
630.207	80156
630.269	75557
630.332	71275
630.395	67751
630.458	64812
630.520	65300
630.583	64425
630.646	61166
630.708	61658
630.771	63189
630.834	63913
630.896	62419
630.959	60695
631.021	61337
631.084	63483
631.146	65835
631.209	69650
631.272	62482
631.334	62093
631.397	62740
631.459	63692
631.522	67046
631.584	68461
631.646	68453
631.709	74248
631.771	90733
631.834	77483
631.896	66693
631.958	60988
632.021	60080
632.083	60440
632.145	62264
632.208	61943
632.270	63327
632.332	58506
632.395	56350
632.457	59944
632.519	58130
632.581	56917
632.643	55957
632.706	58210
632.768	55696
632.830	55920
632.892	55769
632.954	57957
633.016	58367
633.078	57176
633.141	56424
633.203	55474
633.265	57159
633.327	56009
633.389	56699
633.451	63935
633.513	77860
633.575	69747
633.637	72695
633.698	73516
633.760	59883
633.822	59279
633.884	60322
633.946	60435
634.008	60887
634.070	60704
634.132	61617
634.193	67023
634.255	68739
634.317	71417
634.379	72971
634.441	67307
634.502	62653
634.564	59129
634.626	56273
634.687	55607
634.749	55167
634.811	54506
634.873	50125
634.934	52502
634.996	53138
635.057	52066
635.119	52684
635.181	54034
635.242	54258
635.304	52706
635.365	54266
635.427	54826
635.488	55490
635.550	53226
635.611	52641
635.673	52340
635.734	57046
635.796	59676
635.857	64100
635.918	63490
635.980	64744
636.041	68778
636.102	72008
636.164	73353
636.225	71482
636.286	65055
636.348	60740
636.409	57109
636.470	53568
636.531	53130
636.593	53734
636.654	54810
636.715	49008
636.776	47710
636.838	45896
636.899	48444
636.960	46631
637.021	44764
637.082	46824
637.143	46311
637.204	44066
637.265	45000
637.326	44640
637.387	43892
637.448	43822
637.509	45071
637.570	45978
637.631	44649
637.692	42137
637.753	42201
637.814	43253
637.875	43088
637.936	44309
637.997	42834
638.058	45136
638.119	44658
638.179	42586
638.240	42556
638.301	43227
638.362	40868
638.423	42276
638.483	42576
638.544	39562
638.605	40822
638.666	39979
638.726	41768
638.787	40396
638.848	40187
638.908	39492
638.969	39059
639.030	39180
639.090	39917
639.151	40166
639.211	45323
639.272	55576
639.332	90755
639.393	62206
639.453	42061
639.514	43028
639.574	39194
639.635	37853
639.695	39916
639.756	39180
639.816	42719
639.877	49304
639.937	75180
639.997	111715
640.058	52396
640.118	39020
640.178	38322
640.239	36464
640.299	36407
640.359	36033
640.420	37559
640.480	38619
640.540	44335
640.600	44049
640.661	41281
640.721	41821
640.781	52843
640.841	41795
640.901	38678
640.961	38766
641.021	43188
641.082	48972
641.142	68840
641.202	52878
641.262	34466
641.322	35144
641.382	34454
641.442	36078
641.502	34931
641.562	35462
641.622	36751
641.682	37141
641.742	39615
641.802	39284
641.861	37924
641.921	38666
641.981	45586
642.041	43968
642.101	54946
642.161	44620
642.221	33163
642.280	33149
642.340	33259
642.400	32328
642.460	34050
642.519	34180
642.579	34888
642.639	34816
642.698	33204
642.758	35964
642.818	34831
642.877	35312
642.937	37573
642.997	43202
643.056	63427
643.116	45983
643.175	36253
643.235	34231
643.294	35594
643.354	36656
643.414	38058
643.473	43884
643.532	49769
643.592	61219
643.651	88523
643.711	142183
643.770	255353
643.830	575515
643.889	1416278
643.948	498916
644.008	85226
644.067	53632
644.126	44123
644.186	39482
644.245	36807
644.304	33479
644.363	35125
644.423	32274
644.482	32843
644.541	33828
644.600	34517
644.659	40131
644.719	46389
644.778	62228
644.837	93793
644.896	168769
644.955	417369
645.014	200796
645.073	49188
645.132	38576
645.191	37655
645.250	34687
645.309	36053
645.368	36642
645.427	42535
645.486	57052
645.545	103589
645.604	48160
645.663	33359
645.722	32429
645.781	34404
645.840	36553
645.898	43933
645.957	56662
646.016	78545
646.075	131581
646.134	250104
646.192	590004
646.251	1140475
646.310	241109
646.369	61431
646.427	48279
646.486	41439
646.545	35003
646.603	32611
646.662	30985
646.721	30604
646.779	29957
646.838	30863
646.896	37381
646.955	43627
647.014	59022
647.072	99736
647.131	254632
647.189	182698
647.248	36866
647.306	29272
647.365	28426
647.423	26206
647.481	27369
647.540	25316
647.598	26051
647.657	25949
647.715	25578
647.773	24164
647.832	25266
647.890	24114
647.948	24024
648.007	25849
648.065	23962
648.123	25142
648.181	27307
648.240	24484
648.298	22557
648.356	24511
648.414	24271
648.472	24762
648.531	23916
648.589	24574
648.647	23898
648.705	24714
648.763	24127
648.821	24374
648.879	24801
648.937	28100
648.995	28932
649.053	34773
649.111	47073
649.169	69006
649.227	112978
649.285	212589
649.343	630948
649.401	453068
649.459	129960
649.516	92386
649.574	35841
649.632	35690
649.690	34517
649.748	37875
649.806	45107
649.863	71855
649.921	175822
649.979	166876
650.037	34483
650.094	24162
650.152	24379
650.210	21181
650.268	22164
650.325	21784
650.383	20325
650.440	19528
650.498	21139
650.556	20386
650.613	18444
650.671	20162
650.728	20825
650.786	21806
650.843	22295
650.901	21314
650.958	19673
651.016	19024
651.073	18699
651.131	18144
651.188	18799
651.246	19097
651.303	17878
651.360	17548
651.418	17467
651.475	19194
651.532	16852
651.590	18331
651.647	17038
651.704	18888
651.762	18099
651.819	19573
651.876	18118
651.933	18549
651.990	17565
652.048	16964
652.105	16969
652.162	18315
652.219	16729
652.276	17007
652.333	17023
652.390	16217
652.448	16705
652.505	17146
652.562	16822
652.619	17503
652.676	17386
652.733	18308
652.790	16558
652.847	15410
652.904	16994
652.961	15432
653.017	15668
653.074	16723
653.131	16758
653.188	15234
653.245	16852
653.302	16096
653.359	15644
653.415	17456
653.472	15473
653.529	16916
653.586	15530
653.642	15880
653.699	16184
653.756	15575
653.813	15433
653.869	16498
653.926	15040
653.983	16022
654.039	16143
654.096	15460
654.152	17090
654.209	15574
654.266	16760
654.322	16343
654.379	17900
654.435	19538
654.492	19929
654.548	26252
654.605	42618
654.661	24682
654.717	16613
654.774	18060
654.830	17431
654.887	16849
654.943	17042
655.000	16493
655.056	15363
655.112	17376
655.168	16351
655.225	18295
655.281	18241
655.337	20142
655.394	28988
655.450	26217
655.506	21756
655.562	29091
655.618	27564
655.675	16228
655.731	16448
655.787	16638
655.843	16322
655.899	14727
655.955	16677
656.011	16156
656.067	15028
656.123	17466
656.179	16852
656.235	18819
656.291	16338
656.347	18124
656.403	16712
656.459	17452
656.515	17695
656.571	19459
656.627	16933
656.683	17098
656.739	17984
656.795	16631
656.850	18405
656.906	22012
656.962	19827
657.018	15952
657.074	16826
657.129	18677
657.185	21103
657.241	33898
657.297	28975
657.352	17957
657.408	15798
657.464	18751
657.519	17406
657.575	14436
657.630	15115
657.686	14974
657.742	15073
657.797	15477
657.853	15027
657.908	17407
657.964	14137
658.019	15014
658.075	14871
658.130	15708
658.186	13116
658.241	16217
658.297	13646
658.352	15416
658.407	15011
658.463	14134
658.518	15102
658.573	15636
658.629	13578
658.684	14524
658.739	14745
658.795	14216
658.850	14644
658.905	15148
658.960	14777
659.016	13552
659.071	14571
659.126	18340
659.181	19042
659.236	29301
659.291	36112
659.346	21379
659.401	19224
659.457	15716
659.512	13454
659.567	16784
659.622	15442
659.677	15250
659.732	15132
659.787	16803
659.842	15988
659.897	20094
659.952	15691
660.007	15302
660.061	13754
660.116	14669
660.171	14315
660.226	14392
660.281	14171
660.336	13535
660.391	15230
660.445	14198
660.500	14252
660.555	16049
660.610	14073
660.664	15146
660.719	13721
660.774	15456
660.828	15022
660.883	16174
660.938	15436
660.992	14253
661.047	14620
661.101	13980
661.156	15172
661.211	13880
661.265	13392
661.320	14284
661.374	14551
661.429	13340
661.483	14628
661.538	13386
661.592	13838
661.647	14543
661.701	14007
661.755	13831
661.810	14841
661.864	14608
661.919	13186
661.973	14767
662.027	13694
662.081	13487
662.136	13942
662.190	15199
662.244	14874
662.299	14238
662.353	13535
662.407	14538
662.461	14632
662.515	15878
662.569	14209
662.624	15298
662.678	14254
662.732	15245
662.786	13468
662.840	15583
662.894	15195
662.948	13987
663.002	13074
663.056	14229
663.110	12997
663.164	14166
663.218	14252
663.272	14689
663.326	16531
663.380	17413
663.434	15851
663.488	14618
663.542	14100
663.595	14964
663.649	14520
663.703	15029
663.757	13917
663.811	13886
663.864	13290
663.918	14718
663.972	13882
664.026	14475
664.079	12946
664.133	14619
664.187	14385
664.240	14176
664.294	13788
664.348	14278
664.401	14163
664.455	14466
664.508	12473
664.562	14845
664.615	14452
664.669	13343
664.722	13639
664.776	14373
664.829	13126
664.883	14749
664.936	13343
664.990	15176
665.043	14723
665.097	15911
665.150	17286
665.203	15657
665.257	14820
665.310	15953
665.363	14852
665.417	16340
665.470	14685
665.523	14565
665.576	14697
665.630	15470
665.683	14477
665.736	15162
665.789	15320
665.842	14860
665.895	14950
665.949	14889
666.002	13969
666.055	15050
666.108	15754
666.161	15836
666.214	15940
666.267	17304
666.320	18664
666.373	17566
666.426	14961
666.479	15279
666.532	16047
666.585	16236
666.638	18268
666.691	16845
666.744	16479
666.796	17769
666.849	16264
666.902	15213
666.955	13774
667.008	14147
667.060	13716
667.113	14263
667.166	14483
667.219	13434
667.271	14661
667.324	15361
667.377	13732
667.430	14450
667.482	14330
667.535	15100
667.587	16597
667.640	18243
667.693	21003
667.745	31383
667.798	38247
667.850	18380
667.903	15395
667.955	15623
668.008	15231
668.060	16696
668.113	16749
668.165	16905
668.218	16155
668.270	16433
668.322	15312
668.375	14366
668.427	15544
668.479	14158
668.532	15300
668.584	15939
668.636	14053
668.689	15414
668.741	14885
668.793	15121
668.845	14807
668.898	15614
668.950	14722
669.002	15547
669.054	14920
669.106	15114
669.158	15511
669.211	15273
669.263	14514
669.315	16428
669.367	15033
669.419	15562
669.471	15719
669.523	16209
669.575	17391
669.627	17188
669.679	15150
669.731	14813
669.783	15265
669.835	15424
669.886	15344
669.938	15046
669.990	14631
670.042	14805
670.094	14559
670.146	15374
670.197	15416
670.249	17828
670.301	16768
670.353	21379
670.404	24298
670.456	30559
670.508	40052
670.560	62092
670.611	98263
670.663	166992
670.715	357249
670.766	699763
670.818	273549
670.869	48844
670.921	27361
670.972	23378
671.024	20819
671.075	19293
671.127	17631
671.178	16839
671.230	16095
671.281	16945
671.333	16811
671.384	19203
671.436	19274
671.487	23211
671.538	26058
671.590	33871
671.641	46599
671.692	71292
671.744	139590
671.795	112290
671.846	39997
671.897	25010
671.949	21239
672.000	18089
672.051	16670
672.102	17557
672.153	15779
672.204	15706
672.256	15933
672.307	15398
672.358	15786
672.409	15890
672.460	14640
672.511	14934
672.562	14625
672.613	15772
672.664	13953
672.715	14771
672.766	14104
672.817	13950
672.868	13583
672.919	14135
672.970	13481
673.021	13974
673.071	12635
673.122	14310
673.173	13602
673.224	13626
673.275	14458
673.326	12788
673.376	12592
673.427	13145
673.478	13778
673.528	15309
673.579	12782
673.630	13350
673.680	14321
673.731	13522
673.782	13093
673.832	13478
673.883	14576
673.934	13921
673.984	12388
674.035	12907
674.085	13615
674.136	13315
674.186	14284
674.237	15087
674.287	20244
674.338	16159
674.388	13458
674.438	13146
674.489	13388
674.539	14949
674.589	14430
674.640	14263
674.690	13519
674.740	13972
674.791	14390
674.841	14692
674.891	14923
674.942	13941
674.992	14444
675.042	12536
675.092	12042
675.142	12147
675.193	12152
675.243	12941
675.293	12649
675.343	13972
675.393	13205
675.443	13951
675.493	12583
675.543	11694
675.593	12557
675.643	13685
675.693	12280
675.743	12763
675.793	11140
675.843	12838
675.893	11463
675.943	11865
675.993	11547
676.043	12461
676.093	11454
676.142	12139
676.192	12321
676.242	11867
676.292	11712
676.341	12497
676.391	13274
676.441	11900
676.491	10826
676.540	11296
676.590	11231
676.640	11351
676.689	11228
676.739	10844
676.789	10378
676.838	10652
676.888	10465
676.937	11316
676.987	10610
677.037	11367
677.086	10467
677.136	11314
677.185	10433
677.235	10138
677.284	9640
677.333	10475
677.383	10395
677.432	9782
677.482	10517
677.531	10710
677.580	10463
677.630	9912
677.679	8961
677.728	11793
677.778	10514
677.827	9685
677.876	10155
677.925	10426
677.975	10003
678.024	11162
678.073	10534
678.122	12152
678.171	11329
678.220	11514
678.269	12632
678.319	13583
678.368	12994
678.417	12520
678.466	11405
678.515	12178
678.564	11726
678.613	11059
678.662	11037
678.711	11907
678.760	10577
678.809	10134
678.857	11110
678.906	11702
678.955	11608
679.004	11680
679.053	10812
679.102	9933
679.151	11206
679.199	10891
679.248	10095
679.297	11228
679.346	10298
679.394	11080
679.443	10260
679.492	10338
679.540	9594
679.589	11682
679.638	10378
679.686	10390
679.735	10009
679.784	11535
679.832	11120
679.881	10153
679.929	9755
679.978	10037
680.026	9740
680.075	10796
680.123	9876
680.172	9983
680.220	8620
680.268	10171
680.317	9208
680.365	9666
680.414	10101
680.462	11121
680.510	10432
680.559	10028
680.607	9146
680.655	9800
680.703	9892
680.752	9696
680.800	9249
680.848	10093
680.896	9092
680.945	9860
680.993	9886
681.041	9309
681.089	8649
681.137	8949
681.185	8631
681.233	9361
681.258	8857
681.281	8339
681.329	9372
681.377	8776
681.380	8865
681.425	9761
681.473	10074
681.502	10289
681.521	10364
681.569	10041
681.617	9835
681.624	9815
681.665	9370
681.713	10784
681.745	10346
681.761	10078
681.809	9950
681.857	10355
681.867	10428
681.904	10533
681.952	10702
681.989	10764
682.000	10729
682.048	10565
682.096	11186
682.111	10921
682.143	10173
682.191	10836
682.233	11329
682.239	11367
682.286	10700
682.334	10207
682.354	10652
682.382	11162
682.430	10968
682.476	11505
682.477	11482
682.525	10331
682.572	11088
682.598	11092
682.620	11022
682.667	10614
682.715	11887
682.720	11951
682.763	12259
682.810	11901
682.841	12115
682.857	12109
682.905	11310
682.952	12513
682.963	12378
683.000	11718
683.047	12065
683.085	11986
683.095	11945
683.142	11695
683.190	11309
683.206	11323
683.237	11241
683.284	12213
683.328	11974
683.332	11916
683.379	11351
683.426	11124
683.449	11561
683.473	12030
683.521	12324
683.568	12536
683.571	12621
683.615	13234
683.662	12557
683.693	12695
683.709	12756
683.757	11923
683.804	12696
683.814	12761
683.851	12838
683.898	13501
683.936	12912
683.945	12766
683.992	14302
684.039	13898
684.057	14258
684.086	14759
684.133	14676
684.179	14961
684.180	14926
684.227	14679
684.274	15011
684.300	15311
684.321	15533
684.368	15137
684.415	14615
684.422	14638
684.462	14336
684.509	13237
684.543	13165
684.556	13184
684.603	13732
684.649	13504
684.665	13500
684.696	13636
684.743	14008
684.786	14619
684.790	14635
684.837	15002
684.883	14833
684.908	15397
684.930	15866
684.977	16157
685.023	16119
685.029	15977
685.070	14674
685.117	15645
685.150	15754
685.164	15854
685.210	16806
685.257	16966
685.272	17001
685.303	16945
685.350	16612
685.393	17566
685.396	17666
685.443	18644
685.490	20496
685.514	20221
685.536	19309
685.583	18896
685.629	16872
685.636	16987
685.675	17944
685.722	17120
685.757	18078
685.768	18410
685.815	17746
685.861	18330
685.878	17973
685.908	17339
685.954	18007
686.000	18021
686.000	18017
686.047	19071
686.093	20807
686.121	20902
686.139	20648
686.185	19301
686.232	19063
686.242	18954
686.278	18360
686.324	17849
686.363	16918
686.370	16788
686.416	17246
686.463	16961
686.484	16919
686.509	16937
686.555	16569
686.601	16540
686.606	16566
686.647	16839
686.693	17319
686.727	17080
686.739	16946
686.785	17221
686.831	16987
686.848	16984
686.877	16979
686.923	16757
686.969	16854
686.969	16854
687.015	17142
687.061	17766
687.090	17645
687.107	17555
687.153	17986
687.199	17480
687.211	17490
687.245	17369
687.291	17580
687.332	18581
687.336	18721
687.382	18956
687.428	18895
687.453	18960
687.474	18610
687.520	18748
687.565	17517
687.574	17477
687.611	17808
687.657	17942
687.695	18500
687.702	18616
687.748	18466
687.794	18775
687.816	18694
687.839	18469
687.885	18687
687.931	17821
687.937	17893
687.976	18675
688.022	18580
688.058	19640
688.067	19843
688.113	19222
688.158	18835
688.179	18799
688.204	18716
688.249	19124
688.295	18676
688.300	18727
688.340	19917
688.386	20660
688.421	21136
688.431	21066
688.477	19753
688.522	20095
688.542	19766
688.567	19622
688.613	20654
688.658	20013
688.663	20072
688.703	20297
688.749	19750
688.784	19991
688.794	20126
688.839	19468
688.884	20299
688.905	20011
688.930	19647
688.975	19575
689.020	19350
689.026	19418
689.065	20345
689.110	20238
689.146	20548
689.155	20529
689.201	19974
689.246	19673
689.267	19588
689.291	19780
689.336	20249
689.381	20464
689.388	20499
689.426	20562
689.471	20224
689.509	20477
689.516	20534
689.561	20213
689.606	19854
689.630	19858
689.651	19930
689.696	19644
689.741	20069
689.750	20056
689.785	20339
689.830	20315
689.871	20721
689.875	20719
689.920	19686
689.965	19947
689.992	19203
690.010	19083
690.054	20036
690.099	20195
690.112	20465
690.144	20937
690.189	20401
690.233	20769
690.233	20792
690.278	20527
690.323	20755
690.354	20418
690.367	20317
690.412	20532
690.457	20084
690.474	20185
690.501	20435
690.546	20034
690.590	20186
690.595	20141
690.635	19904
690.680	19841
690.716	19648
690.724	19707
690.769	20581
690.813	20481
690.836	20583
690.857	20618
690.902	20792
690.946	21057
690.957	20996
690.991	21111
691.035	21348
691.077	21873
691.080	21928
691.124	22468
691.168	22327
691.198	22573
691.213	22726
691.257	22937
691.301	22938
691.318	22876
691.346	22298
691.390	21915
691.434	20995
691.439	20950
691.478	21972
691.522	22039
691.559	22871
691.567	23065
691.611	23664
691.655	24159
691.680	24191
691.699	23936
691.743	24016
691.787	23655
691.800	23488
691.831	23299
691.875	23143
691.919	23428
691.921	23392
691.964	23519
692.008	23600
692.041	23202
692.052	23202
692.096	23605
692.139	23803
692.162	24079
692.183	24085
692.227	23591
692.271	23435
692.282	23283
692.315	23151
692.359	23082
692.402	22703
692.403	22741
692.447	23156
692.490	23728
692.523	23987
692.534	24116
692.578	24395
692.622	24881
692.643	24738
692.666	24183
692.709	23784
692.753	22861
692.763	22747
692.797	23187
692.840	22943
692.884	23407
692.884	23450
692.928	23610
692.971	23724
693.004	23640
693.015	23733
693.059	24119
693.102	24151
693.124	24380
693.146	24589
693.189	24763
693.233	25141
693.245	25132
693.276	25394
693.320	25516
693.363	25634
693.365	25600
693.407	25479
693.450	25275
693.485	25198
693.493	25295
693.537	25040
693.580	25387
693.605	25332
693.624	25292
693.667	25414
693.710	25036
693.725	24988
693.753	25517
693.797	26165
693.840	26879
693.845	26903
693.883	26865
693.926	27083
693.966	26705
693.970	26627
694.013	25571
694.056	24400
694.086	23778
694.099	24121
694.142	24850
694.185	25580
694.206	25929
694.229	26120
694.272	26399
694.315	26272
694.326	26298
694.358	27280
694.401	28434
694.444	29794
694.446	29799
694.487	30476
694.530	30579
694.566	30926
694.573	30637
694.616	28424
694.659	25955
694.686	24600
694.702	24690
694.745	24719
694.787	24715
694.806	24624
694.830	24747
694.873	24955
694.916	25057
694.926	25073
694.959	25287
695.002	25212
695.044	25353
695.046	25311
695.087	26335
695.130	27130
695.166	27775
695.172	27768
695.215	27325
695.258	26907
695.286	26637
695.301	26647
695.343	26228
695.386	26153
695.406	25917
695.428	25787
695.471	25717
695.514	25415
695.526	25309
695.556	25824
695.599	26658
695.641	27240
695.646	27241
695.684	26810
695.726	26401
695.766	25894
695.769	25957
695.811	26103
695.854	26228
695.886	26310
695.896	26371
695.938	26145
695.981	26319
696.005	26161
696.023	26206
696.065	26410
696.108	26484
696.125	26520
696.150	26979
696.192	27451
696.235	27997
696.245	28057
696.277	27797
696.319	27541
696.361	27156
696.365	27067
696.404	26731
696.446	26153
696.485	25771
696.488	25890
696.530	26402
696.572	27273
696.604	27602
696.614	27501
696.656	27159
696.698	26450
696.724	26129
696.740	26289
696.783	26465
696.825	26565
696.844	26557
696.867	26762
696.909	27242
696.951	27422
696.964	27467
696.992	27488
697.034	27228
697.076	27158
697.083	27083
697.118	27557
697.160	28078
697.202	28418
697.203	28366
697.244	28422
697.286	28270
697.323	28067
697.327	28103
697.369	27785
697.411	27620
697.442	27342
697.453	27624
697.494	28588
697.536	29488
697.562	30027
697.578	30178
697.620	30225
697.661	30503
697.682	30500
697.703	31033
697.744	31994
697.786	32944
697.801	33238
697.828	33806
697.869	34471
697.911	35063
697.921	35148
697.952	33570
697.994	31430
698.035	29183
698.040	28848
698.077	28772
698.118	28533
698.160	28436
698.160	28368
698.201	28663
698.243	28982
698.279	29145
698.284	29204
698.325	29152
698.367	29049
698.399	28901
698.408	29001
698.449	29107
698.491	29320
698.518	29313
698.532	29337
698.573	29263
698.614	29160
698.638	29031
698.656	29186
698.697	29385
698.738	29593
698.757	29610
698.779	29827
698.820	30130
698.862	30402
698.877	30437
698.903	30605
698.944	30740
698.985	30893
698.996	30860
699.026	30701
699.067	30377
699.116	29920
699.235	29730
699.354	29895
699.474	29289
699.593	31765
699.713	32064
699.832	30451
699.951	33391
700.070	31348
700.190	28892
700.309	29860
700.428	31592
700.547	29782
700.667	28624
700.786	31034
700.905	29778
701.024	29119
701.143	29782
701.262	27358
701.381	26993
701.500	29222
701.619	34793
701.738	30209
701.857	27085
701.976	26578
702.095	27519
702.214	30973
702.333	33621
702.452	30198
702.571	26568
702.690	27548
702.809	27789
702.928	25213
703.047	28336
703.165	26480
703.284	25716
703.403	25794
703.522	28092
703.640	28671
703.759	32132
703.878	39644
703.997	28494
704.115	25516
704.234	26677
704.353	25112
704.471	25531
704.590	24485
704.708	25250
704.827	23864
704.946	25395
705.064	26495
705.183	24855
705.301	26531
705.420	35103
705.538	33005
705.656	30070
705.775	27833
705.893	29337
706.012	29436
706.130	29932
706.249	29661
706.367	29822
706.485	31160
706.604	30847
706.722	30542
706.840	36467
706.958	32406
707.077	29089
707.195	28312
707.313	27882
707.431	27239
707.549	27458
707.668	25963
707.786	28209
707.904	26880
708.022	26872
708.140	27052
708.258	27403
708.376	27486
708.494	26602
708.612	28484
708.730	36879
708.848	36596
708.966	35358
709.084	36106
709.202	31874
709.320	32662
709.438	31731
709.556	32023
709.674	32261
709.791	31077
709.909	30814
710.027	30002
710.145	30472
710.263	31343
710.380	30496
710.498	28774
710.616	30425
710.733	29593
710.851	30455
710.969	29574
711.086	29904
711.204	29809
711.322	29433
711.439	29438
711.557	30588
711.674	28759
711.792	29132
711.909	26704
712.027	26787
712.144	27335
712.262	28913
712.379	30578
712.497	39689
712.614	39399
712.732	34879
712.849	33511
712.966	36406
713.084	46182
713.201	38826
713.318	36047
713.436	33367
713.553	33291
713.670	34281
713.787	35494
713.905	36003
714.022	33256
714.139	33007
714.256	35780
714.373	40268
714.490	53054
714.608	97574
714.725	375273
714.842	456581
714.959	53819
715.076	35650
715.193	31486
715.310	31303
715.427	29888
715.544	29601
715.661	29291
715.778	29029
715.895	32005
716.011	30965
716.128	30161
716.245	30848
716.362	36957
716.479	40376
716.596	29235
716.713	29399
716.829	27713
716.946	28666
717.063	25819
717.180	27138
717.296	26421
717.413	27147
717.530	27517
717.646	28221
717.763	26621
717.880	25670
717.996	26638
718.113	29097
718.229	26210
718.346	26559
718.462	27004
718.579	35158
718.695	64008
718.812	47377
718.928	32702
719.045	28113
719.161	23889
719.277	25278
719.394	24011
719.510	25693
719.626	24196
719.743	29727
719.859	32193
719.975	43554
720.092	117557
720.208	269132
720.324	54404
720.440	27563
720.557	31075
720.673	47210
720.789	55670
720.905	78391
721.021	42025
721.137	24904
721.253	25371
721.369	25359
721.486	26304
721.602	33639
721.718	23916
721.834	22834
721.950	24356
722.066	23036
722.181	22116
722.297	23892
722.413	22468
722.529	21446
722.645	21236
722.761	20659
722.877	20980
722.993	20990
723.108	22269
723.224	21498
723.340	20553
723.456	19504
723.571	20851
723.687	20360
723.803	20760
723.918	21020
724.034	21186
724.150	20170
724.265	22057
724.381	32424
724.497	47551
724.612	20286
724.728	20188
724.843	18782
724.959	21660
725.074	32244
725.190	41184
725.305	20755
725.421	20604
725.536	18728
725.651	18184
725.767	18964
725.882	18347
725.997	18435
726.113	18731
726.228	18951
726.343	17674
726.459	16551
726.574	18066
726.689	18606
726.804	17341
726.920	18472
727.035	17101
727.150	19111
727.265	17738
727.380	19315
727.495	17754
727.610	17108
727.725	17118
727.841	17763
727.956	17440
728.071	19636
728.186	17499
728.301	15830
728.416	17663
728.531	18323
728.645	15521
728.760	18184
728.875	19751
728.990	18046
729.105	17255
729.220	19174
729.335	19296
729.449	17102
729.564	15471
729.679	16024
729.794	16228
729.908	17998
730.023	15649
730.138	15434
730.253	15555
730.367	15377
730.482	15272
730.596	17174
730.711	16216
730.826	18192
730.940	15463
731.055	18492
731.169	17131
731.284	16195
731.398	15084
731.513	16867
731.627	16819
731.742	18039
731.856	19520
731.970	17583
732.085	19601
732.199	20814
732.313	26452
732.428	51897
732.542	148101
732.656	102280
732.771	23935
732.885	19240
732.999	17978
733.113	19055
733.227	18353
733.342	17884
733.456	16639
733.570	17346
733.684	16197
733.798	17686
733.912	16866
734.026	15702
734.140	15416
734.254	17565
734.368	22543
734.482	28918
734.596	15622
734.710	15506
734.824	16143
734.938	16028
735.052	16851
735.166	18350
735.280	17098
735.393	15803
735.507	16280
735.621	17536
735.735	25943
735.849	19062
735.962	14770
736.076	16709
736.190	16475
736.303	18939
736.417	23586
736.531	16069
736.644	15708
736.758	14385
736.872	14029
736.985	14650
737.099	14071
737.212	14493
737.326	14213
737.439	15006
737.553	14483
737.666	14269
737.780	13324
737.893	14186
738.007	12604
738.120	13612
738.233	14164
738.347	14922
738.460	13672
738.573	15956
738.687	16317
738.800	16245
738.913	21381
739.026	16682
739.140	13741
739.253	13901
739.366	13434
739.479	13770
739.592	12656
739.705	12706
739.818	12891
739.932	12915
740.045	13284
740.158	14158
740.271	13698
740.384	13849
740.497	12855
740.610	13658
740.723	11964
740.836	13826
740.949	14036
741.062	21172
741.174	19473
741.287	13747
741.400	11601
741.513	13145
741.626	13810
741.739	13208
741.851	13666
741.964	13641
742.077	12567
742.189	13324
742.302	14569
742.415	14161
742.527	12658
742.640	13473
742.753	11347
742.865	12417
742.978	12487
743.090	12652
743.203	12027
743.316	12287
743.428	11474
743.541	12206
743.653	11389
743.766	12121
743.878	12015
743.990	13636
744.103	15353
744.215	14367
744.327	13801
744.440	16885
744.552	26733
744.664	16844
744.777	11650
744.889	11192
745.001	11966
745.113	10730
745.226	9838
745.338	10417
745.450	11234
745.562	11595
745.674	11134
745.786	10532
745.898	10762
746.010	10693
746.122	10492
746.234	10317
746.347	11005
746.459	11663
746.570	11086
746.682	11188
746.794	12933
746.906	11206
747.018	10080
747.130	10723
747.242	9605
747.354	10405
747.466	11760
747.577	10752
747.689	10320
747.801	10905
747.913	10148
748.024	10181
748.136	9651
748.248	10744
748.359	10033
748.471	10389
748.583	10352
748.694	10335
748.806	10346
748.918	11951
749.029	11833
749.141	13053
749.252	11850
749.364	14466
749.475	29580
749.587	20896
749.698	11069
749.809	10921
749.921	9657
750.032	10149
750.144	9669
750.255	9073
750.366	9682
750.478	9463
750.589	10076
750.700	11378
750.811	11576
750.923	14296
751.034	32244
751.145	38474
751.256	11983
751.367	10095
751.479	9516
751.590	9563
751.701	8499
751.812	9059
751.923	9191
752.034	9748
752.145	8145
752.256	8865
752.367	10041
752.478	9676
752.589	8268
752.700	9022
752.811	8063
752.922	8846
753.032	10835
753.143	13226
753.254	8843
753.365	10044
753.476	8746
753.586	9084
753.697	7987
753.808	8763
753.919	8110
754.029	8970
754.140	8400
754.251	9355
754.361	8254
754.472	9913
754.582	8598
754.693	9532
754.804	8631
754.914	8109
755.025	7851
755.135	9325
755.246	8435
755.356	8290
755.466	8877
755.577	8735
755.687	8837
755.798	7969
755.908	8308
756.018	8599
756.129	7469
756.239	7959
756.349	8124
756.460	7967
756.570	8695
756.680	7957
756.790	9392
756.900	12131
757.011	8509
757.121	9078
757.231	7874
757.341	9439
757.451	8519
757.561	8682
757.671	7256
757.781	7779
757.891	8098
758.001	7814
758.111	9141
758.221	9122
758.331	10319
758.441	11666
758.551	15042
758.661	15839
758.771	9539
758.880	9224
758.990	8196
759.100	8847
759.210	8883
759.320	9108
759.429	8392
759.539	8798
759.649	8411
759.758	9136
759.868	9513
759.978	9168
760.087	9629
760.197	9384
760.307	9338
760.416	9014
760.526	9306
760.635	9462
760.745	9195
760.854	9217
760.964	9688
761.073	10348
761.182	9213
761.292	9992
761.401	9793
761.511	8742
761.620	8051
761.729	8614
761.839	8381
761.948	9391
762.057	9875
762.166	8856
762.276	6685
762.385	9723
762.494	8025
762.603	8541
762.712	8018
762.822	9465
762.931	8036
763.040	7684
763.149	7665
763.258	8203
763.367	8196
763.476	7829
763.585	7512
763.694	8362
763.803	8159
763.912	8317
764.021	8553
764.130	8527
764.238	8479
764.347	8634
764.456	8269
764.565	8777
764.674	8502
764.783	8566
764.891	8299
765.000	8634
765.109	8237
765.217	8388
765.326	9771
765.435	11128
765.543	9540
765.652	10567
765.761	10224
765.869	13254
765.978	17001
766.086	26608
766.195	47718
766.303	121771
766.412	416939
766.520	398746
766.629	76612
766.737	28405
766.846	17462
766.954	15258
767.062	13464
767.171	11801
767.279	11182
767.387	10140
767.496	10015
767.604	9731
767.712	8969
767.820	10537
767.928	8780
768.037	8964
768.145	9644
768.253	8960
768.361	8828
768.469	8590
768.577	9318
768.685	9828
768.793	8647
768.901	9532
769.009	8483
769.117	9642
769.225	9888
769.333	12058
769.441	14245
769.549	22929
769.657	46348
769.765	152024
769.873	387686
769.981	128285
770.088	24543
770.196	15040
770.304	12463
770.412	12009
770.519	10479
770.627	9880
770.735	8710
770.842	10224
770.950	9542
771.058	10470
771.165	9375
771.273	10222
771.380	9419
771.488	9721
771.595	9904
771.703	10257
771.810	10073
771.918	9617
772.025	10096
772.133	10407
772.240	9837
772.348	10495
772.455	10339
772.562	10430
772.670	9762
772.777	10170
772.884	9799
772.991	10863
773.099	10325
773.206	10589
773.313	9444
773.420	10302
773.528	9881
773.635	9452
773.742	9621
773.849	10254
773.956	9034
774.063	9504
774.170	9694
774.277	11027
774.384	9859
774.491	10042
774.598	9868
774.705	11529
774.812	14292
774.919	11511
775.026	11011
775.133	10249
775.239	9155
775.346	9545
775.453	9613
775.560	8814
775.667	9497
775.773	8459
775.880	8776
775.987	9906
776.093	9131
776.200	9985
776.307	8640
776.413	9445
776.520	9304
776.627	8899
776.733	9391
776.840	7898
776.946	10313
777.053	11232
777.159	15560
777.266	11669
777.372	13504
777.478	14625
777.585	11762
777.691	9032
777.798	8096
777.904	10241
778.010	13582
778.117	14882
778.223	8640
778.329	8937
778.435	8226
778.542	8797
778.648	8850
778.754	7636
778.860	7983
778.966	8755
779.072	7670
779.178	8794
779.284	7564
779.391	7977
779.497	7450
779.603	9526
779.708	7546
779.815	9507
779.920	13411
780.026	21380
780.132	9453
780.238	8115
780.344	7784
780.450	9640
780.556	7929
780.661	8039
780.767	8110
780.873	7401
780.979	8425
781.085	8440
781.190	7644
781.296	6909
781.402	7466
781.507	7231
781.613	6839
781.719	6769
781.824	7794
781.930	7854
782.035	7933
782.141	8283
782.246	6933
782.352	7546
782.457	6364
782.563	7978
782.668	7678
782.773	7693
782.879	7712
782.984	8711
783.090	10138
783.195	15744
783.300	12644
783.405	8410
783.511	7461
783.616	8370
783.721	8648
783.826	7227
783.932	7030
784.037	8567
784.142	7885
784.247	7293
784.352	7118
784.457	7953
784.562	7473
784.667	7835
784.772	6893
784.877	6989
784.982	7216
785.087	7683
785.192	7392
785.297	7091
785.402	6543
785.507	7488
785.611	7023
785.716	6230
785.821	6943
785.926	6870
786.031	6218
786.135	7294
786.240	6376
786.345	6205
786.450	6276
786.554	7559
786.659	5555
786.763	6650
786.868	6996
786.973	8001
787.077	6042
787.182	6660
787.286	7327
787.391	7070
787.495	5813
787.600	6477
787.704	5462
787.809	6724
787.913	5786
788.017	6955
788.122	6563
788.226	6593
788.330	5376
788.435	6367
788.539	5892
788.643	5047
788.747	5374
788.852	6301
788.956	5532
789.060	6842
789.164	6209
789.268	5772
789.372	6720
789.476	6018
789.580	5806
789.684	6350
789.788	6981
789.892	6492
789.996	6402
790.100	6259
790.204	6315
790.308	6759
790.412	5219
790.516	6115
790.620	6447
790.724	6162
790.828	6497
790.931	5863
791.035	6581
791.139	5889
791.242	5455
791.346	6468
791.450	5314
791.554	5412
791.657	4574
791.761	6249
791.864	5638
791.968	5834
792.072	6025
792.175	5598
792.279	5426
792.382	6454
792.486	4955
792.589	6053
792.693	6194
792.796	5444
792.899	5936
793.003	5915
793.106	4646
793.209	5778
793.313	5757
793.416	5108
793.519	7062
793.623	10871
793.726	16589
793.829	8863
793.932	5550
794.035	5389
794.138	6728
794.242	7056
794.345	6596
794.448	8090
794.551	12218
794.654	15659
794.757	11803
794.860	7625
794.963	5770
795.066	5435
795.169	6071
795.272	5419
795.375	5616
795.477	5378
795.580	6002
795.683	4242
795.786	4640
795.889	4406
795.991	5525
796.094	5875
796.197	4269
796.300	5576
796.402	4499
796.505	5470
796.608	4885
796.710	4894
796.813	5026
796.915	5163
797.018	4499
797.120	5375
797.223	4239
797.326	5830
797.428	4276
797.530	5035
797.633	4457
797.735	6115
797.838	7043
797.940	8682
798.042	5250
798.145	4424
798.247	3767
798.349	4309
798.452	4235
798.554	5307
798.656	4400
798.758	5765
798.860	4853
798.962	5109
799.065	4512
799.167	3770
799.269	5629
799.371	6609
799.473	6342
799.575	6433
799.677	7183
799.779	8678
799.881	12133
799.983	9157
800.085	4220
800.187	4495
800.289	4527
800.390	5571
800.492	4143
800.594	4599
800.696	3585
800.798	4624
800.899	4609
801.001	4424
801.103	4286
801.205	3649
801.306	4635
801.408	3759
801.509	4038
801.611	4091
801.713	4576
801.814	3656
801.916	3622
802.017	5110
802.119	3722
802.220	3992
802.322	2616
802.423	6264
802.525	4360
802.626	4993
802.727	4558
802.829	5624
802.930	3458
803.031	5177
803.133	3200
803.234	3985
803.335	3230
803.436	4204
803.538	3039
803.639	3307
803.740	4471
803.841	3662
803.942	3691
804.043	4402
804.144	3277
804.245	4022
804.346	3248
804.447	5476
804.548	7422
804.649	11246
804.750	3770
804.851	4191
804.952	2896
805.053	4002
805.154	2325
805.255	4253
805.355	2778
805.456	3693
805.557	3043
805.658	3238
805.758	3698
805.859	4379
805.960	3327
806.061	3331
806.161	3270
806.262	3873
806.362	3019
806.463	3469
806.564	4454
806.664	3969
806.765	4614
806.865	4560
806.966	3822
807.066	3729
807.166	4196
807.267	4228
807.367	2988
807.468	4441
807.568	3234
807.668	4004
807.769	3896
807.869	3086
807.969	3311
808.069	3866
808.170	3581
808.270	4213
808.370	3465
808.470	7148
808.570	5162
808.670	4607
808.770	3429
808.870	3922
808.970	3537
809.070	2818
809.170	2959
809.271	4571
809.370	3616
809.470	3220
809.570	2861
809.670	4089
809.770	3046
809.870	3902
809.970	4075
810.070	3454
810.169	3433
810.269	2558
810.369	3951
810.469	3854
810.568	2691
810.668	3425
810.768	3379
810.867	3268
810.967	3075
811.066	4592
811.166	2880
811.265	4389
811.365	3251
811.464	3446
811.564	3784
811.663	4313
811.763	2042
811.862	3823
811.962	3400
812.061	4013
812.160	2894
812.260	3244
812.359	2879
812.458	3975
812.557	4543
812.657	5695
812.756	3727
812.855	3756
812.954	2287
813.053	3465
813.153	3294
813.252	3025
813.351	3780
813.450	3652
813.549	2541
813.648	4008
813.747	2043
813.846	2678
813.945	2992
814.044	3293
814.143	2785
814.242	3147
814.341	2307
814.439	4002
814.538	2960
814.637	3137
814.736	3307
814.835	3114
814.933	3060
815.032	3847
815.131	3556
815.229	5356
815.328	4872
815.427	4170
815.525	4497
815.624	4554
815.722	3906
815.821	4146
815.919	3959
816.018	4499
816.116	4902
816.215	4540
816.313	5393
816.412	4937
816.510	4970
816.609	5665
816.707	4919
816.805	5708
816.904	4625
817.002	5400
817.100	5671
817.198	5738
817.296	4486
817.395	5210
817.493	4901
817.591	5724
817.689	5529
817.787	7280
817.885	8020
817.983	11265
818.081	20203
818.179	46635
818.277	121398
818.375	117559
818.473	27550
818.571	11847
818.669	9216
818.767	8656
818.865	8442
818.963	8390
819.061	12172
819.158	18567
819.256	39611
819.354	92395
819.452	227206
819.549	158849
819.647	34481
819.745	13474
819.842	10251
819.940	9251
820.038	6640
820.135	6190
820.233	6313
820.330	5027
820.428	4375
820.525	5846
820.623	5249
820.720	5227
820.818	5439
820.915	5382
821.012	4959
821.110	4266
821.207	5044
821.304	4187
821.402	5497
821.499	6105
821.596	5865
821.693	6500
821.791	5978
821.888	8088
821.985	15494
822.082	16422
822.179	6886
822.276	4537
822.373	3284
822.470	3853
822.567	4319
822.664	3593
822.761	4732
822.858	3880
822.955	3409
823.052	3755
823.149	4636
823.246	5257
823.343	2674
823.440	3322
823.536	4487
823.633	3427
823.730	3912
823.827	3899
823.923	3201
824.020	4805
824.117	3484
824.213	4228
824.310	3842
824.407	3419
824.503	4184
824.600	3857
824.696	3546
824.793	4963
824.889	4167
824.986	3377
825.082	2974
825.179	4279
825.275	3532
825.371	3614
825.468	3329
825.564	2196
825.660	3680
825.757	4387
825.853	3006
825.949	2568
826.045	2628
826.142	3151
826.238	3879
826.334	3543
826.430	2973
826.526	3543
826.622	2852
826.718	4413
826.814	3243
826.910	4147
827.006	2562
827.102	2775
827.198	4767
827.294	3570
827.390	3611
827.486	2976
827.582	2314
827.678	2766
827.774	4098
827.869	2380
827.965	4218
828.061	2426
828.157	2763
828.252	3219
828.348	2419
828.444	3041
828.539	2780
828.635	3592
828.731	3629
828.826	2686
828.922	3008
829.017	3437
829.113	2877
829.208	2534
829.304	3460
829.399	4058
829.495	3404
829.590	2703
829.685	1976
829.781	3683
829.876	2550
829.971	2858
830.066	2162
830.162	2746
830.257	3321
830.352	3401
830.447	3059
830.543	2918
830.638	2021
830.733	4291
830.828	2674
830.923	4238
831.018	3080
831.113	3712
831.208	2153
831.303	3286
831.398	2705
831.493	3031
831.588	3548
831.683	2819
831.778	3200
831.873	2989
831.967	3561
832.062	2980
832.157	2673
832.252	4620
832.346	3797
832.441	4821
832.536	6883
832.631	15223
832.725	15972
832.820	4178
832.914	3386
833.009	3547
833.104	4685
833.198	6460
833.293	3365
833.387	3580
833.482	3185
833.576	2708
833.670	3490
833.765	2776
833.859	3171
833.954	5197
834.048	2344
834.142	2768
834.237	2110
834.331	2933
834.425	2757
834.519	1996
834.613	2461
834.708	2494
834.802	2655
834.896	2913
834.990	2707
835.084	3447
835.178	2473
835.272	2932
835.366	2824
835.460	3105
835.554	2133
835.648	2299
835.742	2126
835.836	3157
835.930	1749
836.024	3505
836.117	3822
836.211	3395
836.305	3367
836.399	5115
836.493	2189
836.586	3372
836.680	2758
836.774	2757
836.867	2653
836.961	1308
837.055	2205
837.148	2274
837.242	1864
837.335	2163
837.429	2607
837.522	2418
837.616	3017
837.709	4729
837.803	5127
837.896	3940
837.989	2544
838.083	3797
838.176	5273
838.269	6804
838.363	3274
838.456	3441
838.549	5732
838.642	8467
838.735	18779
838.829	11548
838.922	3143
839.015	2660
839.108	2206
839.201	3369
839.294	2960
839.387	2702
839.480	1997
839.573	3400
839.666	3928
839.759	4220
839.852	1923
839.945	2281
840.038	2353
840.131	2512
840.223	1995
840.316	2548
840.409	2255
840.502	1940
840.594	3672
840.687	1899
840.780	2366
840.873	2300
840.965	2194
841.058	4093
841.150	5056
841.243	5294
841.336	2816
841.428	2598
841.521	1804
841.613	2398
841.706	2294
841.798	3043
841.890	2019
841.983	2527
842.075	1987
842.167	2759
842.260	2056
842.352	4343
842.444	3747
842.537	6055
842.629	10162
842.721	3868
842.813	2040
842.905	1418
842.997	2579
843.090	2941
843.182	4080
843.274	6462
843.366	11795
843.458	23062
843.550	18800
843.642	5142
843.734	3704
843.826	3101
843.918	3967
844.009	3403
844.101	1716
844.193	2288
844.285	2533
844.377	2534
844.469	3686
844.560	3769
844.652	4099
844.744	3179
844.835	2307
844.927	3396
845.019	2577
845.110	2805
845.202	1970
845.293	1863
845.385	1546
845.476	1382
845.568	2366
845.659	1909
845.751	3138
845.842	2341
845.934	1785
846.025	1543
846.116	2193
846.208	2431
846.299	1270
846.390	2768
846.482	1806
846.573	3450
846.664	4529
846.755	6363
846.846	6690
846.937	2029
847.029	1792
847.120	2716
847.211	1678
847.302	3260
847.393	1701
847.484	2752
847.575	2107
847.666	1851
847.757	1846
847.847	2411
847.938	2826
848.029	2409
848.120	1144
848.211	2154
848.302	1151
848.392	1403
848.483	1961
848.574	1976
848.664	1879
848.755	2015
848.846	1678
848.936	1452
849.027	1393
849.118	2168
849.208	1833
849.299	4072
849.389	4857
849.480	8994
849.570	15443
849.661	27638
849.751	48352
849.841	21548
849.932	4499
850.022	2681
850.112	3137
850.203	2454
850.293	1928
850.383	2417
850.474	1441
850.564	1763
850.654	2002
850.744	1884
850.834	3004
850.924	1555
851.014	1854
851.104	2462
851.194	2289
851.284	3869
851.374	4611
851.464	3537
851.554	2505
851.644	2857
851.734	3414
851.824	3151
851.914	2335
852.004	3207
852.094	2031
852.183	2371
852.273	2463
852.363	2632
852.452	2347
852.542	2887
852.632	2283
852.721	2651
852.811	1239
852.901	2195
852.990	1994
853.080	2330
853.169	2268
853.259	3269
853.348	2205
853.438	3790
853.527	4558
853.617	5902
853.706	10545
853.795	19296
853.885	40368
853.974	78073
854.063	135684
854.152	231604
854.242	104658
854.331	19271
854.420	8548
854.509	5432
854.598	5095
854.687	4568
854.777	4110
854.866	2920
854.955	3131
855.044	2603
855.133	2257
855.222	2849
855.311	2283
855.400	2746
855.488	1581
855.577	3305
855.666	2375
855.755	2922
855.844	1630
855.933	2002
856.021	2358
856.110	1888
856.199	1413
856.288	2183
856.376	1466
856.465	2860
856.554	2464
856.642	2198
856.731	2004
856.819	2109
856.908	1437
856.996	2587
857.085	1353
857.173	1780
857.262	1244
857.350	3099
857.438	1014
857.527	3028
857.615	1547
857.703	2065
857.792	825
857.880	2305
857.968	1076
858.056	2784
858.145	1849
858.233	2397
858.321	1016
858.409	2485
858.497	1545
858.585	1804
858.673	1664
858.761	1095
858.849	1293
858.937	2221
859.025	1750
859.113	2831
859.201	931
859.289	3336
859.377	1904
859.465	2034
859.552	1926
859.640	1949
859.728	2357
859.816	3242
859.903	2709
859.991	2087
860.079	1546
860.166	1665
860.254	2004
860.342	1824
860.429	580
860.517	2444
860.604	779
860.692	1452
860.779	1821
860.867	1633
860.954	1579
861.042	2644
861.129	3364
861.216	3176
861.304	1939
861.391	1991
861.478	2034
861.565	2215
861.653	2447
861.740	1654
861.827	964
861.914	2966
862.001	1940
862.089	2088
862.176	1305
862.263	1828
862.350	1845
862.437	1280
862.524	1049
862.611	2322
862.698	1527
862.785	2036
862.871	2279
862.958	2303
863.045	2111
863.132	2469
863.219	1973
863.306	1433
863.392	2482
863.479	1178
863.566	1496
863.652	2636
863.739	1513
863.826	2109
863.912	2016
863.999	1982
864.086	2009
864.172	1598
864.259	2107
864.345	1891
864.432	1889
864.518	2201
864.604	2443
864.691	1687
864.777	2505
864.863	3266
864.950	2353
865.036	3712
865.122	3756
865.209	5428
865.295	4405
865.381	5677
865.467	5291
865.553	6310
865.639	7359
865.726	12725
865.812	22802
865.898	42999
865.984	63440
866.070	114856
866.156	140419
866.242	43826
866.328	10209
866.414	6520
866.499	4724
866.585	5658
866.671	4302
866.757	4747
866.843	4556
866.928	4229
867.014	2906
867.100	4133
867.186	4365
867.271	4515
867.357	5803
867.442	6741
867.528	3966
867.614	3942
867.699	3830
867.785	3972
867.870	3963
867.956	4638
868.041	5726
868.127	4148
868.212	4379
868.297	4915
868.383	5246
868.468	6395
868.553	9156
868.639	12371
868.724	19868
868.809	23909
868.894	7753
868.979	4241
869.065	3698
869.150	2707
869.235	3156
869.320	3378
869.405	2295
869.490	2771
869.575	3075
869.660	3066
869.745	2969
869.830	3258
869.915	3030
870.000	3205
870.085	2361
870.169	3673
870.254	3558
870.339	2934
870.424	1827
870.509	2927
870.593	2521
870.678	2781
870.763	2252
870.847	3173
870.932	3053
871.016	4180
871.101	3355
871.186	3230
871.270	2930
871.355	2451
871.439	2071
871.523	3191
871.608	1944
871.692	2771
871.777	2254
871.861	3298
871.945	2537
872.030	2761
872.114	2539
872.198	2273
872.282	1924
872.367	2223
872.451	1583
872.535	2368
872.619	2225
872.703	2048
872.787	2018
872.871	2428
872.955	1734
873.039	1629
873.123	1968
873.207	3096
873.291	2037
873.375	3121
873.459	1861
873.543	2830
873.627	1873
873.711	2026
873.794	1964
873.878	2407
873.962	2159
874.045	2282
874.129	1835
874.137	1883
874.213	2365
874.245	2173
874.296	1864
874.352	2135
874.380	2266
874.460	2617
874.464	2631
874.547	2125
874.568	1972
874.631	1527
874.676	1896
874.714	2215
874.784	2052
874.798	2015
874.881	3295
874.892	3145
874.965	2100
874.999	2222
875.048	2421
875.107	2450
875.131	2441
875.215	1808
875.215	1809
875.298	2184
875.323	2289
875.381	2637
875.430	2619
875.465	2600
875.538	2782
875.548	2777
875.631	2221
875.646	2185
875.714	2198
875.753	2105
875.798	1980
875.861	2335
875.881	2425
875.964	2349
875.968	2342
876.047	2414
876.076	2508
876.130	2644
876.183	2967
876.213	3123
876.291	3766
876.296	3809
876.379	2704
876.398	2699
876.462	2643
876.506	2598
876.545	2534
876.613	2163
876.628	2122
876.711	2044
876.721	2116
876.794	2675
876.828	2768
876.877	2729
876.935	2468
876.960	2421
877.043	2492
877.043	2490
877.125	2187
877.150	2564
877.208	3285
877.258	2948
877.291	2661
877.365	2845
877.374	2899
877.456	3661
877.472	3526
877.539	2831
877.579	2850
877.622	2999
877.687	3249
877.704	3244
877.787	2549
877.794	2515
877.869	2405
877.901	2605
877.952	2762
878.008	2411
878.034	2283
878.115	2278
878.117	2282
878.199	2826
878.222	2732
878.282	2725
878.329	3315
878.364	3560
878.437	3245
878.447	3176
878.529	2090
878.544	2082
878.611	2412
878.651	2756
878.694	3176
878.758	2829
878.776	2677
878.858	3380
878.865	3353
878.941	3011
878.972	2988
879.023	2910
879.078	2775
879.105	2972
879.185	4029
879.187	4045
879.269	4213
879.292	4101
879.351	3499
879.399	3108
879.433	2866
879.506	3284
879.516	3379
879.598	2675
879.613	2767
879.680	3044
879.720	2941
879.762	2871
879.827	2829
879.844	2821
879.926	3174
879.933	3229
880.007	3933
880.040	3937
880.089	3771
880.147	4456
880.171	5054
880.253	7293
880.254	7307
880.335	9845
880.360	10415
880.417	14021
880.467	19535
880.499	23929
880.574	33682
880.580	33397
880.662	15388
880.680	12449
880.744	6186
880.787	4092
880.825	3571
880.893	3396
880.907	3368
880.989	3114
881.000	3094
881.070	3643
881.106	3618
881.152	3123
881.213	2963
881.233	2943
881.315	2832
881.319	2802
881.396	3214
881.426	3505
881.478	3680
881.532	3838
881.559	3886
881.639	3823
881.641	3813
881.722	2696
881.745	2691
881.803	3678
881.852	4029
881.885	3768
881.958	3564
881.966	3635
882.047	4660
882.064	4731
882.129	4857
882.171	5095
882.210	5920
882.277	9186
882.291	9562
882.372	7394
882.383	7134
882.454	4879
882.489	4147
882.535	3872
882.596	3973
882.616	3946
882.697	3466
882.702	3450
882.778	3313
882.808	3062
882.859	3066
882.914	3572
882.940	3581
883.020	2883
883.021	2891
883.102	3995
883.127	3914
883.183	3621
883.233	3748
883.264	3514
883.339	3117
883.345	3126
883.426	2684
883.445	2627
883.507	3037
883.551	3630
883.587	4129
883.657	4501
883.668	4516
883.749	4998
883.763	4899
883.830	3495
883.869	3116
883.910	3214
883.975	2852
883.991	2861
884.072	3738
884.081	3753
884.152	3608
884.187	3594
884.233	3850
884.292	4134
884.314	3957
884.394	3125
884.398	3087
884.475	2902
884.504	2916
884.555	3291
884.610	3205
884.636	3164
884.716	3563
884.716	3577
884.797	4458
884.821	4672
884.877	4460
884.927	3844
884.958	3537
885.033	3572
885.038	3588
885.118	3124
885.139	3134
885.199	3101
885.244	2860
885.279	3063
885.350	3658
885.359	3739
885.439	4193
885.456	4304
885.520	4139
885.561	3878
885.600	3663
885.667	3611
885.680	3711
885.760	4066
885.773	4071
885.840	3865
885.878	3895
885.920	3835
885.984	3723
886.000	3796
886.080	3905
886.089	3924
886.160	4399
886.195	4581
886.240	4475
886.300	4332
886.320	4321
886.400	4210
886.406	4206
886.480	4097
886.511	4019
886.560	4848
886.616	5576
886.640	5390
886.720	4579
886.722	4553
886.800	4801
886.827	4864
886.879	4554
886.932	4265
886.959	4605
887.038	5367
887.039	5373
887.119	4716
887.143	4480
887.198	4343
887.248	4245
887.278	4275
887.354	4084
887.358	4092
887.437	4145
887.459	4167
887.517	4503
887.564	4712
887.596	4451
887.669	3812
887.676	3779
887.755	3205
887.774	3052
887.835	3464
887.880	3922
887.914	4139
887.985	4264
887.994	4343
888.073	5018
888.090	5172
888.153	5703
888.195	5906
888.232	5421
888.300	4618
888.311	4595
888.391	4301
888.405	4239
888.470	4049
888.510	3888
888.549	4013
888.615	4237
888.628	4352
888.708	4910
888.720	4997
888.787	5324
888.825	5491
888.866	4928
888.930	3958
888.945	3974
889.024	4036
889.035	4035
889.103	4433
889.140	4633
889.182	4313
889.245	3794
889.261	3957
889.340	4699
889.349	4773
889.419	4602
889.454	4497
889.498	4612
889.559	4751
889.577	4696
889.656	4406
889.664	4369
889.735	5074
889.768	5390
889.814	5139
889.873	4771
889.978	4819
890.083	3851
890.187	4408
890.292	4079
890.397	4939
890.501	4070
890.606	4049
890.710	4369
890.815	5309
890.919	5994
891.024	4982
891.128	4971
891.233	4383
891.337	4642
891.442	4914
891.546	3875
891.650	4632
891.755	4407
891.859	5533
891.963	5348
892.068	4826
892.172	4519
892.276	3633
892.380	4548
892.484	5583
892.589	6517
892.693	6794
892.797	3611
892.901	3716
893.005	4393
893.109	5681
893.213	5512
893.317	4511
893.421	3789
893.525	3837
893.629	3061
893.733	5033
893.837	4181
893.941	4774
894.045	4366
894.148	4696
894.252	4563
894.356	5131
894.460	5917
894.564	4591
894.667	4513
894.771	4356
894.875	3389
894.978	3950
895.082	4353
895.186	4941
895.289	4164
895.393	4344
895.496	4797
895.600	4440
895.703	4047
895.807	3789
895.910	4119
896.014	4650
896.117	4281
896.221	4689
896.324	4902
896.427	4355
896.531	4038
896.634	4559
896.737	4278
896.840	4448
896.944	4865
897.047	5345
897.150	3937
897.253	4119
897.356	4248
897.460	4138
897.563	4397
897.666	5075
897.769	4607
897.872	3480
897.975	3114
898.078	4780
898.181	3864
898.284	4229
898.387	5247
898.490	4838
898.593	3583
898.695	4068
898.798	4446
898.901	3707
899.004	3982
899.107	4408
899.209	4069
899.312	5217
899.415	4172
899.518	3874
899.620	3330
899.723	4665
899.826	6357
899.928	9257
900.031	5276
900.133	4767
900.236	3760
900.338	2955
900.441	3545
900.543	4207
900.646	3634
900.748	4382
900.851	4907
900.953	4209
901.055	4043
901.158	4638
901.260	4051
901.362	5188
901.465	4529
901.567	4915
901.669	4429
901.771	4167
901.873	4288
901.976	4219
902.078	4734
902.180	3587
902.282	3792
902.384	4464
902.486	5236
902.588	4655
902.690	3499
902.792	4243
902.894	4526
902.996	4359
903.098	4381
903.200	4091
903.302	3750
903.404	4313
903.505	3565
903.607	4285
903.709	4750
903.811	3904
903.913	3902
904.014	3726
904.116	3694
904.218	3782
904.319	4588
904.421	5285
904.523	4942
904.624	4956
904.726	3398
904.827	3285
904.929	4090
905.030	3639
905.132	4764
905.233	4976
905.335	3019
905.436	3365
905.537	2886
905.639	3626
905.740	3769
905.841	4499
905.943	4416
906.044	4481
906.145	3690
906.247	3238
906.348	3479
906.449	4350
906.550	3309
906.651	4049
906.752	3099
906.854	3312
906.955	3104
907.056	3461
907.157	5037
907.258	4345
907.359	4100
907.460	3658
907.561	3727
907.662	3367
907.762	4145
907.863	5577
907.964	4289
908.065	5201
908.166	4015
908.267	3670
908.367	3110
908.468	4212
908.569	3919
908.670	5784
908.770	4884
908.871	5792
908.971	5338
909.072	4613
909.173	3158
909.273	4540
909.374	4778
909.474	4791
909.575	4430
909.675	4327
909.776	4621
909.876	4195
909.977	4692
910.077	4270
910.177	5233
910.278	3888
910.378	4141
910.478	4447
910.579	4856
910.679	4671
910.779	3512
910.879	4158
910.980	3879
911.080	4873
911.180	3779
911.280	3981
911.380	3659
911.480	3838
911.580	3782
911.680	4859
911.780	3639
911.880	5561
911.980	4281
912.080	3949
912.180	3962
912.280	4087
912.380	3921
912.480	3542
912.580	4102
912.679	4000
912.779	5585
912.879	4266
912.979	4292
913.078	3860
913.178	3361
913.278	2843
913.377	4354
913.477	3816
913.577	3687
913.676	4583
913.776	3848
913.875	3624
913.975	3732
914.074	3919
914.174	3471
914.273	2938
914.373	4698
914.472	3554
914.572	3743
914.671	3314
914.770	3562
914.870	3235
914.969	2930
915.068	4142
915.167	4139
915.267	2933
915.366	3334
915.465	3805
915.564	3877
915.663	3987
915.763	3173
915.862	4389
915.961	4127
916.060	3123
916.159	3304
916.258	2415
916.357	2900
916.456	4148
916.555	3520
916.654	4463
916.752	4396
916.851	4410
916.950	3199
917.049	3276
917.148	2525
917.247	3240
917.345	3847
917.444	3275
917.543	3393
917.642	4346
917.740	3751
917.839	5419
917.937	3463
918.036	4634
918.135	3103
918.233	3542
918.332	2966
918.430	3608
918.529	3236
918.627	2784
918.726	3960
918.824	4227
918.923	3427
919.021	3776
919.119	3101
919.218	3606
919.316	3336
919.414	3887
919.512	3996
919.611	4568
919.709	3348
919.807	4537
919.905	4153
920.003	4614
920.102	3932
920.200	4223
920.298	4285
920.396	4725
920.494	3537
920.592	4315
920.690	4749
920.788	4856
920.886	5001
920.984	5875
921.082	4670
921.180	5512
921.277	4263
921.375	4559
921.473	6693
921.571	6254
921.669	6177
921.766	5440
921.864	6386
921.962	5895
922.060	5652
922.157	5720
922.255	5732
922.352	5342
922.450	7324
922.548	6585
922.645	6219
922.743	8748
922.840	10643
922.938	12945
923.035	11163
923.133	11564
923.230	12305
923.327	14457
923.425	13741
923.522	13847
923.619	12738
923.717	12355
923.814	10411
923.911	11123
924.008	12043
924.106	11078
924.203	10363
924.300	11864
924.397	10776
924.494	10856
924.591	11457
924.688	10423
924.786	10888
924.883	10666
924.979	11105
925.077	11034
925.173	11666
925.270	11333
925.367	9865
925.464	11630
925.561	11692
925.658	12808
925.755	10960
925.852	13836
925.948	11383
926.045	11505
926.142	11529
926.239	13051
926.335	11193
926.432	11107
926.529	12257
926.625	12495
926.722	10920
926.818	10669
926.915	10865
927.011	10071
927.108	10497
927.204	10360
927.301	9831
927.397	10956
927.494	11060
927.590	8154
927.687	8986
927.783	11615
927.879	10703
927.976	9198
928.072	9526
928.168	10145
928.264	10306
928.361	9542
928.457	10655
928.553	8988
928.649	9349
928.745	9786
928.841	8288
928.937	9216
929.033	8933
929.129	7677
929.225	9095
929.321	9203
929.417	8245
929.513	10229
929.609	8941
929.705	8267
929.801	10273
929.897	7977
929.993	9322
930.089	9634
930.184	8462
930.280	10248
930.376	9833
930.471	7918
930.567	7829
930.663	8358
930.758	7416
930.854	8687
930.950	8623
931.045	8375
931.141	7866
931.236	9727
931.332	8376
931.427	7850
931.523	9613
931.618	9170
931.714	6273
931.809	7888
931.905	9791
932.000	7258
932.095	5990
932.191	8517
932.286	10338
932.381	7794
932.476	7000
932.572	7662
932.667	7502
932.762	6681
932.857	7641
932.952	9304
933.047	8200
933.142	5965
933.237	8152
933.332	8924
933.427	8912
933.522	6904
933.617	7699
933.712	7528
933.807	8554
933.902	8137
933.997	8744
934.092	6573
934.187	6809
934.282	8004
934.376	7527
934.471	7870
934.566	6720
934.661	7062
934.755	7355
934.850	7709
934.945	7888
935.039	6756
935.134	6224
935.228	7008
935.323	9773
935.417	7242
935.512	4886
935.606	6370
935.701	7708
935.795	7608
935.890	7879
935.984	6656
936.079	6051
936.173	7557
936.267	6765
936.362	5544
936.456	7385
936.550	8133
936.644	7057
936.738	6379
936.833	6514
936.927	5729
937.021	6239
937.115	6665
937.209	6928
937.303	7348
937.397	5582
937.491	7330
937.585	8197
937.679	6965
937.773	6115
937.867	5518
937.961	4962
938.055	8680
938.149	6728
938.243	5418
938.337	5738
938.430	6133
938.524	8433
938.618	7002
938.712	6438
938.805	6484
938.899	7466
938.993	8590
939.086	6217
939.180	5783
939.274	7772
939.367	8195
939.461	6896
939.554	6622
939.648	4928
939.741	5807
939.835	6416
939.928	8319
940.022	6662
940.115	7035
940.208	6931
940.302	7744
940.395	7879
940.488	5735
940.582	5180
940.675	5580
940.768	5256
940.861	7519
940.954	7073
941.048	5414
941.141	5074
941.234	6633
941.327	7167
941.420	8074
941.513	7712
941.606	6188
941.699	5352
941.792	6137
941.885	6427
941.978	5805
942.071	5958
942.164	4947
942.257	4691
942.349	5846
942.442	6677
942.535	4960
942.628	4849
942.721	5883
942.813	5684
942.906	6019
942.999	5306
943.091	4970
943.184	5524
943.277	5848
943.369	5006
943.462	4156
943.554	5896
943.647	5863
943.739	5901
943.832	6163
943.924	4032
944.017	4751
944.109	4318
944.201	5996
944.294	5525
944.386	5442
944.478	5683
944.571	4247
944.663	4888
944.755	5266
944.847	5983
944.940	5398
945.032	4334
945.124	4144
945.216	5866
945.308	5442
945.400	5723
945.492	5168
945.584	5719
945.676	6005
945.768	5840
945.860	5837
945.952	6188
946.044	5364
946.136	4248
946.228	4578
946.320	4279
946.412	5852
946.503	5472
946.595	5732
946.687	4077
946.779	4325
946.870	3697
946.962	4092
947.054	4369
947.145	5759
947.237	4729
947.329	4858
947.420	4838
947.512	5202
947.603	3612
947.695	4088
947.786	3081
947.878	3750
947.969	4634
948.061	5442
948.152	5232
948.243	3372
948.335	3592
948.426	4378
948.517	4265
948.609	4617
948.700	4012
948.791	3671
948.882	3382
948.973	3141
949.065	4379
949.156	4506
949.247	3294
949.338	4397
949.429	3526
949.520	4089
949.611	4659
949.702	5970
949.793	3982
949.884	4522
949.975	3997
950.066	2949
950.157	3215
950.247	4044
950.338	2423
950.429	4434
950.520	3706
950.611	3359
950.701	4055
950.792	4684
950.883	4532
950.973	3971
951.064	4247
951.155	4766
951.245	5166
951.336	4606
951.427	4485
951.517	6229
951.608	4341
951.698	3914
951.788	3626
951.879	3955
951.969	3346
952.060	3965
952.150	4100
952.240	5205
952.331	4385
952.421	4327
952.511	2943
952.602	3084
952.692	2458
952.782	2438
952.872	3544
952.962	4808
953.052	3902
953.143	3448
953.233	3388
953.323	3965
953.413	3874
953.503	4231
953.593	2896
953.683	2773
953.773	3352
953.863	2898
953.953	2397
954.042	3425
954.132	4458
954.222	3703
954.312	3499
954.402	3549
954.492	4449
954.581	5223
954.671	4572
954.761	3173
954.850	4139
954.940	2828
955.030	2535
955.119	1792
955.209	2655
955.298	3415
955.388	4671
955.477	3311
955.567	3212
955.656	2869
955.746	3398
955.835	3008
955.925	2945
956.014	3873
956.103	3557
956.193	4538
956.282	3449
956.371	2673
956.461	3551
956.550	3630
956.639	2856
956.728	3068
956.817	3527
956.906	3388
956.995	4323
957.085	4061
957.174	2744
957.263	3116
957.352	3334
957.441	3132
957.530	3254
957.619	2660
957.708	3596
957.796	2414
957.885	3385
957.974	3535
958.063	3004
958.152	2205
958.241	2645
958.329	3066
958.418	2068
958.507	2161
958.596	4012
958.684	3099
958.773	3632
958.861	2170
958.950	2070
959.039	3464
959.127	2389
959.216	3681
959.304	2418
959.393	3556
959.481	2889
959.570	2294
959.658	2311
959.746	2986
959.835	2718
959.923	4497
960.011	2981
960.100	3888
960.188	2335
960.276	2864
960.365	2380
960.453	2602
960.541	1195
960.629	3047
960.717	2434
960.805	2218
960.893	2774
960.981	2266
961.069	3892
961.158	3657
961.245	4563
961.333	3543
961.421	3127
961.509	2832
961.597	3478
961.685	2503
961.773	2985
961.861	2414
961.949	3312
962.036	3026
962.124	2293
962.212	1469
962.299	2039
962.387	3065
962.475	3224
962.562	2349
962.650	3197
962.738	2397
962.825	2254
962.913	2296
963.000	2189
963.088	3153
963.175	2870
963.263	3425
963.350	2975
963.438	3369
963.525	3070
963.612	4004
963.700	6130
963.787	12774
963.874	7956
963.962	2977
964.049	2138
964.136	2697
964.223	1462
964.310	1920
964.398	2738
964.485	2258
964.572	3089
964.659	3793
964.746	4124
964.833	2331
964.920	2135
965.007	2409
965.094	2665
965.181	2568
965.268	2583
965.355	2205
965.441	2494
965.528	1997
965.615	2660
965.702	2796
965.789	2441
965.875	2493
965.962	2795
966.049	2283
966.136	3344
966.222	3434
966.309	3576
966.395	3124
966.482	3372
966.569	3553
966.655	2225
966.742	2756
966.828	1767
966.915	1615
967.001	1965
967.087	2501
967.174	1911
967.260	3092
967.347	2899
967.433	5480
967.519	8622
967.605	5602
967.692	2471
967.778	1873
967.864	2116
967.950	2684
968.036	2054
968.123	2457
968.209	2094
968.295	1990
968.381	2527
968.467	2447
968.553	1710
968.639	2360
968.725	2453
968.811	4166
968.897	3658
968.983	2710
969.069	1165
969.154	2177
969.240	1889
969.326	2321
969.412	2493
969.497	1513
969.583	1388
969.669	3043
969.755	1719
969.840	2787
969.926	3806
970.012	4337
970.097	4937
970.183	5008
970.268	3283
970.354	3279
970.439	4285
970.525	5787
970.610	3343
970.696	3130
970.781	2361
970.866	1305
970.952	2358
971.037	2603
971.122	2054
971.208	2080
971.293	2115
971.378	1724
971.463	2270
971.549	2340
971.634	1917
971.719	1753
971.804	1722
971.889	2332
971.974	1675
972.059	1522
972.144	2037
972.229	1682
972.314	2334
972.399	2082
972.484	1575
972.569	1999
972.654	1043
972.739	4508
972.824	4135
972.908	2918
972.993	902
973.078	2126
973.163	1577
973.247	1588
973.332	925
973.417	2665
973.501	2430
973.586	2289
973.671	2369
973.755	3155
973.840	2747
973.924	2900
974.009	3174
974.093	2751
974.178	3695
974.262	3519
974.346	3914
974.431	2147
974.515	1802
974.600	2389
974.684	1621
974.768	1927
974.852	2369
974.937	1529
975.021	2358
975.105	1876
975.189	1356
975.273	2242
975.358	1575
975.442	1782
975.526	2751
975.610	1325
975.694	1287
975.778	2401
975.862	2066
975.946	856
976.030	2246
976.114	1643
976.198	1828
976.281	2234
976.365	2806
976.449	1447
976.533	2311
976.617	1353
976.700	1493
976.784	1804
976.868	1818
976.951	2429
977.035	2670
977.119	2180
977.202	1530
977.286	2420
977.369	2308
977.453	4078
977.536	3450
977.620	2402
977.703	2724
977.787	687
977.870	1940
977.953	2841
978.037	1667
978.120	3032
978.203	2172
978.287	4753
978.370	3086
978.453	1581
978.536	1245
978.620	3399
978.703	3388
978.786	2232
978.869	1389
978.952	844
979.035	3352
979.118	2130
979.201	1813
979.284	2952
979.367	1499
979.450	2114
979.533	1185
979.616	1173
979.699	1835
979.782	1335
979.865	1319
979.948	1248
980.030	606
980.113	1832
980.196	1489
980.279	1871
980.361	1889
980.444	1523
980.526	2440
980.609	3663
980.692	2807
980.774	2774
980.857	1801
980.939	2825
981.022	2516
981.104	1850
981.187	2440
981.269	1935
981.352	1850
981.434	1246
981.516	1390
981.599	3452
981.681	1527
981.763	2871
981.846	2058
981.928	1467
982.010	1994
982.092	1525
982.174	1942
982.256	2026
982.339	2196
982.421	2370
982.503	1307
982.585	1856
982.667	2249
982.749	2366
982.831	1839
982.913	1093
982.995	2184
983.077	1641
983.158	2567
983.240	1114
983.322	2186
983.404	3936
983.486	2584
983.568	2865
983.649	1909
983.731	3520
983.813	2358
983.894	2795
983.976	1936
984.058	2554
984.139	2640
984.221	1806
984.302	1944
984.384	1988
984.465	1874
984.547	2587
984.628	1586
984.710	2774
984.791	1815
984.872	1838
984.954	1083
985.035	1798
985.116	1886
985.198	2133
985.279	2729
985.360	2565
985.441	1728
985.522	2844
985.604	2572
985.685	1062
985.766	2075
985.847	2928
985.928	1024
986.009	2010
986.090	1651
986.171	2478
986.252	2417
986.333	2125
986.414	2353
986.495	2192
986.576	1775
986.656	2148
986.737	2910
986.818	2389
986.899	1323
986.980	2074
987.060	2620
987.141	1745
987.222	2854
987.302	3137
987.383	3126
987.464	2878
987.544	2950
987.625	3550
987.705	2891
987.786	3647
987.866	2988
987.947	2690
988.027	2686
988.108	2396
988.188	2490
988.268	2353
988.349	2223
988.429	3065
988.509	2169
988.589	2682
988.670	822
988.750	3746
988.830	2132
988.910	2682
988.990	2049
989.070	2099
989.151	2840
989.231	976
989.311	2414
989.391	2388
989.471	1218
989.551	1839
989.631	1763
989.711	2623
989.791	1846
989.870	1438
989.950	3085
990.030	1463
990.110	2072
990.190	1017
990.269	1077
990.349	1233
990.429	1790
990.509	2371
990.588	1201
990.668	1592
990.747	1404
990.827	1147
990.907	1717
990.986	2287
991.066	2478
991.145	1086
991.225	2323
991.304	1215
991.383	2170
991.463	1131
991.542	2738
991.622	1045
991.701	649
991.780	1703
991.859	203
991.939	1666
992.018	943
992.097	1105
992.176	1534
992.256	1378
992.335	217
992.414	1750
992.493	1060
992.572	568
992.651	2040
992.730	1635
992.809	1244
992.888	-23
992.967	1091
993.046	2219
993.125	725
993.203	924
993.282	1920
993.361	1285
993.440	1655
993.519	455
993.597	703
993.676	531
993.755	1153
993.834	2018
993.912	323
993.991	1707
994.069	-55
994.148	1098
994.226	947
994.305	1373
994.384	253
994.462	1691
994.540	707
994.619	277
994.697	1027
994.776	697
994.854	1225
994.932	1007
995.011	414
995.089	614
995.167	270
995.245	959
995.324	1269
995.402	602
995.480	713
995.558	505
995.636	591
995.714	186
995.792	1758
995.870	191
995.948	275
996.026	768
996.104	-74
996.182	1186
996.260	259
996.338	538
996.416	571
996.494	202
996.572	1497
996.649	420
996.727	-824
996.805	211
996.883	94
996.960	657
997.038	766
997.116	1060
997.193	27
997.271	466
997.348	-242
997.426	227
997.504	4
997.581	1232
997.658	1140
997.736	-188
997.813	-724
997.891	813
997.968	390
998.046	-12
998.123	164
998.200	-233
998.277	-580
998.355	667
998.432	-943
998.509	-312
998.586	737
998.663	1007
998.741	516
998.818	108
998.895	287
998.972	136
999.049	237
999.126	-74
999.203	191
999.280	616
999.357	386
999.434	-30
999.511	725
999.587	669
999.664	-51
999.741	620
999.818	332
999.895	321
999.971	-743
1000.048	271
1000.125	337
1000.202	418
1000.278	553
1000.355	276
1000.431	89
1000.508	-249
1000.584	23
1000.661	616
1000.738	-474
1000.814	279
1000.890	312
1000.967	-193
1001.043	721
1001.120	-1071
1001.196	594
1001.272	-477
1001.349	-328
1001.425	567
1001.501	238
1001.577	-748
1001.654	248
1001.730	-493
1001.806	-919
1001.882	-357
1001.958	-139
1002.034	21
1002.110	108
1002.186	-478
1002.262	-924
1002.338	-483
1002.414	-428
1002.490	808
1002.566	-281
1002.642	-1045
1002.718	343
1002.794	-591
1002.870	-344
1002.945	-462
1003.021	332
1003.097	-531
1003.173	-96
1003.248	-88
1003.324	-1054
1003.400	473
1003.475	-1034
1003.551	-445
1003.626	-445
1003.702	-730
1003.777	-194
1003.853	-173
1003.928	-278
1004.004	-515
1004.079	-111
1004.155	-652
1004.230	-313
1004.305	-273
1004.381	-250
1004.456	452
1004.531	-562
1004.607	-635
1004.682	-952
1004.757	761
1004.832	-615
1004.907	-482
1004.982	-116
1005.057	-19
1005.133	-315
1005.208	-853
1005.283	-823
1005.358	-346
1005.433	4
1005.508	-656
1005.583	-891
1005.657	-123
1005.732	25
1005.807	-704
1005.882	-617
1005.957	-962
1006.032	-201
1006.106	-543
1006.181	122
1006.256	95
1006.331	-965
1006.405	-1033
1006.480	-409
1006.554	-894
1006.629	-1146
1006.704	-494
1006.778	-342
1006.853	367
1006.927	65
1007.002	-531
1007.076	-698
1007.150	-677
1007.225	-394
1007.299	51
1007.373	-596
1007.448	-771
1007.522	-409
1007.596	-399
1007.671	-988
1007.745	-302
1007.819	-667
1007.893	-1190
1007.967	-19
1008.041	-517
1008.115	-137
1008.190	-893
1008.264	-548
1008.338	-717
1008.412	-325
1008.486	-171
1008.560	-1104
1008.633	-1063
1008.707	-1202
1008.781	52
1008.855	-688
1008.929	231
1009.003	-1026
1009.076	-779
1009.150	-1329
1009.224	-629
1009.298	-986
1009.371	-1489
1009.445	-131
1009.519	-104
1009.592	-1632
1009.666	-854
1009.739	-588
1009.813	-496
1009.886	-428
1009.960	-1500
1010.033	-343
1010.107	-355
1010.180	-1774
1010.253	-270
1010.327	-1196
1010.400	-202
1010.473	-1034
1010.547	175
1010.620	-277
1010.693	-753
1010.766	-867
1010.840	-27
1010.913	-950
1010.986	-1164
1011.059	-1123
1011.132	-802
1011.205	-160
1011.278	-419
1011.351	-733
1011.424	50
1011.497	-747
1011.570	-1104
1011.643	-1252
1011.716	-1061
1011.789	-1145
1011.862	-227
1011.934	-774
1012.007	-1200
1012.080	-709
1012.153	-1025
1012.225	-634
1012.298	-999
1012.371	-1171
1012.443	-1126
1012.516	-1392
1012.588	-403
1012.661	-1103
1012.733	-1062
1012.806	-293
1012.879	-1456
1012.951	-1270
1013.023	-1348
1013.096	-1185
1013.168	-1513
1013.241	-445
1013.313	-1074
1013.385	-810
1013.458	-749
1013.530	-1704
1013.602	-1477
1013.674	57
1013.746	-1907
1013.819	-1205
1013.891	-492
1013.963	-1331
1014.035	-404
1014.107	-1590
1014.179	-354
1014.251	-1630
1014.323	-360
1014.395	-483
1014.467	-655
1014.539	-425
1014.611	-931
1014.683	-1312
1014.754	-1595
1014.826	-1746
1014.898	-1361
1014.970	-1358
1015.042	2
1015.113	-783
1015.185	-1545
1015.257	-1137
1015.328	-739
1015.400	-725
1015.471	-1237
1015.543	-2193
1015.615	-1123
1015.686	-1699
1015.757	-981
1015.829	-1235
1015.901	-666
1015.972	-1412
1016.043	-719
1016.115	-942
1016.186	-1140
1016.257	-1766
1016.328	-800
1016.400	-610
1016.471	-763
1016.542	-764
1016.613	-888
1016.685	-759
1016.756	-617
1016.827	-1232
1016.898	-1498
1016.969	-289
1017.040	-1606
1017.111	-835
1017.182	-1692
1017.253	-1355
1017.324	-1192
1017.395	-861
1017.466	-973
1017.537	-1224
1017.608	-1080
1017.678	-1281
1017.749	-1488
1017.820	-1490
1017.891	-1680
1017.961	-1365
1018.032	-1577
1018.103	-999
1018.173	-1172
1018.244	-1961
1018.315	-963
1018.385	-863
1018.456	-301
1018.526	-2237
1018.597	-900
1018.667	-800
1018.738	-2069
1018.808	-1240
1018.878	-1835
1018.949	-1928
1019.019	-1226
1019.089	-1577
1019.160	-185
1019.230	-1791
1019.300	-1124
1019.371	-2637
1019.441	-1301
1019.511	-1244
1019.581	-1503
1019.651	-1876
1019.721	-359
1019.791	-1295
1019.861	-2054
1019.931	-1140
1020.001	-1822
1020.071	-1359
1020.141	-1729
1020.211	-1272
1020.281	-1600
1020.351	-1913
1020.421	-575
1020.491	-1334
1020.560	-1958
1020.630	-1647
1020.700	-1697
1020.770	-1862
1020.839	-2245
1020.909	-1457
1020.979	-1826
1021.048	-1511
1021.118	-1124
1021.187	-1986
1021.257	-1497
1021.326	-1005
1021.396	-2072
1021.465	-1280
1021.535	-1281
1021.604	-1650
1021.674	-1041
1021.743	-2417
1021.812	-1211
1021.882	-1283
1021.951	-1365
1022.020	-1957
1022.089	-585
1022.159	-1885
1022.228	-1609
1022.297	-1999
1022.366	-2364
1022.435	-1983
1022.504	-1866
1022.573	-2475
1022.642	-1901
1022.711	-1365
1022.781	-1406
1022.849	-1554
1022.918	-1850
1022.987	-1654
1023.056	-1934
1023.125	-1815
1023.194	-1789
1023.263	-1521
1023.331	-1245
1023.400	-1927
1023.469	-1864
1023.538	-1759
1023.606	-1690
1023.675	-1829
1023.744	-1782
1023.812	-1927
1023.881	-1295
1023.949	-2067
1024.018	-1571
1024.086	-1608
1024.155	-2292
1024.223	-2016
1024.292	-1691
1024.360	-1740
1024.429	-1501
1024.497	-2319
1024.565	-1334
1024.634	-1600
1024.702	-1889
1024.770	-2044
1024.838	-2510
1024.907	-1945
1024.975	-1391
1025.043	-2255
1025.111	-2109
1025.179	-2124
1025.247	-1793
1025.315	-1856
1025.383	-2492
1025.451	-1172
1025.519	-2078
1025.587	-1980
1025.655	-1383
1025.723	-1572
1025.791	-2501
1025.859	-1977
1025.927	-1361
1025.995	-2517
1026.062	-1540
1026.130	-1976
1026.198	-1448
1026.266	-1925
1026.333	-2014
1026.401	-1667
1026.469	-1963
1026.536	-2288
1026.604	-1780
1026.671	-1914
1026.739	-2020
1026.806	-1664
1026.874	-2286
1026.941	-1928
1027.009	-1700
1027.076	-2507
1027.144	-1153
1027.211	-1883
1027.278	-1893
1027.345	-1663
1027.413	-1693
1027.480	-2419
1027.547	-1741
1027.614	-1886
1027.682	-1503
1027.749	-1836
1027.816	-1842
1027.883	-1964
1027.950	-1938
1028.017	-1681
1028.084	-1485
1028.151	-2622
1028.218	-1954
1028.285	-2477
1028.352	-2426
1028.419	-1687
1028.486	-1426
1028.553	-2434
1028.619	-2707
1028.686	-2956
1028.753	-2692
1028.820	-1435
1028.886	-2770
1028.953	-1593
1029.020	-1324
1029.086	-2478
1029.153	-1802
1029.220	-2062
1029.286	-2384
1029.353	-2230
1029.419	-2028
1029.486	-2308
1029.552	-2427
1029.619	-1783
1029.685	-1783
1029.751	-2029
1029.818	-1616
1029.884	-2166
1029.951	-1255
1030.017	-2301
1030.083	-2206
1030.149	-2537
1030.216	-2418
1030.282	-2319
1030.348	-2446
1030.414	-2298
1030.480	-2151
1030.546	-2681
1030.612	-2037
1030.678	-1825
1030.744	-2078
1030.810	-2607
1030.876	-1840
1030.942	-1855
1031.008	-2289
1031.074	-2748
1031.140	-1995
1031.206	-1933
1031.272	-1909
1031.337	-2054
1031.403	-1764
1031.469	-1858
1031.534	-2094
1031.600	-2255
1031.666	-2401
1031.731	-2966
1031.797	-2083
1031.863	-1905
1031.928	-2370
1031.994	-2264
1032.059	-2233
1032.125	-2475
1032.190	-2233
1032.256	-2795
1032.321	-2987
1032.386	-2570
1032.452	-1286
1032.517	-2075
1032.582	-2482
1032.647	-2047
1032.713	-2151
1032.778	-2052
1032.843	-2617
1032.908	-2666
1032.974	-1772
1033.039	-2376
1033.104	-1799
1033.169	-2897
1033.234	-2156
1033.299	-2053
1033.364	-1274
1033.429	-1222
1033.494	-820
1033.559	-2296
1033.624	-1773
1033.688	-2529
1033.753	-2392
1033.818	-1828
1033.883	-1721
1033.948	-2043
1034.013	-756
1034.077	-1318
1034.142	-760
1034.207	-945
1034.271	1264
1034.336	2282
1034.400	1104
1034.465	136
1034.530	-705
1034.594	-2002
1034.658	-1696
1034.723	-2281
1034.787	-2537
1034.852	-1235
1034.916	-2067
1034.981	-2667
1035.045	-2157
1035.109	-1720
1035.173	-2594
1035.238	-3048
1035.302	-2292
1035.366	-2394
1035.430	-2312
1035.495	-2402
1035.559	-1917
1035.623	-2152
1035.687	-1600
1035.751	-2307
1035.815	-2453
1035.879	-2309
1035.943	-2311
1036.007	-2591
1036.071	-1614
1036.135	-2775
1036.198	-1643
1036.262	-2206
1036.326	-2104
1036.390	-1875
1036.454	-2228
1036.517	-1418
1036.581	-1537
1036.645	-462
1036.709	-670
1036.772	-1063
1036.836	-1764
1036.900	-2467
1036.963	-2555
1037.026	-2549
1037.090	-2526
1037.154	-2141
1037.217	-1811
1037.280	-2716
1037.344	-1872
1037.407	-2885
1037.471	-2601
1037.534	-2587
1037.597	-2266
1037.661	-1749
1037.724	-1713
1037.787	-1843
1037.850	-1528
1037.913	-1569
1037.977	-1670
1038.040	-2525
1038.103	-2386
1038.166	-2357
1038.229	-2668
1038.292	-2064
1038.355	-1954
1038.418	-1482
1038.481	-1985
1038.544	-2671
1038.607	-2098
1038.670	-2333
1038.732	-1595
1038.795	-2827
1038.858	-2321
1038.921	-2216
1038.984	-2753
1039.046	-2529
1039.109	-1818
1039.172	-1904
1039.234	-2123
1039.297	-2453
1039.360	-2385
1039.422	-2064
1039.485	-2153
1039.547	-2822
1039.610	-2693
1039.672	-2543
1039.734	-1441
1039.797	-1817
1039.859	-1705
1039.922	-2544
1039.984	-2712
1040.046	-2609
1040.109	-2486
1040.171	-2390
1040.233	-2766
1040.295	-2742
1040.358	-2242
1040.420	-2499
1040.482	-2134
1040.544	-2146
1040.606	-1760
1040.668	-1726
1040.730	-2141
1040.792	-2928
1040.854	-2388
1040.916	-2462
1040.978	-2323
1041.040	-1529
1041.102	-2115
1041.164	-2813
1041.225	-1808
1041.287	-2664
1041.349	-1915
1041.411	-2025
1041.472	-1414
1041.534	-2413
1041.596	-2367
1041.657	-2289
1041.719	-2208
1041.781	-1848
1041.842	-1628
1041.904	-2261
1041.965	-2793
1042.027	-2585
1042.088	-1581
1042.150	-1635
1042.211	-2720
1042.272	-2566
1042.334	-2273
1042.395	-2548
1042.456	-1745
1042.518	-2721
1042.579	-1369
1042.640	-1914
1042.701	-1706
1042.763	-2422
1042.824	-2014
1042.885	-2403
1042.946	-1810
1043.007	-2894
1043.068	-2777
1043.129	-2752
1043.190	-1803
1043.251	-1766
1043.312	-2609
1043.373	-2172
1043.434	-1498
1043.495	-2601
1043.556	-2221
1043.616	-2590
1043.677	-2442
1043.738	-2225
1043.799	-1735
1043.859	-2079
1043.920	-1325
1043.981	-2440
1044.041	-1845
1044.102	-2572
1044.162	-2158
1044.223	-2720
1044.284	-2408
1044.344	-2245
1044.405	-1362
1044.465	-2161
1044.525	-2371
1044.586	-2182
1044.646	-2941
1044.707	-2404
1044.767	-2080
1044.827	-1529
1044.887	-2205
1044.948	-2641
1045.008	-1607
1045.068	-1453
1045.128	-1555
1045.188	-2248
1045.249	-1708
1045.309	-2102
1045.369	-1968
1045.429	-2002
1045.489	-1070
1045.549	-2650
1045.609	-1868
1045.669	-1256
1045.729	-2018
1045.789	-1826
1045.848	-2082
1045.908	-2255
1045.968	-2360
1046.028	-1656
1046.088	-1604
1046.147	-1165
1046.207	-2007
1046.267	-2396
1046.326	-2262
1046.386	-2209
1046.446	-1504
1046.505	-1412
1046.565	-1463
1046.624	-1428
1046.684	-686
1046.743	-1519
1046.803	-1532
1046.862	-777
1046.922	0
