'Start Wavelength	183.907
'End Wavelength	1046.922
'Gate Delay	5.000
'Gate Width (ms)	1.050
'Laser Output Level	0.000
'X Position	0.000
'Y Position	0.000
'Z Position	0.000
'Grid Point Number	1.000
'Shot Number	100.000
183.907	107.000
183.977	-281.000
184.047	-390
184.116	-33
184.186	715
184.256	-110
184.325	-382
184.395	585
184.465	690
184.534	88
184.604	-966
184.674	-260
184.743	-442
184.813	223
184.883	-721
184.952	76
185.022	-93
185.092	240
185.161	-780
185.231	-26
185.301	-1123
185.370	273
185.440	-267
185.509	-182
185.579	128
185.649	669
185.718	1033
185.788	459
185.857	-246
185.927	-529
185.996	-185
186.066	45
186.136	76
186.205	-169
186.275	-425
186.344	8
186.414	68
186.483	-341
186.553	-13
186.622	520
186.692	-525
186.761	120
186.831	24
186.900	-506
186.970	-516
187.039	94
187.109	254
187.178	331
187.248	-570
187.317	402
187.387	-880
187.456	481
187.526	-795
187.595	706
187.664	-770
187.734	-9
187.803	-33
187.873	565
187.942	444
188.012	149
188.081	50
188.150	79
188.220	55
188.289	988
188.358	-93
188.428	-38
188.497	-493
188.567	189
188.636	-337
188.705	-254
188.775	-637
188.844	-607
188.913	590
188.983	128
189.052	-846
189.121	313
189.191	352
189.260	-75
189.329	-450
189.399	448
189.468	372
189.537	79
189.606	-24
189.676	432
189.745	651
189.814	123
189.883	-213
189.953	0
190.022	-54
190.091	843
190.161	2432
190.230	1058
190.299	-239
190.368	149
190.437	-281
190.507	54
190.576	726
190.645	-58
190.714	-1027
190.783	738
190.853	68
190.922	377
190.991	-1156
191.060	242
191.129	-559
191.198	1041
191.268	-807
191.337	-266
191.406	214
191.475	516
191.544	60
191.613	575
191.682	-475
191.752	217
191.821	257
191.890	676
191.959	348
192.028	534
192.097	482
192.166	1050
192.235	-290
192.304	427
192.373	-1077
192.442	1331
192.511	-517
192.580	71
192.650	-675
192.719	188
192.788	226
192.857	474
192.926	-752
192.995	70
193.064	-65
193.133	910
193.202	714
193.271	1058
193.340	363
193.409	1258
193.478	1152
193.547	942
193.615	1889
193.684	1573
193.753	941
193.822	1080
193.891	640
193.960	646
194.029	91
194.098	127
194.167	-371
194.236	384
194.305	-64
194.374	740
194.443	-629
194.512	-161
194.580	230
194.649	993
194.718	387
194.787	18
194.856	-268
194.925	331
194.994	115
195.062	750
195.131	-228
195.200	176
195.269	224
195.338	516
195.407	472
195.475	764
195.544	380
195.613	1360
195.682	1060
195.751	110
195.819	252
195.888	446
195.957	1098
196.026	922
196.094	749
196.163	597
196.232	779
196.301	1065
196.369	438
196.438	435
196.507	-366
196.576	621
196.644	326
196.713	-82
196.782	-149
196.850	387
196.919	-103
196.988	535
197.056	-225
197.125	65
197.194	123
197.262	37
197.331	-377
197.400	-223
197.468	407
197.537	641
197.606	334
197.674	974
197.743	1330
197.812	957
197.880	1698
197.949	1677
198.017	1260
198.086	812
198.155	768
198.223	767
198.292	1333
198.360	-178
198.429	220
198.497	-313
198.566	1025
198.635	2149
198.703	369
198.772	725
198.840	1127
198.909	1753
198.977	79
199.046	-45
199.114	328
199.183	690
199.251	222
199.320	804
199.388	-203
199.457	348
199.525	170
199.594	155
199.662	194
199.731	304
199.799	-338
199.867	759
199.936	-20
200.004	375
200.073	-374
200.141	748
200.210	-185
200.278	195
200.346	521
200.415	1521
200.483	615
200.552	493
200.620	-166
200.688	754
200.757	-6
200.825	687
200.893	-110
200.962	433
201.030	-367
201.098	-85
201.167	867
201.235	341
201.303	602
201.372	840
201.440	-217
201.508	902
201.577	1568
201.645	617
201.713	-857
201.781	434
201.850	1322
201.918	357
201.986	-375
202.055	757
202.123	-380
202.191	884
202.259	746
202.327	458
202.396	37
202.464	636
202.532	463
202.600	2294
202.669	535
202.737	455
202.805	728
202.873	640
202.941	-111
203.009	33
203.078	531
203.146	1125
203.214	688
203.282	-219
203.350	500
203.418	173
203.487	-422
203.555	280
203.623	108
203.691	598
203.759	-476
203.827	315
203.895	454
203.963	869
204.031	778
204.099	28
204.168	-480
204.236	773
204.304	1455
204.372	990
204.440	339
204.508	-80
204.576	-554
204.644	355
204.712	48
204.780	749
204.848	352
204.916	556
204.984	902
205.052	901
205.120	-98
205.188	591
205.256	347
205.324	394
205.392	651
205.460	1126
205.528	208
205.596	507
205.664	-208
205.732	786
205.799	2482
205.867	4945
205.935	255
206.003	2170
206.071	267
206.139	1393
206.207	529
206.275	114
206.343	550
206.411	999
206.478	340
206.546	1102
206.614	919
206.682	918
206.750	737
206.818	1163
206.885	1223
206.953	304
207.021	1143
207.089	745
207.157	657
207.225	1205
207.292	1232
207.360	540
207.428	-118
207.496	505
207.563	569
207.631	1137
207.699	656
207.767	664
207.834	-48
207.902	1335
207.970	729
208.038	963
208.105	739
208.173	1049
208.241	1332
208.309	1963
208.376	1196
208.444	2326
208.512	1327
208.579	533
208.647	1330
208.715	2365
208.782	424
208.850	1880
208.918	28
208.985	1112
209.053	484
209.120	1266
209.188	516
209.256	1060
209.323	394
209.391	772
209.459	2126
209.526	1178
209.594	721
209.661	1543
209.729	798
209.796	1989
209.864	1354
209.932	555
209.999	2185
210.067	1714
210.134	1313
210.202	1151
210.269	1376
210.337	2453
210.404	724
210.472	1297
210.539	685
210.607	1245
210.674	715
210.742	1973
210.809	1037
210.877	1627
210.944	1167
211.012	171
211.079	2086
211.146	758
211.214	1255
211.281	1779
211.349	1928
211.416	922
211.484	1685
211.551	1283
211.618	1165
211.686	1613
211.753	-85
211.821	2089
211.888	558
211.955	1112
212.023	1009
212.090	1654
212.157	1333
212.225	1183
212.292	3017
212.359	5359
212.427	12229
212.494	6279
212.561	3110
212.629	2136
212.696	933
212.763	2118
212.831	1051
212.898	1160
212.965	1571
213.032	1346
213.100	1172
213.167	1459
213.234	2091
213.301	1689
213.369	1638
213.436	1604
213.503	1131
213.570	1853
213.638	1358
213.705	1131
213.772	732
213.839	1871
213.906	2407
213.973	2143
214.041	1384
214.108	2102
214.175	819
214.242	1801
214.309	1232
214.376	1852
214.444	900
214.511	2450
214.578	1617
214.645	2807
214.712	1314
214.779	1428
214.846	1366
214.913	2746
214.980	2805
215.048	2714
215.115	2619
215.182	3131
215.249	1822
215.316	1682
215.383	2295
215.450	2166
215.517	1566
215.584	1448
215.651	1087
215.718	940
215.785	2233
215.852	1492
215.919	2816
215.986	2257
216.053	1864
216.120	900
216.187	1037
216.254	1574
216.321	958
216.388	1977
216.455	1004
216.522	1739
216.589	1692
216.656	4025
216.722	3645
216.789	2882
216.856	3397
216.923	2229
216.990	2161
217.057	2326
217.124	2210
217.191	2469
217.258	3838
217.324	4790
217.391	5283
217.458	3705
217.525	2893
217.592	2327
217.659	1071
217.725	3021
217.792	2669
217.859	3419
217.926	1565
217.993	1502
218.059	1258
218.126	1912
218.193	671
218.260	1875
218.327	401
218.393	1153
218.460	164
218.527	1064
218.594	1892
218.660	2481
218.727	3095
218.794	1125
218.860	1075
218.927	886
218.994	944
219.061	923
219.127	995
219.194	2847
219.261	851
219.327	197
219.394	1395
219.461	408
219.527	1012
219.594	1898
219.661	948
219.727	182
219.794	1086
219.860	809
219.927	1720
219.994	2498
220.060	4012
220.127	2650
220.193	2044
220.260	1608
220.326	3881
220.393	5928
220.460	8646
220.526	5611
220.593	2560
220.659	4298
220.726	3319
220.792	7143
220.859	6881
220.925	9868
220.992	14564
221.058	12746
221.125	11067
221.191	8189
221.258	3725
221.324	3772
221.391	2037
221.457	2615
221.524	1660
221.590	2639
221.657	8379
221.723	5633
221.789	4838
221.856	5461
221.922	2499
221.989	3107
222.055	1515
222.121	745
222.188	2325
222.254	1654
222.321	1062
222.387	608
222.453	710
222.520	1570
222.586	734
222.652	1610
222.719	362
222.785	1740
222.851	861
222.918	1065
222.984	1369
223.050	139
223.116	-711
223.183	2416
223.249	-610
223.315	313
223.382	435
223.448	776
223.514	-383
223.580	935
223.647	661
223.713	784
223.779	186
223.845	842
223.911	-311
223.978	205
224.044	1325
224.110	251
224.176	767
224.242	627
224.309	-288
224.375	1050
224.441	504
224.507	443
224.573	247
224.639	686
224.705	-714
224.772	1525
224.838	514
224.904	1299
224.970	1087
225.036	1507
225.102	726
225.168	1922
225.234	736
225.300	1084
225.366	296
225.432	1144
225.499	488
225.565	753
225.631	1191
225.697	1481
225.763	2106
225.829	2230
225.895	1332
225.961	4184
226.027	2080
226.093	2145
226.159	2482
226.225	4989
226.291	11585
226.357	20334
226.423	10637
226.489	5144
226.554	4170
226.620	2840
226.686	3502
226.752	6525
226.818	9999
226.884	25205
226.950	22313
227.016	10082
227.082	5264
227.148	3834
227.214	2768
227.279	2934
227.345	514
227.411	2505
227.477	2499
227.543	6058
227.609	5109
227.674	2546
227.740	2179
227.806	2407
227.872	953
227.938	2828
228.003	1719
228.069	798
228.135	299
228.201	2018
228.267	1254
228.332	1442
228.398	2177
228.464	1804
228.530	602
228.595	732
228.661	399
228.727	2599
228.792	2291
228.858	560
228.924	-1128
228.990	3441
229.055	835
229.121	2534
229.187	544
229.252	1671
229.318	798
229.384	758
229.449	2049
229.515	-74
229.581	-118
229.646	2006
229.712	909
229.777	3562
229.843	3254
229.909	3637
229.974	2321
230.040	2702
230.105	1838
230.171	2570
230.236	2610
230.302	5392
230.368	3868
230.433	1695
230.499	2852
230.564	2987
230.630	346
230.695	1455
230.761	1399
230.826	-503
230.892	3543
230.957	711
231.023	1479
231.088	1148
231.154	930
231.219	2009
231.284	1925
231.350	3071
231.415	852
231.481	2203
231.546	2000
231.612	1808
231.677	515
231.742	189
231.808	2361
231.873	426
231.939	-973
232.004	3248
232.069	3590
232.135	1604
232.200	261
232.265	1778
232.331	1057
232.396	1315
232.461	133
232.527	818
232.592	260
232.657	1473
232.723	2052
232.788	1114
232.853	1626
232.918	507
232.984	32
233.049	649
233.114	1241
233.179	2788
233.245	3960
233.310	5208
233.375	369
233.440	1158
233.506	545
233.571	234
233.636	236
233.701	1023
233.766	2076
233.832	4843
233.897	770
233.962	836
234.027	2436
234.092	1963
234.157	997
234.222	531
234.288	1688
234.353	8802
234.418	7769
234.483	5022
234.548	2891
234.613	2729
234.678	2448
234.743	2132
234.808	9204
234.873	5807
234.938	2870
235.004	2364
235.069	829
235.134	1045
235.199	1677
235.264	1734
235.329	34
235.394	1647
235.459	2394
235.524	1014
235.589	1118
235.654	1906
235.719	1234
235.784	2086
235.849	1307
235.913	4837
235.978	5086
236.043	6229
236.108	2645
236.173	1890
236.238	2694
236.303	1336
236.368	803
236.433	3417
236.498	5835
236.563	3980
236.627	7968
236.692	30192
236.757	25382
236.822	10009
236.887	6791
236.952	6841
237.017	3266
237.081	5875
237.146	5505
237.211	13643
237.276	29150
237.341	49348
237.405	23845
237.470	10385
237.535	6545
237.600	4987
237.664	3298
237.729	2776
237.794	3566
237.859	9696
237.923	5446
237.988	3508
238.053	5266
238.118	4778
238.182	10621
238.247	12776
238.312	3660
238.376	3756
238.441	450
238.506	3093
238.570	1065
238.635	2688
238.700	1390
238.764	2044
238.829	4805
238.893	7076
238.958	3522
239.023	3085
239.087	1510
239.152	2670
239.216	498
239.281	2203
239.346	1311
239.410	1111
239.475	977
239.539	12053
239.604	9646
239.668	3157
239.733	1153
239.797	3574
239.862	9901
239.926	11428
239.991	4698
240.055	1573
240.120	940
240.184	2166
240.249	-30
240.313	1159
240.378	465
240.442	6199
240.507	11999
240.571	3713
240.635	4232
240.700	6314
240.764	2606
240.829	1734
240.893	593
240.957	2219
241.022	5494
241.086	11985
241.151	4861
241.215	1669
241.279	3655
241.344	5256
241.408	3229
241.472	1753
241.537	2833
241.601	2811
241.665	934
241.730	1942
241.794	2818
241.858	1632
241.922	2235
241.987	2751
242.051	640
242.115	1028
242.179	1646
242.244	1191
242.308	1778
242.372	2492
242.436	1699
242.501	3091
242.565	687
242.629	952
242.693	1739
242.757	820
242.822	1351
242.886	1755
242.950	2012
243.014	1157
243.078	1968
243.142	2244
243.206	1440
243.271	3113
243.335	1530
243.399	4066
243.463	14951
243.527	46036
243.591	14428
243.655	6208
243.719	2571
243.783	4453
243.847	6083
243.911	7836
243.975	8300
244.040	5288
244.104	3691
244.168	2572
244.232	3778
244.296	5835
244.360	7275
244.424	3265
244.488	2270
244.552	2259
244.615	308
244.679	2228
244.743	1703
244.807	2341
244.871	2395
244.935	1807
244.999	381
245.063	1436
245.127	2632
245.191	4964
245.255	4988
245.319	3096
245.383	1818
245.446	3218
245.510	1144
245.574	1793
245.638	2447
245.702	1013
245.766	6976
245.829	5382
245.893	1364
245.957	2539
246.021	2984
246.085	1945
246.149	2715
246.212	9510
246.276	12778
246.340	5781
246.404	3311
246.467	4994
246.531	6012
246.595	5316
246.659	3723
246.722	2257
246.786	3943
246.850	4923
246.913	5755
246.977	2002
247.041	1720
247.104	3178
247.168	3210
247.232	8448
247.295	17810
247.359	9692
247.423	3351
247.486	7928
247.550	4693
247.614	3247
247.677	4390
247.741	2923
247.804	2230
247.868	3291
247.932	6096
247.995	16780
248.059	6104
248.122	2678
248.186	4292
248.249	7169
248.313	26683
248.376	29782
248.440	18330
248.503	6176
248.567	5361
248.630	8173
248.694	11447
248.757	13953
248.821	30008
248.884	17911
248.948	14660
249.011	22283
249.075	33719
249.138	30811
249.202	11650
249.265	6722
249.328	8116
249.392	6481
249.455	5668
249.519	3677
249.582	4719
249.645	9688
249.709	6434
249.772	3653
249.835	3870
249.899	4668
249.962	4028
250.025	3410
250.089	10562
250.152	16067
250.215	6582
250.279	4783
250.342	6362
250.405	5172
250.468	3591
250.532	6618
250.595	10318
250.658	39948
250.721	71586
250.785	24968
250.848	12973
250.911	6750
250.974	6833
251.038	8085
251.101	18252
251.164	9831
251.227	9119
251.290	8513
251.354	13172
251.417	56589
251.480	59647
251.543	38050
251.606	104811
251.669	83598
251.732	30052
251.795	28391
251.859	29435
251.922	66381
251.985	40115
252.048	13898
252.111	9933
252.174	8479
252.237	16460
252.300	36257
252.363	40120
252.426	86021
252.489	36853
252.552	17263
252.615	9829
252.678	11702
252.741	26720
252.804	37279
252.867	87781
252.930	50863
252.993	23993
253.056	14358
253.119	9689
253.182	7917
253.245	16436
253.308	11864
253.371	9327
253.434	8704
253.497	7597
253.559	16899
253.622	10789
253.685	13151
253.748	14674
253.811	6398
253.874	7381
253.937	6892
254.000	5759
254.062	10010
254.125	16708
254.188	13403
254.251	13088
254.314	6924
254.376	10633
254.439	14172
254.502	10473
254.565	10841
254.628	20495
254.690	11576
254.753	6229
254.816	6097
254.878	5864
254.941	11239
255.004	13080
255.067	5337
255.129	4728
255.192	3276
255.255	1867
255.317	4049
255.380	3514
255.443	1538
255.505	1585
255.568	1947
255.631	1101
255.693	3079
255.756	991
255.819	2511
255.881	1334
255.944	1737
256.006	1148
256.069	2118
256.132	1991
256.194	3381
256.257	8759
256.319	7437
256.382	5456
256.444	3378
256.507	3118
256.569	1845
256.632	2407
256.694	5014
256.757	15701
256.819	49958
256.882	18627
256.944	7816
257.007	5710
257.069	5309
257.132	3199
257.194	3185
257.257	2138
257.319	2447
257.381	2670
257.444	10805
257.506	54185
257.569	64780
257.631	30232
257.693	16911
257.756	6940
257.818	5556
257.880	3356
257.943	3334
258.005	2128
258.067	2061
258.130	2447
258.192	3704
258.254	7328
258.317	5010
258.379	3649
258.441	9885
258.503	10140
258.566	12710
258.628	17128
258.690	3737
258.753	4148
258.815	7870
258.877	3811
258.939	2315
259.001	2254
259.064	1979
259.126	2833
259.188	4473
259.250	2680
259.312	4299
259.375	11275
259.437	7910
259.499	3062
259.561	1989
259.623	2812
259.685	2044
259.747	2340
259.809	11100
259.872	23643
259.934	33086
259.996	29008
260.058	6746
260.120	3055
260.182	3125
260.244	1947
260.306	1936
260.368	2007
260.430	1801
260.492	2885
260.554	8954
260.616	8198
260.678	16723
260.740	25667
260.802	5907
260.864	4352
260.926	2309
260.988	3051
261.050	2585
261.112	3974
261.174	18007
261.236	18604
261.298	5945
261.359	8661
261.421	14998
261.483	2300
261.545	3514
261.607	1136
261.669	2260
261.731	4419
261.793	16747
261.854	6846
261.916	4218
261.978	1596
262.040	2735
262.102	1792
262.164	5136
262.225	4256
262.287	2645
262.349	8497
262.411	7428
262.472	3270
262.534	4757
262.596	14500
262.658	3882
262.719	1625
262.781	3987
262.843	11730
262.904	6176
262.966	2945
263.028	4503
263.090	24346
263.151	73880
263.213	21695
263.275	9892
263.336	4528
263.398	2956
263.459	1253
263.521	2977
263.583	8604
263.644	5628
263.706	1670
263.767	393
263.829	1364
263.891	683
263.952	205
264.014	-191
264.075	733
264.137	2604
264.198	2211
264.260	780
264.321	63
264.383	4064
264.444	7213
264.506	1670
264.567	1145
264.629	2321
264.690	2469
264.752	2032
264.813	1468
264.875	586
264.936	2035
264.998	630
265.059	734
265.120	1998
265.182	3531
265.243	24380
265.305	26835
265.366	4836
265.427	3097
265.489	2694
265.550	743
265.611	2154
265.673	1398
265.734	714
265.795	936
265.857	1034
265.918	474
265.979	6173
266.040	40670
266.102	36012
266.163	8728
266.224	5398
266.286	2648
266.347	1835
266.408	1985
266.469	2538
266.530	928
266.592	957
266.653	3556
266.714	8948
266.775	2244
266.836	1362
266.898	-152
266.959	886
267.020	1157
267.081	2126
267.142	799
267.203	1137
267.264	465
267.326	1480
267.387	989
267.448	351
267.509	736
267.570	1275
267.631	637
267.692	62
267.753	296
267.814	1501
267.875	4140
267.936	11627
267.997	3373
268.058	3347
268.119	1978
268.180	1045
268.241	1001
268.302	777
268.363	748
268.424	1451
268.485	854
268.546	423
268.607	140
268.668	272
268.729	231
268.790	893
268.851	227
268.912	5517
268.972	8231
269.033	3791
269.094	682
269.155	1407
269.216	669
269.277	1752
269.338	1089
269.398	908
269.459	1018
269.520	2799
269.581	4105
269.642	5506
269.702	2162
269.763	1355
269.824	592
269.885	2236
269.945	4494
270.006	1881
270.067	647
270.128	898
270.188	-192
270.249	825
270.310	607
270.370	963
270.431	-132
270.492	215
270.553	1007
270.613	4861
270.674	11031
270.734	5262
270.795	1709
270.856	2795
270.916	2040
270.977	1523
271.038	2308
271.098	3253
271.159	3601
271.219	4627
271.280	1008
271.340	794
271.401	1660
271.462	7343
271.522	2458
271.583	1545
271.643	2364
271.704	1598
271.764	2520
271.825	7353
271.885	24845
271.946	36314
272.006	10627
272.066	14474
272.127	28003
272.187	8743
272.248	3501
272.308	4797
272.369	18246
272.429	10426
272.489	6367
272.550	5980
272.610	7032
272.671	5756
272.731	4224
272.791	8790
272.852	3723
272.912	3912
272.972	1342
273.033	1945
273.093	4072
273.153	3228
273.214	892
273.274	2967
273.334	10783
273.394	28982
273.455	9854
273.515	9743
273.575	24132
273.635	9871
273.696	10946
273.756	26218
273.816	9377
273.876	5307
273.936	10743
273.997	23300
274.057	4245
274.117	3415
274.177	5730
274.237	32253
274.297	28233
274.358	18271
274.418	22491
274.478	17021
274.538	5446
274.598	4262
274.658	18034
274.718	24653
274.778	8762
274.838	3523
274.898	8627
274.958	33298
275.018	27348
275.078	17945
275.138	6717
275.198	2932
275.258	1330
275.318	2896
275.378	6581
275.438	7653
275.498	4287
275.558	13299
275.618	32755
275.678	21472
275.738	11191
275.798	7539
275.858	3764
275.918	2046
275.978	1950
276.038	2224
276.098	1339
276.157	5388
276.217	19231
276.277	8863
276.337	5126
276.397	2777
276.457	2732
276.517	3223
276.576	1606
276.636	952
276.696	3382
276.756	10814
276.815	7242
276.875	2541
276.935	3615
276.995	3708
277.055	643
277.114	2605
277.174	2721
277.234	16644
277.293	6362
277.353	3043
277.413	1594
277.472	2149
277.532	1532
277.592	2463
277.651	10155
277.711	21341
277.771	6282
277.830	25830
277.890	21780
277.950	13343
278.009	46266
278.069	17293
278.128	14539
278.188	20862
278.248	9520
278.307	21773
278.367	14567
278.426	4453
278.486	2412
278.545	1982
278.605	1584
278.664	1605
278.724	1675
278.783	8406
278.843	28400
278.902	8668
278.962	3687
279.021	3814
279.081	3052
279.140	3448
279.199	3216
279.259	3420
279.318	3727
279.378	4226
279.437	9113
279.496	42357
279.556	118930
279.615	100561
279.675	22778
279.734	13240
279.793	19138
279.853	34348
279.912	12438
279.971	5732
280.031	5076
280.090	12823
280.149	24068
280.208	15700
280.268	76066
280.327	89009
280.386	18521
280.445	15438
280.505	14493
280.564	5473
280.623	3308
280.682	7903
280.742	14638
280.801	3925
280.860	2031
280.919	2315
280.978	1896
281.037	1255
281.097	836
281.156	1007
281.215	965
281.274	2995
281.333	17853
281.392	14426
281.451	1859
281.510	1507
281.569	1214
281.628	1648
281.688	270
281.747	1715
281.806	1047
281.865	1555
281.924	859
281.983	1903
282.042	312
282.101	748
282.160	-245
282.219	720
282.278	558
282.337	10031
282.396	7024
282.454	1712
282.513	2027
282.572	15732
282.631	8427
282.690	2384
282.749	921
282.808	1615
282.867	975
282.926	2048
282.985	156
283.043	1202
283.102	590
283.161	1368
283.220	5815
283.279	18691
283.338	5162
283.396	1584
283.455	1223
283.514	2457
283.573	4585
283.631	3295
283.690	821
283.749	1269
283.808	5507
283.866	7411
283.925	1040
283.984	1964
284.043	1662
284.101	3563
284.160	560
284.219	1644
284.277	1344
284.336	3994
284.395	20197
284.453	18365
284.512	4924
284.570	6816
284.629	4537
284.688	4048
284.746	3055
284.805	5062
284.863	5448
284.922	7309
284.981	8003
285.039	12649
285.098	24237
285.156	64123
285.215	159538
285.273	155206
285.332	74548
285.390	36368
285.449	21171
285.507	14629
285.566	9968
285.624	7509
285.683	4702
285.741	3740
285.799	2075
285.858	3582
285.916	2973
285.975	1771
286.033	1240
286.091	1536
286.150	171
286.208	1345
286.267	1216
286.325	2130
286.383	4885
286.442	3711
286.500	1092
286.558	1412
286.616	460
286.675	1803
286.733	1854
286.791	1282
286.850	1831
286.908	3005
286.966	7110
287.024	2481
287.083	1055
287.141	645
287.199	618
287.257	2933
287.315	1563
287.374	1824
287.432	8135
287.490	5322
287.548	1779
287.606	2922
287.664	1909
287.723	2676
287.781	3255
287.839	2660
287.897	2490
287.955	4706
288.013	7569
288.071	20523
288.129	79599
288.187	229938
288.245	106167
288.303	32017
288.361	18417
288.419	12354
288.477	7060
288.535	5253
288.593	3561
288.651	2261
288.709	1597
288.767	1780
288.825	890
288.883	368
288.941	-604
288.999	778
289.057	708
289.115	80
289.173	-101
289.231	16
289.289	700
289.346	320
289.404	798
289.462	4164
289.520	3295
289.578	1325
289.636	-544
289.694	262
289.751	50
289.809	-385
289.867	-14
289.925	1556
289.983	1669
290.040	886
290.098	14
290.156	748
290.214	1113
290.271	283
290.329	-929
290.387	-97
290.444	-484
290.502	-5
290.560	-553
290.617	-246
290.675	193
290.733	-11
290.790	244
290.848	116
290.906	-403
290.963	-74
291.021	-662
291.078	-82
291.136	105
291.194	4095
291.251	13379
291.309	3731
291.366	65
291.424	780
291.481	298
291.539	404
291.596	-788
291.654	-93
291.711	-1096
291.769	51
291.826	3605
291.884	2051
291.941	-181
291.999	-625
292.056	311
292.114	1460
292.171	221
292.228	503
292.286	239
292.343	3512
292.401	4630
292.458	2268
292.515	666
292.573	2511
292.630	1403
292.687	1462
292.745	1932
292.802	1352
292.859	4819
292.917	16644
292.974	9489
293.031	2720
293.089	597
293.146	654
293.203	-177
293.260	749
293.318	323
293.375	1500
293.432	-85
293.489	295
293.546	-164
293.604	2040
293.661	8462
293.718	27792
293.775	11377
293.832	5580
293.889	2958
293.947	3583
294.004	2178
294.061	2300
294.118	5736
294.175	12129
294.232	7150
294.289	3428
294.346	1634
294.403	1698
294.460	1600
294.517	327
294.574	-54
294.631	792
294.688	539
294.745	5785
294.802	25105
294.859	21896
294.916	7242
294.973	5039
295.030	4146
295.087	3665
295.144	1773
295.201	2057
295.258	-73
295.315	2737
295.372	10734
295.429	23930
295.486	8681
295.542	3021
295.599	4286
295.656	7999
295.713	9765
295.770	21038
295.827	6871
295.883	2535
295.940	2101
295.997	5244
296.054	4414
296.111	1912
296.167	1344
296.224	1435
296.281	-499
296.338	-238
296.394	267
296.451	1232
296.508	7575
296.564	18891
296.621	10056
296.678	21880
296.734	34601
296.791	10276
296.848	5073
296.904	6243
296.961	14963
297.018	26389
297.074	18019
297.131	5245
297.187	4082
297.244	7240
297.301	24034
297.357	50246
297.414	15761
297.470	5388
297.527	3456
297.583	1873
297.640	1773
297.696	1868
297.753	860
297.809	163
297.866	-319
297.922	506
297.979	-7
298.035	783
298.092	3614
298.148	15001
298.204	14526
298.261	5573
298.317	9179
298.374	28387
298.430	17250
298.486	6092
298.543	4368
298.599	4171
298.656	2810
298.712	10283
298.768	28077
298.824	21849
298.881	4706
298.937	2823
298.993	1484
299.050	3869
299.106	1778
299.162	1049
299.218	1953
299.275	1305
299.331	1561
299.387	6847
299.443	24694
299.500	32002
299.556	12633
299.612	4766
299.668	3576
299.724	7288
299.780	8608
299.837	4486
299.893	5967
299.949	24206
300.005	33033
300.061	23796
300.117	38958
300.173	18879
300.229	6932
300.285	8522
300.341	9688
300.397	4780
300.453	1949
300.510	2452
300.566	2283
300.622	4413
300.678	15180
300.734	31896
300.790	24801
300.845	30501
300.901	18791
300.957	27698
301.013	21337
301.069	6043
301.125	3738
301.181	5241
301.237	2856
301.293	960
301.349	653
301.405	205
301.461	-367
301.516	883
301.572	632
301.628	4939
301.684	4936
301.740	8091
301.796	15302
301.851	9449
301.907	16543
301.963	18840
302.019	27509
302.074	76764
302.130	76580
302.186	32016
302.242	12205
302.297	7963
302.353	7229
302.409	16107
302.464	13538
302.520	11393
302.576	26667
302.631	33624
302.687	17746
302.743	7131
302.798	2822
302.854	2833
302.910	1878
302.965	3704
303.021	7152
303.076	7380
303.132	8535
303.187	12045
303.243	4893
303.299	1912
303.354	1243
303.410	1744
303.465	450
303.521	960
303.576	876
303.632	2427
303.687	5864
303.743	22983
303.798	20533
303.853	7085
303.909	2496
303.964	2713
304.020	4517
304.075	9314
304.130	6822
304.186	14569
304.241	15812
304.297	12747
304.352	4826
304.358	4545
304.407	2269
304.449	2222
304.463	2206
304.518	2790
304.539	2427
304.573	1842
304.629	2689
304.630	2729
304.684	4815
304.720	12792
304.739	16780
304.794	28764
304.811	24347
304.850	13629
304.902	5282
304.905	4754
304.960	2463
304.992	2651
305.015	2804
305.071	2884
305.083	2573
305.126	1450
305.173	800
305.181	700
305.236	806
305.264	1154
305.292	1548
305.347	1971
305.354	2038
305.402	2291
305.445	1931
305.457	1875
305.512	3825
305.535	4093
305.567	4364
305.622	4168
305.626	4363
305.678	9772
305.716	22195
305.733	26492
305.788	33075
305.807	28157
305.843	19813
305.897	24226
305.898	24252
305.953	25321
305.988	16235
306.008	11415
306.063	5982
306.078	5056
306.118	2913
306.168	2666
306.173	2668
306.228	1262
306.259	1333
306.283	1348
306.338	1174
306.349	1307
306.393	2098
306.440	2009
306.448	1927
306.503	2219
306.530	1956
306.558	2467
306.613	6503
306.620	7146
306.668	13590
306.711	23985
306.723	25246
306.778	21228
306.801	16120
306.833	10222
306.888	4172
306.892	3969
306.943	3046
306.982	2172
306.997	1861
307.052	1144
307.072	1124
307.107	1391
307.162	2517
307.163	2516
307.217	2536
307.253	3069
307.272	3319
307.327	3492
307.343	3426
307.381	3198
307.434	3453
307.436	3660
307.491	9141
307.524	14204
307.546	15797
307.600	21406
307.614	19588
307.655	11734
307.704	5175
307.710	4851
307.765	4782
307.795	5195
307.819	5762
307.874	7779
307.885	7953
307.929	7629
307.975	7261
307.984	7652
308.038	12936
308.065	17421
308.093	31162
308.148	67432
308.156	76394
308.202	123869
308.246	156689
308.257	154992
308.312	84270
308.336	59178
308.366	43402
308.421	28283
308.426	26958
308.475	16459
308.517	10761
308.530	9688
308.585	7654
308.607	6969
308.639	6483
308.694	5860
308.697	5850
308.748	7817
308.787	10872
308.803	10916
308.857	8438
308.877	7588
308.912	7468
308.967	8289
308.967	8316
309.021	13245
309.058	17291
309.076	22813
309.130	44667
309.148	53827
309.185	98902
309.238	176967
309.239	177476
309.293	200075
309.328	182361
309.348	157108
309.402	72983
309.418	53000
309.457	35296
309.508	21334
309.511	20886
309.566	18568
309.598	17885
309.620	20776
309.674	29966
309.688	32564
309.729	29870
309.778	22717
309.783	22146
309.837	16421
309.868	13413
309.892	17588
309.946	29964
309.959	33667
310.001	45334
310.049	55697
310.055	53653
310.109	29947
310.139	16326
310.163	12323
310.218	6854
310.229	5826
310.272	4168
310.319	3183
310.326	3127
310.381	2707
310.409	2553
310.435	2386
310.489	1782
310.499	1750
310.543	1871
310.589	1801
310.598	1790
310.652	1848
310.679	1828
310.706	1873
310.760	1971
310.769	1967
310.814	1622
310.859	1395
310.868	1484
310.923	1849
310.948	2065
310.977	2470
311.031	3188
311.038	3282
311.085	2948
311.128	2475
311.139	2483
311.193	2572
311.218	2586
311.247	2494
311.301	2397
311.308	2348
311.356	1804
311.398	1521
311.410	1641
311.464	1967
311.488	2134
311.518	2116
311.572	2044
311.578	2039
311.626	3802
311.668	5282
311.680	5039
311.734	3751
311.758	3192
311.788	3164
311.842	3096
311.847	3073
311.896	3582
311.937	4060
311.950	4111
312.004	4249
312.027	4301
312.058	3713
312.112	2622
312.117	2510
312.165	2386
312.207	2276
312.297	2064
312.386	2216
312.476	3408
312.566	8735
312.656	4264
312.745	1668
312.835	2247
312.925	2448
313.015	1670
313.104	1698
313.194	2287
313.284	3091
313.374	3597
313.463	4463
313.553	2643
313.643	3093
313.732	1524
313.822	1627
313.912	3523
314.001	3776
314.091	2433
314.180	3002
314.270	5026
314.360	4649
314.449	4798
314.539	2383
314.628	2332
314.718	2976
314.808	2590
314.897	3490
314.987	2944
315.076	4779
315.166	5547
315.255	4399
315.345	5393
315.434	4114
315.524	3066
315.613	5456
315.703	7791
315.792	12104
315.881	39812
315.971	13368
316.060	9364
316.150	7763
316.239	6944
316.328	3900
316.418	2714
316.507	2983
316.597	5105
316.686	4198
316.775	4291
316.865	6156
316.954	3226
317.043	2097
317.133	2321
317.222	2845
317.311	2120
317.400	2611
317.490	5827
317.579	6071
317.668	4125
317.757	8446
317.847	19640
317.936	70765
318.025	26652
318.114	15693
318.203	8184
318.293	7816
318.382	10879
318.471	10701
318.560	10195
318.649	13572
318.738	4242
318.828	5733
318.917	5814
319.006	4422
319.095	8747
319.184	22001
319.273	19987
319.362	16140
319.451	4930
319.540	5009
319.629	11302
319.718	21739
319.807	5943
319.896	9628
319.985	29852
320.074	16343
320.163	3413
320.252	4768
320.341	3058
320.430	4243
320.519	8659
320.608	4507
320.697	3639
320.786	4090
320.875	7312
320.964	10016
321.053	15070
321.142	21973
321.230	22341
321.319	13973
321.408	34821
321.497	13824
321.586	14004
321.675	10617
321.764	10940
321.852	7666
321.941	20005
322.030	13976
322.119	12005
322.207	37226
322.296	14469
322.385	8870
322.474	14871
322.562	47941
322.651	21984
322.740	16269
322.829	20319
322.917	11481
323.006	11084
323.095	10607
323.183	5421
323.272	8727
323.361	12974
323.449	29127
323.538	10201
323.626	20968
323.715	12776
323.804	5508
323.892	17736
323.981	14650
324.069	4023
324.158	8409
324.246	8967
324.335	6751
324.424	13615
324.512	5010
324.601	5762
324.689	9274
324.778	14350
324.866	9775
324.954	2535
325.043	3636
325.131	5608
325.220	7169
325.308	8091
325.397	9104
325.485	5554
325.574	2412
325.662	2773
325.750	3455
325.839	3324
325.927	2466
326.015	3165
326.104	3109
326.192	4401
326.280	2186
326.369	2958
326.457	5755
326.545	11381
326.634	4657
326.722	2098
326.810	2937
326.898	2491
326.987	4102
327.075	8309
327.163	7342
327.251	2957
327.340	6532
327.428	7329
327.516	3265
327.604	2099
327.692	2251
327.781	1688
327.869	3941
327.957	3592
328.045	4485
328.133	1471
328.221	2013
328.309	2791
328.397	3402
328.485	4587
328.574	6971
328.662	24705
328.750	10644
328.838	2526
328.926	3074
329.014	2254
329.102	4329
329.190	7629
329.278	6293
329.366	2007
329.454	2438
329.542	2021
329.630	2090
329.718	2201
329.806	3964
329.893	2823
329.981	1585
330.069	4360
330.157	14117
330.245	41764
330.333	21031
330.421	4474
330.509	6768
330.597	30291
330.684	17785
330.772	4263
330.860	2949
330.948	3524
331.036	2679
331.123	1361
331.211	2145
331.299	2026
331.387	3593
331.475	5900
331.562	2729
331.650	1437
331.738	2759
331.825	1851
331.913	2188
332.001	1448
332.089	2778
332.176	3123
332.264	6285
332.352	6165
332.439	2900
332.527	2026
332.614	1603
332.702	2477
332.790	2066
332.877	4575
332.965	8342
333.052	3168
333.140	3777
333.228	8543
333.315	2596
333.403	2191
333.490	4151
333.578	5734
333.665	13079
333.753	6206
333.840	2509
333.928	2677
334.015	5735
334.103	7605
334.190	24369
334.278	8139
334.365	5351
334.452	5895
334.540	3832
334.627	2891
334.715	4348
334.802	8130
334.889	30517
334.977	37660
335.064	11224
335.151	4395
335.239	3826
335.326	4474
335.413	12038
335.501	16168
335.588	4258
335.675	2715
335.762	3645
335.850	4888
335.937	6797
336.024	13392
336.111	40334
336.199	27158
336.286	8344
336.373	4002
336.460	2651
336.547	2130
336.635	3893
336.722	3312
336.809	2364
336.896	4682
336.983	10464
337.070	19194
337.157	26588
337.245	17490
337.332	12575
337.419	2254
337.506	2228
337.593	1871
337.680	4851
337.767	12838
337.854	5362
337.941	6103
338.028	7100
338.115	2369
338.202	4300
338.289	5308
338.376	19773
338.463	7252
338.550	7455
338.637	7837
338.724	4014
338.811	5673
338.898	1526
338.984	1452
339.071	1476
339.158	4308
339.245	13327
339.332	6658
339.419	4650
339.506	4292
339.593	1445
339.679	2836
339.766	2271
339.853	3316
339.940	9690
340.027	2953
340.113	3739
340.200	5468
340.287	3116
340.374	4058
340.460	9477
340.547	3292
340.634	7854
340.720	30124
340.807	17487
340.894	2712
340.980	2787
341.067	2198
341.154	2987
341.240	5040
341.327	14616
341.414	3827
341.500	2789
341.587	3498
341.674	2695
341.760	8699
341.847	11878
341.933	2918
342.020	1471
342.106	1816
342.193	3355
342.279	7117
342.366	5465
342.452	10038
342.539	5398
342.625	12637
342.712	32871
342.798	12610
342.885	4835
342.971	1851
343.058	2035
343.144	1315
343.230	2750
343.317	2388
343.403	1885
343.490	1030
343.576	1760
343.662	2312
343.749	3662
343.835	3951
343.921	9572
344.008	51954
344.094	117627
344.180	25836
344.267	10823
344.353	34057
344.439	33169
344.525	13500
344.612	5315
344.698	3616
344.784	2994
344.870	2070
344.957	3045
345.043	5828
345.129	3707
345.215	8121
345.301	5030
345.387	2488
345.474	1176
345.560	1067
345.646	1588
345.732	1693
345.818	2748
345.904	2580
345.990	3226
346.076	1294
346.162	3667
346.249	2584
346.335	1333
346.421	3069
346.507	14638
346.593	51565
346.679	11256
346.765	3239
346.851	3091
346.937	2916
347.023	3287
347.108	2728
347.194	2370
347.280	2597
347.366	4225
347.452	16025
347.538	60754
347.624	43841
347.710	33855
347.796	3630
347.882	3135
347.967	1844
348.053	1941
348.139	1040
348.225	2701
348.311	2316
348.397	2278
348.482	2858
348.568	4963
348.654	2293
348.740	4374
348.825	3862
348.911	7482
348.997	26127
349.083	52746
349.168	6508
349.254	2777
349.340	2139
349.425	1417
349.511	3756
349.597	4558
349.682	10896
349.768	36498
349.854	16347
349.939	2241
350.025	1067
350.110	1573
350.196	1969
350.282	826
350.367	1311
350.453	1765
350.538	2685
350.624	3184
350.709	2869
350.795	1283
350.880	1745
350.966	3154
351.051	2748
351.137	2160
351.222	3217
351.308	10297
351.393	32371
351.479	7239
351.564	1459
351.649	2746
351.735	1941
351.820	1369
351.906	2773
351.991	3796
352.076	19616
352.162	32041
352.247	5434
352.332	4374
352.418	6199
352.503	9801
352.588	45714
352.673	36158
352.759	7895
352.844	3517
352.929	3555
353.014	6923
353.100	3215
353.185	8089
353.270	11409
353.355	11630
353.441	2882
353.526	2985
353.611	10118
353.696	11938
353.781	7173
353.866	1979
353.952	3897
354.037	9436
354.122	23768
354.207	21456
354.292	6990
354.377	2903
354.462	2532
354.547	4223
354.632	3412
354.717	5395
354.802	8531
354.887	3962
354.972	2656
355.057	2200
355.142	1740
355.227	3623
355.312	6419
355.397	13950
355.482	37688
355.567	16682
355.652	12120
355.737	13451
355.822	43213
355.907	33781
355.991	5849
356.076	2669
356.161	2528
356.246	2101
356.331	2890
356.416	8725
356.501	65487
356.585	66737
356.670	8256
356.755	7160
356.840	9745
356.924	46141
357.009	161656
357.094	58835
357.179	12285
357.263	8984
357.348	7901
357.433	7087
357.517	7700
357.602	5841
357.687	4037
357.771	5717
357.856	6208
357.941	8044
358.025	32925
358.110	145850
358.195	64927
358.279	10305
358.364	8198
358.448	30509
358.533	81957
358.617	57423
358.702	56630
358.787	20011
358.871	10824
358.956	8832
359.040	3514
359.125	2598
359.209	2768
359.294	3018
359.378	4250
359.462	8646
359.547	4956
359.631	2663
359.716	1521
359.800	1455
359.885	3670
359.969	3156
360.053	2817
360.138	3316
360.222	5020
360.306	10850
360.391	7214
360.475	9121
360.559	21831
360.644	28832
360.728	20531
360.812	35994
360.896	99987
360.981	37234
361.065	17602
361.149	6570
361.233	5724
361.318	4264
361.402	5074
361.486	5091
361.570	2773
361.654	6053
361.739	13781
361.823	63603
361.907	97238
361.991	16572
362.075	9944
362.159	21891
362.243	15566
362.327	16617
362.411	24427
362.495	9976
362.580	4602
362.664	3607
362.748	2349
362.832	6097
362.916	8640
363.000	38931
363.084	102420
363.168	122718
363.252	26542
363.336	9327
363.420	8913
363.503	20185
363.587	20558
363.671	6548
363.755	5267
363.839	10347
363.923	3423
364.007	11885
364.091	10982
364.175	9253
364.258	35920
364.342	43406
364.426	86657
364.510	46240
364.594	16415
364.677	17997
364.761	86997
364.845	59324
364.929	19965
365.013	15312
365.096	12287
365.180	14123
365.264	7969
365.347	29961
365.431	11961
365.515	4363
365.598	3082
365.682	3347
365.766	1497
365.849	3440
365.933	3783
366.017	4390
366.100	1381
366.184	1090
366.267	2292
366.351	2824
366.435	1781
366.518	1732
366.602	1377
366.685	3087
366.769	3266
366.852	4187
366.936	9535
367.019	6668
367.103	1785
367.186	4280
367.270	2310
367.353	828
367.436	1879
367.520	2550
367.603	3892
367.687	5706
367.770	12710
367.853	8109
367.937	25203
368.020	42741
368.104	8638
368.187	10059
368.270	13833
368.353	10938
368.437	10885
368.520	12750
368.603	13674
368.687	29818
368.770	58390
368.853	12680
368.936	10052
369.020	7757
369.103	2638
369.186	1495
369.269	1691
369.352	7764
369.436	10504
369.519	6717
369.602	1868
369.685	4729
369.768	2971
369.851	3487
369.934	1639
370.018	3318
370.101	9540
370.184	7932
370.267	3830
370.350	7731
370.433	12530
370.516	43425
370.599	59600
370.682	17208
370.765	29734
370.848	36963
370.931	69740
371.014	23245
371.097	4100
371.180	3594
371.263	1725
371.346	452
371.429	1766
371.511	1887
371.594	5668
371.677	7827
371.760	5672
371.843	8655
371.926	48395
372.009	112537
372.091	34448
372.174	23071
372.257	61562
372.340	21003
372.423	9581
372.505	9886
372.588	5193
372.671	20659
372.754	71758
372.836	32671
372.919	9333
373.002	14960
373.085	7946
373.167	10348
373.250	28312
373.332	64254
373.415	80116
373.498	163195
373.580	56735
373.663	82055
373.746	104398
373.828	22987
373.911	8599
373.993	6556
374.076	14567
374.159	13415
374.241	14970
374.324	59638
374.406	37238
374.489	45564
374.571	134730
374.654	53406
374.736	24162
374.819	81438
374.901	116813
374.983	118387
375.066	19866
375.148	5806
375.231	12764
375.313	25101
375.395	10921
375.478	4797
375.560	3177
375.643	5690
375.725	22884
375.807	104172
375.890	65834
375.972	15226
376.054	10404
376.136	11397
376.219	6579
376.301	29682
376.383	95392
376.465	33964
376.548	21596
376.630	26218
376.712	82051
376.794	35051
376.877	3704
376.959	1707
377.041	2753
377.123	2721
377.205	2035
377.287	1017
377.369	1934
377.452	3163
377.534	2141
377.616	2927
377.698	1944
377.780	1726
377.862	2364
377.944	3405
378.026	37
378.108	2594
378.190	1253
378.272	2397
378.354	832
378.436	1200
378.518	1921
378.600	9987
378.682	13224
378.764	42394
378.846	31628
378.928	6995
379.010	10982
379.091	6286
379.173	3003
379.255	1080
379.337	3734
379.419	18609
379.501	59411
379.583	21581
379.664	4639
379.746	13397
379.828	40621
379.910	55748
379.991	48862
380.073	7352
380.155	3562
380.237	2885
380.318	1628
380.400	1941
380.482	8220
380.564	13439
380.645	12985
380.727	11795
380.809	6252
380.890	3988
380.972	2286
381.053	3250
381.135	3938
381.217	12006
381.298	42687
381.380	18405
381.461	14580
381.543	80018
381.624	95570
381.706	15385
381.787	6453
381.869	7551
381.951	30496
382.032	123983
382.113	75452
382.195	12697
382.276	9395
382.358	22931
382.439	67794
382.521	75589
382.602	118487
382.684	48465
382.765	95317
382.846	86470
382.928	106664
383.009	55744
383.090	34151
383.172	150783
383.253	237756
383.334	80273
383.416	105557
383.497	50519
383.578	16007
383.659	29383
383.741	123475
383.822	356548
383.903	173581
383.984	69017
384.066	135092
384.147	80385
384.228	14853
384.309	11160
384.390	7178
384.471	4263
384.553	5130
384.634	8069
384.715	9769
384.796	3869
384.877	6163
384.958	36413
385.039	44320
385.120	14706
385.201	5954
385.282	5183
385.363	4440
385.444	4456
385.525	10830
385.606	50515
385.687	42864
385.768	8304
385.849	9186
385.930	53826
386.011	91772
386.092	22294
386.173	5375
386.254	3600
386.335	3410
386.416	4783
386.496	22044
386.577	38855
386.658	10794
386.739	4696
386.820	4031
386.901	2409
386.981	3367
387.062	3815
387.143	8342
387.224	40630
387.304	35479
387.385	11451
387.466	4216
387.547	5928
387.627	5331
387.708	14768
387.789	71444
387.869	84554
387.950	21003
388.031	3784
388.111	-424
388.192	4236
388.273	5764
388.353	4605
388.434	4407
388.514	11816
388.595	60702
388.676	80239
388.756	38555
388.837	37642
388.917	22309
388.998	2747
389.078	3900
389.159	3785
389.239	1548
389.320	6595
389.400	3838
389.480	12860
389.561	40350
389.641	19135
389.722	6207
389.802	11008
389.883	16542
389.963	48899
390.043	24712
390.124	4599
390.204	10843
390.284	45618
390.365	25237
390.445	18790
390.525	70651
390.605	70554
390.686	22234
390.766	8458
390.846	3370
390.927	2934
391.007	1687
391.087	3789
391.167	4221
391.247	3036
391.328	3945
391.408	4563
391.488	4113
391.568	550
391.648	4779
391.728	8710
391.808	7358
391.888	7425
391.969	20778
392.049	36272
392.129	12510
392.209	15587
392.289	48501
392.369	23125
392.449	8590
392.529	8349
392.609	9634
392.689	14392
392.769	47445
392.849	40597
392.929	24743
393.009	62389
393.089	54400
393.169	55174
393.248	175279
393.328	602345
393.408	616730
393.488	181427
393.568	53482
393.648	25686
393.728	14470
393.807	10316
393.887	9141
393.967	7643
394.047	8137
394.127	11331
394.206	15225
394.286	53776
394.366	243205
394.446	243926
394.525	49662
394.605	12827
394.685	8631
394.764	12880
394.844	18829
394.924	15437
395.003	8572
395.083	6793
395.163	5744
395.242	5550
395.322	5597
395.402	2712
395.481	5925
395.561	8928
395.640	27681
395.720	31759
395.799	24139
395.879	18686
395.958	18590
396.038	76763
396.117	316750
396.197	326125
396.276	78890
396.356	24148
396.435	15879
396.515	16322
396.594	23672
396.673	47506
396.753	181744
396.832	545964
396.912	396975
396.991	97538
397.070	28472
397.150	13840
397.229	10725
397.308	15523
397.388	26613
397.467	12836
397.546	4735
397.625	2483
397.705	6377
397.784	6510
397.863	2936
397.942	1663
398.022	2507
398.101	4612
398.180	13920
398.259	7528
398.338	3500
398.417	3447
398.497	776
398.576	2778
398.655	1357
398.734	2132
398.813	1708
398.892	5377
398.971	15893
399.050	7157
399.129	327
399.208	1539
399.287	900
399.366	802
399.445	545
399.524	1635
399.603	-189
399.682	4604
399.761	10467
399.840	20232
399.919	13573
399.998	1417
400.077	-472
400.156	251
400.235	2720
400.313	168
400.392	1394
400.471	20698
400.550	35100
400.629	7394
400.708	1889
400.786	421
400.865	1890
400.944	2814
401.023	4353
401.102	-93
401.180	-654
401.259	623
401.338	375
401.416	2549
401.495	1726
401.574	81
401.652	-111
401.731	2592
401.810	316
401.888	358
401.967	13
402.046	1740
402.124	2315
402.203	2284
402.281	1262
402.360	2260
402.438	4227
402.517	1105
402.596	1076
402.674	41
402.753	-258
402.831	447
402.910	1936
402.988	13244
403.066	52096
403.145	28917
403.223	14829
403.302	43044
403.380	31036
403.459	32058
403.537	10449
403.615	2559
403.694	-183
403.772	790
403.850	355
403.929	163
404.007	-34
404.085	5617
404.164	5107
404.242	1035
404.320	2342
404.398	8146
404.477	20247
404.555	101077
404.633	83951
404.711	12096
404.789	2919
404.868	2531
404.946	295
405.024	618
405.102	89
405.180	-107
405.258	-851
405.336	729
405.415	-995
405.493	3137
405.571	3382
405.649	164
405.727	-588
405.805	2106
405.883	2330
405.961	1829
406.039	251
406.117	-297
406.195	3626
406.273	20241
406.351	87911
406.429	47509
406.507	2936
406.585	-256
406.663	1507
406.740	3463
406.818	2054
406.896	94
406.974	1391
407.052	4830
407.130	49308
407.208	72464
407.285	12571
407.363	1143
407.441	813
407.519	350
407.596	852
407.674	6763
407.752	21161
407.830	15275
407.907	4165
407.985	1090
408.063	444
408.141	893
408.218	1645
408.296	1727
408.373	2038
408.451	3183
408.529	1878
408.606	15
408.684	-502
408.762	384
408.839	-606
408.917	107
408.994	-351
409.072	-187
409.149	-221
409.227	2717
409.304	2671
409.382	2752
409.459	3407
409.537	6193
409.614	5006
409.692	2787
409.769	2851
409.846	6942
409.924	7711
410.001	3045
410.079	2083
410.156	2096
410.233	1623
410.311	943
410.388	89
410.465	966
410.543	-161
410.620	1505
410.697	843
410.775	1715
410.852	-1192
410.929	2082
411.006	2858
411.083	663
411.161	862
411.238	2304
411.315	636
411.392	160
411.469	1458
411.547	752
411.624	-2166
411.701	42
411.778	801
411.855	5859
411.932	1258
412.009	-268
412.086	207
412.163	75
412.240	-330
412.317	1014
412.394	-53
412.471	100
412.548	-939
412.625	687
412.702	601
412.779	2661
412.856	794
412.933	-626
413.010	-655
413.087	1658
413.164	16852
413.241	26902
413.318	4782
413.395	2252
413.471	3899
413.548	1291
413.625	692
413.702	157
413.779	-686
413.855	-499
413.932	-1246
414.009	-1693
414.086	-1408
414.162	-710
414.239	2263
414.316	16416
414.393	44431
414.469	13748
414.546	315
414.623	-593
414.699	-652
414.776	376
414.853	-492
414.929	637
415.006	-510
415.082	128
415.159	-933
415.236	-719
415.312	190
415.389	3306
415.465	4229
415.542	2191
415.618	-581
415.695	2885
415.771	689
415.848	904
415.924	122
416.000	-610
416.077	-851
416.153	-1175
416.230	-2103
416.306	-1312
416.383	-858
416.459	-455
416.535	-871
416.612	-1111
416.688	-658
416.764	-944
416.841	-1344
416.917	-1019
416.993	-462
417.069	337
417.146	382
417.222	1791
417.298	705
417.374	-8
417.451	1118
417.527	895
417.603	1191
417.679	1061
417.755	339
417.831	-1299
417.908	-1167
417.984	-1621
418.060	-1693
418.136	3578
418.212	5317
418.288	1055
418.364	-37
418.440	493
418.516	1539
418.592	1323
418.668	5862
418.744	12517
418.820	7637
418.896	481
418.972	-1240
419.048	-556
419.124	4829
419.200	2426
419.276	317
419.352	-837
419.428	-536
419.504	672
419.579	1234
419.655	408
419.731	16
419.807	7447
419.883	14630
419.959	9838
420.034	1811
420.110	5530
420.186	25670
420.262	19962
420.337	2035
420.413	986
420.489	-12
420.565	717
420.640	-759
420.716	1237
420.792	-940
420.867	1102
420.943	-445
421.019	2758
421.094	1252
421.170	253
421.245	-733
421.321	172
421.397	670
421.472	2961
421.548	9840
421.623	8424
421.699	2536
421.774	3304
421.850	1526
421.925	5341
422.001	4905
422.076	4364
422.152	4852
422.227	9284
422.302	11983
422.378	17277
422.453	33257
422.529	82405
422.604	225176
422.679	320536
422.755	226524
422.830	89956
422.905	36353
422.981	19206
423.056	10623
423.131	8032
423.207	5830
423.282	5976
423.357	9839
423.432	5902
423.508	5586
423.583	14477
423.658	9759
423.733	2790
423.808	2529
423.883	4097
423.959	3023
424.034	2675
424.109	1771
424.184	910
424.259	-195
424.334	55
424.409	-839
424.484	110
424.559	799
424.634	224
424.709	2301
424.784	2693
424.859	756
424.934	2037
425.009	17131
425.084	31170
425.159	9256
425.234	382
425.309	-1549
425.384	-458
425.459	-1144
425.534	-576
425.609	-1349
425.683	-760
425.758	-932
425.833	-489
425.908	1674
425.983	9996
426.058	31975
426.132	11539
426.207	-354
426.282	571
426.357	-1199
426.431	-42
426.506	-798
426.581	-790
426.655	-850
426.730	-724
426.805	-943
426.879	97
426.954	421
427.029	2744
427.103	29430
427.178	77165
427.253	30743
427.327	1514
427.402	-1546
427.476	66
427.551	-1824
427.625	-596
427.700	-978
427.774	-621
427.849	-438
427.923	-1178
427.998	-884
428.072	-610
428.147	3011
428.221	24101
428.296	78978
428.370	38956
428.444	2841
428.519	491
428.593	791
428.667	1067
428.742	1723
428.816	5210
428.890	40379
428.965	67616
429.039	15141
429.113	2865
429.188	268
429.262	-378
429.336	2592
429.410	13553
429.485	6888
429.559	1296
429.633	671
429.707	-52
429.781	4293
429.855	40253
429.930	69524
430.004	20145
430.078	12618
430.152	24111
430.226	97923
430.300	98338
430.374	13964
430.448	3029
430.522	3282
430.596	11279
430.670	17051
430.744	86854
430.818	123504
430.892	23301
430.966	1985
431.040	905
431.114	-1626
431.188	-1048
431.262	-428
431.336	-1206
431.410	587
431.484	3962
431.557	4790
431.631	-532
431.705	967
431.779	13071
431.853	69244
431.927	47814
432.000	4907
432.074	486
432.148	-760
432.222	-875
432.295	-1568
432.369	-452
432.443	891
432.516	26018
432.590	75585
432.664	25787
432.737	1095
432.811	-717
432.885	-1605
432.958	-188
433.032	-1287
433.106	-1956
433.179	-1468
433.253	-1319
433.326	-1731
433.400	-1439
433.473	-1306
433.547	-2139
433.620	-544
433.694	646
433.767	490
433.841	-1214
433.914	-2486
433.988	-1830
434.061	-1474
434.134	-1468
434.208	-1639
434.281	-2148
434.355	-1947
434.428	-1268
434.501	-2484
434.575	-1257
434.648	-2368
434.721	-1407
434.795	-1152
434.868	-1296
434.941	-1723
435.014	-1941
435.088	-935
435.161	-798
435.234	589
435.307	2130
435.381	127
435.454	-618
435.527	2072
435.600	2024
435.673	582
435.746	-28
435.819	-321
435.892	-540
435.966	-1711
436.039	-1331
436.112	-532
436.185	-1654
436.258	-2552
436.331	-1823
436.404	-2003
436.477	-1846
436.550	-2576
436.623	-1963
436.696	-2021
436.769	-1111
436.842	-644
436.915	-1513
436.987	-673
437.060	-1499
437.133	-2194
437.206	-1821
437.279	-1696
437.352	-1522
437.425	-2429
437.498	-588
437.570	1943
437.643	1852
437.716	-2114
437.789	-1801
437.861	-225
437.934	2215
438.007	43
438.080	-1224
438.152	-1051
438.225	2900
438.298	36929
438.370	109537
438.443	40047
438.516	6010
438.588	-794
438.661	-807
438.734	-1651
438.806	-1150
438.879	-133
438.951	-1054
439.024	152
439.096	-1318
439.169	-1069
439.241	-1309
439.314	-2300
439.386	-1476
439.459	-1197
439.531	-715
439.604	-1568
439.676	-1087
439.749	-1414
439.821	-1337
439.893	-1913
439.966	-1706
440.038	-955
440.110	-461
440.183	-1487
440.255	-1206
440.327	759
440.400	12444
440.472	66796
440.544	45287
440.617	3712
440.689	1339
440.761	717
440.833	2197
440.905	1330
440.978	-1613
441.050	-1072
441.122	-891
441.194	-1936
441.266	-1102
441.338	-1715
441.411	1423
441.483	20206
441.555	32810
441.627	4980
441.699	-222
441.771	-1303
441.843	-1733
441.915	-1992
441.987	-1379
442.059	-2258
442.131	-874
442.203	-430
442.275	1413
442.347	1448
442.419	4947
442.491	36559
442.563	99458
442.635	41957
442.706	9587
442.778	6173
442.850	806
442.922	-1244
442.994	-279
443.066	1070
443.137	71
443.209	5
443.281	2890
443.353	7781
443.425	43123
443.496	171384
443.568	177656
443.640	67011
443.711	12306
443.783	2139
443.855	749
443.926	-442
443.998	-283
444.070	-278
444.141	-622
444.213	1522
444.285	3352
444.356	503
444.428	-657
444.499	-1141
444.571	-1226
444.642	-1002
444.714	245
444.785	1220
444.857	688
444.928	1148
445.000	1160
445.071	1516
445.143	2293
445.214	3402
445.285	6162
445.357	21149
445.428	103010
445.500	252400
445.571	164224
445.642	92111
445.714	26902
445.785	9829
445.856	3342
445.928	3741
445.999	2179
446.070	905
446.141	2041
446.213	2839
446.284	242
446.355	-342
446.426	-966
446.497	-1277
446.569	-478
446.640	1238
446.711	2925
446.782	-1140
446.853	-926
446.924	-438
446.995	-718
447.066	-1434
447.138	-203
447.209	-2347
447.280	-2164
447.351	-2255
447.422	-1783
447.493	-1939
447.564	116
447.635	971
447.706	8
447.777	-2368
447.847	-1361
447.918	-2275
447.989	-1183
448.060	-1587
448.131	-626
448.202	368
448.273	1470
448.344	-1202
448.414	-1026
448.485	-1297
448.556	-886
448.627	-2350
448.698	-559
448.768	-2111
448.839	-2578
448.910	-2414
448.981	-410
449.051	-1175
449.122	-1633
449.193	-1578
449.263	-1561
449.334	-2078
449.405	-260
449.475	3461
449.546	1065
449.616	-726
449.687	-553
449.758	-1593
449.828	-1915
449.899	-2586
449.969	-1678
450.040	-2195
450.110	-978
450.181	-1464
450.251	-1104
450.322	-1619
450.392	-1184
450.463	-2063
450.533	-1949
450.604	-2279
450.674	-1793
450.744	-1478
450.815	-1694
450.885	-861
450.955	-1556
451.026	-1832
451.096	-1477
451.166	-1798
451.237	-1282
451.307	574
451.377	-7
451.447	-1719
451.518	-2067
451.588	-1394
451.658	-1502
451.728	-2274
451.799	657
451.869	749
451.939	-1198
452.009	-1553
452.079	-1226
452.149	-1693
452.219	-1096
452.289	71
452.360	195
452.430	-1550
452.500	-378
452.570	1114
452.640	2970
452.710	8282
452.780	12152
452.850	10341
452.920	11385
452.990	2755
453.060	665
453.129	-209
453.199	17
453.269	1523
453.339	6076
453.409	10661
453.479	9260
453.549	13540
453.619	14625
453.688	4661
453.758	-817
453.828	-1513
453.898	-1216
453.968	-2112
454.037	-2123
454.087	-1830
454.107	-1728
454.168	-1456
454.177	-1438
454.247	-1555
454.249	-1531
454.316	-1360
454.330	-1509
454.386	-2136
454.411	-1788
454.456	-1305
454.492	-286
454.525	629
454.574	-277
454.595	-705
454.655	-1545
454.665	-1698
454.734	-1426
454.736	-1411
454.804	-1481
454.817	-987
454.873	909
454.898	990
454.943	1148
454.979	319
455.013	-483
455.060	-1257
455.082	-1634
455.141	-1108
455.152	-1019
455.221	343
455.222	385
455.291	2640
455.303	2842
455.360	3200
455.384	5865
455.430	9890
455.465	7441
455.499	5235
455.546	2670
455.569	1582
455.627	1210
455.638	1119
455.707	-729
455.708	-715
455.777	-896
455.789	-831
455.846	-777
455.869	-1018
455.916	-1399
455.950	-1029
455.985	-765
456.031	-1028
456.054	-1144
456.112	-666
456.124	-579
456.193	-905
456.193	-924
456.262	-908
456.274	-889
456.332	-893
456.355	-880
456.401	-800
456.436	-1143
456.470	-1610
456.516	-1386
456.540	-1242
456.597	-1419
456.609	-1496
456.678	-243
456.678	-253
456.747	-1134
456.759	-1130
456.817	-941
456.840	-1011
456.886	-1332
456.920	-677
456.955	-104
457.001	-322
457.024	-375
457.082	15
457.093	26
457.162	-233
457.163	-222
457.232	37
457.243	23
457.301	-140
457.324	-157
457.370	-133
457.405	-77
457.439	-139
457.485	-175
457.508	-78
457.566	46
457.577	26
457.646	1757
457.647	1766
457.715	3244
457.727	4088
457.784	9076
457.808	12522
457.853	16889
457.889	20595
457.922	21105
457.969	13657
457.991	13555
458.050	15659
458.060	16054
458.129	29424
458.130	29828
458.198	32336
458.211	29389
458.267	17716
458.292	12041
458.336	6389
458.372	5229
458.405	6540
458.453	10725
458.474	14390
458.533	28392
458.543	29412
458.611	51208
458.614	51471
458.680	34735
458.694	27943
458.749	13697
458.775	9198
458.818	3440
458.855	2417
458.887	1858
458.936	1331
458.955	1033
459.016	1031
459.024	1076
459.093	1028
459.097	1039
459.162	778
459.177	817
459.230	1153
459.257	1574
459.299	2162
459.338	1781
459.368	1377
459.418	1582
459.437	1610
459.499	1108
459.505	1086
459.574	1682
459.579	1660
459.643	737
459.659	689
459.711	780
459.740	929
459.780	1230
459.820	1355
459.849	1289
459.900	923
459.917	925
459.981	1258
459.986	1241
460.054	1007
460.061	1032
460.123	1668
460.141	1753
460.191	1897
460.222	2126
460.260	2486
460.302	3184
460.328	3287
460.382	2782
460.397	2732
460.462	1864
460.465	1927
460.534	4823
460.543	5184
460.602	18685
460.623	23845
460.671	38365
460.703	51656
460.739	47491
460.783	39158
460.808	32995
460.864	7261
460.876	5360
460.944	2177
460.945	2137
461.013	1518
461.024	1513
461.081	1736
461.104	1986
461.150	1969
461.184	1767
461.218	1927
461.264	1675
461.286	1486
461.345	1871
461.355	1920
461.423	1670
461.425	1670
461.491	1325
461.505	1156
461.559	1380
461.585	1850
461.628	2378
461.665	2583
461.696	2800
461.745	3720
461.764	3733
461.825	3011
461.832	2993
461.901	1880
461.905	1886
461.969	1464
461.985	1375
462.037	2266
462.065	2452
462.105	1769
462.145	1554
462.173	1930
462.225	2060
462.241	1947
462.305	2076
462.310	2098
462.378	2514
462.385	2506
462.446	1951
462.465	1780
462.514	1989
462.545	2322
462.582	2302
462.625	1861
462.650	1792
462.705	2068
462.718	2084
462.785	1703
462.786	1700
462.854	1781
462.865	1778
462.922	2197
462.945	2428
462.990	2337
463.025	2168
463.058	2176
463.104	2146
463.126	2081
463.184	1855
463.194	1950
463.262	2459
463.264	2489
463.330	2167
463.344	2049
463.398	2273
463.424	2293
463.466	2017
463.504	2004
463.533	2186
463.583	2141
463.601	2168
463.663	2452
463.669	2434
463.737	2392
463.743	2383
463.805	3666
463.823	4051
463.873	3992
463.903	3702
463.940	3833
463.982	4251
464.008	3969
464.062	3267
464.076	3258
464.142	2827
464.144	2812
464.211	2176
464.221	2119
464.279	2891
464.301	3158
464.347	2736
464.381	2489
464.414	2851
464.461	3216
464.482	3133
464.540	2732
464.550	2761
464.617	3115
464.620	3122
464.685	4520
464.699	4780
464.753	6338
464.779	7219
464.820	8108
464.859	8813
464.888	8228
464.938	7076
464.956	6887
465.018	6242
465.023	6279
465.091	6431
465.098	6464
465.158	6123
465.177	5947
465.226	5935
465.257	5946
465.293	6259
465.336	6556
465.361	6733
465.416	7260
465.428	7297
465.495	7317
465.496	7329
465.563	7173
465.575	7095
465.631	7929
465.654	8413
465.698	7402
465.734	6297
465.765	6097
465.813	5839
465.833	5934
465.893	6306
465.900	6338
465.968	6471
465.972	6462
466.035	6355
466.052	6331
466.102	5664
466.131	5255
466.170	5723
466.210	6263
466.237	6571
466.290	6944
466.304	6952
466.369	7071
466.372	7082
466.439	6905
466.449	6864
466.506	7026
466.528	7069
466.573	7692
466.607	8121
466.641	9112
466.687	10496
466.708	11108
466.766	12754
466.775	12515
466.842	10558
466.845	10442
466.909	9025
466.925	8679
466.977	8633
467.004	8616
467.044	8536
467.083	8416
467.111	9966
467.163	12842
467.178	13182
467.242	14470
467.245	14401
467.312	12404
467.321	12116
467.379	11230
467.400	10876
467.446	11412
467.480	11762
467.559	9486
467.638	9648
467.717	10038
467.796	10071
467.875	10641
467.955	9569
468.034	10432
468.113	12058
468.192	13552
468.271	9506
468.350	11240
468.429	15009
468.508	15521
468.588	11239
468.667	9150
468.746	8775
468.825	8436
468.904	8212
468.983	8297
469.062	9513
469.141	9168
469.220	7794
469.299	8223
469.378	8917
469.456	13243
469.535	11043
469.614	9132
469.693	9623
469.772	9374
469.851	8937
469.930	9846
470.009	8580
470.088	9231
470.166	10621
470.245	11220
470.324	12347
470.403	9690
470.482	9336
470.560	9204
470.639	8724
470.718	9027
470.797	8045
470.875	8679
470.954	8243
471.033	9575
471.111	7251
471.190	6868
471.269	7256
471.347	7580
471.426	7958
471.505	8228
471.583	10201
471.662	9906
471.740	9438
471.819	8211
471.898	8253
471.976	7573
472.055	7406
472.133	8150
472.212	10104
472.290	7728
472.369	7236
472.447	7454
472.526	7555
472.604	8102
472.683	8376
472.761	7715
472.839	7330
472.918	7452
472.996	6979
473.075	7560
473.153	7454
473.231	5419
473.310	7627
473.388	7571
473.466	8058
473.545	9127
473.623	11597
473.701	9730
473.780	8415
473.858	7108
473.936	9073
474.014	7293
474.093	7370
474.171	8053
474.249	8145
474.327	7221
474.405	6584
474.484	6971
474.562	7724
474.640	7131
474.718	7030
474.796	6767
474.874	7426
474.952	5593
475.030	6027
475.108	7076
475.187	8049
475.265	7583
475.343	10402
475.421	10481
475.499	7646
475.577	6562
475.655	7397
475.733	7691
475.811	8820
475.889	8217
475.966	8050
476.044	6366
476.122	6689
476.200	8405
476.278	7911
476.356	4872
476.434	5937
476.512	6588
476.590	8467
476.667	7346
476.745	5428
476.823	6355
476.901	5570
476.979	4735
477.056	6526
477.134	5681
477.212	6665
477.290	5717
477.367	5234
477.445	5076
477.523	5358
477.601	4695
477.678	3953
477.756	5701
477.834	5080
477.911	5852
477.989	5437
478.066	4368
478.144	5802
478.222	6072
478.299	9047
478.377	9576
478.454	5274
478.532	4905
478.609	5064
478.687	5700
478.764	5433
478.842	4978
478.919	5258
478.997	4892
479.074	5107
479.152	3938
479.229	4475
479.307	3006
479.384	4879
479.461	4306
479.539	4181
479.616	4384
479.694	3444
479.771	4269
479.848	5078
479.926	3234
480.003	5905
480.080	4923
480.157	3836
480.235	4079
480.312	4572
480.389	3489
480.467	4100
480.544	4887
480.621	4622
480.698	4512
480.775	5067
480.853	4215
480.930	3939
481.007	3782
481.084	4389
481.161	6684
481.238	5875
481.315	3878
481.392	4562
481.470	3835
481.547	4198
481.624	3803
481.701	4746
481.778	4430
481.855	4166
481.932	4461
482.009	5327
482.086	5204
482.163	5091
482.240	7512
482.317	12317
482.393	9503
482.470	3862
482.547	4458
482.624	4157
482.701	2800
482.778	3794
482.855	3688
482.932	4567
483.009	2492
483.085	4486
483.162	5929
483.239	6314
483.316	4880
483.393	5823
483.469	4093
483.546	4601
483.623	4070
483.699	3665
483.776	4215
483.853	4012
483.930	5714
484.006	7621
484.083	13007
484.160	22996
484.236	42040
484.313	31604
484.389	22211
484.466	20160
484.543	18552
484.619	20181
484.696	21699
484.772	19182
484.849	17933
484.925	17036
485.002	16949
485.078	17568
485.155	15944
485.231	16403
485.308	15410
485.384	17272
485.461	16171
485.537	17390
485.614	17724
485.690	15638
485.766	15332
485.843	15540
485.919	18194
485.995	20079
486.072	14352
486.148	13804
486.224	13723
486.301	14196
486.377	13852
486.453	12956
486.530	15731
486.606	23583
486.682	24436
486.758	21949
486.835	19523
486.911	17824
486.987	22049
487.063	27960
487.139	38797
487.215	30596
487.292	20765
487.368	18309
487.444	18739
487.520	22886
487.596	23519
487.672	37701
487.748	106403
487.824	163052
487.900	51485
487.976	20272
488.052	15323
488.128	16489
488.204	14052
488.280	14311
488.356	13827
488.432	15768
488.508	17803
488.584	13832
488.660	13015
488.736	13997
488.812	13166
488.888	17423
488.964	19842
489.039	32822
489.115	49288
489.191	34255
489.267	13435
489.343	12358
489.418	11072
489.494	12445
489.570	9147
489.646	12033
489.722	10582
489.797	10092
489.873	11125
489.949	14884
490.024	13485
490.100	9682
490.176	10813
490.251	11683
490.327	14920
490.403	10204
490.478	11073
490.554	9610
490.629	9596
490.705	9160
490.781	10330
490.856	9603
490.932	10810
491.007	10408
491.083	10246
491.158	8414
491.234	9414
491.309	10791
491.385	11362
491.460	7967
491.536	9487
491.611	9790
491.686	9540
491.762	12527
491.837	21256
491.913	32090
491.988	40281
492.063	57325
492.139	14893
492.214	9776
492.289	7351
492.365	6441
492.440	8705
492.515	6525
492.590	7467
492.666	5812
492.741	7442
492.816	8604
492.891	6635
492.967	8251
493.042	6387
493.117	7431
493.192	6811
493.267	10156
493.342	24598
493.418	33178
493.493	10157
493.568	6442
493.643	5501
493.718	6623
493.793	7176
493.868	10761
493.943	8153
494.018	7172
494.093	5254
494.168	6082
494.243	5661
494.318	6311
494.393	5710
494.468	5955
494.543	5554
494.618	7169
494.693	5650
494.768	4764
494.842	5485
494.917	5223
494.992	6010
495.067	5371
495.142	4510
495.217	5810
495.292	5320
495.366	6184
495.441	6435
495.516	8412
495.591	11039
495.665	36134
495.740	92762
495.815	45815
495.890	5922
495.964	3345
496.039	7321
496.114	5514
496.188	7300
496.263	8127
496.338	3514
496.412	5258
496.487	5847
496.561	6457
496.636	6841
496.710	6090
496.785	5016
496.860	5478
496.934	5170
497.009	5438
497.083	5674
497.158	5334
497.232	6246
497.307	7545
497.381	6873
497.455	7112
497.530	7673
497.604	7753
497.679	7471
497.753	11248
497.827	14048
497.902	15770
497.976	14951
498.050	18658
498.125	48075
498.199	60821
498.273	25592
498.348	21995
498.422	16660
498.496	14691
498.570	12225
498.645	9034
498.719	6197
498.793	8336
498.867	8081
498.941	9409
499.016	17574
499.090	45552
499.164	24779
499.238	5894
499.312	4490
499.386	8139
499.460	6108
499.534	4255
499.609	4780
499.683	5952
499.757	6106
499.831	7404
499.905	26891
499.979	29714
500.053	6488
500.127	8135
500.201	8287
500.275	6620
500.349	5067
500.422	5243
500.496	7082
500.570	17172
500.644	24447
500.718	30601
500.792	11037
500.866	4926
500.940	4457
501.013	4918
501.087	4187
501.161	9989
501.235	8964
501.309	10348
501.382	21828
501.456	25932
501.530	8528
501.603	8148
501.677	4913
501.751	2250
501.825	4520
501.898	5832
501.972	9305
502.046	7298
502.119	3263
502.193	7541
502.266	10929
502.340	6647
502.413	5646
502.487	9387
502.561	4955
502.634	4521
502.708	4736
502.781	4338
502.855	3749
502.928	1861
503.002	2888
503.075	1854
503.149	3625
503.222	3350
503.295	2544
503.369	3818
503.442	3197
503.516	7689
503.589	16212
503.662	12408
503.736	6868
503.809	11246
503.882	9606
503.956	15722
504.029	21096
504.102	53314
504.175	84033
504.249	25203
504.322	8422
504.395	6335
504.468	3959
504.542	3575
504.615	2291
504.688	3995
504.761	1663
504.834	5314
504.907	5755
504.980	8537
505.053	4018
505.127	4229
505.200	7803
505.273	3569
505.346	2394
505.419	1546
505.492	2795
505.565	2162
505.638	1971
505.711	1648
505.784	864
505.857	1797
505.930	3627
506.003	2124
506.076	3457
506.149	2371
506.221	1575
506.294	4008
506.367	2707
506.440	13565
506.513	11121
506.586	3246
506.659	2771
506.731	3530
506.804	3219
506.877	4923
506.950	3008
507.022	3573
507.095	1513
507.168	3656
507.241	3770
507.313	1883
507.386	1519
507.459	6160
507.531	3216
507.604	1896
507.677	2601
507.749	1788
507.822	5496
507.894	10859
507.967	16701
508.040	9492
508.112	7234
508.185	6155
508.257	5389
508.330	9335
508.402	5706
508.475	4574
508.547	4795
508.620	4892
508.692	5865
508.765	6178
508.837	4696
508.909	5514
508.982	4896
509.054	6094
509.127	3862
509.199	4545
509.271	3384
509.344	4384
509.416	3243
509.488	4388
509.560	4636
509.633	4574
509.705	6294
509.777	5182
509.849	6588
509.922	5747
509.994	4478
510.066	5137
510.138	5135
510.210	16894
510.283	12410
510.355	10385
510.427	8581
510.499	8289
510.571	7521
510.643	6782
510.715	11035
510.787	9945
510.859	7909
510.931	7660
511.003	9597
511.076	9748
511.148	5281
511.219	5111
511.291	6881
511.363	7786
511.435	5315
511.507	4929
511.579	6659
511.651	6651
511.723	5119
511.795	5392
511.867	5218
511.939	6466
512.010	6196
512.082	7407
512.154	5065
512.226	6911
512.298	11623
512.369	15728
512.441	12264
512.513	11939
512.585	8439
512.656	9079
512.728	8486
512.800	8412
512.871	8480
512.943	7601
513.015	6347
513.086	7766
513.158	8362
513.230	6558
513.301	8531
513.373	12803
513.444	8452
513.516	5797
513.588	6017
513.659	7413
513.731	7822
513.802	6999
513.874	14229
513.945	22517
514.016	9642
514.088	6306
514.159	6166
514.231	9633
514.302	13696
514.374	11071
514.445	6786
514.516	10447
514.588	7838
514.659	7286
514.730	7978
514.802	10599
514.873	8378
514.944	11163
515.016	8265
515.087	8956
515.158	7427
515.229	10525
515.301	7412
515.372	12030
515.443	6913
515.514	7475
515.585	4152
515.656	7825
515.728	6626
515.799	5587
515.870	6165
515.941	7153
516.012	6232
516.083	9995
516.154	9832
516.225	13480
516.296	11466
516.367	8839
516.438	9511
516.509	11845
516.580	14767
516.651	36966
516.722	134725
516.793	82216
516.864	15361
516.935	14819
517.006	15167
517.077	18583
517.148	38813
517.219	127790
517.289	237692
517.360	45805
517.431	15305
517.502	8415
517.573	7508
517.643	7250
517.714	8536
517.785	9120
517.856	7486
517.926	12289
517.997	13044
518.068	14683
518.138	20545
518.209	24971
518.280	84515
518.350	356285
518.421	174128
518.492	20858
518.562	13330
518.633	14754
518.703	15033
518.774	32045
518.845	91970
518.915	100372
518.986	25020
519.056	13477
519.127	18664
519.197	22229
519.268	25782
519.338	16660
519.408	7957
519.479	12093
519.549	10097
519.620	8283
519.690	5439
519.760	5211
519.831	4999
519.901	5644
519.971	5022
520.042	4977
520.112	4604
520.182	6600
520.253	7742
520.323	5361
520.393	3951
520.463	7741
520.534	1948
520.604	7139
520.674	5757
520.744	3413
520.814	5864
520.885	8262
520.955	6261
521.025	17525
521.095	10750
521.165	5748
521.235	3847
521.305	3364
521.375	4333
521.445	5947
521.515	5522
521.585	8366
521.655	5775
521.725	6490
521.795	5884
521.865	2447
521.935	6338
522.005	3811
522.075	3380
522.145	6114
522.215	2969
522.285	5319
522.355	5294
522.424	8783
522.494	7639
522.564	7023
522.634	13739
522.704	49035
522.774	22937
522.843	5460
522.913	4294
522.983	6708
523.053	4439
523.122	5743
523.192	6409
523.262	22958
523.331	27561
523.401	7162
523.471	3905
523.540	5139
523.610	2456
523.680	3416
523.749	3587
523.819	3835
523.888	3771
523.958	3452
524.027	3313
524.097	3701
524.166	3413
524.236	3304
524.305	4809
524.375	2989
524.444	1888
524.514	6057
524.583	2424
524.653	2451
524.722	4066
524.791	2547
524.861	5233
524.930	2747
524.999	3852
525.069	5618
525.138	3133
525.207	3433
525.277	4027
525.346	3493
525.415	3394
525.484	4531
525.554	3629
525.623	6050
525.692	6386
525.761	7029
525.830	9205
525.900	11966
525.969	17123
526.038	29904
526.107	59556
526.176	199389
526.245	170480
526.314	48091
526.383	94735
526.452	138351
526.522	220944
526.591	238557
526.660	48025
526.729	29261
526.797	29988
526.867	47170
526.935	194480
527.004	492880
527.073	302405
527.142	26356
527.211	9954
527.280	8456
527.349	7902
527.418	3708
527.487	3777
527.555	2445
527.624	2473
527.693	1748
527.762	4429
527.831	2433
527.899	2629
527.968	3111
528.037	1328
528.106	3730
528.174	6775
528.243	5623
528.312	5234
528.380	11053
528.449	2392
528.518	3648
528.586	872
528.655	3134
528.723	2201
528.792	1711
528.861	1533
528.929	1490
528.998	2190
529.066	1687
529.135	2480
529.203	1767
529.272	621
529.340	3040
529.409	4240
529.477	1994
529.545	1140
529.614	4861
529.682	1393
529.751	2341
529.819	5021
529.887	2976
529.956	1834
530.024	3314
530.092	792
530.161	4086
530.229	6220
530.297	3299
530.365	4082
530.434	3081
530.502	1644
530.570	3264
530.638	1041
530.707	3653
530.775	4285
530.843	2124
530.911	2664
530.979	2987
531.047	2561
531.115	2929
531.183	2156
531.252	3133
531.320	2593
531.388	1773
531.456	3124
531.524	1311
531.592	3455
531.660	5252
531.728	2093
531.796	1867
531.864	2183
531.932	2957
532.000	2258
532.067	2972
532.135	3011
532.203	5089
532.271	3548
532.339	8169
532.407	20158
532.475	15064
532.542	6956
532.610	8087
532.678	7420
532.746	34838
532.814	107881
532.881	31583
532.949	5006
533.017	4712
533.084	2955
533.152	2620
533.220	2879
533.287	3736
533.355	3268
533.423	3632
533.490	2472
533.558	3495
533.625	2835
533.693	3023
533.761	3535
533.828	3730
533.896	2504
533.963	7274
534.031	9412
534.098	13687
534.166	6665
534.233	4270
534.300	4823
534.368	5091
534.435	3555
534.503	5225
534.570	5317
534.637	6772
534.705	7640
534.772	10355
534.840	14723
534.907	83541
534.974	120907
535.041	14097
535.109	4906
535.176	3691
535.243	4677
535.310	4361
535.378	2720
535.445	3897
535.512	2779
535.579	3409
535.646	2806
535.714	4974
535.781	6115
535.848	5712
535.915	5196
535.982	4132
536.049	4241
536.116	5339
536.183	3400
536.250	4204
536.317	3658
536.384	5319
536.451	7519
536.518	9244
536.585	4962
536.652	7716
536.719	9901
536.786	7825
536.853	5668
536.920	8942
536.987	12979
537.053	12569
537.120	46978
537.187	52963
537.254	6797
537.321	4216
537.388	6369
537.454	4233
537.521	4306
537.588	3635
537.654	5619
537.721	6851
537.788	5828
537.855	3731
537.921	4000
537.988	5122
538.055	5082
538.121	4267
538.188	4276
538.254	6161
538.321	14353
538.388	10449
538.454	4827
538.521	4901
538.587	4701
538.654	4010
538.720	4043
538.787	5430
538.853	4667
538.920	5556
538.986	4877
539.053	4396
539.119	4599
539.185	5063
539.252	6912
539.318	9768
539.385	8602
539.451	6952
539.517	7116
539.583	7323
539.650	12927
539.716	38451
539.782	14321
539.849	6449
539.915	5813
539.981	4814
540.047	6667
540.114	5709
540.180	6753
540.246	5717
540.312	7108
540.378	13063
540.444	16386
540.510	14677
540.576	43690
540.643	17960
540.709	4561
540.775	4997
540.841	4392
540.907	6140
540.973	7531
541.039	9029
541.105	10128
541.171	5777
541.237	5507
541.303	6162
541.369	8301
541.435	7821
541.500	13263
541.566	9058
541.632	5484
541.698	4680
541.764	4948
541.830	4716
541.896	3852
541.961	5201
542.027	4154
542.093	5026
542.159	5179
542.224	5773
542.290	8145
542.356	11859
542.421	16709
542.487	8689
542.553	4039
542.618	6250
542.684	5293
542.750	5304
542.815	6737
542.881	8600
542.947	34514
543.012	32835
543.078	5550
543.143	5043
543.209	6109
543.274	5370
543.340	6503
543.405	13733
543.471	25383
543.536	7296
543.602	4857
543.667	3739
543.732	5914
543.798	5190
543.863	5289
543.928	4908
543.994	3543
544.059	4981
544.124	5673
544.190	5765
544.255	5774
544.320	6441
544.386	4959
544.451	8518
544.516	8715
544.581	8297
544.646	20791
544.712	41416
544.777	10487
544.842	6830
544.907	5230
544.972	6197
545.037	5563
545.102	5998
545.168	5725
545.233	7255
545.298	6609
545.363	7724
545.428	8916
545.493	14102
545.558	30698
545.623	15992
545.688	5916
545.753	6912
545.818	6027
545.883	7296
545.947	6581
546.012	7656
546.077	6702
546.142	8591
546.207	6959
546.272	10873
546.337	10719
546.401	9490
546.466	8778
546.531	8208
546.596	9955
546.661	9854
546.725	11220
546.790	9997
546.855	11200
546.919	10917
546.984	12675
547.049	13854
547.113	14973
547.178	16078
547.243	19158
547.307	22442
547.372	25052
547.436	24039
547.501	24461
547.565	28570
547.630	26126
547.695	25167
547.759	23745
547.823	23915
547.888	25214
547.952	25033
548.017	25948
548.081	28610
548.146	26871
548.210	28236
548.274	27791
548.339	29251
548.403	26125
548.468	24696
548.532	24027
548.596	25377
548.660	24795
548.725	26893
548.789	29771
548.853	30275
548.917	27984
548.982	27452
549.046	24686
549.110	22268
549.174	22144
549.238	25169
549.303	27830
549.367	30706
549.431	28752
549.495	26324
549.559	26415
549.623	31038
549.687	33506
549.751	36126
549.815	39662
549.879	39999
549.943	37213
550.007	38924
550.071	38258
550.135	37144
550.199	33277
550.263	33724
550.327	30934
550.391	31691
550.455	34444
550.519	37446
550.582	39591
550.646	47097
550.710	48029
550.774	44184
550.838	43864
550.901	45462
550.965	47592
551.029	49538
551.093	54163
551.156	58549
551.220	69621
551.284	89505
551.347	64278
551.411	51748
551.475	49608
551.538	48469
551.602	43428
551.666	42304
551.729	37745
551.793	37310
551.856	36617
551.920	35830
551.983	36309
552.047	35327
552.110	36554
552.174	35951
552.237	36118
552.301	34945
552.364	32247
552.428	31374
552.491	32130
552.554	34055
552.618	32018
552.681	35186
552.745	32544
552.808	36793
552.871	42022
552.934	36367
552.998	33703
553.061	32726
553.124	31907
553.187	31442
553.251	33006
553.314	32623
553.377	31460
553.440	36442
553.503	45139
553.567	52994
553.630	36114
553.693	33229
553.756	32591
553.819	33514
553.882	31012
553.945	30818
554.008	29877
554.071	31426
554.134	31936
554.197	29395
554.260	28011
554.323	31401
554.386	29671
554.449	31250
554.512	30715
554.575	30207
554.638	28905
554.701	28856
554.764	28671
554.827	28012
554.889	27121
554.952	24632
555.015	23873
555.078	25566
555.141	25688
555.203	23948
555.266	24444
555.329	24245
555.391	23154
555.454	24176
555.517	23091
555.580	22502
555.642	19984
555.705	20605
555.768	20375
555.830	20067
555.893	18593
555.955	19080
556.018	18456
556.080	18465
556.143	19437
556.206	18477
556.268	18216
556.330	19895
556.393	18094
556.455	17385
556.518	18005
556.580	18627
556.643	16157
556.705	15437
556.767	14811
556.830	16476
556.892	15585
556.955	19980
557.017	17997
557.079	14618
557.142	14884
557.204	15101
557.266	22287
557.328	19899
557.391	11942
557.453	12424
557.515	12330
557.577	14071
557.639	14616
557.701	12344
557.764	14074
557.826	15527
557.888	14703
557.950	16545
558.012	19017
558.074	22976
558.136	54239
558.198	153631
558.260	56059
558.322	19945
558.384	20446
558.446	24039
558.508	29459
558.570	36244
558.632	47880
558.694	64697
558.756	83152
558.818	254845
558.880	699966
558.942	228011
559.003	163899
559.065	84166
559.127	32356
559.189	31577
559.251	35372
559.312	48035
559.374	117421
559.436	444497
559.498	230623
559.559	37810
559.621	30096
559.683	33844
559.744	52916
559.806	189854
559.868	320917
559.929	59424
559.991	30128
560.052	45448
560.114	142629
560.176	93053
560.237	74844
560.299	138179
560.360	29963
560.422	10050
560.483	7992
560.545	7236
560.606	6569
560.667	6531
560.729	5913
560.790	6365
560.852	6051
560.913	5815
560.974	5388
561.036	5181
561.097	5447
561.158	6064
561.220	6878
561.281	6250
561.342	5711
561.403	7491
561.465	8074
561.526	18751
561.587	28187
561.648	7842
561.709	5401
561.771	5986
561.832	3758
561.893	4933
561.954	4456
562.015	5465
562.076	4138
562.137	5238
562.198	4513
562.259	6094
562.320	4164
562.381	4704
562.442	7513
562.503	7056
562.564	4464
562.625	4609
562.686	3624
562.747	4485
562.808	4865
562.869	4134
562.930	4153
562.991	4762
563.051	3787
563.112	3979
563.173	4279
563.234	4382
563.294	4219
563.355	4405
563.416	4998
563.477	4730
563.537	4453
563.598	4502
563.659	4425
563.720	4283
563.780	4292
563.841	4518
563.901	4415
563.962	4206
564.023	4425
564.083	3391
564.144	4107
564.204	3948
564.265	3525
564.325	4731
564.386	5218
564.446	4808
564.507	3600
564.567	4387
564.628	4491
564.688	3088
564.749	4513
564.809	4249
564.869	4899
564.930	4280
564.990	4772
565.050	3230
565.111	4683
565.171	4851
565.231	3365
565.292	5656
565.352	2592
565.412	4270
565.472	3502
565.532	5395
565.593	3907
565.653	4028
565.713	4189
565.773	4815
565.833	5502
565.893	8185
565.953	4720
566.013	4722
566.074	3413
566.134	4856
566.194	4536
566.254	7401
566.314	5572
566.374	4367
566.434	4620
566.494	5029
566.554	4780
566.614	4713
566.673	4448
566.733	5571
566.793	5981
566.853	5199
566.913	6344
566.973	5424
567.033	4521
567.092	5548
567.152	5933
567.212	6920
567.272	5558
567.331	5346
567.391	5981
567.451	6998
567.511	7201
567.570	7226
567.630	6581
567.690	6361
567.749	6470
567.809	7811
567.868	8050
567.928	8921
567.988	9666
568.047	12651
568.107	14405
568.166	21323
568.226	34654
568.285	52391
568.345	39661
568.404	28190
568.464	22962
568.523	20391
568.582	20977
568.642	24185
568.701	31082
568.761	50772
568.820	86724
568.879	80643
568.939	49782
568.998	33722
569.057	23641
569.116	17468
569.176	13606
569.235	12001
569.294	9246
569.353	8825
569.413	7171
569.472	6495
569.531	6604
569.590	7034
569.649	5803
569.708	5198
569.767	5980
569.827	6374
569.886	5296
569.945	5425
570.004	5898
570.063	5711
570.122	5292
570.181	5935
570.240	4113
570.299	4846
570.358	4933
570.417	5284
570.475	5085
570.534	4884
570.593	4783
570.652	4733
570.711	4217
570.770	5027
570.829	5030
570.887	5921
570.946	5373
571.005	4654
571.064	4703
571.122	4587
571.181	3971
571.240	4025
571.299	3815
571.357	3107
571.416	3758
571.475	4501
571.533	4431
571.592	4086
571.650	3721
571.709	4181
571.768	4380
571.826	5339
571.885	3962
571.943	3576
572.002	3070
572.060	2290
572.119	4272
572.177	3840
572.236	2889
572.294	4072
572.352	4245
572.411	3986
572.469	3584
572.528	3930
572.586	3559
572.644	4512
572.703	5036
572.761	3688
572.819	2839
572.877	3240
572.936	2973
572.994	3534
573.052	2873
573.110	3554
573.169	4202
573.227	2848
573.285	3598
573.343	2928
573.401	3717
573.459	3532
573.517	2780
573.576	4572
573.634	3768
573.692	4637
573.750	3697
573.808	2785
573.866	2874
573.924	4550
573.982	3117
574.040	2807
574.098	3912
574.155	3580
574.213	3918
574.271	3801
574.329	3562
574.387	3307
574.445	2201
574.503	2881
574.560	2199
574.618	3826
574.676	2736
574.734	3602
574.792	2979
574.849	2905
574.907	3179
574.965	3421
575.022	1594
575.080	3577
575.138	3058
575.195	3079
575.253	2329
575.311	3691
575.368	3039
575.426	2315
575.483	3702
575.541	3309
575.598	2809
575.656	3333
575.713	3141
575.771	2789
575.828	2577
575.886	3199
575.943	3430
576.001	2759
576.058	3012
576.115	2807
576.173	1920
576.230	3372
576.287	4450
576.345	3816
576.402	3594
576.459	2367
576.517	2233
576.574	3117
576.631	2347
576.688	2910
576.746	2198
576.803	3106
576.860	1943
576.917	2869
576.974	2065
577.031	3126
577.089	2923
577.146	2694
577.203	2502
577.260	3290
577.317	2664
577.374	2791
577.431	2854
577.488	3514
577.545	2084
577.602	3182
577.659	2267
577.716	2943
577.773	2050
577.830	2379
577.886	2441
577.943	2073
578.000	2268
578.057	2993
578.114	2470
578.171	3113
578.227	3478
578.284	2583
578.341	3347
578.398	2483
578.454	2705
578.511	3743
578.568	3459
578.625	2437
578.681	2535
578.738	2722
578.794	3166
578.851	2668
578.908	2672
578.964	3055
579.021	3995
579.077	2830
579.134	2411
579.190	3417
579.247	2884
579.303	2784
579.360	2136
579.416	2649
579.473	2314
579.529	2579
579.586	2561
579.642	3605
579.698	2971
579.755	2860
579.811	4181
579.867	3426
579.924	2975
579.980	3133
580.036	2606
580.093	3833
580.149	4143
580.205	5519
580.261	3200
580.317	3784
580.374	2945
580.430	3990
580.486	3987
580.542	2095
580.598	2052
580.619	2448
580.654	3134
580.692	3160
580.710	3175
580.765	4031
580.767	4060
580.823	3836
580.838	3882
580.879	4009
580.911	2780
580.935	1886
580.984	3043
580.991	3205
581.047	3459
581.057	3544
581.103	3927
581.130	3575
581.159	3186
581.203	3717
581.215	3870
581.270	3741
581.276	3661
581.326	2910
581.349	2691
581.382	2333
581.422	3476
581.438	3984
581.494	2643
581.494	2655
581.550	3849
581.567	3911
581.606	3970
581.640	3815
581.661	3774
581.713	3857
581.717	3863
581.773	3913
581.786	3824
581.829	3452
581.859	3417
581.885	3454
581.932	3464
581.940	3457
581.996	3410
582.004	3413
582.052	3498
582.077	3521
582.107	3445
582.150	3996
582.163	4214
582.219	3430
582.223	3466
582.274	3802
582.296	3677
582.330	3418
582.368	3405
582.386	3480
582.441	3798
582.441	3797
582.497	3849
582.514	3788
582.552	3869
582.587	4127
582.608	4158
582.659	3612
582.663	3594
582.719	4191
582.732	4256
582.774	4357
582.805	3964
582.830	3623
582.877	3941
582.885	4001
582.941	3828
582.950	3997
582.996	4716
583.023	4323
583.052	4108
583.095	4748
583.107	4863
583.162	4488
583.168	4588
583.218	5499
583.240	4899
583.273	3874
583.313	4083
583.328	4324
583.384	4233
583.385	4243
583.439	4018
583.458	4122
583.494	4456
583.531	4474
583.549	4519
583.603	4073
583.605	4052
583.660	4351
583.676	4141
583.715	3728
583.748	4502
583.770	5010
583.820	4310
583.825	4238
583.881	4763
583.893	4371
583.936	3070
583.965	3905
583.991	4589
584.038	4170
584.046	4098
584.101	4503
584.110	4513
584.156	4491
584.183	4680
584.211	4986
584.255	4474
584.266	4365
584.321	4945
584.328	4987
584.376	5148
584.400	5298
584.431	5386
584.472	4871
584.486	4744
584.541	5535
584.545	5526
584.596	5438
584.617	5281
584.651	5308
584.689	5908
584.706	5916
584.761	5552
584.762	5547
584.816	5600
584.834	5781
584.871	6290
584.906	6413
584.926	6364
584.978	6623
584.980	6644
585.035	7171
585.051	7474
585.090	8221
585.123	8606
585.145	8966
585.195	9816
585.200	9913
585.254	11806
585.267	12396
585.309	14358
585.340	15271
585.364	15963
585.412	18528
585.419	18975
585.473	21678
585.484	22684
585.528	28406
585.556	33709
585.583	45928
585.628	76621
585.637	87884
585.692	187901
585.700	206716
585.747	271573
585.772	227226
585.801	138164
585.845	44040
585.856	32904
585.910	18031
585.917	16727
585.965	13738
585.989	12585
586.019	11670
586.061	10719
586.074	10520
586.128	10598
586.133	10555
586.183	10331
586.205	10610
586.237	10861
586.277	10446
586.292	10203
586.346	9754
586.349	9720
586.401	10201
586.421	10452
586.455	10371
586.493	10550
586.509	10953
586.564	11320
586.565	11358
586.618	13384
586.637	13656
586.672	13441
586.709	13469
586.727	13785
586.781	14909
586.781	14912
586.835	12683
586.853	12179
586.889	12053
586.925	11824
586.944	11658
586.996	11516
586.998	11525
587.052	11863
587.068	11901
587.106	12382
587.140	12597
587.161	12401
587.212	12602
587.215	12672
587.269	13705
587.284	13931
587.323	14119
587.356	14478
587.377	14786
587.427	15758
587.431	15833
587.485	16137
587.499	16198
587.539	16302
587.571	16849
587.593	17479
587.643	18619
587.648	18771
587.702	20210
587.715	20568
587.755	21208
587.786	21796
587.810	22410
587.858	23640
587.864	23884
587.917	26893
587.930	27335
587.971	28521
588.001	30353
588.025	31986
588.073	34314
588.079	34794
588.133	40066
588.145	41312
588.187	45656
588.217	49138
588.241	52953
588.288	60050
588.295	61128
588.348	71673
588.360	74261
588.402	84318
588.431	91718
588.456	98945
588.503	114744
588.510	117463
588.564	141191
588.575	146865
588.617	173380
588.646	193774
588.671	219686
588.718	276424
588.725	291063
588.778	420181
588.789	451483
588.832	668414
588.861	832299
588.886	997148
588.932	1293969
588.939	1301367
588.993	1235350
589.004	1230338
589.047	1070249
589.075	901127
589.100	732613
589.147	436683
589.154	416502
589.207	304759
589.218	285205
589.261	260804
589.290	251160
589.314	260871
589.361	288590
589.368	302505
589.421	435464
589.433	468714
589.475	712172
589.504	898302
589.528	1014255
589.576	1174358
589.582	1150161
589.635	886602
589.647	814731
589.689	512515
589.718	318059
589.742	254946
589.790	155341
589.795	149873
589.849	108645
589.861	100079
589.902	84214
589.932	73786
589.955	67976
590.004	56911
590.009	56181
590.062	49070
590.075	47357
590.115	43143
590.146	40291
590.168	38832
590.218	35526
590.222	35336
590.275	32896
590.289	32257
590.328	30708
590.360	29463
590.381	28949
590.431	27835
590.435	27759
590.488	26205
590.503	25707
590.541	24611
590.574	23783
590.594	23257
590.645	21977
590.647	22016
590.700	22582
590.716	22737
590.753	21849
590.787	21001
590.806	20870
590.859	20570
590.859	20581
590.912	19936
590.930	19781
590.965	19945
591.001	19997
591.018	19898
591.071	19610
591.072	19580
591.124	18932
591.143	18607
591.177	18314
591.214	18105
591.230	18437
591.283	19451
591.285	19458
591.336	19784
591.356	19903
591.389	19911
591.427	19845
591.442	19399
591.495	17580
591.498	17421
591.547	16678
591.569	16315
591.600	16606
591.640	16941
591.653	17095
591.706	17591
591.711	17628
591.759	17314
591.782	17063
591.811	17459
591.853	18005
591.864	17899
591.917	17199
591.924	17070
591.969	17398
591.995	17543
592.022	17202
592.066	16588
592.075	16681
592.127	17130
592.137	17186
592.180	17067
592.208	16928
592.233	16801
592.279	16527
592.285	16603
592.338	17025
592.350	17112
592.390	17220
592.421	17216
592.443	17158
592.491	16990
592.495	17032
592.548	17331
592.562	17396
592.600	17133
592.633	16866
592.653	16893
592.704	16826
592.705	16930
592.775	17324
592.846	18013
592.916	18810
592.987	19020
593.058	18300
593.128	17176
593.199	17282
593.270	17772
593.341	16946
593.411	18517
593.482	18494
593.553	19131
593.623	17683
593.694	19089
593.764	18399
593.835	18034
593.906	18776
593.976	19144
594.047	18886
594.117	20537
594.188	20052
594.258	19184
594.329	20234
594.399	19781
594.470	19871
594.540	21007
594.611	21036
594.681	20531
594.751	20313
594.822	24139
594.892	24389
594.963	23464
595.033	23369
595.103	24380
595.174	24097
595.244	25988
595.314	27613
595.384	25292
595.455	25330
595.525	27474
595.595	27331
595.665	27982
595.736	26771
595.806	27165
595.876	27188
595.946	26922
596.016	28074
596.087	29304
596.157	29930
596.227	28963
596.297	31431
596.367	32674
596.437	34617
596.507	35988
596.577	35723
596.647	35202
596.717	36690
596.787	37432
596.857	36444
596.927	37380
596.997	38077
597.067	38416
597.137	39522
597.207	40005
597.277	39330
597.347	38151
597.417	37175
597.487	37746
597.557	37784
597.626	39621
597.696	38901
597.766	38822
597.836	38674
597.906	34689
597.975	33903
598.045	33612
598.115	35824
598.185	37910
598.254	43707
598.324	47756
598.394	47607
598.464	47823
598.533	44434
598.603	41843
598.672	42425
598.742	42949
598.812	43289
598.881	43694
598.951	43141
599.020	42963
599.090	43566
599.159	45989
599.229	43524
599.299	42591
599.368	43148
599.437	43529
599.507	39712
599.576	38821
599.646	38754
599.715	37864
599.785	36722
599.854	36479
599.924	35870
599.993	35691
600.062	35765
600.132	37115
600.201	38823
600.270	47452
600.340	48761
600.409	47124
600.478	47429
600.547	47919
600.617	43933
600.686	34981
600.755	32054
600.824	32438
600.894	30298
600.963	30500
601.032	30542
601.101	29268
601.170	27750
601.239	28055
601.308	29296
601.378	28802
601.447	27413
601.516	28488
601.585	29763
601.654	31880
601.723	28785
601.792	29708
601.861	31177
601.930	34608
601.999	34448
602.068	33203
602.137	35322
602.206	35689
602.275	33726
602.343	38032
602.412	37476
602.481	33905
602.550	32503
602.619	34325
602.688	36225
602.756	34596
602.825	35549
602.894	35073
602.963	36015
603.032	36059
603.100	36844
603.169	36976
603.238	37860
603.307	38202
603.375	38926
603.444	39484
603.513	38985
603.581	40225
603.650	41787
603.719	38690
603.787	39364
603.856	41527
603.924	41910
603.993	44342
604.061	45524
604.130	47226
604.198	48239
604.267	49122
604.335	49027
604.404	51209
604.472	50404
604.541	51723
604.609	51926
604.678	52122
604.746	52258
604.815	55011
604.883	54737
604.951	54593
605.020	55134
605.088	57076
605.156	56190
605.225	56780
605.293	57846
605.361	58485
605.429	58731
605.498	61697
605.566	62978
605.634	65007
605.702	65698
605.771	69081
605.839	68012
605.907	66821
605.975	64385
606.043	63175
606.111	64226
606.180	64353
606.248	61906
606.316	62646
606.384	61572
606.452	64918
606.520	69866
606.588	66534
606.656	63700
606.724	63553
606.792	59421
606.860	53690
606.928	47466
606.996	46656
607.064	46130
607.132	47671
607.200	50666
607.267	52320
607.335	53192
607.403	54726
607.471	52255
607.539	52226
607.607	51870
607.674	45755
607.742	45336
607.810	46321
607.878	46160
607.946	46509
608.013	48403
608.081	48397
608.149	49815
608.216	50896
608.284	54086
608.352	52933
608.419	51140
608.487	52504
608.555	49569
608.622	51764
608.690	55433
608.757	62585
608.825	62928
608.893	61233
608.960	57524
609.028	56153
609.095	54855
609.163	53409
609.230	48173
609.298	44360
609.365	47504
609.432	51438
609.500	55237
609.567	63244
609.635	71605
609.702	77258
609.769	73550
609.837	57531
609.904	48689
609.971	51197
610.039	61621
610.106	89737
610.173	190006
610.241	451469
610.308	218821
610.375	70649
610.442	53000
610.509	51004
610.577	50989
610.644	51910
610.711	52841
610.778	53324
610.845	56642
610.912	58892
610.980	62344
611.047	63217
611.114	61826
611.181	58164
611.248	57681
611.315	64025
611.382	63860
611.449	65486
611.516	68577
611.583	66551
611.650	66534
611.717	68665
611.784	71147
611.851	75250
611.918	82450
611.984	102782
612.051	163515
612.118	371635
612.185	938228
612.252	506522
612.319	118629
612.386	92162
612.452	82521
612.519	77832
612.586	76647
612.653	76687
612.719	78693
612.786	76236
612.853	69859
612.919	68378
612.986	70151
613.053	64926
613.120	59557
613.186	58689
613.253	60597
613.319	59033
613.386	59768
613.453	60852
613.519	63962
613.586	67812
613.652	77379
613.719	70596
613.785	67935
613.852	60909
613.918	60962
613.985	62420
614.051	66900
614.118	71689
614.184	67950
614.250	60588
614.317	62077
614.383	60916
614.449	62040
614.516	62298
614.582	62658
614.648	61177
614.715	59996
614.781	59165
614.847	58952
614.914	57722
614.980	56344
615.046	57415
615.112	59244
615.179	60223
615.245	61488
615.311	62555
615.377	71205
615.443	69768
615.509	63670
615.575	64922
615.642	63497
615.708	67389
615.774	72519
615.840	77479
615.906	89043
615.972	123136
616.038	213801
616.104	472300
616.170	1129379
616.236	839654
616.302	182032
616.368	128679
616.434	87862
616.500	82612
616.565	94487
616.631	121052
616.697	91324
616.763	99630
616.829	165737
616.895	311183
616.961	271714
617.026	100122
617.092	67240
617.158	62354
617.224	60670
617.289	55931
617.355	52929
617.421	50800
617.487	50853
617.552	49294
617.618	47616
617.684	46964
617.749	49749
617.815	46891
617.880	44057
617.946	45173
618.012	45957
618.077	46903
618.143	43873
618.208	45308
618.274	49164
618.339	49122
618.405	39095
618.470	40260
618.536	40522
618.601	40113
618.667	35831
618.732	35026
618.798	33376
618.863	34567
618.928	32425
618.994	35344
619.059	36763
619.124	44764
619.190	36960
619.255	33408
619.320	32768
619.386	33381
619.451	32529
619.516	31387
619.581	32617
619.647	32012
619.712	31108
619.777	31982
619.842	31724
619.907	32909
619.972	33117
620.038	33087
620.103	30972
620.168	30357
620.233	31950
620.298	31539
620.363	31864
620.428	33323
620.493	34203
620.558	34564
620.623	35379
620.688	34718
620.753	34725
620.818	34964
620.883	35688
620.948	35504
621.013	34069
621.078	34512
621.143	34386
621.207	37064
621.272	35599
621.337	33856
621.402	33692
621.467	34252
621.532	33512
621.596	33947
621.661	31710
621.726	31784
621.791	32938
621.855	33094
621.920	32789
621.985	32201
622.049	34241
622.114	33182
622.179	33154
622.243	34500
622.308	36615
622.373	38208
622.437	36572
622.502	33435
622.566	33905
622.631	32342
622.695	35312
622.760	34901
622.824	34483
622.889	34596
622.953	37507
623.018	49268
623.082	47193
623.147	37761
623.211	35976
623.276	36467
623.340	33536
623.404	32360
623.469	33930
623.533	33624
623.597	32146
623.662	31846
623.726	29066
623.790	27997
623.854	26057
623.919	26233
623.983	28280
624.047	28737
624.111	28398
624.176	29141
624.240	29738
624.304	31969
624.368	28385
624.432	29618
624.496	30008
624.560	35283
624.625	35603
624.689	32429
624.753	33548
624.817	31685
624.881	29674
624.945	27917
625.009	27263
625.073	28533
625.137	29767
625.201	37208
625.265	34318
625.329	29738
625.393	31182
625.456	30471
625.520	30596
625.584	32012
625.648	33094
625.712	35840
625.776	39367
625.839	38809
625.903	26560
625.967	24127
626.031	29700
626.095	35302
626.158	28614
626.222	21179
626.286	21286
626.349	19336
626.413	18181
626.477	20474
626.540	18891
626.604	17688
626.668	18744
626.731	17940
626.795	17637
626.858	18272
626.922	17851
626.986	17937
627.049	16216
627.113	18993
627.176	18218
627.240	18036
627.303	17749
627.366	17249
627.430	17818
627.493	17679
627.557	16024
627.620	18686
627.684	18577
627.747	19511
627.810	15773
627.874	16031
627.937	14116
628.000	17282
628.064	15861
628.127	12576
628.190	14208
628.253	13795
628.317	12274
628.380	12623
628.443	12489
628.506	11415
628.569	12928
628.632	10931
628.696	11309
628.759	10710
628.822	9863
628.885	11185
628.948	10284
629.011	10701
629.074	10321
629.137	9900
629.200	8814
629.263	10893
629.326	8148
629.389	9592
629.452	8827
629.515	9269
629.578	8931
629.641	9787
629.704	9461
629.767	9246
629.830	10353
629.892	8442
629.955	8260
630.018	11533
630.081	11025
630.144	15311
630.207	9613
630.269	11149
630.332	8933
630.395	8355
630.458	8545
630.520	8175
630.583	10030
630.646	8783
630.708	7881
630.771	8431
630.834	9911
630.896	8766
630.959	8598
631.021	8615
631.084	8185
631.146	9530
631.209	8723
631.272	9044
631.334	9425
631.397	9919
631.459	9808
631.522	11202
631.584	10953
631.646	12725
631.709	13379
631.771	15797
631.834	12431
631.896	11453
631.958	9020
632.021	10383
632.083	7497
632.145	8592
632.208	9049
632.270	10352
632.332	7548
632.395	7799
632.457	8968
632.519	8283
632.581	9887
632.643	7318
632.706	7700
632.768	7743
632.830	8493
632.892	8406
632.954	7959
633.016	9708
633.078	8764
633.141	8801
633.203	8175
633.265	8959
633.327	8058
633.389	8589
633.451	10201
633.513	11651
633.575	10955
633.637	11394
633.698	9541
633.760	8955
633.822	9505
633.884	10190
633.946	10507
634.008	10683
634.070	10674
634.132	12419
634.193	13158
634.255	15013
634.317	15485
634.379	16124
634.441	12775
634.502	10687
634.564	10556
634.626	9312
634.687	9912
634.749	8099
634.811	8499
634.873	8396
634.934	7733
634.996	9104
635.057	7517
635.119	7257
635.181	8628
635.242	10254
635.304	7185
635.365	10745
635.427	8297
635.488	9283
635.550	7888
635.611	9736
635.673	6905
635.734	10573
635.796	10937
635.857	13159
635.918	11561
635.980	15258
636.041	15244
636.102	17676
636.164	16468
636.225	17409
636.286	10935
636.348	12406
636.409	10036
636.470	8799
636.531	8681
636.593	7534
636.654	8097
636.715	7428
636.776	7138
636.838	6653
636.899	7080
636.960	6616
637.021	6133
637.082	6644
637.143	7126
637.204	5801
637.265	5537
637.326	6208
637.387	6836
637.448	5502
637.509	6863
637.570	6478
637.631	7652
637.692	5633
637.753	4636
637.814	6373
637.875	5656
637.936	6763
637.997	5541
638.058	6074
638.119	6601
638.179	5639
638.240	4793
638.301	4457
638.362	5105
638.423	5393
638.483	6165
638.544	4907
638.605	5928
638.666	5411
638.726	5716
638.787	5604
638.848	5256
638.908	5189
638.969	4981
639.030	4821
639.090	3845
639.151	4494
639.211	7208
639.272	8650
639.332	14333
639.393	7875
639.453	5833
639.514	6529
639.574	5726
639.635	5199
639.695	5339
639.756	4067
639.816	6213
639.877	8311
639.937	14274
639.997	17053
640.058	5354
640.118	4203
640.178	5296
640.239	4166
640.299	3924
640.359	4972
640.420	5319
640.480	6774
640.540	7382
640.600	7772
640.661	6250
640.721	6324
640.781	9166
640.841	4847
640.901	5892
640.961	5657
641.021	6011
641.082	7710
641.142	10435
641.202	7209
641.262	2586
641.322	5829
641.382	3482
641.442	6030
641.502	3958
641.562	5377
641.622	4252
641.682	5011
641.742	6392
641.802	5649
641.861	5899
641.921	5566
641.981	6615
642.041	5955
642.101	7979
642.161	4080
642.221	3927
642.280	4488
642.340	4099
642.400	3243
642.460	4727
642.519	4571
642.579	4131
642.639	4865
642.698	1950
642.758	6477
642.818	4246
642.877	3904
642.937	5201
642.997	6674
643.056	9174
643.116	4734
643.175	6011
643.235	4829
643.294	4833
643.354	6203
643.414	7070
643.473	9694
643.532	10889
643.592	18764
643.651	32996
643.711	63025
643.770	133246
643.830	340631
643.889	671113
643.948	132171
644.008	21646
644.067	12429
644.126	8246
644.186	7135
644.245	6221
644.304	4665
644.363	7007
644.423	4270
644.482	5572
644.541	6100
644.600	4650
644.659	8763
644.719	10160
644.778	18188
644.837	35243
644.896	80167
644.955	180537
645.014	47759
645.073	9121
645.132	6080
645.191	6089
645.250	5676
645.309	6272
645.368	6435
645.427	10346
645.486	17858
645.545	32575
645.604	7692
645.663	5741
645.722	5458
645.781	6480
645.840	8308
645.898	10117
645.957	17530
646.016	29159
646.075	59611
646.134	123265
646.192	353684
646.251	469588
646.310	56415
646.369	15261
646.427	13158
646.486	7101
646.545	5964
646.603	6065
646.662	4699
646.721	5099
646.779	4967
646.838	5271
646.896	7809
646.955	12054
647.014	19688
647.072	40833
647.131	116250
647.189	44054
647.248	6793
647.306	4530
647.365	4053
647.423	2330
647.481	4118
647.540	2000
647.598	2825
647.657	2418
647.715	3443
647.773	1641
647.832	4046
647.890	1520
647.948	1849
648.007	2722
648.065	1651
648.123	1535
648.181	4279
648.240	3100
648.298	2348
648.356	2323
648.414	2915
648.472	1761
648.531	2355
648.589	1983
648.647	1968
648.705	1694
648.763	2553
648.821	2658
648.879	3246
648.937	4135
648.995	5140
649.053	7479
649.111	12289
649.169	25186
649.227	49933
649.285	108993
649.343	313060
649.401	124781
649.459	28484
649.516	14764
649.574	7066
649.632	9801
649.690	9576
649.748	9440
649.806	12693
649.863	28733
649.921	81076
649.979	44420
650.037	6735
650.094	1255
650.152	3337
650.210	2011
650.268	2263
650.325	2338
650.383	2283
650.440	1371
650.498	2567
650.556	2207
650.613	2013
650.671	2095
650.728	2218
650.786	2339
650.843	3688
650.901	40
650.958	1591
651.016	1213
651.073	1371
651.131	1482
651.188	1171
651.246	1482
651.303	391
651.360	1946
651.418	1126
651.475	1017
651.532	435
651.590	1782
651.647	805
651.704	1169
651.762	1460
651.819	2075
651.876	827
651.933	845
651.990	2266
652.048	93
652.105	1132
652.162	1943
652.219	859
652.276	1020
652.333	1534
652.390	1124
652.448	1449
652.505	1070
652.562	868
652.619	922
652.676	1967
652.733	2173
652.790	482
652.847	205
652.904	1667
652.961	-157
653.017	629
653.074	789
653.131	1077
653.188	580
653.245	-4
653.302	1275
653.359	704
653.415	1726
653.472	591
653.529	1271
653.586	-8
653.642	570
653.699	1560
653.756	-51
653.813	1013
653.869	1866
653.926	690
653.983	84
654.039	1297
654.096	49
654.152	1379
654.209	-52
654.266	1123
654.322	-465
654.379	2007
654.435	1788
654.492	1186
654.548	2581
654.605	3201
654.661	1979
654.717	15
654.774	720
654.830	1265
654.887	1822
654.943	876
655.000	252
655.056	1118
655.112	803
655.168	72
655.225	474
655.281	1750
655.337	960
655.394	796
655.450	126
655.506	859
655.562	937
655.618	2100
655.675	54
655.731	1264
655.787	281
655.843	1768
655.899	-684
655.955	1057
656.011	1458
656.067	435
656.123	952
656.179	1217
656.235	1390
656.291	-619
656.347	1542
656.403	211
656.459	161
656.515	1244
656.571	627
656.627	633
656.683	819
656.739	1846
656.795	202
656.850	471
656.906	1494
656.962	1644
657.018	454
657.074	1125
657.129	2185
657.185	3731
657.241	7989
657.297	4520
657.352	1502
657.408	424
657.464	1024
657.519	24
657.575	90
657.630	450
657.686	743
657.742	109
657.797	-751
657.853	209
657.908	1104
657.964	-602
658.019	-88
658.075	857
658.130	741
658.186	-369
658.241	902
658.297	32
658.352	-132
658.407	68
658.463	-173
658.518	1424
658.573	678
658.629	-380
658.684	155
658.739	473
658.795	-551
658.850	701
658.905	-602
658.960	892
659.016	524
659.071	675
659.126	982
659.181	994
659.236	4052
659.291	3366
659.346	718
659.401	980
659.457	792
659.512	132
659.567	1080
659.622	-209
659.677	570
659.732	-895
659.787	609
659.842	164
659.897	-240
659.952	100
660.007	766
660.061	371
660.116	-142
660.171	-12
660.226	22
660.281	1570
660.336	-1115
660.391	871
660.445	-362
660.500	-265
660.555	-349
660.610	-365
660.664	883
660.719	33
660.774	-243
660.828	1258
660.883	255
660.938	1392
660.992	-1137
661.047	751
661.101	-42
661.156	-320
661.211	-713
661.265	-216
661.320	161
661.374	145
661.429	-472
661.483	723
661.538	-408
661.592	62
661.647	63
661.701	341
661.755	-615
661.810	290
661.864	-741
661.919	79
661.973	-517
662.027	-648
662.081	-197
662.136	124
662.190	216
662.244	445
662.299	-111
662.353	1018
662.407	-1025
662.461	221
662.515	332
662.569	485
662.624	775
662.678	335
662.732	502
662.786	-39
662.840	-163
662.894	678
662.948	-152
663.002	116
663.056	681
663.110	-151
663.164	-336
663.218	306
663.272	-95
663.326	638
663.380	-51
663.434	307
663.488	-572
663.542	121
663.595	117
663.649	29
663.703	371
663.757	-7
663.811	-845
663.864	30
663.918	302
663.972	439
664.026	831
664.079	-77
664.133	418
664.187	80
664.240	414
664.294	620
664.348	-75
664.401	232
664.455	-303
664.508	-553
664.562	-438
664.615	11
664.669	-335
664.722	201
664.776	241
664.829	170
664.883	-309
664.936	-833
664.990	185
665.043	388
665.097	-938
665.150	881
665.203	-1006
665.257	-234
665.310	-60
665.363	-112
665.417	1076
665.470	-279
665.523	-454
665.576	375
665.630	184
665.683	-489
665.736	335
665.789	-411
665.842	95
665.895	136
665.949	-61
666.002	940
666.055	461
666.108	299
666.161	354
666.214	1252
666.267	824
666.320	575
666.373	493
666.426	845
666.479	-398
666.532	-27
666.585	63
666.638	470
666.691	-61
666.744	918
666.796	-282
666.849	422
666.902	581
666.955	-498
667.008	-377
667.060	212
667.113	-1009
667.166	-234
667.219	404
667.271	481
667.324	259
667.377	-292
667.430	364
667.482	490
667.535	-128
667.587	200
667.640	312
667.693	441
667.745	4079
667.798	3093
667.850	219
667.903	162
667.955	-697
668.008	264
668.060	-800
668.113	-711
668.165	-122
668.218	-486
668.270	-64
668.322	-664
668.375	-115
668.427	599
668.479	-256
668.532	797
668.584	-486
668.636	212
668.689	-17
668.741	-363
668.793	-369
668.845	-318
668.898	490
668.950	260
669.002	363
669.054	412
669.106	-807
669.158	418
669.211	-289
669.263	-177
669.315	517
669.367	161
669.419	-350
669.471	481
669.523	264
669.575	1972
669.627	515
669.679	19
669.731	332
669.783	495
669.835	993
669.886	504
669.938	-344
669.990	202
670.042	-510
670.094	420
670.146	-30
670.197	535
670.249	182
670.301	1034
670.353	1356
670.404	2755
670.456	3258
670.508	6279
670.560	12162
670.611	23555
670.663	41308
670.715	111797
670.766	157973
670.818	33842
670.869	5253
670.921	2637
670.972	1315
671.024	1057
671.075	1212
671.127	1254
671.178	-549
671.230	437
671.281	465
671.333	522
671.384	459
671.436	1435
671.487	1940
671.538	4228
671.590	7689
671.641	14056
671.692	27510
671.744	52168
671.795	26684
671.846	7236
671.897	2423
671.949	1263
672.000	709
672.051	611
672.102	932
672.153	103
672.204	374
672.256	-128
672.307	129
672.358	174
672.409	152
672.460	288
672.511	-817
672.562	89
672.613	-523
672.664	-572
672.715	-595
672.766	-249
672.817	21
672.868	-868
672.919	-397
672.970	-199
673.021	-478
673.071	-420
673.122	-362
673.173	-443
673.224	-370
673.275	-1205
673.326	-670
673.376	413
673.427	-1019
673.478	-155
673.528	593
673.579	48
673.630	-26
673.680	166
673.731	-1116
673.782	-78
673.832	-1011
673.883	709
673.934	-466
673.984	-276
674.035	-645
674.085	-153
674.136	-335
674.186	-486
674.237	-552
674.287	-726
674.338	-459
674.388	-896
674.438	-680
674.489	-8
674.539	-317
674.589	-176
674.640	-883
674.690	-420
674.740	-494
674.791	-144
674.841	-579
674.891	-891
674.942	-334
674.992	384
675.042	-637
675.092	-476
675.142	-1391
675.193	-402
675.243	-820
675.293	484
675.343	-956
675.393	-1568
675.443	-36
675.493	-385
675.543	-423
675.593	-510
675.643	-278
675.693	375
675.743	-768
675.793	-420
675.843	-769
675.893	-428
675.943	-638
675.993	-88
676.043	-539
676.093	-8
676.142	-775
676.192	-103
676.242	-756
676.292	-442
676.341	-1025
676.391	-656
676.441	-951
676.491	-129
676.540	-1141
676.590	316
676.640	-426
676.689	-1001
676.739	-1538
676.789	-241
676.838	-821
676.888	-1377
676.937	-1431
676.987	-613
677.037	-757
677.086	-870
677.136	-1170
677.185	-1137
677.235	-1364
677.284	-379
677.333	-715
677.383	-768
677.432	-1095
677.482	-593
677.531	-854
677.580	-455
677.630	-1630
677.679	-604
677.728	-812
677.778	-493
677.827	-595
677.876	-294
677.925	-1059
677.975	-560
678.024	-903
678.073	-1057
678.122	-987
678.171	-1502
678.220	-350
678.269	-439
678.319	-1167
678.368	-802
678.417	-289
678.466	-627
678.515	-789
678.564	-831
678.613	-1639
678.662	-941
678.711	-722
678.760	-611
678.809	-1364
678.857	-80
678.906	-886
678.955	-783
679.004	-755
679.053	-994
679.102	-738
679.151	-655
679.199	-1142
679.248	-644
679.297	-1728
679.346	-585
679.394	-1382
679.443	-1073
679.492	-695
679.540	-515
679.589	-734
679.638	-1365
679.686	-583
679.735	-637
679.784	124
679.832	109
679.881	-1174
679.929	-1613
679.978	-1122
680.026	-1146
680.075	-732
680.123	-639
680.172	-976
680.220	-783
680.268	-1251
680.317	-1417
680.365	-1210
680.414	-734
680.462	-845
680.510	-200
680.559	-1201
680.607	-706
680.655	-746
680.703	-571
680.752	-1595
680.800	-536
680.848	-1196
680.896	-1349
680.945	-644
680.993	-954
681.041	-1194
681.089	-243
681.137	-1478
681.185	-1366
681.233	-1023
681.258	-698
681.281	-404
681.329	-1424
681.377	-1259
681.380	-1216
681.425	-669
681.473	-844
681.502	-1164
681.521	-1416
681.569	-441
681.617	-472
681.624	-511
681.665	-848
681.713	-479
681.745	-207
681.761	-98
681.809	-831
681.857	-917
681.867	-1048
681.904	-1559
681.952	-134
681.989	-707
682.000	-892
682.048	-787
682.096	-259
682.111	-613
682.143	-1438
682.191	-881
682.233	135
682.239	279
682.286	-593
682.334	-676
682.354	-555
682.382	-434
682.430	-389
682.476	-378
682.477	-389
682.525	70
682.572	303
682.598	-67
682.620	-384
682.667	-420
682.715	574
682.720	535
682.763	31
682.810	26
682.841	-381
682.857	-637
682.905	-250
682.952	-759
682.963	-608
683.000	-111
683.047	-762
683.085	493
683.095	831
683.142	-183
683.190	-34
683.206	-32
683.237	-77
683.284	-216
683.328	-357
683.332	-378
683.379	639
683.426	-187
683.449	288
683.473	751
683.521	-95
683.568	241
683.571	284
683.615	687
683.662	904
683.693	135
683.709	-279
683.757	628
683.804	331
683.814	350
683.851	390
683.898	1238
683.936	825
683.945	705
683.992	872
684.039	967
684.057	889
684.086	734
684.133	901
684.179	359
684.180	335
684.227	1249
684.274	1545
684.300	1675
684.321	1674
684.368	1010
684.415	1308
684.422	1184
684.462	416
684.509	641
684.543	802
684.556	874
684.603	906
684.649	531
684.665	597
684.696	751
684.743	1332
684.786	1594
684.790	1601
684.837	1385
684.883	1209
684.908	1204
684.930	1216
684.977	1329
685.023	1184
685.029	1200
685.070	1225
685.117	928
685.150	981
685.164	1007
685.210	1135
685.257	1347
685.272	1385
685.303	1526
685.350	1425
685.393	1209
685.396	1184
685.443	1791
685.490	1773
685.514	2059
685.536	2198
685.583	1651
685.629	1644
685.636	1551
685.675	1060
685.722	2052
685.757	1911
685.768	1833
685.815	1820
685.861	1884
685.878	1833
685.908	1857
685.954	2176
686.000	2422
686.000	2421
686.047	1291
686.093	1588
686.121	1818
686.139	1977
686.185	1668
686.232	1661
686.242	1834
686.278	2363
686.324	1831
686.363	1936
686.370	1945
686.416	1825
686.463	1713
686.484	1774
686.509	1906
686.555	1686
686.601	1783
686.606	1811
686.647	1919
686.693	2003
686.727	1782
686.739	1725
686.785	1756
686.831	1832
686.848	1828
686.877	1842
686.923	2113
686.969	2050
686.969	2050
687.015	1976
687.061	2143
687.090	2323
687.107	2327
687.153	2737
687.199	2298
687.211	2268
687.245	2312
687.291	2208
687.332	2421
687.336	2434
687.382	2590
687.428	2218
687.453	2329
687.474	2465
687.520	2500
687.565	2601
687.574	2531
687.611	2276
687.657	2606
687.695	2806
687.702	2895
687.748	4161
687.794	4328
687.816	4487
687.839	4222
687.885	3718
687.931	2763
687.937	2751
687.976	2978
688.022	3468
688.058	3031
688.067	2934
688.113	2767
688.158	2575
688.179	2705
688.204	2939
688.249	3214
688.295	3146
688.300	3150
688.340	3026
688.386	2950
688.421	3143
688.431	3249
688.477	2764
688.522	2948
688.542	3261
688.567	3641
688.613	3505
688.658	3588
688.663	3588
688.703	3446
688.749	3065
688.784	3372
688.794	3470
688.839	3085
688.884	2688
688.905	2840
688.930	3145
688.975	3286
689.020	3301
689.026	3319
689.065	3313
689.110	3123
689.146	3049
689.155	3062
689.201	3467
689.246	3464
689.267	3590
689.291	3637
689.336	3373
689.381	3417
689.388	3303
689.426	2824
689.471	3403
689.509	3516
689.516	3561
689.561	3522
689.606	3288
689.630	3638
689.651	3874
689.696	3387
689.741	3383
689.750	3287
689.785	3111
689.830	3840
689.871	3464
689.875	3421
689.920	3386
689.965	3733
689.992	3645
690.010	3659
690.054	3812
690.099	3867
690.112	3936
690.144	3986
690.189	3925
690.233	3460
690.233	3466
690.278	3911
690.323	3450
690.354	3539
690.367	3618
690.412	3991
690.457	3803
690.474	3893
690.501	3971
690.546	4151
690.590	3913
690.595	3904
690.635	4112
690.680	4019
690.716	4573
690.724	4645
690.769	4217
690.813	4387
690.836	4211
690.857	4566
690.902	5186
690.946	5854
690.957	6133
690.991	7527
691.035	9159
691.077	10741
691.080	10747
691.124	10160
691.168	9563
691.198	9107
691.213	8650
691.257	7448
691.301	6044
691.318	5544
691.346	5364
691.390	4615
691.434	4930
691.439	4854
691.478	4561
691.522	4629
691.559	4445
691.567	4505
691.611	5240
691.655	5344
691.680	5644
691.699	5516
691.743	5321
691.787	4521
691.800	4426
691.831	4532
691.875	4299
691.919	4360
691.921	4346
691.964	4231
692.008	4283
692.041	4275
692.052	4369
692.096	4588
692.139	5170
692.162	5210
692.183	5058
692.227	4732
692.271	4646
692.282	4562
692.315	4495
692.359	4732
692.402	4664
692.403	4676
692.447	4605
692.490	4994
692.523	4635
692.534	4535
692.578	4761
692.622	4671
692.643	4771
692.666	4854
692.709	4603
692.753	4501
692.763	4489
692.797	4736
692.840	4743
692.884	5054
692.884	5067
692.928	4932
692.971	4741
693.004	4678
693.015	4775
693.059	5140
693.102	5409
693.124	5583
693.146	5521
693.189	5525
693.233	5217
693.245	5147
693.276	5247
693.320	5188
693.363	5283
693.365	5266
693.407	5538
693.450	5916
693.485	6471
693.493	6604
693.537	7065
693.580	7182
693.605	7429
693.624	7981
693.667	8925
693.710	10157
693.725	10508
693.753	12844
693.797	16675
693.840	20692
693.845	21055
693.883	19685
693.926	18370
693.966	17091
693.970	16835
694.013	13918
694.056	11049
694.086	8950
694.099	8697
694.142	7667
694.185	6869
694.206	6427
694.229	6526
694.272	6591
694.315	6920
694.326	6918
694.358	6947
694.401	7458
694.444	7280
694.446	7267
694.487	7264
694.530	7142
694.566	7219
694.573	7215
694.616	6734
694.659	6525
694.686	6274
694.702	6172
694.745	6039
694.787	5801
694.806	5588
694.830	5516
694.873	5652
694.916	5489
694.926	5465
694.959	5683
695.002	6058
695.044	6301
695.046	6307
695.087	6590
695.130	6250
695.166	6373
695.172	6439
695.215	6329
695.258	6661
695.286	6750
695.301	6745
695.343	6601
695.386	6554
695.406	6309
695.428	6161
695.471	6268
695.514	6590
695.526	6516
695.556	6523
695.599	6907
695.641	7113
695.646	7104
695.684	6924
695.726	6936
695.766	6740
695.769	6753
695.811	6669
695.854	6751
695.886	6655
695.896	6671
695.938	6823
695.981	6743
696.005	6755
696.023	6769
696.065	6774
696.108	6873
696.125	6795
696.150	6813
696.192	6980
696.235	7101
696.245	7075
696.277	7149
696.319	7307
696.361	7548
696.365	7541
696.404	7588
696.446	7740
696.485	7710
696.488	7732
696.530	7672
696.572	7695
696.604	7683
696.614	7676
696.656	7404
696.698	7496
696.724	7319
696.740	7304
696.783	7354
696.825	7414
696.844	7437
696.867	7469
696.909	7337
696.951	7178
696.964	7149
696.992	7227
697.034	7292
697.076	7298
697.083	7286
697.118	7542
697.160	7848
697.202	8146
697.203	8127
697.244	7899
697.286	7830
697.323	7592
697.327	7628
697.369	7853
697.411	8102
697.442	8255
697.453	8227
697.494	7875
697.536	7746
697.562	7537
697.578	7625
697.620	7838
697.661	8009
697.682	8093
697.703	8438
697.744	9113
697.786	9838
697.801	10020
697.828	10225
697.869	10531
697.911	10795
697.921	10858
697.952	10096
697.994	8954
698.035	7856
698.040	7698
698.077	7719
698.118	7702
698.160	7685
698.160	7660
698.201	7763
698.243	7802
698.279	7872
698.284	7913
698.325	7987
698.367	8153
698.399	8200
698.408	8256
698.449	8444
698.491	8622
698.518	8700
698.532	8802
698.573	9024
698.614	9299
698.638	9402
698.656	9307
698.697	9061
698.738	8771
698.757	8617
698.779	8634
698.820	8601
698.862	8586
698.877	8555
698.903	8793
698.944	9127
698.985	9463
698.996	9530
699.026	9284
699.067	8908
699.116	8434
699.235	8774
699.354	8276
699.474	8723
699.593	8268
699.713	9294
699.832	9003
699.951	9783
700.070	9105
700.190	8365
700.309	7684
700.428	7602
700.547	8230
700.667	7752
700.786	8561
700.905	8347
701.024	8133
701.143	7587
701.262	8500
701.381	8069
701.500	8183
701.619	10709
701.738	9004
701.857	7229
701.976	8245
702.095	8752
702.214	9998
702.333	8555
702.452	7450
702.571	7374
702.690	8563
702.809	7731
702.928	7369
703.047	7774
703.165	7407
703.284	7487
703.403	7813
703.522	8440
703.640	8291
703.759	8707
703.878	8865
703.997	6767
704.115	7434
704.234	7174
704.353	7465
704.471	7155
704.590	6980
704.708	6723
704.827	6995
704.946	6963
705.064	6494
705.183	6867
705.301	7358
705.420	7626
705.538	7405
705.656	6888
705.775	7158
705.893	8867
706.012	10129
706.130	7382
706.249	7722
706.367	7071
706.485	6301
706.604	6791
706.722	7705
706.840	9672
706.958	11896
707.077	7640
707.195	7000
707.313	6403
707.431	6492
707.549	5952
707.668	6257
707.786	6637
707.904	6587
708.022	6245
708.140	6728
708.258	6917
708.376	6876
708.494	5965
708.612	6827
708.730	8295
708.848	7207
708.966	7249
709.084	8151
709.202	7354
709.320	6534
709.438	5692
709.556	6555
709.674	6430
709.791	6508
709.909	5944
710.027	6278
710.145	6503
710.263	6556
710.380	6206
710.498	6251
710.616	6373
710.733	6313
710.851	6535
710.969	6619
711.086	5882
711.204	6416
711.322	6906
711.439	6026
711.557	6553
711.674	5784
711.792	6600
711.909	5719
712.027	5372
712.144	5435
712.262	4861
712.379	5938
712.497	7252
712.614	6410
712.732	7248
712.849	6560
712.966	6761
713.084	9276
713.201	6712
713.318	6859
713.436	6031
713.553	6872
713.670	6842
713.787	6909
713.905	6872
714.022	7070
714.139	7610
714.256	10774
714.373	16085
714.490	34058
714.608	105323
714.725	461605
714.842	384823
714.959	26704
715.076	11894
715.193	9173
715.310	8245
715.427	7084
715.544	6606
715.661	6436
715.778	6049
715.895	6426
716.011	6752
716.128	7044
716.245	6818
716.362	8556
716.479	8501
716.596	6244
716.713	5776
716.829	6614
716.946	5862
717.063	5188
717.180	4564
717.296	5602
717.413	6184
717.530	5183
717.646	5302
717.763	5308
717.880	5078
717.996	5688
718.113	4876
718.229	5139
718.346	5080
718.462	6316
718.579	7953
718.695	16633
718.812	8589
718.928	6928
719.045	4108
719.161	5168
719.277	5063
719.394	6199
719.510	5481
719.626	7188
719.743	8779
719.859	13104
719.975	30503
720.092	138885
720.208	279227
720.324	25624
720.440	7272
720.557	6402
720.673	13343
720.789	9735
720.905	10129
721.021	5810
721.137	4459
721.253	4863
721.369	4530
721.486	4801
721.602	5370
721.718	4469
721.834	4538
721.950	4689
722.066	2946
722.181	4601
722.297	5549
722.413	4413
722.529	4136
722.645	4958
722.761	3894
722.877	4379
722.993	4918
723.108	5575
723.224	5216
723.340	4659
723.456	4606
723.571	4405
723.687	3465
723.803	3660
723.918	4245
724.034	3916
724.150	2840
724.265	4001
724.381	5790
724.497	5183
724.612	4772
724.728	3613
724.843	3341
724.959	3623
725.074	5674
725.190	4971
725.305	3410
725.421	3987
725.536	4051
725.651	3749
725.767	3712
725.882	3857
725.997	3026
726.113	4081
726.228	3315
726.343	3318
726.459	3521
726.574	3337
726.689	3421
726.804	4166
726.920	3523
727.035	2925
727.150	3092
727.265	3055
727.380	3327
727.495	3573
727.610	3310
727.725	4020
727.841	4808
727.956	5007
728.071	4527
728.186	3271
728.301	3494
728.416	3424
728.531	3690
728.645	3905
728.760	3851
728.875	4790
728.990	4423
729.105	3588
729.220	4854
729.335	4335
729.449	3175
729.564	3064
729.679	3063
729.794	3556
729.908	3735
730.023	3713
730.138	3038
730.253	3303
730.367	3024
730.482	3085
730.596	3428
730.711	4079
730.826	4330
730.940	4405
731.055	4220
731.169	3851
731.284	3298
731.398	3424
731.513	4089
731.627	4697
731.742	4833
731.856	4914
731.970	6066
732.085	7482
732.199	10521
732.313	20071
732.428	55928
732.542	169516
732.656	81939
732.771	14238
732.885	8272
732.999	6319
733.113	6020
733.227	4941
733.342	5464
733.456	5039
733.570	4250
733.684	3955
733.798	5020
733.912	4186
734.026	4311
734.140	4569
734.254	3962
734.368	4817
734.482	5402
734.596	4237
734.710	4510
734.824	4091
734.938	4127
735.052	3983
735.166	4343
735.280	3854
735.393	3757
735.507	4542
735.621	4203
735.735	4169
735.849	3780
735.962	4479
736.076	3672
736.190	3967
736.303	4562
736.417	4620
736.531	3419
736.644	2913
736.758	4059
736.872	3422
736.985	4034
737.099	4689
737.212	3274
737.326	4429
737.439	3505
737.553	3983
737.666	4695
737.780	3021
737.893	3347
738.007	3373
738.120	3988
738.233	3978
738.347	3151
738.460	3152
738.573	4266
738.687	4283
738.800	4506
738.913	5512
739.026	3401
739.140	3517
739.253	2924
739.366	3753
739.479	3064
739.592	3212
739.705	3111
739.818	4337
739.932	2723
740.045	3603
740.158	3543
740.271	3354
740.384	4031
740.497	3352
740.610	4306
740.723	3397
740.836	3535
740.949	4852
741.062	5661
741.174	5110
741.287	3735
741.400	3424
741.513	3705
741.626	4757
741.739	4147
741.851	3810
741.964	2940
742.077	3160
742.189	3087
742.302	4243
742.415	3662
742.527	3452
742.640	2773
742.753	2897
742.865	2559
742.978	2659
743.090	2981
743.203	2780
743.316	3014
743.428	2120
743.541	2209
743.653	1815
743.766	2776
743.878	2943
743.990	2878
744.103	4196
744.215	2800
744.327	3223
744.440	4452
744.552	7165
744.664	3602
744.777	2685
744.889	1819
745.001	2889
745.113	2711
745.226	1835
745.338	2478
745.450	2990
745.562	3081
745.674	2025
745.786	2238
745.898	2387
746.010	2958
746.122	3247
746.234	1855
746.347	2718
746.459	2782
746.570	3218
746.682	2566
746.794	2837
746.906	2147
747.018	1881
747.130	2268
747.242	2715
747.354	2323
747.466	3389
747.577	2347
747.689	3466
747.801	1838
747.913	1349
748.024	2621
748.136	2475
748.248	2153
748.359	1872
748.471	2658
748.583	2055
748.694	2339
748.806	3054
748.918	2208
749.029	2539
749.141	2339
749.252	2857
749.364	4132
749.475	8691
749.587	3220
749.698	2126
749.809	2729
749.921	2201
750.032	2141
750.144	1819
750.255	2080
750.366	1926
750.478	1928
750.589	2587
750.700	2027
750.811	3555
750.923	4514
751.034	9376
751.145	7784
751.256	2166
751.367	2288
751.479	2702
751.590	2284
751.701	2057
751.812	1460
751.923	2072
752.034	1836
752.145	1854
752.256	1899
752.367	1949
752.478	1198
752.589	3122
752.700	1884
752.811	1075
752.922	2180
753.032	2071
753.143	2950
753.254	1959
753.365	1800
753.476	1721
753.586	2384
753.697	2136
753.808	1865
753.919	1772
754.029	1081
754.140	1661
754.251	2195
754.361	1310
754.472	2008
754.582	2134
754.693	1904
754.804	2419
754.914	1301
755.025	1241
755.135	1442
755.246	1989
755.356	1119
755.466	2007
755.577	2232
755.687	2239
755.798	1202
755.908	1799
756.018	822
756.129	1498
756.239	1913
756.349	2030
756.460	832
756.570	1890
756.680	1910
756.790	1889
756.900	2792
757.011	1483
757.121	1417
757.231	2057
757.341	1450
757.451	1247
757.561	1394
757.671	1786
757.781	1645
757.891	2375
758.001	1536
758.111	1868
758.221	1202
758.331	2697
758.441	2784
758.551	3668
758.661	4127
758.771	1908
758.880	2879
758.990	1793
759.100	2059
759.210	1699
759.320	1381
759.429	3201
759.539	2171
759.649	2399
759.758	2702
759.868	3402
759.978	2714
760.087	3768
760.197	3343
760.307	2957
760.416	2403
760.526	2405
760.635	3054
760.745	3259
760.854	2207
760.964	4442
761.073	3685
761.182	3664
761.292	3100
761.401	3756
761.511	2370
761.620	2678
761.729	2387
761.839	1648
761.948	2933
762.057	1620
762.166	1890
762.276	1529
762.385	2378
762.494	2498
762.603	2318
762.712	2891
762.822	1958
762.931	1254
763.040	876
763.149	1254
763.258	1997
763.367	2004
763.476	1553
763.585	2377
763.694	1999
763.803	2203
763.912	3685
764.021	1556
764.130	1702
764.238	2382
764.347	2396
764.456	3415
764.565	3419
764.674	3440
764.783	3845
764.891	3030
765.000	4216
765.109	4165
765.217	4599
765.326	5696
765.435	6376
765.543	7674
765.652	8382
765.761	11670
765.869	16704
765.978	27928
766.086	49028
766.195	101106
766.303	248083
766.412	520099
766.520	387876
766.629	148717
766.737	58675
766.846	32421
766.954	20446
767.062	15326
767.171	11753
767.279	8939
767.387	7813
767.496	6492
767.604	6424
767.712	5104
767.820	4346
767.928	4257
768.037	4059
768.145	4392
768.253	4243
768.361	3132
768.469	3849
768.577	3680
768.685	3788
768.793	5075
768.901	3995
769.009	5300
769.117	5689
769.225	8081
769.333	12014
769.441	18753
769.549	36449
769.657	87579
769.765	267964
769.873	403057
769.981	163096
770.088	44561
770.196	21663
770.304	13709
770.412	11408
770.519	7428
770.627	6483
770.735	5109
770.842	3742
770.950	4303
771.058	3653
771.165	4718
771.273	3512
771.380	3840
771.488	3203
771.595	2772
771.703	2971
771.810	2622
771.918	2911
772.025	2843
772.133	2756
772.240	2794
772.348	3296
772.455	3229
772.562	2883
772.670	3007
772.777	3110
772.884	2905
772.991	2771
773.099	3035
773.206	2321
773.313	2768
773.420	2759
773.528	1966
773.635	2388
773.742	2709
773.849	2076
773.956	2250
774.063	2462
774.170	2817
774.277	3276
774.384	1692
774.491	2381
774.598	2371
774.705	2772
774.812	2653
774.919	1606
775.026	1757
775.133	2624
775.239	2732
775.346	2023
775.453	2061
775.560	1475
775.667	1291
775.773	1055
775.880	2137
775.987	2007
776.093	1856
776.200	1937
776.307	1374
776.413	2408
776.520	1915
776.627	2255
776.733	2042
776.840	607
776.946	2957
777.053	1589
777.159	2634
777.266	256
777.372	2933
777.478	2218
777.585	1958
777.691	1517
777.798	2497
777.904	2254
778.010	2458
778.117	2257
778.223	1438
778.329	1351
778.435	1051
778.542	1385
778.648	1609
778.754	1133
778.860	1748
778.966	658
779.072	1748
779.178	1361
779.284	1548
779.391	1448
779.497	757
779.603	3168
779.708	990
779.815	4883
779.920	14666
780.026	22521
780.132	2583
780.238	909
780.344	1877
780.450	1895
780.556	956
780.661	1550
780.767	2162
780.873	1426
780.979	1630
781.085	761
781.190	1873
781.296	2110
781.402	743
781.507	512
781.613	638
781.719	307
781.824	1668
781.930	1771
782.035	2204
782.141	1485
782.246	1520
782.352	600
782.457	1154
782.563	572
782.668	922
782.773	739
782.879	735
782.984	1800
783.090	1885
783.195	3321
783.300	2582
783.405	644
783.511	853
783.616	1959
783.721	466
783.826	722
783.932	2416
784.037	1531
784.142	810
784.247	1458
784.352	1539
784.457	772
784.562	1701
784.667	731
784.772	1057
784.877	-95
784.982	1462
785.087	552
785.192	999
785.297	1087
785.402	918
785.507	1571
785.611	914
785.716	490
785.821	1272
785.926	148
786.031	132
786.135	1106
786.240	1643
786.345	406
786.450	2148
786.554	681
786.659	-48
786.763	-385
786.868	975
786.973	1203
787.077	889
787.182	897
787.286	1117
787.391	636
787.495	1022
787.600	692
787.704	272
787.809	759
787.913	319
788.017	849
788.122	127
788.226	581
788.330	164
788.435	1093
788.539	513
788.643	-171
788.747	-294
788.852	403
788.956	972
789.060	380
789.164	734
789.268	-30
789.372	1754
789.476	-167
789.580	506
789.684	142
789.788	1267
789.892	210
789.996	1200
790.100	128
790.204	733
790.308	1146
790.412	634
790.516	345
790.620	-161
790.724	435
790.828	-66
790.931	94
791.035	1433
791.139	691
791.242	473
791.346	1423
791.450	841
791.554	325
791.657	-18
791.761	1034
791.864	1526
791.968	919
792.072	958
792.175	507
792.279	842
792.382	1046
792.486	555
792.589	-431
792.693	1824
792.796	55
792.899	927
793.003	1084
793.106	-411
793.209	46
793.313	1190
793.416	-552
793.519	1673
793.623	2645
793.726	2906
793.829	309
793.932	317
794.035	488
794.138	1943
794.242	1434
794.345	60
794.448	1176
794.551	3659
794.654	8649
794.757	11408
794.860	2614
794.963	402
795.066	-923
795.169	962
795.272	-85
795.375	820
795.477	566
795.580	492
795.683	-180
795.786	877
795.889	36
795.991	716
796.094	477
796.197	-950
796.300	1173
796.402	298
796.505	142
796.608	-232
796.710	224
796.813	311
796.915	-2
797.018	1012
797.120	388
797.223	-599
797.326	970
797.428	144
797.530	692
797.633	345
797.735	1055
797.838	443
797.940	1081
798.042	-159
798.145	27
798.247	1654
798.349	-537
798.452	678
798.554	-328
798.656	-329
798.758	1365
798.860	247
798.962	-361
799.065	-7
799.167	-935
799.269	2070
799.371	610
799.473	1337
799.575	275
799.677	300
799.779	2882
799.881	1177
799.983	1866
800.085	339
800.187	171
800.289	158
800.390	529
800.492	653
800.594	1487
800.696	651
800.798	579
800.899	720
801.001	-720
801.103	-93
801.205	391
801.306	230
801.408	-59
801.509	805
801.611	262
801.713	958
801.814	-588
801.916	-164
802.017	360
802.119	-172
802.220	133
802.322	-1257
802.423	807
802.525	-728
802.626	959
802.727	788
802.829	938
802.930	-1434
803.031	1691
803.133	61
803.234	-372
803.335	-118
803.436	-588
803.538	248
803.639	-1339
803.740	1064
803.841	-559
803.942	-253
804.043	-140
804.144	-436
804.245	-45
804.346	-588
804.447	440
804.548	2145
804.649	2052
804.750	119
804.851	-59
804.952	-707
805.053	-151
805.154	-1065
805.255	606
805.355	241
805.456	-251
805.557	-329
805.658	-738
805.758	868
805.859	330
805.960	-358
806.061	-1134
806.161	-544
806.262	39
806.362	-135
806.463	-77
806.564	652
806.664	-141
806.765	88
806.865	-609
806.966	-311
807.066	-611
807.166	533
807.267	673
807.367	-1078
807.468	58
807.568	-1156
807.668	915
807.769	465
807.869	-636
807.969	-35
808.069	-144
808.170	98
808.270	-605
808.370	-136
808.470	1376
808.570	-81
808.670	-514
808.770	-217
808.870	-495
808.970	43
809.070	-1078
809.170	-1034
809.271	-278
809.370	-588
809.470	289
809.570	-1035
809.670	-710
809.770	467
809.870	-212
809.970	89
810.070	-979
810.169	130
810.269	-1286
810.369	182
810.469	-861
810.568	-270
810.668	-503
810.768	128
810.867	311
810.967	-665
811.066	-481
811.166	-491
811.265	250
811.365	-903
811.464	-474
811.564	-180
811.663	424
811.763	-1387
811.862	-375
811.962	536
812.061	-690
812.160	-753
812.260	-147
812.359	8
812.458	-544
812.557	1181
812.657	618
812.756	1050
812.855	36
812.954	-309
813.053	906
813.153	-530
813.252	-436
813.351	1046
813.450	-558
813.549	-744
813.648	-246
813.747	146
813.846	-90
813.945	-1055
814.044	458
814.143	252
814.242	720
814.341	-1134
814.439	646
814.538	72
814.637	-186
814.736	-942
814.835	1051
814.933	-810
815.032	786
815.131	157
815.229	51
815.328	584
815.427	614
815.525	1524
815.624	839
815.722	528
815.821	683
815.919	918
816.018	335
816.116	1135
816.215	527
816.313	752
816.412	956
816.510	1272
816.609	2457
816.707	1328
816.805	1513
816.904	1252
817.002	1630
817.100	2602
817.198	3267
817.296	2416
817.395	3364
817.493	4596
817.591	3306
817.689	5589
817.787	7754
817.885	11942
817.983	22650
818.081	48897
818.179	122670
818.277	292236
818.375	236628
818.473	66227
818.571	26072
818.669	16959
818.767	14684
818.865	14978
818.963	17354
819.061	26533
819.158	45863
819.256	98159
819.354	225548
819.452	440510
819.549	282099
819.647	88953
819.745	37007
819.842	21491
819.940	14845
820.038	10590
820.135	7832
820.233	6927
820.330	4973
820.428	4066
820.525	4418
820.623	3309
820.720	1569
820.818	2113
820.915	2118
821.012	2414
821.110	1772
821.207	2083
821.304	1418
821.402	1599
821.499	1978
821.596	1433
821.693	1493
821.791	1979
821.888	2256
821.985	5152
822.082	3447
822.179	1659
822.276	154
822.373	1078
822.470	996
822.567	1454
822.664	-354
822.761	1446
822.858	130
822.955	993
823.052	922
823.149	-145
823.246	592
823.343	167
823.440	993
823.536	-155
823.633	-444
823.730	293
823.827	413
823.923	509
824.020	1124
824.117	529
824.213	-113
824.310	709
824.407	-415
824.503	277
824.600	302
824.696	950
824.793	1187
824.889	-254
824.986	-441
825.082	-239
825.179	451
825.275	333
825.371	-536
825.468	-523
825.564	-151
825.660	-111
825.757	-68
825.853	594
825.949	-463
826.045	293
826.142	-56
826.238	90
826.334	847
826.430	-755
826.526	795
826.622	-54
826.718	-454
826.814	-251
826.910	485
827.006	-486
827.102	-1204
827.198	1188
827.294	-484
827.390	364
827.486	368
827.582	-1056
827.678	-1065
827.774	429
827.869	-1262
827.965	511
828.061	-1237
828.157	-143
828.252	-95
828.348	-175
828.444	551
828.539	-1383
828.635	-158
828.731	307
828.826	-468
828.922	148
829.017	268
829.113	712
829.208	-572
829.304	-377
829.399	815
829.495	-532
829.590	645
829.685	-748
829.781	-870
829.876	-7
829.971	-1073
830.066	-712
830.162	-383
830.257	-517
830.352	-745
830.447	136
830.543	-23
830.638	-812
830.733	-94
830.828	-816
830.923	548
831.018	-358
831.113	-424
831.208	-270
831.303	-709
831.398	-901
831.493	-932
831.588	24
831.683	-1111
831.778	505
831.873	-671
831.967	268
832.062	-1030
832.157	-614
832.252	-213
832.346	-232
832.441	208
832.536	1575
832.631	4237
832.725	2439
832.820	-299
832.914	-309
833.009	-1105
833.104	140
833.198	865
833.293	-1244
833.387	446
833.482	-609
833.576	-581
833.670	19
833.765	-365
833.859	-189
833.954	706
834.048	-1269
834.142	-244
834.237	-493
834.331	-320
834.425	-152
834.519	-999
834.613	352
834.708	-500
834.802	-37
834.896	-1151
834.990	-460
835.084	-237
835.178	-1047
835.272	-1317
835.366	-671
835.460	501
835.554	-452
835.648	-1290
835.742	-1167
835.836	-597
835.930	-1344
836.024	134
836.117	564
836.211	-1006
836.305	-565
836.399	260
836.493	-1432
836.586	33
836.680	-940
836.774	-1139
836.867	-220
836.961	-898
837.055	-450
837.148	-775
837.242	-968
837.335	-962
837.429	-862
837.522	-1079
837.616	-541
837.709	44
837.803	-1070
837.896	184
837.989	-352
838.083	-670
838.176	-21
838.269	-1177
838.363	-171
838.456	-665
838.549	680
838.642	1889
838.735	4266
838.829	1590
838.922	-787
839.015	-463
839.108	-1009
839.201	-1028
839.294	-370
839.387	-621
839.480	-1889
839.573	-714
839.666	-433
839.759	-687
839.852	-1113
839.945	-812
840.038	-964
840.131	-139
840.223	-1217
840.316	496
840.409	-963
840.502	-1359
840.594	-311
840.687	-1223
840.780	-227
840.873	-781
840.965	-1424
841.058	-342
841.150	427
841.243	-1348
841.336	-49
841.428	-1603
841.521	-883
841.613	-1609
841.706	-444
841.798	-149
841.890	-647
841.983	-1138
842.075	385
842.167	-559
842.260	-263
842.352	-287
842.444	-1020
842.537	345
842.629	-219
842.721	-823
842.813	-1122
842.905	-1723
842.997	-557
843.090	-912
843.182	-558
843.274	-561
843.366	477
843.458	1453
843.550	1099
843.642	-871
843.734	-209
843.826	-909
843.918	-238
844.009	-411
844.101	-1172
844.193	-397
844.285	-749
844.377	-967
844.469	161
844.560	-883
844.652	-510
844.744	-858
844.835	-709
844.927	-439
845.019	-206
845.110	-431
845.202	-369
845.293	-655
845.385	-935
845.476	-564
845.568	456
845.659	-319
845.751	-110
845.842	-1403
845.934	-787
846.025	-1615
846.116	-837
846.208	-656
846.299	-1208
846.390	-714
846.482	-754
846.573	-71
846.664	-1037
846.755	224
846.846	382
846.937	-2060
847.029	-466
847.120	-849
847.211	-1380
847.302	770
847.393	-1008
847.484	328
847.575	-793
847.666	-959
847.757	-1090
847.847	-536
847.938	314
848.029	-464
848.120	-1584
848.211	-488
848.302	-845
848.392	-1234
848.483	266
848.574	-1080
848.664	-1439
848.755	-737
848.846	-211
848.936	-1944
849.027	-898
849.118	-228
849.208	-1268
849.299	783
849.389	1963
849.480	5427
849.570	10403
849.661	21570
849.751	37012
849.841	10872
849.932	1017
850.022	-505
850.112	-648
850.203	-469
850.293	-1087
850.383	-75
850.474	-1272
850.564	-1668
850.654	-573
850.744	-1318
850.834	-771
850.924	-1002
851.014	-89
851.104	6
851.194	-152
851.284	14
851.374	-337
851.464	-466
851.554	-1180
851.644	-1576
851.734	-39
851.824	-658
851.914	-515
852.004	-372
852.094	-290
852.183	-545
852.273	-368
852.363	-834
852.452	-369
852.542	-684
852.632	0
852.721	-481
852.811	-891
852.901	-596
852.990	-1231
853.080	-302
853.169	-140
853.259	-716
853.348	-141
853.438	585
853.527	1314
853.617	3008
853.706	6523
853.795	14381
853.885	34181
853.974	64824
854.063	122152
854.152	176375
854.242	61428
854.331	10165
854.420	2598
854.509	1593
854.598	1736
854.687	1109
854.777	799
854.866	-81
854.955	796
855.044	-820
855.133	184
855.222	-1694
855.311	-855
855.400	-150
855.488	-410
855.577	-1584
855.666	-892
855.755	-514
855.844	-547
855.933	-1436
856.021	-295
856.110	-921
856.199	-1666
856.288	-988
856.376	-711
856.465	-1448
856.554	-425
856.642	-1610
856.731	-1088
856.819	-402
856.908	-719
856.996	-1142
857.085	-917
857.173	-967
857.262	-1173
857.350	-613
857.438	-284
857.527	-82
857.615	-1586
857.703	-395
857.792	-1003
857.880	-1039
857.968	-831
858.056	-1049
858.145	-584
858.233	-1464
858.321	-832
858.409	-227
858.497	-1603
858.585	-1234
858.673	-340
858.761	-1494
858.849	-909
858.937	-595
859.025	-895
859.113	-929
859.201	-1353
859.289	-1375
859.377	-1287
859.465	-1042
859.552	-1125
859.640	-980
859.728	75
859.816	-1112
859.903	-160
859.991	-1093
860.079	-1013
860.166	-1468
860.254	-981
860.342	-632
860.429	-789
860.517	-1727
860.604	-797
860.692	-1548
860.779	-1283
860.867	-484
860.954	-705
861.042	-415
861.129	-254
861.216	-669
861.304	-642
861.391	-1760
861.478	-778
861.565	-284
861.653	-267
861.740	-1174
861.827	-568
861.914	-749
862.001	-979
862.089	-675
862.176	-218
862.263	-1340
862.350	-1417
862.437	-1531
862.524	-1039
862.611	-1438
862.698	50
862.785	-1080
862.871	-365
862.958	-1437
863.045	-766
863.132	-813
863.219	-651
863.306	-1513
863.392	-883
863.479	-1007
863.566	51
863.652	-583
863.739	-506
863.826	-519
863.912	-627
863.999	-1472
864.086	-617
864.172	-976
864.259	-186
864.345	-902
864.432	-1003
864.518	-588
864.604	-1129
864.691	242
864.777	107
864.863	-120
864.950	218
865.036	-57
865.122	788
865.209	298
865.295	958
865.381	1329
865.467	1052
865.553	2223
865.639	2785
865.726	7179
865.812	17138
865.898	33509
865.984	49786
866.070	93412
866.156	93664
866.242	22616
866.328	5579
866.414	1539
866.499	1529
866.585	1062
866.671	987
866.757	750
866.843	1120
866.928	-303
867.014	74
867.100	257
867.186	441
867.271	824
867.357	986
867.442	-444
867.528	-118
867.614	-744
867.699	167
867.785	1025
867.870	-49
867.956	39
868.041	743
868.127	645
868.212	-175
868.297	-2
868.383	913
868.468	900
868.553	1306
868.639	2276
868.724	5510
868.809	4151
868.894	240
868.979	120
869.065	-182
869.150	-653
869.235	-741
869.320	-1004
869.405	-700
869.490	-815
869.575	-849
869.660	-390
869.745	577
869.830	-233
869.915	-168
870.000	-835
870.085	-52
870.169	-270
870.254	56
870.339	-1060
870.424	-956
870.509	162
870.593	-158
870.678	20
870.763	106
870.847	-517
870.932	-381
871.016	258
871.101	-705
871.186	-717
871.270	35
871.355	-773
871.439	-437
871.523	-879
871.608	-746
871.692	-647
871.777	0
871.861	-647
871.945	-1089
872.030	-1131
872.114	-341
872.198	-601
872.282	-506
872.367	-917
872.451	-1098
872.535	-995
872.619	-954
872.703	-408
872.787	-169
872.871	-1257
872.955	-1286
873.039	-871
873.123	-385
873.207	-291
873.291	-1274
873.375	-1201
873.459	-227
873.543	-779
873.627	-625
873.711	-446
873.794	-830
873.878	-1352
873.962	-1318
874.045	-961
874.129	173
874.137	58
874.213	-1094
874.245	-1065
874.296	-1018
874.352	-813
874.380	-715
874.460	-583
874.464	-577
874.547	-1056
874.568	-926
874.631	-559
874.676	-621
874.714	-678
874.784	-962
874.798	-1011
874.881	688
874.892	471
874.965	-1075
874.999	-593
875.048	79
875.107	-530
875.131	-795
875.215	-362
875.215	-362
875.298	-318
875.323	-202
875.381	15
875.430	-297
875.465	-504
875.538	-342
875.548	-315
875.631	-618
875.646	-709
875.714	-1227
875.753	-1129
875.798	-984
875.861	-970
875.881	-973
875.964	175
875.968	122
876.047	-727
876.076	-309
876.130	353
876.183	-370
876.213	-680
876.291	4
876.296	38
876.379	-559
876.398	-508
876.462	-415
876.506	-727
876.545	-925
876.613	-894
876.628	-880
876.711	-338
876.721	-365
876.794	-565
876.828	-673
876.877	-915
876.935	-673
876.960	-543
877.043	-447
877.043	-449
877.125	-511
877.150	-490
877.208	-577
877.258	-92
877.291	271
877.365	-361
877.374	-435
877.456	449
877.472	471
877.539	495
877.579	104
877.622	-293
877.687	142
877.704	291
877.787	-222
877.794	-181
877.869	120
877.901	58
877.952	-48
878.008	-607
878.034	-838
878.115	-332
878.117	-321
878.199	-461
878.222	-393
878.282	-234
878.329	-331
878.364	-326
878.437	173
878.447	228
878.529	-402
878.544	-439
878.611	-719
878.651	-759
878.694	-653
878.758	-322
878.776	-229
878.858	209
878.865	162
878.941	-823
878.972	-751
879.023	-258
879.078	-443
879.105	-623
879.185	-33
879.187	-17
879.269	-9
879.292	-175
879.351	-590
879.399	-419
879.433	-472
879.506	-708
879.516	-649
879.598	-186
879.613	-138
879.680	-432
879.720	-396
879.762	-261
879.827	-59
879.844	1
879.926	-399
879.933	-362
880.007	-59
880.040	-263
880.089	-453
880.147	162
880.171	408
880.253	763
880.254	765
880.335	1235
880.360	1467
880.417	2153
880.467	3049
880.499	3625
880.574	3991
880.580	3954
880.662	1171
880.680	833
880.744	77
880.787	-59
880.825	-347
880.893	-572
880.907	-519
880.989	-551
881.000	-495
881.070	-116
881.106	141
881.152	271
881.213	-144
881.233	-271
881.315	-242
881.319	-236
881.396	37
881.426	-115
881.478	-427
881.532	-254
881.559	-126
881.639	-335
881.641	-346
881.722	-208
881.745	-400
881.803	-327
881.852	246
881.885	344
881.958	-221
881.966	-233
882.047	147
882.064	194
882.129	156
882.171	213
882.210	480
882.277	1241
882.291	1317
882.372	209
882.383	207
882.454	221
882.489	58
882.535	-113
882.596	-84
882.616	-21
882.697	-29
882.702	-40
882.778	-374
882.808	-304
882.859	11
882.914	134
882.940	134
883.020	21
883.021	23
883.102	-216
883.127	-206
883.183	-8
883.233	252
883.264	89
883.339	-496
883.345	-467
883.426	-139
883.445	-4
883.507	290
883.551	419
883.587	337
883.657	-58
883.668	-71
883.749	195
883.763	166
883.830	-271
883.869	-300
883.910	-137
883.975	-210
883.991	-247
884.072	-618
884.081	-597
884.152	209
884.187	523
884.233	487
884.292	270
884.314	81
884.394	-650
884.398	-680
884.475	-210
884.504	-63
884.555	196
884.610	432
884.636	403
884.716	257
884.716	263
884.797	412
884.821	403
884.877	320
884.927	252
884.958	161
885.033	50
885.038	61
885.118	-16
885.139	-30
885.199	-284
885.244	-267
885.279	80
885.350	322
885.359	295
885.439	301
885.456	231
885.520	167
885.561	428
885.600	552
885.667	134
885.680	118
885.760	604
885.773	611
885.840	-4
885.878	-302
885.920	-119
885.984	125
886.000	110
886.080	310
886.089	296
886.160	710
886.195	983
886.240	863
886.300	408
886.320	456
886.400	925
886.406	946
886.480	231
886.511	-45
886.560	-65
886.616	-166
886.640	106
886.720	936
886.722	950
886.800	168
886.827	-60
886.879	298
886.932	453
886.959	489
887.038	855
887.039	859
887.119	380
887.143	299
887.198	275
887.248	209
887.278	362
887.354	586
887.358	582
887.437	548
887.459	519
887.517	539
887.564	441
887.596	292
887.669	25
887.676	51
887.755	301
887.774	380
887.835	382
887.880	317
887.914	330
887.985	397
887.994	374
888.073	41
888.090	-34
888.153	153
888.195	331
888.232	360
888.300	309
888.311	355
888.391	709
888.405	757
888.470	536
888.510	395
888.549	450
888.615	577
888.628	549
888.708	291
888.720	255
888.787	110
888.825	-36
888.866	134
888.930	480
888.945	440
889.024	175
889.035	140
889.103	402
889.140	516
889.182	659
889.245	891
889.261	825
889.340	464
889.349	424
889.419	357
889.454	303
889.498	119
889.559	-120
889.577	117
889.656	1151
889.664	1250
889.735	683
889.768	411
889.814	463
889.873	530
889.978	525
890.083	240
890.187	839
890.292	-126
890.397	-291
890.501	947
890.606	1100
890.710	943
890.815	-321
890.919	504
891.024	112
891.128	618
891.233	409
891.337	-95
891.442	169
891.546	313
891.650	633
891.755	235
891.859	1113
891.963	820
892.068	292
892.172	774
892.276	-136
892.380	528
892.484	936
892.589	352
892.693	414
892.797	709
892.901	245
893.005	451
893.109	-145
893.213	905
893.317	524
893.421	78
893.525	158
893.629	-130
893.733	218
893.837	333
893.941	635
894.045	1785
894.148	-111
894.252	678
894.356	740
894.460	628
894.564	783
894.667	1193
894.771	29
894.875	587
894.978	563
895.082	350
895.186	454
895.289	1128
895.393	985
895.496	1665
895.600	148
895.703	406
895.807	378
895.910	1153
896.014	-493
896.117	518
896.221	842
896.324	682
896.427	485
896.531	592
896.634	786
896.737	538
896.840	50
896.944	40
897.047	386
897.150	265
897.253	1059
897.356	1318
897.460	-92
897.563	460
897.666	1254
897.769	474
897.872	1013
897.975	254
898.078	-494
898.181	654
898.284	24
898.387	815
898.490	672
898.593	154
898.695	-444
898.798	1137
898.901	391
899.004	446
899.107	165
899.209	551
899.312	-41
899.415	-202
899.518	74
899.620	175
899.723	380
899.826	2150
899.928	1285
900.031	519
900.133	68
900.236	161
900.338	419
900.441	316
900.543	343
900.646	568
900.748	303
900.851	849
900.953	208
901.055	430
901.158	382
901.260	255
901.362	607
901.465	911
901.567	558
901.669	270
901.771	222
901.873	-207
901.976	259
902.078	397
902.180	451
902.282	586
902.384	-439
902.486	529
902.588	641
902.690	377
902.792	17
902.894	1156
902.996	110
903.098	793
903.200	765
903.302	664
903.404	628
903.505	450
903.607	318
903.709	1110
903.811	594
903.913	-208
904.014	594
904.116	320
904.218	990
904.319	718
904.421	1481
904.523	1336
904.624	489
904.726	1139
904.827	960
904.929	585
905.030	497
905.132	38
905.233	90
905.335	-15
905.436	-306
905.537	665
905.639	84
905.740	564
905.841	153
905.943	673
906.044	-819
906.145	1179
906.247	-235
906.348	-51
906.449	-113
906.550	259
906.651	932
906.752	523
906.854	476
906.955	-349
907.056	861
907.157	383
907.258	-283
907.359	133
907.460	72
907.561	1109
907.662	157
907.762	-80
907.863	-272
907.964	149
908.065	-5
908.166	232
908.267	-104
908.367	29
908.468	-51
908.569	323
908.670	543
908.770	813
908.871	-62
908.971	307
909.072	126
909.173	208
909.273	559
909.374	326
909.474	-547
909.575	523
909.675	-256
909.776	359
909.876	475
909.977	145
910.077	-544
910.177	257
910.278	496
910.378	-739
910.478	320
910.579	759
910.679	464
910.779	108
910.879	-119
910.980	537
911.080	-596
911.180	345
911.280	264
911.380	-247
911.480	-677
911.580	599
911.680	-580
911.780	155
911.880	95
911.980	127
912.080	-167
912.180	238
912.280	-278
912.380	401
912.480	-96
912.580	-438
912.679	-510
912.779	132
912.879	576
912.979	611
913.078	-339
913.178	-678
913.278	-509
913.377	-101
913.477	-506
913.577	546
913.676	633
913.776	508
913.875	334
913.975	617
914.074	-547
914.174	244
914.273	-289
914.373	246
914.472	544
914.572	-475
914.671	-657
914.770	613
914.870	-470
914.969	555
915.068	319
915.167	-180
915.267	-648
915.366	79
915.465	-421
915.564	667
915.663	-431
915.763	-82
915.862	439
915.961	167
916.060	-783
916.159	7
916.258	-428
916.357	-47
916.456	-101
916.555	-450
916.654	-611
916.752	63
916.851	-668
916.950	374
917.049	556
917.148	-131
917.247	541
917.345	-389
917.444	200
917.543	-261
917.642	-278
917.740	-144
917.839	199
917.937	512
918.036	913
918.135	-287
918.233	-130
918.332	181
918.430	-522
918.529	11
918.627	-149
918.726	173
918.824	-729
918.923	-705
919.021	107
919.119	-548
919.218	106
919.316	-284
919.414	-1016
919.512	-598
919.611	-530
919.709	-437
919.807	-326
919.905	31
920.003	189
920.102	185
920.200	-36
920.298	51
920.396	235
920.494	1395
920.592	-188
920.690	344
920.788	125
920.886	-568
920.984	-439
921.082	-417
921.180	539
921.277	392
921.375	42
921.473	708
921.571	231
921.669	553
921.766	93
921.864	934
921.962	-91
922.060	244
922.157	-111
922.255	882
922.352	-78
922.450	749
922.548	-529
922.645	886
922.743	498
922.840	1426
922.938	1157
923.035	1387
923.133	1356
923.230	1433
923.327	1188
923.425	1830
923.522	1780
923.619	1314
923.717	958
923.814	1480
923.911	1156
924.008	1898
924.106	883
924.203	844
924.300	1742
924.397	1190
924.494	541
924.591	1119
924.688	1812
924.786	881
924.883	704
924.979	1302
925.077	1422
925.173	1406
925.270	1213
925.367	689
925.464	1164
925.561	1403
925.658	1282
925.755	787
925.852	1591
925.948	831
926.045	1599
926.142	733
926.239	844
926.335	551
926.432	1697
926.529	968
926.625	610
926.722	1128
926.818	825
926.915	1735
927.011	172
927.108	1389
927.204	1008
927.301	913
927.397	406
927.494	926
927.590	453
927.687	285
927.783	1140
927.879	366
927.976	213
928.072	976
928.168	1403
928.264	617
928.361	470
928.457	335
928.553	227
928.649	661
928.745	-128
928.841	288
928.937	1140
929.033	268
929.129	123
929.225	573
929.321	918
929.417	92
929.513	1012
929.609	-63
929.705	111
929.801	818
929.897	439
929.993	-206
930.089	505
930.184	641
930.280	944
930.376	897
930.471	857
930.567	155
930.663	511
930.758	232
930.854	346
930.950	506
931.045	274
931.141	433
931.236	1084
931.332	720
931.427	111
931.523	572
931.618	992
931.714	962
931.809	296
931.905	909
932.000	73
932.095	-90
932.191	416
932.286	105
932.381	387
932.476	735
932.572	65
932.667	48
932.762	-241
932.857	688
932.952	854
933.047	266
933.142	-43
933.237	732
933.332	433
933.427	1069
933.522	1027
933.617	91
933.712	655
933.807	630
933.902	277
933.997	994
934.092	-604
934.187	515
934.282	140
934.376	-91
934.471	-76
934.566	190
934.661	-407
934.755	410
934.850	-485
934.945	384
935.039	37
935.134	-108
935.228	-282
935.323	505
935.417	460
935.512	67
935.606	-78
935.701	513
935.795	451
935.890	390
935.984	167
936.079	198
936.173	329
936.267	113
936.362	105
936.456	126
936.550	142
936.644	533
936.738	-621
936.833	49
936.927	6
937.021	138
937.115	680
937.209	-320
937.303	705
937.397	83
937.491	7
937.585	958
937.679	52
937.773	596
937.867	-59
937.961	-105
938.055	-67
938.149	282
938.243	292
938.337	-399
938.430	916
938.524	378
938.618	152
938.712	195
938.805	144
938.899	-174
938.993	768
939.086	-16
939.180	-202
939.274	287
939.367	-18
939.461	164
939.554	-182
939.648	822
939.741	-162
939.835	554
939.928	1112
940.022	1134
940.115	126
940.208	-108
940.302	120
940.395	581
940.488	-823
940.582	1187
940.675	-58
940.768	354
940.861	607
940.954	939
941.048	566
941.141	-403
941.234	247
941.327	500
941.420	819
941.513	865
941.606	-372
941.699	459
941.792	603
941.885	37
941.978	561
942.071	-327
942.164	-547
942.257	869
942.349	363
942.442	182
942.535	-568
942.628	116
942.721	300
942.813	-834
942.906	941
942.999	-164
943.091	191
943.184	399
943.277	-143
943.369	675
943.462	-347
943.554	355
943.647	-1
943.739	989
943.832	-901
943.924	-336
944.017	511
944.109	-599
944.201	205
944.294	409
944.386	45
944.478	-204
944.571	-340
944.663	-156
944.755	79
944.847	763
944.940	-256
945.032	-659
945.124	-220
945.216	593
945.308	-768
945.400	123
945.492	-337
945.584	-397
945.676	-345
945.768	-295
945.860	-319
945.952	564
946.044	379
946.136	-657
946.228	-336
946.320	399
946.412	-221
946.503	48
946.595	934
946.687	-154
946.779	78
946.870	36
946.962	-505
947.054	169
947.145	214
947.237	398
947.329	-278
947.420	104
947.512	-379
947.603	-816
947.695	873
947.786	-305
947.878	-467
947.969	292
948.061	-381
948.152	-927
948.243	-341
948.335	-193
948.426	-107
948.517	-425
948.609	-230
948.700	-250
948.791	-271
948.882	163
948.973	-174
949.065	-660
949.156	-253
949.247	-1008
949.338	-358
949.429	-559
949.520	-144
949.611	-1331
949.702	484
949.793	-243
949.884	-2
949.975	-208
950.066	-1081
950.157	-435
950.247	-114
950.338	121
950.429	-853
950.520	-277
950.611	-814
950.701	-374
950.792	-143
950.883	198
950.973	-363
951.064	-130
951.155	-5
951.245	795
951.336	145
951.427	109
951.517	303
951.608	-214
951.698	-1086
951.788	-174
951.879	-582
951.969	23
952.060	-445
952.150	-174
952.240	-257
952.331	-1127
952.421	1233
952.511	-482
952.602	-306
952.692	-400
952.782	-471
952.872	-77
952.962	-926
953.052	-448
953.143	-930
953.233	-849
953.323	150
953.413	-487
953.503	-13
953.593	-330
953.683	524
953.773	-520
953.863	-215
953.953	58
954.042	174
954.132	-119
954.222	-133
954.312	-269
954.402	-1754
954.492	80
954.581	84
954.671	-126
954.761	-750
954.850	120
954.940	-275
955.030	-916
955.119	-1148
955.209	258
955.298	-453
955.388	244
955.477	911
955.567	-975
955.656	-428
955.746	-28
955.835	-130
955.925	-893
956.014	-401
956.103	-1035
956.193	-404
956.282	788
956.371	-862
956.461	-556
956.550	-450
956.639	-179
956.728	-1335
956.817	-349
956.906	-422
956.995	323
957.085	-811
957.174	48
957.263	-1006
957.352	-447
957.441	-1140
957.530	-157
957.619	335
957.708	-340
957.796	-534
957.885	628
957.974	-1068
958.063	258
958.152	-952
958.241	-272
958.329	300
958.418	-995
958.507	-729
958.596	178
958.684	-1122
958.773	-312
958.861	-308
958.950	-1015
959.039	-405
959.127	751
959.216	-138
959.304	-161
959.393	-343
959.481	-394
959.570	-1051
959.658	-479
959.746	-338
959.835	-480
959.923	659
960.011	-993
960.100	-33
960.188	-133
960.276	-1441
960.365	-632
960.453	-528
960.541	-143
960.629	-20
960.717	-396
960.805	-41
960.893	36
960.981	-438
961.069	142
961.158	-972
961.245	-605
961.333	-865
961.421	-917
961.509	-607
961.597	-9
961.685	-289
961.773	-576
961.861	-1411
961.949	-604
962.036	-1772
962.124	601
962.212	-1091
962.299	-1128
962.387	-1038
962.475	-287
962.562	-1129
962.650	-1131
962.738	-479
962.825	-483
962.913	-795
963.000	-558
963.088	-1387
963.175	-312
963.263	-568
963.350	-1008
963.438	-401
963.525	-843
963.612	-41
963.700	-314
963.787	-921
963.874	-920
963.962	-121
964.049	171
964.136	-1066
964.223	-715
964.310	-688
964.398	-177
964.485	-272
964.572	-470
964.659	-679
964.746	-593
964.833	-515
964.920	-1106
965.007	-75
965.094	-730
965.181	-1049
965.268	-1482
965.355	-878
965.441	178
965.528	-1734
965.615	-728
965.702	-359
965.789	-300
965.875	-662
965.962	-495
966.049	-1615
966.136	-165
966.222	-1024
966.309	196
966.395	-1030
966.482	165
966.569	-1489
966.655	-380
966.742	-970
966.828	-466
966.915	-1039
967.001	-228
967.087	-1300
967.174	-462
967.260	437
967.347	-688
967.433	-1275
967.519	3
967.605	-1476
967.692	-1159
967.778	-565
967.864	-1155
967.950	-398
968.036	-554
968.123	-860
968.209	-706
968.295	-1744
968.381	382
968.467	-354
968.553	-2303
968.639	122
968.725	-2316
968.811	-830
968.897	611
968.983	-473
969.069	-1592
969.154	-294
969.240	-335
969.326	-1204
969.412	-633
969.497	-1001
969.583	-647
969.669	191
969.755	-886
969.840	-1142
969.926	-100
970.012	-642
970.097	559
970.183	607
970.268	-297
970.354	-787
970.439	-752
970.525	-111
970.610	-941
970.696	304
970.781	-496
970.866	-932
970.952	515
971.037	-632
971.122	-821
971.208	-213
971.293	-662
971.378	-2023
971.463	-482
971.549	-701
971.634	-1156
971.719	-936
971.804	-388
971.889	-273
971.974	-1678
972.059	-818
972.144	-168
972.229	-985
972.314	-488
972.399	-1189
972.484	-233
972.569	333
972.654	-1330
972.739	-36
972.824	-1428
972.908	-1281
972.993	-1132
973.078	-883
973.163	-879
973.247	-719
973.332	-1088
973.417	-44
973.501	-1320
973.586	-1423
973.671	-616
973.755	138
973.840	-117
973.924	-73
974.009	-890
974.093	-728
974.178	309
974.262	-1108
974.346	-1001
974.431	-592
974.515	-1630
974.600	-938
974.684	-882
974.768	-1118
974.852	-647
974.937	-1586
975.021	-179
975.105	-988
975.189	-548
975.273	-192
975.358	-1506
975.442	-1006
975.526	225
975.610	-1081
975.694	-459
975.778	662
975.862	-237
975.946	-1496
976.030	579
976.114	-1391
976.198	-1132
976.281	-582
976.365	1003
976.449	-1064
976.533	-859
976.617	-733
976.700	-978
976.784	-1117
976.868	-992
976.951	-206
977.035	-1203
977.119	-1076
977.202	-521
977.286	-409
977.369	-174
977.453	-338
977.536	-430
977.620	-978
977.703	-183
977.787	-1292
977.870	-144
977.953	181
978.037	-1417
978.120	320
978.203	-939
978.287	-741
978.370	-1544
978.453	-727
978.536	-521
978.620	-513
978.703	-728
978.786	-415
978.869	-1387
978.952	-1617
979.035	102
979.118	-149
979.201	-143
979.284	-492
979.367	-1030
979.450	-729
979.533	-632
979.616	-783
979.699	-941
979.782	-811
979.865	182
979.948	-1493
980.030	-627
980.113	11
980.196	-1751
980.279	-455
980.361	-1377
980.444	-1036
980.526	-438
980.609	151
980.692	-521
980.774	-506
980.857	-1454
980.939	-469
981.022	801
981.104	-1461
981.187	-810
981.269	-147
981.352	-151
981.434	-1686
981.516	-1193
981.599	-518
981.681	-678
981.763	-235
981.846	-769
981.928	-1036
982.010	-859
982.092	-843
982.174	-183
982.256	-998
982.339	-868
982.421	-987
982.503	262
982.585	-1045
982.667	-680
982.749	-529
982.831	-314
982.913	-2448
982.995	542
983.077	-1059
983.158	457
983.240	-1489
983.322	-903
983.404	-120
983.486	-555
983.568	-553
983.649	-628
983.731	-889
983.813	-845
983.894	-321
983.976	-884
984.058	-1034
984.139	384
984.221	-995
984.302	415
984.384	-834
984.465	-1100
984.547	-404
984.628	-918
984.710	-601
984.791	-146
984.872	-360
984.954	-722
985.035	-766
985.116	-357
985.198	-1460
985.279	-121
985.360	-989
985.441	-515
985.522	-469
985.604	-1155
985.685	-1626
985.766	264
985.847	392
985.928	-1178
986.009	-1154
986.090	-998
986.171	-137
986.252	-1538
986.333	-494
986.414	-27
986.495	-448
986.576	-1051
986.656	-787
986.737	-384
986.818	-187
986.899	-954
986.980	-1449
987.060	242
987.141	-513
987.222	434
987.302	-609
987.383	575
987.464	-1450
987.544	314
987.625	-538
987.705	-15
987.786	-617
987.866	-195
987.947	-1300
988.027	-213
988.108	-497
988.188	-273
988.268	-713
988.349	-976
988.429	-717
988.509	331
988.589	-403
988.670	-1872
988.750	-122
988.830	-476
988.910	-960
988.990	-906
989.070	-630
989.151	-63
989.231	-757
989.311	-336
989.391	-910
989.471	-438
989.551	-1158
989.631	-836
989.711	-616
989.791	-1097
989.870	-591
989.950	618
990.030	-1085
990.110	-1102
990.190	-151
990.269	-1753
990.349	-490
990.429	-582
990.509	-618
990.588	-1088
990.668	587
990.747	-57
990.827	-1167
990.907	-594
990.986	-1066
991.066	-383
991.145	-738
991.225	-224
991.304	-681
991.383	-547
991.463	-757
991.542	-376
991.622	-686
991.701	-489
991.780	-967
991.859	-452
991.939	-1464
992.018	-245
992.097	-1097
992.176	-482
992.256	-368
992.335	-951
992.414	-104
992.493	-340
992.572	-914
992.651	-142
992.730	-806
992.809	-405
992.888	-1551
992.967	-1179
993.046	-899
993.125	-1200
993.203	-1400
993.282	-470
993.361	-548
993.440	-649
993.519	-1028
993.597	-449
993.676	-1576
993.755	-529
993.834	-1296
993.912	-1435
993.991	470
994.069	-1043
994.148	-1235
994.226	-897
994.305	-1148
994.384	-783
994.462	-71
994.540	-1848
994.619	-1194
994.697	20
994.776	-211
994.854	-544
994.932	-1056
995.011	-1202
995.089	-1791
995.167	-1542
995.245	-1177
995.324	-1670
995.402	-1156
995.480	-1518
995.558	-1002
995.636	-1556
995.714	-1510
995.792	-416
995.870	-1739
995.948	-460
996.026	-930
996.104	-1931
996.182	-473
996.260	-1169
996.338	-1256
996.416	-1692
996.494	-1616
996.572	-165
996.649	-1061
996.727	-1660
996.805	-918
996.883	-751
996.960	-1600
997.038	-1128
997.116	-281
997.193	-1238
997.271	-595
997.348	-1121
997.426	-753
997.504	-1751
997.581	-816
997.658	-901
997.736	-2049
997.813	-1089
997.891	-432
997.968	-1076
998.046	-1012
998.123	-884
998.200	-972
998.277	-1450
998.355	-952
998.432	-2761
998.509	-1034
998.586	-223
998.663	-931
998.741	-1159
998.818	-777
998.895	-1801
998.972	-624
999.049	-537
999.126	-1226
999.203	-593
999.280	-1192
999.357	-2089
999.434	-1971
999.511	-1122
999.587	-790
999.664	-1684
999.741	-836
999.818	-1131
999.895	-1425
999.971	-1619
1000.048	-2309
1000.125	-1144
1000.202	-1879
1000.278	-1672
1000.355	-1127
1000.431	-1444
1000.508	-2175
1000.584	-1573
1000.661	-1904
1000.738	-1249
1000.814	-1654
1000.890	-138
1000.967	-1300
1001.043	-1622
1001.120	-2129
1001.196	-645
1001.272	-2640
1001.349	-428
1001.425	-911
1001.501	-1400
1001.577	-1708
1001.654	-906
1001.730	-2019
1001.806	-1340
1001.882	-1849
1001.958	-656
1002.034	-1592
1002.110	-1176
1002.186	-1984
1002.262	-1853
1002.338	-2373
1002.414	-1925
1002.490	-1024
1002.566	-1763
1002.642	-1938
1002.718	-507
1002.794	-956
1002.870	-1228
1002.945	-1153
1003.021	-1624
1003.097	-1523
1003.173	-811
1003.248	-2435
1003.324	-1364
1003.400	-1228
1003.475	-1605
1003.551	-2006
1003.626	-1544
1003.702	-1461
1003.777	-1074
1003.853	-1815
1003.928	-2256
1004.004	-1934
1004.079	-848
1004.155	-1742
1004.230	-1783
1004.305	-354
1004.381	-2102
1004.456	-1388
1004.531	-1781
1004.607	-1399
1004.682	-1915
1004.757	-1046
1004.832	-1553
1004.907	-2004
1004.982	-734
1005.057	-1674
1005.133	-1841
1005.208	-1571
1005.283	-1753
1005.358	-687
1005.433	-1879
1005.508	-618
1005.583	-2434
1005.657	-1831
1005.732	-1342
1005.807	-2209
1005.882	-2008
1005.957	-987
1006.032	-1483
1006.106	-1592
1006.181	-1290
1006.256	-1904
1006.331	-2096
1006.405	-2450
1006.480	-1579
1006.554	-2336
1006.629	-1171
1006.704	-1538
1006.778	-1930
1006.853	-1022
1006.927	-1962
1007.002	-2155
1007.076	-793
1007.150	-1956
1007.225	-1468
1007.299	-821
1007.373	-1869
1007.448	-980
1007.522	-1628
1007.596	-736
1007.671	-1441
1007.745	-2071
1007.819	-1794
1007.893	-1912
1007.967	-937
1008.041	-2205
1008.115	-1110
1008.190	-2075
1008.264	-1708
1008.338	-1808
1008.412	-1585
1008.486	-1664
1008.560	-1251
1008.633	-2316
1008.707	-1312
1008.781	-1135
1008.855	-1660
1008.929	-2025
1009.003	-2174
1009.076	-2181
1009.150	-1364
1009.224	-1428
1009.298	-1768
1009.371	-1888
1009.445	-1035
1009.519	-1224
1009.592	-2025
1009.666	-1358
1009.739	-1369
1009.813	-2449
1009.886	-894
1009.960	-2545
1010.033	-2003
1010.107	-1203
1010.180	-2016
1010.253	-2076
1010.327	-2289
1010.400	-1817
1010.473	-1345
1010.547	-270
1010.620	-1510
1010.693	-1734
1010.766	-1258
1010.840	-517
1010.913	-1242
1010.986	-2237
1011.059	-632
1011.132	-2003
1011.205	-646
1011.278	-1638
1011.351	-2012
1011.424	-1895
1011.497	-1977
1011.570	-2247
1011.643	-1701
1011.716	-1744
1011.789	-1730
1011.862	-1600
1011.934	-1649
1012.007	-2368
1012.080	-1228
1012.153	-1582
1012.225	-554
1012.298	-1990
1012.371	-2007
1012.443	-572
1012.516	-2291
1012.588	-1090
1012.661	-1104
1012.733	-1906
1012.806	-1464
1012.879	-1915
1012.951	-1386
1013.023	-1956
1013.096	-1750
1013.168	-1620
1013.241	-1219
1013.313	-1108
1013.385	-1396
1013.458	-2378
1013.530	-1616
1013.602	-3007
1013.674	-653
1013.746	-2202
1013.819	-1413
1013.891	-1283
1013.963	-1326
1014.035	-1975
1014.107	-1194
1014.179	-1062
1014.251	-2035
1014.323	-1400
1014.395	-1523
1014.467	-1730
1014.539	-1585
1014.611	-2015
1014.683	-1476
1014.754	-1927
1014.826	-1748
1014.898	-543
1014.970	-1695
1015.042	-1610
1015.113	-1655
1015.185	-1200
1015.257	-1684
1015.328	-1029
1015.400	-2003
1015.471	-1927
1015.543	-2901
1015.615	-1013
1015.686	-1804
1015.757	-1907
1015.829	-1703
1015.901	-1791
1015.972	-1608
1016.043	-1190
1016.115	-768
1016.186	-1437
1016.257	-2203
1016.328	-1373
1016.400	-1136
1016.471	-2940
1016.542	-2115
1016.613	-1045
1016.685	-1577
1016.756	-1150
1016.827	-1903
1016.898	-1889
1016.969	-676
1017.040	-1144
1017.111	-1665
1017.182	-1469
1017.253	-1960
1017.324	-2001
1017.395	-2371
1017.466	-868
1017.537	-1942
1017.608	-1306
1017.678	-1972
1017.749	-988
1017.820	-1728
1017.891	-1322
1017.961	-1752
1018.032	-740
1018.103	-1821
1018.173	-1682
1018.244	-1932
1018.315	-2340
1018.385	-1349
1018.456	-1451
1018.526	-1935
1018.597	-966
1018.667	-1321
1018.738	-2208
1018.808	-1535
1018.878	-1427
1018.949	-1251
1019.019	-1669
1019.089	-2660
1019.160	-1628
1019.230	-2053
1019.300	-1159
1019.371	-2091
1019.441	-1323
1019.511	-1601
1019.581	-2209
1019.651	-1796
1019.721	-1011
1019.791	-1539
1019.861	-1166
1019.931	-1866
1020.001	-2126
1020.071	-2044
1020.141	-1986
1020.211	-1853
1020.281	-1570
1020.351	-1882
1020.421	-1075
1020.491	-228
1020.560	-1859
1020.630	-1100
1020.700	-1466
1020.770	-2175
1020.839	-1818
1020.909	-624
1020.979	-1669
1021.048	-2297
1021.118	-2345
1021.187	-1594
1021.257	-2519
1021.326	-1121
1021.396	-2011
1021.465	-1458
1021.535	-1378
1021.604	-2861
1021.674	-1497
1021.743	-1594
1021.812	-1503
1021.882	-1681
1021.951	-2157
1022.020	-1089
1022.089	-1348
1022.159	-2152
1022.228	-1653
1022.297	-1227
1022.366	-1753
1022.435	-1903
1022.504	-2313
1022.573	-1174
1022.642	-1866
1022.711	-2142
1022.781	-1329
1022.849	-1247
1022.918	-1976
1022.987	-1924
1023.056	-1168
1023.125	-2591
1023.194	-1640
1023.263	-975
1023.331	-1033
1023.400	-1629
1023.469	-1468
1023.538	-735
1023.606	-1884
1023.675	-1874
1023.744	-2327
1023.812	-2306
1023.881	-1590
1023.949	-1461
1024.018	-2475
1024.086	-1458
1024.155	-2196
1024.223	-1086
1024.292	-1312
1024.360	-536
1024.429	-2213
1024.497	-1494
1024.565	-2354
1024.634	-2340
1024.702	-1293
1024.770	-1752
1024.838	-2007
1024.907	-1704
1024.975	-2792
1025.043	-2011
1025.111	-1868
1025.179	-1609
1025.247	-1297
1025.315	-2103
1025.383	-913
1025.451	-2155
1025.519	-1838
1025.587	-1209
1025.655	-1366
1025.723	-1610
1025.791	-1781
1025.859	-1369
1025.927	-1104
1025.995	-1641
1026.062	-1695
1026.130	-1378
1026.198	-1816
1026.266	-2037
1026.333	-1958
1026.401	-1862
1026.469	-1863
1026.536	-1629
1026.604	-1467
1026.671	-1748
1026.739	-2733
1026.806	-1792
1026.874	-1595
1026.941	-1643
1027.009	-1982
1027.076	-1383
1027.144	-2388
1027.211	-2279
1027.278	-2063
1027.345	-1108
1027.413	-1719
1027.480	-1411
1027.547	-2603
1027.614	-1617
1027.682	-1268
1027.749	-1967
1027.816	-2485
1027.883	-1145
1027.950	-2105
1028.017	-1634
1028.084	-984
1028.151	-2572
1028.218	-1919
1028.285	-1774
1028.352	-2448
1028.419	-941
1028.486	-2247
1028.553	-1185
1028.619	-1780
1028.686	-1776
1028.753	-2197
1028.820	-1515
1028.886	-2341
1028.953	-2075
1029.020	-1906
1029.086	-1969
1029.153	-1492
1029.220	-2119
1029.286	-1793
1029.353	-1716
1029.419	-2217
1029.486	-1434
1029.552	-2092
1029.619	-1414
1029.685	-1810
1029.751	-1607
1029.818	-1461
1029.884	-1667
1029.951	-742
1030.017	-1656
1030.083	-2318
1030.149	-1654
1030.216	-1995
1030.282	-1544
1030.348	-2124
1030.414	-1659
1030.480	-1814
1030.546	-1727
1030.612	-1554
1030.678	-1686
1030.744	-1947
1030.810	-1715
1030.876	-2953
1030.942	-1342
1031.008	-1481
1031.074	-2164
1031.140	-1961
1031.206	-1574
1031.272	-2300
1031.337	-1930
1031.403	-1294
1031.469	-1894
1031.534	-2088
1031.600	-1939
1031.666	-1614
1031.731	-2303
1031.797	-1699
1031.863	-1913
1031.928	-2255
1031.994	-1052
1032.059	-2006
1032.125	-1867
1032.190	-2183
1032.256	-2384
1032.321	-2428
1032.386	-2000
1032.452	-1577
1032.517	-1236
1032.582	-1878
1032.647	-2080
1032.713	-1917
1032.778	-1874
1032.843	-1809
1032.908	-1811
1032.974	-2393
1033.039	-2108
1033.104	-1977
1033.169	-2158
1033.234	-1595
1033.299	-1802
1033.364	-1577
1033.429	-2188
1033.494	-1894
1033.559	-2667
1033.624	-2242
1033.688	-1385
1033.753	-1888
1033.818	-1966
1033.883	-936
1033.948	-2131
1034.013	-2321
1034.077	-1794
1034.142	-1214
1034.207	-1693
1034.271	-1616
1034.336	-285
1034.400	-1854
1034.465	-1220
1034.530	-1565
1034.594	-1418
1034.658	-1850
1034.723	-1626
1034.787	-1860
1034.852	-2164
1034.916	-1525
1034.981	-1649
1035.045	-1389
1035.109	-1820
1035.173	-2092
1035.238	-1147
1035.302	-1492
1035.366	-1990
1035.430	-1742
1035.495	-1987
1035.559	-1672
1035.623	-2275
1035.687	-2003
1035.751	-1760
1035.815	-2016
1035.879	-1027
1035.943	-2643
1036.007	-2473
1036.071	-2123
1036.135	-2000
1036.198	-2025
1036.262	-2299
1036.326	-1784
1036.390	-1454
1036.454	-1198
1036.517	-2434
1036.581	-1946
1036.645	-2133
1036.709	-1979
1036.772	-2209
1036.836	-1796
1036.900	-2256
1036.963	-2049
1037.026	-2332
1037.090	-1739
1037.154	-1751
1037.217	-2512
1037.280	-1609
1037.344	-1394
1037.407	-1932
1037.471	-1685
1037.534	-2296
1037.597	-2153
1037.661	-2039
1037.724	-2097
1037.787	-2156
1037.850	-1874
1037.913	-2011
1037.977	-1461
1038.040	-1492
1038.103	-2170
1038.166	-1588
1038.229	-1730
1038.292	-2340
1038.355	-2083
1038.418	-2119
1038.481	-2122
1038.544	-1565
1038.607	-2069
1038.670	-2425
1038.732	-2520
1038.795	-1387
1038.858	-1713
1038.921	-1921
1038.984	-1668
1039.046	-1253
1039.109	-2222
1039.172	-1768
1039.234	-1714
1039.297	-2115
1039.360	-2084
1039.422	-1975
1039.485	-2716
1039.547	-2400
1039.610	-1829
1039.672	-2133
1039.734	-1780
1039.797	-1716
1039.859	-1969
1039.922	-2601
1039.984	-2255
1040.046	-2666
1040.109	-2190
1040.171	-1339
1040.233	-1913
1040.295	-2314
1040.358	-2076
1040.420	-2545
1040.482	-2144
1040.544	-1723
1040.606	-1278
1040.668	-2116
1040.730	-2395
1040.792	-1692
1040.854	-2078
1040.916	-1993
1040.978	-2237
1041.040	-1690
1041.102	-1981
1041.164	-1724
1041.225	-2161
1041.287	-1908
1041.349	-1950
1041.411	-1026
1041.472	-1300
1041.534	-1523
1041.596	-2690
1041.657	-2199
1041.719	-1860
1041.781	-2215
1041.842	-2285
1041.904	-2312
1041.965	-1700
1042.027	-1283
1042.088	-1247
1042.150	-2987
1042.211	-2401
1042.272	-1809
1042.334	-1744
1042.395	-1839
1042.456	-2409
1042.518	-2324
1042.579	-1154
1042.640	-1556
1042.701	-2147
1042.763	-1210
1042.824	-2643
1042.885	-2292
1042.946	-2117
1043.007	-1554
1043.068	-1930
1043.129	-1836
1043.190	-1429
1043.251	-1623
1043.312	-2332
1043.373	-959
1043.434	-1910
1043.495	-1620
1043.556	-2085
1043.616	-1499
1043.677	-1816
1043.738	-1619
1043.799	-1417
1043.859	-1507
1043.920	-2174
1043.981	-1680
1044.041	-2054
1044.102	-1155
1044.162	-1944
1044.223	-2606
1044.284	-1662
1044.344	-2328
1044.405	-1615
1044.465	-1540
1044.525	-1634
1044.586	-1906
1044.646	-1763
1044.707	-695
1044.767	-1100
1044.827	-1913
1044.887	-2067
1044.948	-1036
1045.008	-1807
1045.068	-2159
1045.128	-1555
1045.188	-1036
1045.249	-1570
1045.309	-1722
1045.369	-1394
1045.429	-1764
1045.489	-1567
1045.549	-1093
1045.609	-1222
1045.669	-2057
1045.729	-2162
1045.789	-1385
1045.848	-2133
1045.908	-1214
1045.968	-1562
1046.028	-1426
1046.088	-1843
1046.147	-1501
1046.207	-1939
1046.267	-1047
1046.326	-697
1046.386	-2197
1046.446	-370
1046.505	-824
1046.565	-1196
1046.624	-1320
1046.684	-1133
1046.743	-427
1046.803	-926
1046.862	-366
1046.922	0
