'Start Wavelength	183.907
'End Wavelength	1046.922
'Gate Delay	5.000
'Gate Width (ms)	1.050
'Laser Output Level	0.000
'X Position	0.000
'Y Position	0.000
'Z Position	0.000
'Grid Point Number	1.000
'Shot Number	100.000
183.907	742.000
183.977	-48.000
184.047	1255
184.116	623
184.186	-160
184.256	-133
184.325	218
184.395	-551
184.465	1060
184.534	-4
184.604	-403
184.674	-97
184.743	923
184.813	511
184.883	86
184.952	-455
185.022	-368
185.092	396
185.161	-135
185.231	-116
185.301	-220
185.370	563
185.440	314
185.509	-612
185.579	123
185.649	254
185.718	600
185.788	167
185.857	-119
185.927	-240
185.996	115
186.066	135
186.136	552
186.205	-808
186.275	-371
186.344	193
186.414	-357
186.483	-91
186.553	1401
186.622	697
186.692	788
186.761	-343
186.831	708
186.900	-513
186.970	380
187.039	663
187.109	406
187.178	753
187.248	398
187.317	183
187.387	187
187.456	99
187.526	118
187.595	-85
187.664	-276
187.734	110
187.803	1002
187.873	672
187.942	177
188.012	211
188.081	428
188.150	-669
188.220	521
188.289	-121
188.358	385
188.428	8
188.497	-27
188.567	290
188.636	-451
188.705	-998
188.775	-85
188.844	-228
188.913	462
188.983	-444
189.052	189
189.121	-169
189.191	359
189.260	631
189.329	-141
189.399	-215
189.468	347
189.537	82
189.606	274
189.676	991
189.745	142
189.814	-164
189.883	-94
189.953	416
190.022	346
190.091	314
190.161	1289
190.230	-354
190.299	315
190.368	-286
190.437	326
190.507	330
190.576	177
190.645	184
190.714	197
190.783	-361
190.853	820
190.922	119
190.991	298
191.060	-166
191.129	-89
191.198	301
191.268	-240
191.337	501
191.406	1165
191.475	-269
191.544	-136
191.613	-61
191.682	65
191.752	-551
191.821	101
191.890	152
191.959	980
192.028	190
192.097	-83
192.166	-159
192.235	-125
192.304	-149
192.373	-70
192.442	-47
192.511	-89
192.580	93
192.650	34
192.719	-144
192.788	596
192.857	1
192.926	4
192.995	-328
193.064	-21
193.133	-349
193.202	344
193.271	-546
193.340	156
193.409	846
193.478	1395
193.547	342
193.615	465
193.684	1704
193.753	401
193.822	-17
193.891	227
193.960	-83
194.029	704
194.098	-98
194.167	-193
194.236	428
194.305	201
194.374	224
194.443	96
194.512	347
194.580	646
194.649	1108
194.718	120
194.787	514
194.856	-123
194.925	579
194.994	-885
195.062	-425
195.131	-135
195.200	544
195.269	661
195.338	131
195.407	-147
195.475	-401
195.544	599
195.613	96
195.682	-164
195.751	145
195.819	-63
195.888	22
195.957	998
196.026	389
196.094	44
196.163	729
196.232	531
196.301	-87
196.369	-277
196.438	-22
196.507	539
196.576	-51
196.644	254
196.713	64
196.782	326
196.850	87
196.919	45
196.988	-37
197.056	164
197.125	-440
197.194	-337
197.262	-449
197.331	-85
197.400	-539
197.468	-383
197.537	-185
197.606	110
197.674	-78
197.743	1334
197.812	52
197.880	1110
197.949	330
198.017	520
198.086	-55
198.155	-78
198.223	416
198.292	1289
198.360	-24
198.429	483
198.497	392
198.566	575
198.635	1082
198.703	1126
198.772	696
198.840	317
198.909	503
198.977	172
199.046	-201
199.114	157
199.183	50
199.251	1009
199.320	-213
199.388	-744
199.457	-355
199.525	-118
199.594	430
199.662	-156
199.731	-547
199.799	1152
199.867	-591
199.936	-365
200.004	594
200.073	747
200.141	230
200.210	186
200.278	-212
200.346	765
200.415	-328
200.483	294
200.552	-25
200.620	16
200.688	369
200.757	-8
200.825	-157
200.893	160
200.962	-179
201.030	661
201.098	247
201.167	303
201.235	-62
201.303	132
201.372	376
201.440	-18
201.508	249
201.577	-96
201.645	264
201.713	-94
201.781	-486
201.850	347
201.918	-103
201.986	-16
202.055	-123
202.123	782
202.191	-936
202.259	669
202.327	580
202.396	-161
202.464	-400
202.532	-364
202.600	1158
202.669	736
202.737	542
202.805	-191
202.873	104
202.941	476
203.009	-218
203.078	240
203.146	-473
203.214	75
203.282	-751
203.350	35
203.418	-28
203.487	230
203.555	-429
203.623	533
203.691	-687
203.759	-210
203.827	-313
203.895	-9
203.963	-366
204.031	-212
204.099	-660
204.168	-132
204.236	385
204.304	-159
204.372	153
204.440	954
204.508	-670
204.576	688
204.644	-314
204.712	-23
204.780	590
204.848	510
204.916	-218
204.984	333
205.052	377
205.120	-329
205.188	-22
205.256	-219
205.324	41
205.392	-156
205.460	393
205.528	237
205.596	162
205.664	328
205.732	0
205.799	487
205.867	1804
205.935	-445
206.003	-102
206.071	81
206.139	-559
206.207	559
206.275	349
206.343	490
206.411	-96
206.478	-307
206.546	-68
206.614	-725
206.682	-336
206.750	98
206.818	185
206.885	-12
206.953	-1131
207.021	-292
207.089	-279
207.157	-611
207.225	-654
207.292	513
207.360	-955
207.428	163
207.496	-68
207.563	209
207.631	-21
207.699	-187
207.767	-203
207.834	-417
207.902	-180
207.970	290
208.038	-463
208.105	-291
208.173	-84
208.241	-46
208.309	-545
208.376	574
208.444	110
208.512	603
208.579	-690
208.647	-162
208.715	925
208.782	-478
208.850	-249
208.918	547
208.985	226
209.053	-270
209.120	-309
209.188	-861
209.256	483
209.323	-412
209.391	-490
209.459	1221
209.526	461
209.594	-803
209.661	-435
209.729	-43
209.796	-523
209.864	6
209.932	-2083
209.999	1692
210.067	1469
210.134	-20
210.202	-161
210.269	1036
210.337	242
210.404	450
210.472	329
210.539	43
210.607	239
210.674	-229
210.742	-102
210.809	-103
210.877	-512
210.944	270
211.012	-692
211.079	1341
211.146	-183
211.214	-236
211.281	107
211.349	1321
211.416	-5
211.484	441
211.551	-884
211.618	743
211.686	-98
211.753	-179
211.821	465
211.888	-371
211.955	-306
212.023	-233
212.090	286
212.157	0
212.225	-330
212.292	1420
212.359	1474
212.427	7452
212.494	2302
212.561	867
212.629	-18
212.696	346
212.763	127
212.831	-248
212.898	476
212.965	286
213.032	430
213.100	94
213.167	-854
213.234	607
213.301	409
213.369	635
213.436	798
213.503	170
213.570	74
213.638	-76
213.705	-690
213.772	-472
213.839	-59
213.906	160
213.973	-33
214.041	-661
214.108	-247
214.175	-202
214.242	675
214.309	-408
214.376	-549
214.444	-231
214.511	205
214.578	432
214.645	617
214.712	57
214.779	-60
214.846	-481
214.913	340
214.980	215
215.048	-230
215.115	1386
215.182	365
215.249	410
215.316	208
215.383	726
215.450	192
215.517	-430
215.584	-244
215.651	163
215.718	-229
215.785	641
215.852	-804
215.919	678
215.986	124
216.053	-273
216.120	-433
216.187	-230
216.254	745
216.321	-144
216.388	-210
216.455	-11
216.522	56
216.589	286
216.656	85
216.722	1396
216.789	-93
216.856	355
216.923	-551
216.990	930
217.057	-431
217.124	-53
217.191	-512
217.258	603
217.324	1528
217.391	1685
217.458	1364
217.525	1087
217.592	174
217.659	-544
217.725	1039
217.792	1207
217.859	645
217.926	-40
217.993	-397
218.059	448
218.126	161
218.193	-234
218.260	-870
218.327	-26
218.393	-160
218.460	-225
218.527	25
218.594	80
218.660	827
218.727	1294
218.794	-292
218.860	171
218.927	-692
218.994	-435
219.061	-348
219.127	-1204
219.194	713
219.261	657
219.327	494
219.394	217
219.461	-891
219.527	-627
219.594	518
219.661	119
219.727	-809
219.794	385
219.860	-691
219.927	363
219.994	402
220.060	1566
220.127	221
220.193	761
220.260	-205
220.326	896
220.393	1533
220.460	2919
220.526	1424
220.593	166
220.659	1145
220.726	607
220.792	3633
220.859	1892
220.925	1367
220.992	5909
221.058	4518
221.125	5376
221.191	3231
221.258	1051
221.324	717
221.391	130
221.457	-332
221.524	377
221.590	603
221.657	3603
221.723	2402
221.789	2267
221.856	2437
221.922	646
221.989	679
222.055	-287
222.121	-717
222.188	1143
222.254	-298
222.321	-459
222.387	-495
222.453	-854
222.520	-645
222.586	53
222.652	-393
222.719	-621
222.785	-258
222.851	-803
222.918	-1202
222.984	-74
223.050	-82
223.116	-2145
223.183	740
223.249	-746
223.315	-1297
223.382	-54
223.448	-437
223.514	-844
223.580	-994
223.647	-498
223.713	-728
223.779	-626
223.845	-497
223.911	-312
223.978	-475
224.044	50
224.110	-596
224.176	232
224.242	-426
224.309	-1128
224.375	172
224.441	394
224.507	-742
224.573	-423
224.639	153
224.705	-602
224.772	-163
224.838	-378
224.904	198
224.970	-365
225.036	-867
225.102	-713
225.168	-387
225.234	76
225.300	-542
225.366	-472
225.432	-828
225.499	251
225.565	-555
225.631	-213
225.697	-1105
225.763	118
225.829	35
225.895	-286
225.961	581
226.027	39
226.093	-328
226.159	906
226.225	985
226.291	2025
226.357	7065
226.423	2832
226.489	912
226.554	21
226.620	513
226.686	467
226.752	464
226.818	2029
226.884	8481
226.950	9061
227.016	2370
227.082	623
227.148	315
227.214	887
227.279	575
227.345	-139
227.411	52
227.477	318
227.543	903
227.609	1301
227.674	577
227.740	83
227.806	-196
227.872	-183
227.938	-182
228.003	-94
228.069	-224
228.135	-561
228.201	62
228.267	-556
228.332	-67
228.398	-307
228.464	358
228.530	-210
228.595	3
228.661	-747
228.727	-15
228.792	1572
228.858	-226
228.924	-1757
228.990	1527
229.055	-333
229.121	578
229.187	-434
229.252	-910
229.318	-340
229.384	-102
229.449	-50
229.515	-1290
229.581	-1095
229.646	1291
229.712	-260
229.777	699
229.843	1307
229.909	785
229.974	699
230.040	-55
230.105	355
230.171	-342
230.236	1189
230.302	1698
230.368	750
230.433	-660
230.499	519
230.564	1092
230.630	-301
230.695	160
230.761	142
230.826	-2287
230.892	1592
230.957	-1189
231.023	-39
231.088	-50
231.154	-174
231.219	155
231.284	-326
231.350	1140
231.415	-666
231.481	-333
231.546	-12
231.612	-868
231.677	-250
231.742	-1434
231.808	760
231.873	-1036
231.939	-1629
232.004	551
232.069	993
232.135	-556
232.200	-202
232.265	-293
232.331	-142
232.396	-766
232.461	-596
232.527	-353
232.592	-999
232.657	-331
232.723	452
232.788	225
232.853	181
232.918	-532
232.984	-1402
233.049	-985
233.114	199
233.179	245
233.245	1072
233.310	2271
233.375	-539
233.440	-174
233.506	-347
233.571	-598
233.636	179
233.701	-471
233.766	1234
233.832	1441
233.897	37
233.962	-1176
234.027	609
234.092	576
234.157	-455
234.222	-471
234.288	202
234.353	4811
234.418	5891
234.483	1887
234.548	1391
234.613	122
234.678	607
234.743	-47
234.808	5054
234.873	2071
234.938	1476
235.004	-382
235.069	287
235.134	-829
235.199	638
235.264	-317
235.329	-1624
235.394	375
235.459	940
235.524	-452
235.589	651
235.654	87
235.719	-1034
235.784	679
235.849	-106
235.913	2248
235.978	2196
236.043	3082
236.108	152
236.173	-189
236.238	1094
236.303	-235
236.368	-541
236.433	787
236.498	2380
236.563	662
236.627	1640
236.692	12361
236.757	9361
236.822	3022
236.887	2109
236.952	1563
237.017	1050
237.081	1678
237.146	848
237.211	3805
237.276	10979
237.341	22837
237.405	8949
237.470	2743
237.535	1956
237.600	748
237.664	1598
237.729	-430
237.794	-86
237.859	2044
237.923	1321
237.988	718
238.053	2095
238.118	1424
238.182	7049
238.247	8519
238.312	2036
238.376	2041
238.441	-256
238.506	934
238.570	-831
238.635	1412
238.700	-815
238.764	-734
238.829	3216
238.893	3581
238.958	1505
239.023	420
239.087	479
239.152	1051
239.216	-1004
239.281	-145
239.346	195
239.410	85
239.475	715
239.539	6710
239.604	5325
239.668	1121
239.733	-520
239.797	1053
239.862	3177
239.926	5471
239.991	2084
240.055	23
240.120	-259
240.184	414
240.249	-736
240.313	157
240.378	71
240.442	3105
240.507	6414
240.571	1751
240.635	1120
240.700	4009
240.764	-362
240.829	-168
240.893	-798
240.957	582
241.022	3370
241.086	6841
241.151	1850
241.215	-549
241.279	1022
241.344	3132
241.408	1369
241.472	-97
241.537	1364
241.601	39
241.665	-39
241.730	-267
241.794	847
241.858	-506
241.922	187
241.987	131
242.051	-303
242.115	-1480
242.179	-39
242.244	-753
242.308	509
242.372	-363
242.436	166
242.501	236
242.565	-966
242.629	-612
242.693	831
242.757	-1279
242.822	-2
242.886	180
242.950	-126
243.014	-807
243.078	290
243.142	598
243.206	-402
243.271	648
243.335	-720
243.399	251
243.463	4913
243.527	21196
243.591	5090
243.655	2101
243.719	-217
243.783	1311
243.847	1301
243.911	2924
243.975	1629
244.040	729
244.104	905
244.168	88
244.232	396
244.296	970
244.360	2299
244.424	350
244.488	900
244.552	-9
244.615	-589
244.679	313
244.743	302
244.807	-178
244.871	103
244.935	-323
244.999	-829
245.063	-127
245.127	433
245.191	996
245.255	1262
245.319	292
245.383	-454
245.446	691
245.510	-35
245.574	422
245.638	753
245.702	-1278
245.766	2801
245.829	963
245.893	-466
245.957	-51
246.021	661
246.085	-1166
246.149	1233
246.212	4242
246.276	6686
246.340	1658
246.404	1281
246.467	945
246.531	1002
246.595	1166
246.659	977
246.722	-414
246.786	852
246.850	802
246.913	1879
246.977	-1791
247.041	254
247.104	886
247.168	867
247.232	2783
247.295	9128
247.359	4617
247.423	1498
247.486	3081
247.550	1920
247.614	-330
247.677	1628
247.741	822
247.804	499
247.868	786
247.932	2538
247.995	8730
248.059	3192
248.122	261
248.186	2138
248.249	2870
248.313	14571
248.376	14754
248.440	9126
248.503	1484
248.567	2286
248.630	1784
248.694	4198
248.757	5975
248.821	16167
248.884	8520
248.948	6259
249.011	11653
249.075	18481
249.138	15549
249.202	5171
249.265	1809
249.328	4450
249.392	1584
249.455	1956
249.519	1090
249.582	1670
249.645	3679
249.709	2348
249.772	1077
249.835	1144
249.899	1694
249.962	1900
250.025	973
250.089	5032
250.152	8420
250.215	3045
250.279	2117
250.342	1844
250.405	1461
250.468	995
250.532	1831
250.595	3462
250.658	17007
250.721	35453
250.785	10430
250.848	6295
250.911	2915
250.974	2656
251.038	3324
251.101	10064
251.164	3976
251.227	3977
251.290	3109
251.354	5847
251.417	26362
251.480	27804
251.543	14855
251.606	52104
251.669	37904
251.732	11254
251.795	12943
251.859	14534
251.922	32966
251.985	19363
252.048	6331
252.111	4136
252.174	3559
252.237	6800
252.300	18197
252.363	18396
252.426	44974
252.489	16591
252.552	7913
252.615	4417
252.678	5074
252.741	13447
252.804	16344
252.867	44845
252.930	24931
252.993	12518
253.056	6933
253.119	4257
253.182	3180
253.245	6222
253.308	4245
253.371	4042
253.434	3158
253.497	3346
253.559	8529
253.622	5359
253.685	5118
253.748	6763
253.811	2235
253.874	4308
253.937	2884
254.000	1451
254.062	4378
254.125	9338
254.188	6994
254.251	6167
254.314	1733
254.376	4376
254.439	5969
254.502	5318
254.565	4459
254.628	10407
254.690	4883
254.753	2172
254.816	1275
254.878	1995
254.941	6642
255.004	7019
255.067	2435
255.129	1716
255.192	999
255.255	-166
255.317	1272
255.380	20
255.443	-293
255.505	-462
255.568	350
255.631	-51
255.693	1028
255.756	-766
255.819	227
255.881	-65
255.944	-134
256.006	-96
256.069	-1050
256.132	279
256.194	-99
256.257	4968
256.319	4007
256.382	2424
256.444	975
256.507	334
256.569	219
256.632	125
256.694	273
256.757	5173
256.819	18408
256.882	5414
256.944	1957
257.007	1270
257.069	863
257.132	414
257.194	1389
257.257	705
257.319	-1159
257.381	-155
257.444	3562
257.506	19841
257.569	23288
257.631	12858
257.693	5671
257.756	2427
257.818	1548
257.880	895
257.943	1190
258.005	-28
258.067	-216
258.130	710
258.192	328
258.254	3317
258.317	2075
258.379	360
258.441	3926
258.503	4375
258.566	6254
258.628	11784
258.690	772
258.753	2180
258.815	2134
258.877	686
258.939	484
259.001	-248
259.064	111
259.126	1051
259.188	1409
259.250	668
259.312	276
259.375	5582
259.437	3662
259.499	680
259.561	535
259.623	543
259.685	-350
259.747	1098
259.809	6230
259.872	15276
259.934	20503
259.996	17602
260.058	3346
260.120	814
260.182	1567
260.244	-282
260.306	-713
260.368	186
260.430	-874
260.492	243
260.554	4688
260.616	4729
260.678	7974
260.740	15103
260.802	1899
260.864	1376
260.926	64
260.988	1561
261.050	-117
261.112	913
261.174	11114
261.236	11798
261.298	1884
261.359	4946
261.421	8815
261.483	-17
261.545	824
261.607	-726
261.669	230
261.731	1963
261.793	9403
261.854	1300
261.916	1057
261.978	-137
262.040	498
262.102	383
262.164	1961
262.225	2286
262.287	208
262.349	2950
262.411	1962
262.472	1325
262.534	1760
262.596	9207
262.658	1998
262.719	188
262.781	1582
262.843	7867
262.904	3115
262.966	1287
263.028	2220
263.090	13637
263.151	39084
263.213	10768
263.275	2955
263.336	1306
263.398	1693
263.459	-282
263.521	181
263.583	2654
263.644	1674
263.706	-69
263.767	-871
263.829	-575
263.891	-1487
263.952	-1189
264.014	-1164
264.075	-318
264.137	286
264.198	237
264.260	-1414
264.321	-319
264.383	470
264.444	2166
264.506	-708
264.567	-168
264.629	175
264.690	-1312
264.752	-714
264.813	-175
264.875	-1586
264.936	31
264.998	-1415
265.059	-1204
265.120	-1156
265.182	291
265.243	7259
265.305	7226
265.366	922
265.427	-443
265.489	120
265.550	-1223
265.611	-349
265.673	-609
265.734	-564
265.795	-16
265.857	-892
265.918	-920
265.979	1206
266.040	13990
266.102	11395
266.163	2500
266.224	807
266.286	167
266.347	-697
266.408	-290
266.469	-18
266.530	-208
266.592	-1274
266.653	276
266.714	2620
266.775	-256
266.836	-997
266.898	-865
266.959	-517
267.020	217
267.081	568
267.142	-819
267.203	-308
267.264	-1106
267.326	533
267.387	-150
267.448	-1136
267.509	-334
267.570	-526
267.631	-592
267.692	-1796
267.753	-413
267.814	-1680
267.875	409
267.936	4441
267.997	306
268.058	59
268.119	-186
268.180	-758
268.241	-1627
268.302	-476
268.363	-1036
268.424	-448
268.485	-518
268.546	-1002
268.607	-812
268.668	-1183
268.729	-1678
268.790	-843
268.851	-83
268.912	829
268.972	2052
269.033	-167
269.094	-1681
269.155	-1051
269.216	-1089
269.277	-533
269.338	-666
269.398	-1373
269.459	-503
269.520	-583
269.581	824
269.642	1363
269.702	-728
269.763	-1028
269.824	-530
269.885	-545
269.945	284
270.006	-886
270.067	-1372
270.128	-372
270.188	-1080
270.249	-1596
270.310	-695
270.370	-687
270.431	-362
270.492	-1474
270.553	-362
270.613	361
270.674	3809
270.734	7
270.795	244
270.856	582
270.916	393
270.977	193
271.038	-323
271.098	-39
271.159	637
271.219	478
271.280	-492
271.340	-335
271.401	-293
271.462	3817
271.522	2208
271.583	-607
271.643	-17
271.704	-150
271.764	282
271.825	1760
271.885	11525
271.946	19714
272.006	4051
272.066	7340
272.127	16661
272.187	3270
272.248	1188
272.308	1148
272.369	10523
272.429	5749
272.489	2332
272.550	2650
272.610	2605
272.671	2079
272.731	2083
272.791	5252
272.852	1305
272.912	1179
272.972	762
273.033	325
273.093	1273
273.153	1642
273.214	161
273.274	477
273.334	5207
273.394	14830
273.455	5767
273.515	4398
273.575	11852
273.635	4932
273.696	7173
273.756	16446
273.816	6454
273.876	2580
273.936	7330
273.997	17228
274.057	3815
274.117	1148
274.177	2400
274.237	15337
274.297	17012
274.358	11401
274.418	12536
274.478	8755
274.538	2906
274.598	1947
274.658	11967
274.718	16934
274.778	6500
274.838	1572
274.898	5310
274.958	23942
275.018	19363
275.078	11427
275.138	3654
275.198	988
275.258	726
275.318	1109
275.378	4043
275.438	3371
275.498	2386
275.558	8371
275.618	23022
275.678	12752
275.738	5055
275.798	2756
275.858	953
275.918	1512
275.978	592
276.038	421
276.098	179
276.157	1506
276.217	9352
276.277	3899
276.337	1777
276.397	694
276.457	734
276.517	-208
276.576	-13
276.636	-210
276.696	1455
276.756	4756
276.815	3951
276.875	303
276.935	949
276.995	459
277.055	548
277.114	-1085
277.174	1831
277.234	6250
277.293	2920
277.353	929
277.413	1099
277.472	-185
277.532	1059
277.592	269
277.651	6953
277.711	17863
277.771	4961
277.830	16596
277.890	15683
277.950	9751
278.009	36163
278.069	14018
278.128	11331
278.188	17475
278.248	7637
278.307	16881
278.367	12685
278.426	2919
278.486	980
278.545	497
278.605	869
278.664	531
278.724	1195
278.783	5448
278.843	19948
278.902	5213
278.962	2058
279.021	2285
279.081	4594
279.140	4648
279.199	1820
279.259	2427
279.318	2479
279.378	4334
279.437	9118
279.496	34245
279.556	102209
279.615	94647
279.675	24238
279.734	12001
279.793	16367
279.853	27735
279.912	10434
279.971	4596
280.031	3524
280.090	7216
280.149	18383
280.208	14645
280.268	67384
280.327	83840
280.386	18969
280.445	10833
280.505	9309
280.564	5476
280.623	3657
280.682	3451
280.742	8141
280.801	2189
280.860	1183
280.919	410
280.978	411
281.037	769
281.097	-166
281.156	1268
281.215	725
281.274	1688
281.333	10201
281.392	8437
281.451	1613
281.510	1150
281.569	588
281.628	1126
281.688	534
281.747	586
281.806	-151
281.865	-480
281.924	-438
281.983	547
282.042	-1001
282.101	-1079
282.160	1362
282.219	-230
282.278	882
282.337	4065
282.396	2922
282.454	396
282.513	1178
282.572	5855
282.631	3203
282.690	-209
282.749	383
282.808	76
282.867	811
282.926	268
282.985	248
283.043	-1511
283.102	-313
283.161	151
283.220	2918
283.279	9905
283.338	2423
283.396	288
283.455	985
283.514	754
283.573	1661
283.631	1258
283.690	714
283.749	57
283.808	2143
283.866	3458
283.925	503
283.984	356
284.043	-332
284.101	1426
284.160	952
284.219	1594
284.277	1640
284.336	2263
284.395	10937
284.453	9848
284.512	2181
284.570	3619
284.629	2910
284.688	2691
284.746	3560
284.805	4182
284.863	6905
284.922	7088
284.981	7948
285.039	12971
285.098	22159
285.156	53495
285.215	127874
285.273	127444
285.332	67438
285.390	33190
285.449	20338
285.507	13891
285.566	9732
285.624	7068
285.683	5331
285.741	3281
285.799	2282
285.858	2813
285.916	2142
285.975	1419
286.033	1197
286.091	1167
286.150	486
286.208	901
286.267	364
286.325	1067
286.383	2083
286.442	1852
286.500	55
286.558	96
286.616	-219
286.675	1195
286.733	1562
286.791	562
286.850	1196
286.908	1167
286.966	2584
287.024	852
287.083	104
287.141	-83
287.199	111
287.257	1504
287.315	452
287.374	-376
287.432	3445
287.490	2687
287.548	289
287.606	674
287.664	798
287.723	1471
287.781	1894
287.839	-102
287.897	1239
287.955	987
288.013	2504
288.071	9010
288.129	40583
288.187	136422
288.245	61718
288.303	16071
288.361	8417
288.419	5022
288.477	3951
288.535	1823
288.593	1857
288.651	554
288.709	-699
288.767	320
288.825	-537
288.883	-272
288.941	239
288.999	161
289.057	-288
289.115	-1305
289.173	-732
289.231	-80
289.289	620
289.346	-138
289.404	-226
289.462	1787
289.520	1442
289.578	243
289.636	-267
289.694	-739
289.751	-362
289.809	-1161
289.867	-87
289.925	-342
289.983	-348
290.040	178
290.098	-711
290.156	-582
290.214	-363
290.271	-1023
290.329	-1306
290.387	-1377
290.444	-1313
290.502	-1475
290.560	-1325
290.617	-1451
290.675	-462
290.733	-762
290.790	-400
290.848	-1248
290.906	-1336
290.963	-506
291.021	-1039
291.078	-745
291.136	-182
291.194	1751
291.251	6715
291.309	1978
291.366	-463
291.424	-469
291.481	-423
291.539	-1015
291.596	-436
291.654	-1493
291.711	-1014
291.769	-498
291.826	1540
291.884	743
291.941	-669
291.999	-592
292.056	-401
292.114	-541
292.171	-940
292.228	-623
292.286	-711
292.343	1412
292.401	2750
292.458	643
292.515	-284
292.573	-209
292.630	320
292.687	1243
292.745	577
292.802	-757
292.859	1751
292.917	8813
292.974	6919
293.031	793
293.089	365
293.146	-750
293.203	-27
293.260	-891
293.318	300
293.375	217
293.432	-808
293.489	-779
293.546	-648
293.604	1231
293.661	5835
293.718	21281
293.775	8910
293.832	3666
293.889	2723
293.947	2398
294.004	2276
294.061	874
294.118	3128
294.175	7323
294.232	4828
294.289	1665
294.346	1232
294.403	-274
294.460	884
294.517	99
294.574	282
294.631	-1029
294.688	743
294.745	3882
294.802	19349
294.859	16188
294.916	6042
294.973	4020
295.030	2205
295.087	1912
295.144	972
295.201	455
295.258	164
295.315	1032
295.372	6598
295.429	18130
295.486	6680
295.542	1724
295.599	1853
295.656	4631
295.713	5809
295.770	13734
295.827	5484
295.883	1608
295.940	624
295.997	2407
296.054	2780
296.111	472
296.167	416
296.224	-622
296.281	-677
296.338	-647
296.394	-204
296.451	601
296.508	4410
296.564	10495
296.621	7379
296.678	14865
296.734	26470
296.791	8993
296.848	3659
296.904	3480
296.961	8563
297.018	16756
297.074	14663
297.131	4416
297.187	2736
297.244	4952
297.301	17200
297.357	39487
297.414	14557
297.470	4007
297.527	999
297.583	2088
297.640	844
297.696	533
297.753	-271
297.809	-498
297.866	-724
297.922	-466
297.979	-157
298.035	-261
298.092	1354
298.148	7899
298.204	11008
298.261	3818
298.317	6973
298.374	21532
298.430	14824
298.486	5404
298.543	4356
298.599	2792
298.656	4009
298.712	5504
298.768	14822
298.824	12582
298.881	4475
298.937	1313
298.993	431
299.050	1711
299.106	1483
299.162	648
299.218	1067
299.275	460
299.331	1228
299.387	3491
299.443	18799
299.500	23871
299.556	8406
299.612	3259
299.668	1894
299.724	2560
299.780	3428
299.837	1707
299.893	3863
299.949	15033
300.005	21390
300.061	15338
300.117	29479
300.173	16710
300.229	5507
300.285	5347
300.341	6588
300.397	3438
300.453	1616
300.510	1612
300.566	872
300.622	2127
300.678	7161
300.734	16056
300.790	15951
300.845	22597
300.901	13789
300.957	14957
301.013	13415
301.069	4866
301.125	2185
301.181	2390
301.237	1811
301.293	682
301.349	1598
301.405	29
301.461	1613
301.516	2259
301.572	1890
301.628	3190
301.684	3473
301.740	4939
301.796	11326
301.851	7646
301.907	10447
301.963	13529
302.019	20774
302.074	58937
302.130	64073
302.186	30855
302.242	11608
302.297	6534
302.353	5368
302.409	10118
302.464	11151
302.520	7756
302.576	18194
302.631	26281
302.687	13863
302.743	5404
302.798	3045
302.854	1132
302.910	1142
302.965	1702
303.021	4786
303.076	5186
303.132	4712
303.187	7502
303.243	3368
303.299	1157
303.354	948
303.410	-182
303.465	673
303.521	364
303.576	57
303.632	599
303.687	4677
303.743	17279
303.798	19650
303.853	6301
303.909	2461
303.964	1341
304.020	3160
304.075	5266
304.130	5214
304.186	7850
304.241	10954
304.297	7973
304.352	3462
304.358	3202
304.407	1095
304.449	1155
304.463	1176
304.518	1384
304.539	1269
304.573	1084
304.629	1668
304.630	1721
304.684	4344
304.720	9041
304.739	11352
304.794	24468
304.811	21029
304.850	12545
304.902	4817
304.905	4335
304.960	1914
304.992	1590
305.015	1352
305.071	1706
305.083	1634
305.126	1343
305.173	475
305.181	342
305.236	422
305.264	326
305.292	232
305.347	2033
305.354	1983
305.402	1699
305.445	2243
305.457	2401
305.512	2637
305.535	2712
305.567	2782
305.622	3328
305.626	3470
305.678	7768
305.716	15767
305.733	18278
305.788	25710
305.807	22486
305.843	17608
305.897	20042
305.898	20031
305.953	22599
305.988	14988
306.008	11057
306.063	4685
306.078	4055
306.118	2893
306.168	1303
306.173	1170
306.228	1689
306.259	1025
306.283	519
306.338	364
306.349	314
306.393	294
306.440	1209
306.448	1347
306.503	1549
306.530	1917
306.558	2904
306.613	5442
306.620	5941
306.668	10890
306.711	18412
306.723	19125
306.778	16982
306.801	13009
306.833	8685
306.888	3967
306.892	3721
306.943	1876
306.982	1401
306.997	1267
307.052	1113
307.072	1111
307.107	1215
307.162	1327
307.163	1330
307.217	2056
307.253	2459
307.272	2601
307.327	3386
307.343	3269
307.381	2902
307.434	3630
307.436	3839
307.491	7848
307.524	12334
307.546	13561
307.600	16440
307.614	15265
307.655	9931
307.704	4114
307.710	3846
307.765	3907
307.795	4125
307.819	4622
307.874	7636
307.885	7746
307.929	6452
307.975	5340
307.984	5566
308.038	7427
308.065	9705
308.093	19652
308.148	44185
308.156	49717
308.202	79642
308.246	104906
308.257	102819
308.312	54734
308.336	36104
308.366	26380
308.421	17769
308.426	16889
308.475	10307
308.517	6691
308.530	6213
308.585	4839
308.607	4872
308.639	5133
308.694	4790
308.697	4809
308.748	7933
308.787	11299
308.803	11152
308.857	8981
308.877	7762
308.912	7042
308.967	7153
308.967	7151
309.021	10786
309.058	14720
309.076	19212
309.130	34728
309.148	40836
309.185	79037
309.238	141041
309.239	141481
309.293	161840
309.328	151597
309.348	130446
309.402	58029
309.418	39944
309.457	26773
309.508	16618
309.511	16387
309.566	16358
309.598	17458
309.620	22763
309.674	38399
309.688	43038
309.729	40088
309.778	29623
309.783	28882
309.837	18895
309.868	14139
309.892	16236
309.946	23535
309.959	25940
310.001	33552
310.049	41670
310.055	40302
310.109	23817
310.139	13897
310.163	10764
310.218	5972
310.229	5226
310.272	4238
310.319	3528
310.326	3459
310.381	2683
310.409	2530
310.435	2376
310.489	2034
310.499	1949
310.543	2000
310.589	2276
310.598	2224
310.652	1942
310.679	1651
310.706	1665
310.760	1596
310.769	1641
310.814	1868
310.859	1874
310.868	1846
310.923	1662
310.948	1612
310.977	1857
311.031	2352
311.038	2406
311.085	2535
311.128	2624
311.139	2551
311.193	1990
311.218	1799
311.247	1999
311.301	2400
311.308	2418
311.356	2138
311.398	1937
311.410	2003
311.464	2361
311.488	2456
311.518	2020
311.572	1243
311.578	1158
311.626	3097
311.668	4729
311.680	4452
311.734	3100
311.758	2513
311.788	2380
311.842	2085
311.847	2049
311.896	2741
311.937	3352
311.950	3370
312.004	3390
312.027	3382
312.058	3002
312.112	2312
312.117	2237
312.165	2184
312.207	2128
312.297	2124
312.386	2333
312.476	2410
312.566	7057
312.656	2693
312.745	2285
312.835	1363
312.925	2125
313.015	1809
313.104	2843
313.194	2023
313.284	3204
313.374	3395
313.463	4062
313.553	1260
313.643	1611
313.732	2017
313.822	1710
313.912	1830
314.001	3003
314.091	2961
314.180	2884
314.270	4109
314.360	3255
314.449	3472
314.539	2052
314.628	1962
314.718	1904
314.808	2570
314.897	2767
314.987	3028
315.076	3003
315.166	3800
315.255	4134
315.345	3616
315.434	3106
315.524	3100
315.613	3511
315.703	5343
315.792	9581
315.881	28239
315.971	9663
316.060	6549
316.150	6699
316.239	6218
316.328	3583
316.418	2024
316.507	3002
316.597	3785
316.686	3543
316.775	3720
316.865	7122
316.954	2380
317.043	1534
317.133	2153
317.222	2571
317.311	1499
317.400	2439
317.490	5060
317.579	4314
317.668	3059
317.757	5896
317.847	14968
317.936	51525
318.025	18792
318.114	10963
318.203	5155
318.293	6157
318.382	10797
318.471	9107
318.560	9424
318.649	14628
318.738	4040
318.828	4196
318.917	4025
319.006	3965
319.095	7681
319.184	21308
319.273	15265
319.362	10887
319.451	2771
319.540	3044
319.629	8182
319.718	14609
319.807	5334
319.896	8057
319.985	27120
320.074	11904
320.163	3112
320.252	4328
320.341	2764
320.430	3025
320.519	6571
320.608	4216
320.697	2335
320.786	3175
320.875	4735
320.964	6814
321.053	10493
321.142	13830
321.230	15106
321.319	9459
321.408	23035
321.497	9676
321.586	10229
321.675	8185
321.764	7832
321.852	6012
321.941	13257
322.030	8273
322.119	8029
322.207	24933
322.296	11288
322.385	6774
322.474	10415
322.562	32601
322.651	14526
322.740	11099
322.829	14631
322.917	10904
323.006	8006
323.095	8378
323.183	3914
323.272	7303
323.361	12279
323.449	32807
323.538	10490
323.626	22669
323.715	12536
323.804	6176
323.892	18642
323.981	11756
324.069	4431
324.158	9809
324.246	9019
324.335	4886
324.424	9802
324.512	3972
324.601	6002
324.689	19897
324.778	37484
324.866	10709
324.954	2799
325.043	3172
325.131	4638
325.220	7904
325.308	8041
325.397	7130
325.485	4443
325.574	2597
325.662	1295
325.750	2987
325.839	2381
325.927	2179
326.015	2173
326.104	3444
326.192	4405
326.280	1576
326.369	1617
326.457	3578
326.545	7228
326.634	3558
326.722	1570
326.810	2042
326.898	1378
326.987	2617
327.075	6313
327.163	6168
327.251	4489
327.340	13939
327.428	20435
327.516	2441
327.604	2217
327.692	2157
327.781	2138
327.869	2669
327.957	2388
328.045	2974
328.133	2496
328.221	1644
328.309	2019
328.397	1970
328.485	2556
328.574	4728
328.662	17032
328.750	7369
328.838	2350
328.926	2968
329.014	1613
329.102	1999
329.190	5366
329.278	4471
329.366	1259
329.454	807
329.542	908
329.630	1231
329.718	1539
329.806	2625
329.893	1429
329.981	1463
330.069	1885
330.157	7125
330.245	21817
330.333	11379
330.421	2386
330.509	4984
330.597	19680
330.684	11568
330.772	2804
330.860	2545
330.948	3336
331.036	2662
331.123	152
331.211	1743
331.299	1362
331.387	2460
331.475	5449
331.562	2817
331.650	1166
331.738	1138
331.825	2268
331.913	1247
332.001	772
332.089	1289
332.176	2820
332.264	7829
332.352	6093
332.439	2868
332.527	1329
332.614	1597
332.702	2046
332.790	1792
332.877	4088
332.965	10433
333.052	4097
333.140	4774
333.228	12584
333.315	2661
333.403	2138
333.490	5008
333.578	7112
333.665	17766
333.753	6453
333.840	2738
333.928	2176
334.015	6422
334.103	8293
334.190	25740
334.278	6478
334.365	3659
334.452	3580
334.540	2263
334.627	2488
334.715	3712
334.802	7269
334.889	35112
334.977	39659
335.064	8435
335.151	2583
335.239	2475
335.326	3500
335.413	12207
335.501	15911
335.588	3497
335.675	1995
335.762	2675
335.850	3650
335.937	4082
336.024	9813
336.111	39673
336.199	21648
336.286	5437
336.373	2742
336.460	1422
336.547	1169
336.635	2807
336.722	1826
336.809	1915
336.896	3005
336.983	8619
337.070	17595
337.157	27969
337.245	21549
337.332	15157
337.419	2542
337.506	1422
337.593	2140
337.680	4311
337.767	13243
337.854	4924
337.941	5350
338.028	8222
338.115	3038
338.202	2949
338.289	6149
338.376	22677
338.463	6996
338.550	8332
338.637	7882
338.724	3869
338.811	5484
338.898	1706
338.984	1556
339.071	2237
339.158	2938
339.245	9063
339.332	4585
339.419	4520
339.506	4117
339.593	192
339.679	2237
339.766	1957
339.853	2343
339.940	7326
340.027	2038
340.113	2366
340.200	3857
340.287	2762
340.374	2935
340.460	6282
340.547	2289
340.634	6204
340.720	20924
340.807	11075
340.894	2621
340.980	1926
341.067	1142
341.154	3102
341.240	4826
341.327	10261
341.414	4042
341.500	4144
341.587	2813
341.674	2257
341.760	6357
341.847	7600
341.933	2541
342.020	1168
342.106	1155
342.193	2745
342.279	5061
342.366	4100
342.452	6793
342.539	4368
342.625	8740
342.712	23285
342.798	8423
342.885	3475
342.971	1255
343.058	1242
343.144	1214
343.230	2302
343.317	2786
343.403	1615
343.490	1304
343.576	814
343.662	2299
343.749	2694
343.835	3854
343.921	8390
344.008	53171
344.094	126587
344.180	26009
344.267	8840
344.353	31436
344.439	29678
344.525	10198
344.612	4611
344.698	2241
344.784	2698
344.870	1960
344.957	2294
345.043	4293
345.129	3150
345.215	6438
345.301	3712
345.387	2236
345.474	1021
345.560	1184
345.646	1403
345.732	2162
345.818	2864
345.904	2189
345.990	2666
346.076	2413
346.162	3950
346.249	2703
346.335	1502
346.421	2878
346.507	13416
346.593	49443
346.679	10253
346.765	3347
346.851	2838
346.937	1793
347.023	1943
347.108	2634
347.194	2762
347.280	2016
347.366	4504
347.452	14104
347.538	60048
347.624	39891
347.710	28855
347.796	3448
347.882	2303
347.967	1327
348.053	1630
348.139	1151
348.225	1660
348.311	1642
348.397	1886
348.482	2251
348.568	3786
348.654	1963
348.740	2668
348.825	1932
348.911	6561
348.997	25740
349.083	53766
349.168	7753
349.254	3387
349.340	3302
349.425	1041
349.511	3341
349.597	3342
349.682	7832
349.768	31241
349.854	13946
349.939	2719
350.025	1192
350.110	1434
350.196	1616
350.282	850
350.367	1885
350.453	2095
350.538	2555
350.624	2844
350.709	2662
350.795	1029
350.880	842
350.966	2635
351.051	3274
351.137	2272
351.222	2820
351.308	8645
351.393	23686
351.479	6183
351.564	2283
351.649	2857
351.735	994
351.820	1574
351.906	1897
351.991	2853
352.076	15759
352.162	23533
352.247	4289
352.332	3226
352.418	6499
352.503	8638
352.588	34825
352.673	26945
352.759	5810
352.844	3106
352.929	2585
353.014	4257
353.100	3017
353.185	6526
353.270	7290
353.355	8024
353.441	2502
353.526	2082
353.611	6543
353.696	8600
353.781	4206
353.866	2170
353.952	2601
354.037	6665
354.122	16392
354.207	14808
354.292	4872
354.377	2144
354.462	2161
354.547	3169
354.632	3302
354.717	3932
354.802	5792
354.887	2574
354.972	2007
355.057	2100
355.142	1623
355.227	2902
355.312	5276
355.397	10881
355.482	26703
355.567	11517
355.652	9044
355.737	10080
355.822	35219
355.907	27276
355.991	4606
356.076	1754
356.161	1685
356.246	1875
356.331	3051
356.416	7982
356.501	63326
356.585	63272
356.670	7077
356.755	6607
356.840	7605
356.924	39355
357.009	147741
357.094	50532
357.179	10392
357.263	6477
357.348	6015
357.433	6088
357.517	5279
357.602	4914
357.687	3836
357.771	9241
357.856	32314
357.941	18434
358.025	30543
358.110	137348
358.195	58227
358.279	8490
358.364	6145
358.448	23142
358.533	62765
358.617	42862
358.702	45035
358.787	15503
358.871	8298
358.956	6636
359.040	2083
359.125	2691
359.209	3473
359.294	15009
359.378	26032
359.462	9050
359.547	4358
359.631	2255
359.716	1456
359.800	2315
359.885	3130
359.969	1995
360.053	1899
360.138	2590
360.222	4185
360.306	8260
360.391	5709
360.475	16668
360.559	33605
360.644	24061
360.728	15372
360.812	32808
360.896	95496
360.981	30346
361.065	12013
361.149	4833
361.233	2969
361.318	2934
361.402	3833
361.486	4038
361.570	2574
361.654	4452
361.739	11733
361.823	58844
361.907	93848
361.991	14787
362.075	7434
362.159	14534
362.243	10553
362.327	8412
362.411	15127
362.495	6859
362.580	2564
362.664	2688
362.748	1727
362.832	3967
362.916	4271
363.000	22598
363.084	75729
363.168	110682
363.252	22098
363.336	6734
363.420	7692
363.503	18808
363.587	21061
363.671	5759
363.755	3956
363.839	7693
363.923	2460
364.007	9479
364.091	7980
364.175	7297
364.258	31551
364.342	25981
364.426	48050
364.510	25776
364.594	10642
364.677	16582
364.761	83383
364.845	55292
364.929	14202
365.013	10868
365.096	9352
365.180	10564
365.264	8376
365.347	30279
365.431	11843
365.515	3950
365.598	2200
365.682	3413
365.766	1557
365.849	2334
365.933	2851
366.017	4420
366.100	1124
366.184	1352
366.267	2279
366.351	2184
366.435	1147
366.518	1591
366.602	1515
366.685	1787
366.769	2914
366.852	2858
366.936	6760
367.019	4665
367.103	1360
367.186	3786
367.270	1287
367.353	1415
367.436	1839
367.520	1027
367.603	2763
367.687	4331
367.770	8664
367.853	6106
367.937	23572
368.020	39212
368.104	7251
368.187	7179
368.270	9647
368.353	9091
368.437	8751
368.520	15155
368.603	11601
368.687	23458
368.770	46165
368.853	9812
368.936	7354
369.020	5613
369.103	2384
369.186	706
369.269	1317
369.352	6227
369.436	7396
369.519	5207
369.602	1089
369.685	3406
369.768	2037
369.851	2937
369.934	835
370.018	2586
370.101	7105
370.184	6913
370.267	3776
370.350	6629
370.433	11168
370.516	42542
370.599	55016
370.682	14262
370.765	22368
370.848	30395
370.931	60352
371.014	19071
371.097	2714
371.180	2932
371.263	2566
371.346	605
371.429	2242
371.511	1869
371.594	4698
371.677	7005
371.760	5747
371.843	8460
371.926	47500
372.009	111681
372.091	31984
372.174	22139
372.257	61947
372.340	21051
372.423	9647
372.505	8915
372.588	5420
372.671	17890
372.754	60226
372.836	27120
372.919	9155
373.002	15277
373.085	6533
373.167	8916
373.250	23892
373.332	59012
373.415	73459
373.498	154864
373.580	51370
373.663	78071
373.746	101551
373.828	19531
373.911	7734
373.993	5878
374.076	15012
374.159	14026
374.241	13058
374.324	47843
374.406	30987
374.489	46094
374.571	138141
374.654	51559
374.736	23553
374.819	84810
374.901	114083
374.983	116284
375.066	18375
375.148	5606
375.231	11877
375.313	23981
375.395	9418
375.478	4037
375.560	3049
375.643	5254
375.725	21693
375.807	103300
375.890	67031
375.972	16333
376.054	9638
376.136	12218
376.219	7409
376.301	28049
376.383	91490
376.465	30157
376.548	16835
376.630	22454
376.712	73494
376.794	31910
376.877	3823
376.959	2018
377.041	2765
377.123	2557
377.205	3098
377.287	1681
377.369	2338
377.452	1885
377.534	2688
377.616	2442
377.698	1311
377.780	785
377.862	2524
377.944	2700
378.026	1150
378.108	2046
378.190	1458
378.272	2035
378.354	1566
378.436	1169
378.518	2059
378.600	8108
378.682	10411
378.764	33397
378.846	24513
378.928	6377
379.010	8144
379.091	4523
379.173	2359
379.255	1688
379.337	3505
379.419	15087
379.501	48608
379.583	17014
379.664	3904
379.746	10024
379.828	32331
379.910	43943
379.991	38574
380.073	6036
380.155	3632
380.237	2868
380.318	1832
380.400	3211
380.482	6684
380.564	9271
380.645	8755
380.727	9541
380.809	5999
380.890	3563
380.972	2310
381.053	2957
381.135	4042
381.217	11377
381.298	33282
381.380	14972
381.461	13189
381.543	72423
381.624	85657
381.706	14404
381.787	6314
381.869	7024
381.951	30029
382.032	126047
382.113	71804
382.195	12170
382.276	10130
382.358	23034
382.439	69386
382.521	75076
382.602	119614
382.684	49381
382.765	86743
382.846	92193
382.928	142413
383.009	73176
383.090	46263
383.172	186553
383.253	290712
383.334	93038
383.416	102743
383.497	50012
383.578	20659
383.659	38430
383.741	148369
383.822	415142
383.903	200324
383.984	68082
384.066	119713
384.147	67417
384.228	13932
384.309	9811
384.390	7864
384.471	6186
384.553	5641
384.634	8462
384.715	8404
384.796	4584
384.877	6906
384.958	30739
385.039	35652
385.120	12272
385.201	5814
385.282	5327
385.363	5521
385.444	5410
385.525	11901
385.606	52714
385.687	45344
385.768	8466
385.849	9285
385.930	53316
386.011	97494
386.092	23389
386.173	4659
386.254	3731
386.335	3298
386.416	3395
386.496	18622
386.577	30352
386.658	8320
386.739	4270
386.820	4060
386.901	2543
386.981	3429
387.062	3022
387.143	7035
387.224	32589
387.304	28440
387.385	9412
387.466	3196
387.547	5832
387.627	4369
387.708	11967
387.789	59780
387.869	75991
387.950	18713
388.031	2814
388.111	609
388.192	4409
388.273	5389
388.353	4781
388.434	3737
388.514	10835
388.595	62230
388.676	78762
388.756	30775
388.837	28745
388.917	15512
388.998	2087
389.078	3504
389.159	2992
389.239	1177
389.320	6843
389.400	3257
389.480	11188
389.561	36124
389.641	17813
389.722	4484
389.802	7975
389.883	13470
389.963	46495
390.043	23099
390.124	3883
390.204	10082
390.284	35541
390.365	19741
390.445	15840
390.525	54902
390.605	52426
390.686	16806
390.766	6171
390.846	3975
390.927	2761
391.007	1990
391.087	3370
391.167	2895
391.247	1182
391.328	3439
391.408	4485
391.488	3248
391.568	1348
391.648	2985
391.728	6666
391.808	6348
391.888	6594
391.969	19277
392.049	32177
392.129	10608
392.209	14379
392.289	43523
392.369	19980
392.449	7682
392.529	6670
392.609	8053
392.689	11852
392.769	43237
392.849	33822
392.929	18920
393.009	54207
393.089	43739
393.169	37837
393.248	118078
393.328	466578
393.408	488518
393.488	121295
393.568	33990
393.648	16826
393.728	9999
393.807	6954
393.887	7116
393.967	6195
394.047	6790
394.127	7115
394.206	11035
394.286	39896
394.366	210379
394.446	217561
394.525	39029
394.605	9348
394.685	7324
394.764	10963
394.844	16283
394.924	13416
395.003	6507
395.083	5316
395.163	4947
395.242	4582
395.322	4486
395.402	2387
395.481	4314
395.561	7553
395.640	23218
395.720	22127
395.799	21068
395.879	16474
395.958	13694
396.038	55901
396.117	274870
396.197	286937
396.276	61189
396.356	17188
396.435	11511
396.515	11301
396.594	14917
396.673	33319
396.753	132144
396.832	428022
396.912	303243
396.991	66884
397.070	19602
397.150	9083
397.229	6828
397.308	10026
397.388	15311
397.467	7212
397.546	3335
397.625	1397
397.705	6305
397.784	5466
397.863	2578
397.942	2420
398.022	1542
398.101	4975
398.180	14452
398.259	6771
398.338	3339
398.417	2449
398.497	1243
398.576	2678
398.655	1304
398.734	1761
398.813	946
398.892	4493
398.971	16496
399.050	6915
399.129	1330
399.208	1347
399.287	1461
399.366	657
399.445	715
399.524	1278
399.603	659
399.682	3284
399.761	8224
399.840	19706
399.919	13880
399.998	1900
400.077	-288
400.156	-356
400.235	2706
400.313	106
400.392	931
400.471	15511
400.550	25860
400.629	5480
400.708	1927
400.786	556
400.865	1887
400.944	3076
401.023	3600
401.102	-62
401.180	576
401.259	432
401.338	194
401.416	1732
401.495	704
401.574	1222
401.652	-198
401.731	2019
401.810	940
401.888	1431
401.967	216
402.046	661
402.124	1601
402.203	1696
402.281	1746
402.360	1452
402.438	4220
402.517	2087
402.596	1003
402.674	672
402.753	334
402.831	1254
402.910	1222
402.988	10609
403.066	42578
403.145	23843
403.223	12684
403.302	33671
403.380	24860
403.459	24886
403.537	8898
403.615	2358
403.694	-699
403.772	1116
403.850	268
403.929	-163
404.007	-195
404.085	4336
404.164	3426
404.242	352
404.320	1839
404.398	4111
404.477	16101
404.555	93482
404.633	75996
404.711	9066
404.789	2468
404.868	1782
404.946	291
405.024	648
405.102	93
405.180	193
405.258	-401
405.336	1121
405.415	-545
405.493	2219
405.571	2800
405.649	195
405.727	-611
405.805	2807
405.883	1619
405.961	1968
406.039	91
406.117	-986
406.195	2997
406.273	18432
406.351	75929
406.429	41184
406.507	3496
406.585	723
406.663	781
406.740	2993
406.818	1409
406.896	317
406.974	2071
407.052	3665
407.130	42546
407.208	59247
407.285	10319
407.363	499
407.441	898
407.519	1024
407.596	782
407.674	5812
407.752	20940
407.830	16030
407.907	3977
407.985	872
408.063	447
408.141	-126
408.218	1232
408.296	1215
408.373	1503
408.451	1926
408.529	1230
408.606	-453
408.684	-714
408.762	563
408.839	-627
408.917	15
408.994	-120
409.072	-516
409.149	-9
409.227	1848
409.304	2385
409.382	1363
409.459	1974
409.537	4197
409.614	2049
409.692	1305
409.769	1653
409.846	4376
409.924	5508
410.001	1511
410.079	1341
410.156	1999
410.233	415
410.311	-33
410.388	-362
410.465	1002
410.543	108
410.620	1244
410.697	663
410.775	1022
410.852	-982
410.929	1911
411.006	1981
411.083	277
411.161	1158
411.238	2147
411.315	526
411.392	-12
411.469	1518
411.547	1110
411.624	-1209
411.701	619
411.778	239
411.855	3966
411.932	1450
412.009	-405
412.086	389
412.163	690
412.240	43
412.317	1085
412.394	-583
412.471	-423
412.548	-550
412.625	733
412.702	413
412.779	2040
412.856	853
412.933	-415
413.010	-161
413.087	1627
413.164	14241
413.241	19401
413.318	2791
413.395	2712
413.471	2591
413.548	758
413.625	301
413.702	-109
413.779	23
413.855	-739
413.932	-1230
414.009	-449
414.086	-1005
414.162	-431
414.239	1743
414.316	13201
414.393	32738
414.469	9305
414.546	-142
414.623	-521
414.699	-363
414.776	111
414.853	12
414.929	695
415.006	-198
415.082	-310
415.159	236
415.236	-172
415.312	1769
415.389	2381
415.465	3141
415.542	1273
415.618	95
415.695	3233
415.771	564
415.848	918
415.924	150
416.000	-311
416.077	853
416.153	-1359
416.230	-1285
416.306	-232
416.383	-926
416.459	-178
416.535	-1015
416.612	-511
416.688	-867
416.764	-265
416.841	-45
416.917	-349
416.993	-103
417.069	546
417.146	27
417.222	2191
417.298	-40
417.374	-617
417.451	287
417.527	1286
417.603	497
417.679	848
417.755	161
417.831	-738
417.908	-626
417.984	-554
418.060	-1257
418.136	2562
418.212	3837
418.288	616
418.364	-375
418.440	-367
418.516	1758
418.592	341
418.668	4656
418.744	8948
418.820	6396
418.896	839
418.972	-990
419.048	385
419.124	4386
419.200	1813
419.276	-504
419.352	-984
419.428	87
419.504	308
419.579	574
419.655	992
419.731	929
419.807	5975
419.883	10277
419.959	6966
420.034	1087
420.110	4749
420.186	20350
420.262	15587
420.337	1683
420.413	937
420.489	-127
420.565	222
420.640	-646
420.716	420
420.792	-715
420.867	1198
420.943	-517
421.019	2179
421.094	1150
421.170	131
421.245	34
421.321	982
421.397	99
421.472	3826
421.548	10289
421.623	7812
421.699	2138
421.774	2813
421.850	982
421.925	3463
422.001	3396
422.076	2518
422.152	3444
422.227	5628
422.302	6961
422.378	10126
422.453	18979
422.529	50913
422.604	160213
422.679	266327
422.755	170532
422.830	55339
422.905	21051
422.981	10255
423.056	7270
423.131	5349
423.207	3823
423.282	3196
423.357	7640
423.432	3591
423.508	3874
423.583	10608
423.658	7537
423.733	2599
423.808	1073
423.883	3599
423.959	2145
424.034	2087
424.109	1205
424.184	67
424.259	-551
424.334	747
424.409	-1309
424.484	95
424.559	984
424.634	626
424.709	1679
424.784	2885
424.859	352
424.934	1879
425.009	14461
425.084	25111
425.159	8144
425.234	813
425.309	-98
425.384	8048
425.459	16553
425.534	3747
425.609	-240
425.683	-743
425.758	-26
425.833	633
425.908	1462
425.983	8505
426.058	25594
426.132	9387
426.207	1001
426.282	2064
426.357	-392
426.431	164
426.506	736
426.581	-125
426.655	-144
426.730	86
426.805	13
426.879	1361
426.954	-101
427.029	3555
427.103	25888
427.178	68038
427.253	27760
427.327	3123
427.402	3131
427.476	14924
427.551	7613
427.625	878
427.700	43
427.774	-746
427.849	190
427.923	-493
427.998	-227
428.072	-430
428.147	2960
428.221	18964
428.296	56468
428.370	29085
428.444	2322
428.519	1268
428.593	2075
428.667	1897
428.742	2273
428.816	5646
428.890	30455
428.965	59238
429.039	18329
429.113	4057
429.188	780
429.262	328
429.336	2237
429.410	11382
429.485	6070
429.559	1815
429.633	1231
429.707	949
429.781	4037
429.855	28874
429.930	49664
430.004	17856
430.078	13902
430.152	21025
430.226	73962
430.300	76184
430.374	10713
430.448	3456
430.522	5038
430.596	14110
430.670	14557
430.744	69453
430.818	103368
430.892	20826
430.966	2384
431.040	1375
431.114	-826
431.188	-181
431.262	-181
431.336	20
431.410	1252
431.484	4068
431.557	4925
431.631	330
431.705	1626
431.779	9668
431.853	50392
431.927	35939
432.000	4730
432.074	773
432.148	504
432.222	146
432.295	-683
432.369	-26
432.443	1712
432.516	25298
432.590	69675
432.664	24852
432.737	1910
432.811	-400
432.885	-488
432.958	-153
433.032	-541
433.106	-522
433.179	-1597
433.253	703
433.326	-870
433.400	-1534
433.473	-368
433.547	-1076
433.620	-826
433.694	2088
433.767	2641
433.841	259
433.914	-254
433.988	-15
434.061	-704
434.134	228
434.208	-1397
434.281	-805
434.355	-1454
434.428	236
434.501	-578
434.575	-128
434.648	-907
434.721	-855
434.795	-568
434.868	-667
434.941	-1358
435.014	-474
435.088	-403
435.161	2501
435.234	3186
435.307	3959
435.381	977
435.454	1314
435.527	2334
435.600	2423
435.673	1013
435.746	607
435.819	-278
435.892	-96
435.966	-412
436.039	414
436.112	97
436.185	203
436.258	-617
436.331	-1330
436.404	-1024
436.477	-579
436.550	-533
436.623	-587
436.696	-756
436.769	92
436.842	-276
436.915	119
436.987	256
437.060	-401
437.133	-1331
437.206	-907
437.279	-321
437.352	-730
437.425	-747
437.498	-34
437.570	2471
437.643	2703
437.716	-453
437.789	-470
437.861	1263
437.934	5284
438.007	2805
438.080	-319
438.152	1107
438.225	4674
438.298	38447
438.370	112224
438.443	46303
438.516	7944
438.588	1330
438.661	276
438.734	-768
438.806	-246
438.879	900
438.951	482
439.024	2048
439.096	826
439.169	141
439.241	-737
439.314	-849
439.386	-358
439.459	274
439.531	1872
439.604	-185
439.676	93
439.749	-1135
439.821	-708
439.893	-384
439.966	-132
440.038	-97
440.110	1036
440.183	-226
440.255	-402
440.327	1210
440.400	13687
440.472	65072
440.544	47041
440.617	5118
440.689	2559
440.761	2431
440.833	5796
440.905	3717
440.978	206
441.050	-731
441.122	18
441.194	-837
441.266	-516
441.338	-655
441.411	1372
441.483	19379
441.555	33674
441.627	7759
441.699	1017
441.771	86
441.843	22
441.915	-912
441.987	-128
442.059	-548
442.131	252
442.203	893
442.275	1450
442.347	2000
442.419	4279
442.491	27660
442.563	75846
442.635	35857
442.706	9064
442.778	7557
442.850	1430
442.922	297
442.994	1414
443.066	2253
443.137	1874
443.209	1251
443.281	2901
443.353	8456
443.425	35632
443.496	136061
443.568	143171
443.640	57856
443.711	11217
443.783	2089
443.855	1599
443.926	52
443.998	419
444.070	992
444.141	601
444.213	2908
444.285	4239
444.356	3095
444.428	736
444.499	-145
444.571	124
444.642	-511
444.714	1236
444.785	2895
444.857	3103
444.928	2640
445.000	1804
445.071	3398
445.143	4644
445.214	4752
445.285	7049
445.357	19720
445.428	86068
445.500	212639
445.571	142241
445.642	77491
445.714	25286
445.785	9443
445.856	4770
445.928	4720
445.999	4961
446.070	2536
446.141	2832
446.213	5401
446.284	2002
446.355	721
446.426	931
446.497	672
446.569	610
446.640	3133
446.711	5305
446.782	272
446.853	1060
446.924	1610
446.995	1413
447.066	1138
447.138	422
447.209	187
447.280	-950
447.351	-734
447.422	-456
447.493	-332
447.564	1463
447.635	3812
447.706	1201
447.777	-690
447.847	-539
447.918	-1051
447.989	-297
448.060	150
448.131	1864
448.202	2034
448.273	3524
448.344	424
448.414	328
448.485	-297
448.556	252
448.627	-1702
448.698	693
448.768	-842
448.839	-625
448.910	-264
448.981	888
449.051	806
449.122	-390
449.193	-926
449.263	-256
449.334	-1029
449.405	580
449.475	5094
449.546	3532
449.616	1059
449.687	724
449.758	183
449.828	-75
449.899	-344
449.969	71
450.040	-657
450.110	189
450.181	298
450.251	183
450.322	78
450.392	-286
450.463	-619
450.533	-379
450.604	-1013
450.674	-909
450.744	-144
450.815	-773
450.885	-91
450.955	-11
451.026	-642
451.096	-808
451.166	-471
451.237	219
451.307	2925
451.377	1229
451.447	-822
451.518	271
451.588	-928
451.658	-18
451.728	169
451.799	2109
451.869	2917
451.939	327
452.009	-254
452.079	-1016
452.149	-543
452.219	-53
452.289	2997
452.360	1971
452.430	484
452.500	1698
452.570	1477
452.640	4076
452.710	10044
452.780	13168
452.850	14051
452.920	15035
452.990	5479
453.060	1929
453.129	2097
453.199	2681
453.269	4822
453.339	12292
453.409	19803
453.479	16217
453.549	23795
453.619	24382
453.688	9828
453.758	916
453.828	-743
453.898	-775
453.968	-903
454.037	-228
454.087	-384
454.107	-454
454.168	-693
454.177	-736
454.247	-776
454.249	-765
454.316	-634
454.330	-670
454.386	-826
454.411	-327
454.456	445
454.492	1285
454.525	2055
454.574	1727
454.595	1585
454.655	142
454.665	-106
454.734	16
454.736	30
454.804	368
454.817	811
454.873	2617
454.898	2872
454.943	3268
454.979	2246
455.013	1359
455.060	400
455.082	-73
455.141	297
455.152	373
455.221	1704
455.222	1742
455.291	4311
455.303	4194
455.360	3506
455.384	5092
455.430	7699
455.465	5537
455.499	3578
455.546	3297
455.569	3178
455.627	2895
455.638	2843
455.707	195
455.708	197
455.777	-1004
455.789	-926
455.846	-438
455.869	-456
455.916	-634
455.950	-326
455.985	-71
456.031	-381
456.054	-485
456.112	-121
456.124	-31
456.193	-29
456.193	-38
456.262	16
456.274	-23
456.332	-196
456.355	-267
456.401	-342
456.436	-273
456.470	-356
456.516	-37
456.540	171
456.597	-390
456.609	-472
456.678	-146
456.678	-154
456.747	-57
456.759	-195
456.817	-616
456.840	-780
456.886	-1308
456.920	-920
456.955	-354
457.001	-329
457.024	-393
457.082	117
457.093	217
457.162	226
457.163	231
457.232	373
457.243	413
457.301	403
457.324	204
457.370	-123
457.405	179
457.439	457
457.485	338
457.508	362
457.566	495
457.577	511
457.646	841
457.647	846
457.715	1687
457.727	2220
457.784	5230
457.808	7867
457.853	11973
457.889	14979
457.922	16578
457.969	11875
457.991	11010
458.050	10279
458.060	10235
458.129	20477
458.130	20738
458.198	27289
458.211	24990
458.267	15787
458.292	11302
458.336	5198
458.372	3982
458.405	4089
458.453	6692
458.474	8484
458.533	17018
458.543	17924
458.611	36928
458.614	37089
458.680	31555
458.694	26467
458.749	12510
458.775	8994
458.818	3623
458.855	2487
458.887	1822
458.936	980
458.955	503
459.016	537
459.024	616
459.093	857
459.097	873
459.162	968
459.177	961
459.230	886
459.257	1105
459.299	1531
459.338	1364
459.368	1035
459.418	1557
459.437	1816
459.499	1192
459.505	1113
459.574	645
459.579	656
459.643	430
459.659	265
459.711	565
459.740	673
459.780	374
459.820	543
459.849	715
459.900	754
459.917	873
459.981	792
459.986	729
460.054	707
460.061	737
460.123	1335
460.141	1265
460.191	1335
460.222	1835
460.260	2089
460.302	2226
460.328	2332
460.382	2251
460.397	2138
460.462	211
460.465	174
460.534	1197
460.543	1291
460.602	4400
460.623	5829
460.671	9310
460.703	13531
460.739	14472
460.783	12754
460.808	11400
460.864	3305
460.876	2379
460.944	1097
460.945	1072
461.013	625
461.024	556
461.081	609
461.104	782
461.150	933
461.184	864
461.218	1186
461.264	1154
461.286	905
461.345	739
461.355	730
461.423	826
461.425	812
461.491	200
461.505	237
461.559	714
461.585	1005
461.628	1655
461.665	2194
461.696	2535
461.745	3424
461.764	3504
461.825	2359
461.832	2303
461.901	1990
461.905	1978
461.969	1064
461.985	1000
462.037	1667
462.065	1770
462.105	956
462.145	210
462.173	644
462.225	1450
462.241	1263
462.305	1382
462.310	1454
462.378	1975
462.385	1980
462.446	1696
462.465	1595
462.514	1134
462.545	1028
462.582	961
462.625	899
462.650	841
462.705	594
462.718	601
462.785	384
462.786	387
462.854	837
462.865	961
462.922	1458
462.945	1627
462.990	1347
463.025	874
463.058	864
463.104	1061
463.126	880
463.184	365
463.194	444
463.262	710
463.264	736
463.330	739
463.344	714
463.398	1207
463.424	1339
463.466	1143
463.504	1224
463.533	1348
463.583	1162
463.601	1129
463.663	1214
463.669	1252
463.737	1510
463.743	1607
463.805	2345
463.823	2414
463.873	2886
463.903	2958
463.940	2633
463.982	2907
464.008	2907
464.062	2249
464.076	2033
464.142	357
464.144	351
464.211	1115
464.221	1142
464.279	571
464.301	510
464.347	958
464.381	1154
464.414	1088
464.461	1226
464.482	1516
464.540	2008
464.550	2049
464.617	2718
464.620	2730
464.685	2805
464.699	2833
464.753	2645
464.779	2458
464.820	2748
464.859	3026
464.888	2297
464.938	1135
464.956	1457
465.018	2500
465.023	2540
465.091	3046
465.098	3110
465.158	2222
465.177	1978
465.226	1968
465.257	1876
465.293	1931
465.336	1805
465.361	2017
465.416	2795
465.428	2975
465.495	3967
465.496	3968
465.563	3317
465.575	3172
465.631	3542
465.654	3918
465.698	2915
465.734	1639
465.765	1880
465.813	2378
465.833	2156
465.893	1631
465.900	1624
465.968	1597
465.972	1588
466.035	1203
466.052	1110
466.102	1612
466.131	1875
466.170	1972
466.210	2101
466.237	2042
466.290	1868
466.304	1844
466.369	1694
466.372	1699
466.439	1881
466.449	1899
466.506	1745
466.528	1686
466.573	2865
466.607	3765
466.641	4502
466.687	5495
466.708	5912
466.766	7214
466.775	6890
466.842	4272
466.845	4147
466.909	2757
466.925	2433
466.977	2027
467.004	1856
467.044	2423
467.083	2986
467.111	3148
467.163	3469
467.178	3440
467.242	3297
467.245	3331
467.312	4019
467.321	4110
467.379	3142
467.400	2781
467.446	2841
467.480	2884
467.559	2987
467.638	2306
467.717	2282
467.796	3767
467.875	3924
467.955	2985
468.034	3573
468.113	5131
468.192	6841
468.271	3759
468.350	3927
468.429	4516
468.508	5807
468.588	3637
468.667	2475
468.746	3603
468.825	2737
468.904	2835
468.983	2565
469.062	3354
469.141	4323
469.220	2730
469.299	2299
469.378	1462
469.456	4317
469.535	3459
469.614	2199
469.693	3070
469.772	3187
469.851	3784
469.930	4197
470.009	3427
470.088	3663
470.166	6160
470.245	11803
470.324	13839
470.403	8242
470.482	4169
470.560	3593
470.639	3257
470.718	4901
470.797	2866
470.875	3123
470.954	2780
471.033	3232
471.111	2914
471.190	2258
471.269	2351
471.347	1724
471.426	2880
471.505	1697
471.583	2408
471.662	2512
471.740	2427
471.819	2620
471.898	1504
471.976	2357
472.055	1421
472.133	2309
472.212	2719
472.290	2577
472.369	1968
472.447	2225
472.526	1390
472.604	2691
472.683	2860
472.761	3151
472.839	1698
472.918	2629
472.996	1714
473.075	3257
473.153	2737
473.231	2549
473.310	2055
473.388	2795
473.466	1779
473.545	2167
473.623	5147
473.701	4721
473.780	2606
473.858	704
473.936	3921
474.014	2131
474.093	2258
474.171	3117
474.249	3474
474.327	2448
474.405	1560
474.484	2272
474.562	2520
474.640	2756
474.718	1708
474.796	2078
474.874	2323
474.952	1334
475.030	1105
475.108	2753
475.187	2165
475.265	3137
475.343	5879
475.421	6737
475.499	1962
475.577	2600
475.655	2241
475.733	3652
475.811	4223
475.889	4479
475.966	3668
476.044	2687
476.122	3354
476.200	5239
476.278	3147
476.356	1901
476.434	1583
476.512	3119
476.590	5606
476.667	5093
476.745	1398
476.823	1767
476.901	1312
476.979	1895
477.056	2019
477.134	2267
477.212	2742
477.290	2472
477.367	1607
477.445	1617
477.523	1220
477.601	1799
477.678	1423
477.756	2009
477.834	1364
477.911	1502
477.989	1233
478.066	640
478.144	2039
478.222	3255
478.299	7148
478.377	6963
478.454	1382
478.532	1626
478.609	1440
478.687	1812
478.764	2215
478.842	1658
478.919	1632
478.997	1794
479.074	1533
479.152	1094
479.229	2297
479.307	-39
479.384	1533
479.461	1478
479.539	794
479.616	816
479.694	1029
479.771	1523
479.848	1184
479.926	1243
480.003	2883
480.080	1539
480.157	810
480.235	1413
480.312	1350
480.389	995
480.467	1258
480.544	2439
480.621	1691
480.698	1774
480.775	1566
480.853	1217
480.930	1564
481.007	585
481.084	808
481.161	1598
481.238	2512
481.315	850
481.392	412
481.470	1024
481.547	1771
481.624	1077
481.701	1455
481.778	1514
481.855	1076
481.932	1927
482.009	2150
482.086	2024
482.163	2392
482.240	5610
482.317	9163
482.393	6433
482.470	1766
482.547	1825
482.624	1215
482.701	1264
482.778	918
482.855	1255
482.932	1518
483.009	959
483.085	1319
483.162	2111
483.239	2772
483.316	1998
483.393	2096
483.469	1844
483.546	1440
483.623	1547
483.699	897
483.776	777
483.853	1360
483.930	2149
484.006	3316
484.083	6686
484.160	5469
484.236	10209
484.313	7835
484.389	5487
484.466	5082
484.543	4877
484.619	4619
484.696	7026
484.772	4297
484.849	4602
484.925	4108
485.002	4798
485.078	3950
485.155	4555
485.231	3651
485.308	3770
485.384	3852
485.461	3854
485.537	5172
485.614	7635
485.690	3980
485.766	4323
485.843	4859
485.919	8920
485.995	8412
486.072	3931
486.148	4068
486.224	2859
486.301	3549
486.377	3381
486.453	3729
486.530	4870
486.606	5887
486.682	6404
486.758	6315
486.835	6798
486.911	4252
486.987	9309
487.063	16120
487.139	26732
487.215	16071
487.292	7390
487.368	4961
487.444	5694
487.520	8523
487.596	7687
487.672	14306
487.748	44529
487.824	67341
487.900	19094
487.976	6597
488.052	5184
488.128	6499
488.204	4596
488.280	4237
488.356	3308
488.432	5266
488.508	8096
488.584	4585
488.660	5241
488.736	4463
488.812	4807
488.888	6681
488.964	9771
489.039	25576
489.115	41558
489.191	21496
489.267	4217
489.343	3409
489.418	3933
489.494	2403
489.570	1975
489.646	3647
489.722	2904
489.797	2040
489.873	4046
489.949	5570
490.024	4536
490.100	3053
490.176	2464
490.251	5124
490.327	8280
490.403	3112
490.478	3197
490.554	2493
490.629	2929
490.705	1214
490.781	3010
490.856	1840
490.932	3808
491.007	4822
491.083	3146
491.158	2327
491.234	3421
491.309	4571
491.385	4076
491.460	1744
491.536	4930
491.611	2687
491.686	4791
491.762	6440
491.837	16125
491.913	26363
491.988	36468
492.063	49205
492.139	9896
492.214	3500
492.289	2336
492.365	2376
492.440	3724
492.515	2400
492.590	2695
492.666	2119
492.741	2677
492.816	2990
492.891	1956
492.967	2226
493.042	2998
493.117	1606
493.192	3212
493.267	3762
493.342	10036
493.418	12865
493.493	2921
493.568	1691
493.643	1651
493.718	3021
493.793	3664
493.868	6627
493.943	5144
494.018	2977
494.093	1673
494.168	2685
494.243	1274
494.318	1616
494.393	1980
494.468	1454
494.543	1428
494.618	2360
494.693	1795
494.768	607
494.842	1583
494.917	613
494.992	2051
495.067	2126
495.142	1430
495.217	1664
495.292	2685
495.366	2611
495.441	3906
495.516	4905
495.591	7774
495.665	36402
495.740	90023
495.815	33878
495.890	2876
495.964	318
496.039	3954
496.114	1759
496.188	1597
496.263	1231
496.338	1572
496.412	1652
496.487	3294
496.561	2899
496.636	2827
496.710	3028
496.785	2380
496.860	3006
496.934	1480
497.009	3398
497.083	2133
497.158	2311
497.232	3090
497.307	3611
497.381	2327
497.455	1961
497.530	3363
497.604	1728
497.679	3165
497.753	4594
497.827	5456
497.902	4338
497.976	6240
498.050	10170
498.125	37868
498.199	42240
498.273	13624
498.348	9993
498.422	7536
498.496	6576
498.570	6401
498.645	2233
498.719	1652
498.793	3086
498.867	4989
498.941	4679
499.016	13123
499.090	36836
499.164	15235
499.238	2510
499.312	3511
499.386	3496
499.460	3561
499.534	1944
499.609	2371
499.683	2441
499.757	3523
499.831	4997
499.905	23473
499.979	21712
500.053	4309
500.127	6735
500.201	6185
500.275	3558
500.349	2875
500.422	2386
500.496	6327
500.570	14744
500.644	20072
500.718	24298
500.792	7077
500.866	2916
500.940	1976
501.013	2214
501.087	2452
501.161	6586
501.235	5108
501.309	7797
501.382	16944
501.456	19647
501.530	6135
501.603	4946
501.677	2915
501.751	711
501.825	4016
501.898	2588
501.972	6995
502.046	4268
502.119	1910
502.193	4564
502.266	8295
502.340	3900
502.413	3788
502.487	6319
502.561	3053
502.634	1752
502.708	1799
502.781	2169
502.855	1949
502.928	-202
503.002	1077
503.075	1318
503.149	1011
503.222	713
503.295	473
503.369	1625
503.442	1487
503.516	5104
503.589	12537
503.662	8317
503.736	3231
503.809	6624
503.882	5332
503.956	9127
504.029	12593
504.102	24099
504.175	36634
504.249	9429
504.322	3587
504.395	1729
504.468	1734
504.542	286
504.615	387
504.688	1252
504.761	-348
504.834	2421
504.907	2814
504.980	5525
505.053	2633
505.127	754
505.200	4595
505.273	895
505.346	-158
505.419	-474
505.492	1226
505.565	-345
505.638	116
505.711	-326
505.784	-816
505.857	45
505.930	1529
506.003	-842
506.076	2560
506.149	80
506.221	-347
506.294	2277
506.367	1563
506.440	10291
506.513	7469
506.586	1510
506.659	271
506.731	955
506.804	1227
506.877	3043
506.950	1665
507.022	1286
507.095	-480
507.168	954
507.241	3497
507.313	411
507.386	746
507.459	4390
507.531	2034
507.604	-257
507.677	1754
507.749	-542
507.822	1484
507.894	4566
507.967	6264
508.040	983
508.112	2577
508.185	2654
508.257	1175
508.330	4059
508.402	214
508.475	715
508.547	1637
508.620	1748
508.692	1540
508.765	1430
508.837	1330
508.909	1940
508.982	571
509.054	2536
509.127	1474
509.199	840
509.271	-605
509.344	725
509.416	-154
509.488	-815
509.560	1289
509.633	766
509.705	2694
509.777	1163
509.849	4269
509.922	57
509.994	1155
510.066	1099
510.138	-167
510.210	4817
510.283	2252
510.355	1990
510.427	2419
510.499	3063
510.571	4092
510.643	939
510.715	5369
510.787	1744
510.859	3416
510.931	1810
511.003	4027
511.076	3779
511.148	1787
511.219	425
511.291	1354
511.363	2499
511.435	1718
511.507	-706
511.579	2299
511.651	1701
511.723	1217
511.795	1357
511.867	784
511.939	1238
512.010	1343
512.082	3064
512.154	279
512.226	1021
512.298	2715
512.369	4501
512.441	3564
512.513	4736
512.585	2058
512.656	2686
512.728	3090
512.800	1641
512.871	2776
512.943	2407
513.015	146
513.086	2099
513.158	2873
513.230	1344
513.301	4432
513.373	7427
513.444	2588
513.516	1818
513.588	1573
513.659	2615
513.731	3944
513.802	1461
513.874	9604
513.945	17395
514.016	3998
514.088	2360
514.159	1668
514.231	3155
514.302	4419
514.374	3430
514.445	337
514.516	4794
514.588	1714
514.659	2118
514.730	1771
514.802	4167
514.873	1438
514.944	3733
515.016	2773
515.087	3065
515.158	3123
515.229	3802
515.301	2621
515.372	4443
515.443	1570
515.514	1392
515.585	1398
515.656	2497
515.728	3020
515.799	1064
515.870	2474
515.941	2703
516.012	1845
516.083	4474
516.154	4105
516.225	9022
516.296	9022
516.367	6732
516.438	8601
516.509	11537
516.580	16729
516.651	57688
516.722	217793
516.793	86470
516.864	15897
516.935	15129
517.006	17901
517.077	24306
517.148	55176
517.219	246326
517.289	372787
517.360	52333
517.431	14932
517.502	6090
517.573	6684
517.643	4771
517.714	5755
517.785	5744
517.856	6361
517.926	11130
517.997	13854
518.068	19032
518.138	27502
518.209	39412
518.280	151327
518.350	584826
518.421	209912
518.492	25383
518.562	11230
518.633	9240
518.703	7492
518.774	16412
518.845	40116
518.915	39246
518.986	11577
519.056	7756
519.127	13150
519.197	17110
519.268	17886
519.338	9377
519.408	3867
519.479	7142
519.549	4401
519.620	4392
519.690	1937
519.760	1361
519.831	2530
519.901	2209
519.971	1779
520.042	2397
520.112	1567
520.182	4383
520.253	5000
520.323	3433
520.393	5397
520.463	14191
520.534	5280
520.604	20505
520.674	6591
520.744	4038
520.814	20335
520.885	16144
520.955	4130
521.025	12281
521.095	6129
521.165	2560
521.235	610
521.305	-317
521.375	2001
521.445	2471
521.515	3039
521.585	5274
521.655	2549
521.725	5029
521.795	4598
521.865	107
521.935	3025
522.005	1592
522.075	650
522.145	2889
522.215	223
522.285	2455
522.355	1555
522.424	4462
522.494	3205
522.564	3095
522.634	9804
522.704	37239
522.774	13082
522.843	2519
522.913	1592
522.983	3748
523.053	2107
523.122	2240
523.192	3261
523.262	21361
523.331	18721
523.401	3803
523.471	1579
523.540	1785
523.610	-46
523.680	1405
523.749	1444
523.819	274
523.888	603
523.958	726
524.027	785
524.097	1163
524.166	1007
524.236	-215
524.305	3192
524.375	594
524.444	-108
524.514	2261
524.583	337
524.653	-3
524.722	1248
524.791	-705
524.861	1758
524.930	-473
524.999	967
525.069	2689
525.138	-168
525.207	-161
525.277	1856
525.346	665
525.415	1829
525.484	1539
525.554	1342
525.623	1771
525.692	1640
525.761	1543
525.830	3838
525.900	3736
525.969	7514
526.038	13292
526.107	23706
526.176	81408
526.245	64860
526.314	20573
526.383	41554
526.452	53400
526.522	94397
526.591	92708
526.660	26332
526.729	14301
526.797	14852
526.867	26092
526.935	122021
527.004	228718
527.073	120000
527.142	10931
527.211	3798
527.280	4310
527.349	4418
527.418	831
527.487	2380
527.555	419
527.624	1703
527.693	-617
527.762	2041
527.831	-200
527.899	1263
527.968	703
528.037	-587
528.106	2137
528.174	4435
528.243	3063
528.312	3991
528.380	6653
528.449	849
528.518	1707
528.586	-607
528.655	1153
528.723	335
528.792	597
528.861	230
528.929	-1914
528.998	1473
529.066	40
529.135	685
529.203	-100
529.272	-619
529.340	348
529.409	2275
529.477	-551
529.545	-92
529.614	2885
529.682	-515
529.751	877
529.819	3909
529.887	275
529.956	15
530.024	611
530.092	-235
530.161	2237
530.229	3595
530.297	373
530.365	1418
530.434	986
530.502	-443
530.570	-149
530.638	82
530.707	698
530.775	2714
530.843	-364
530.911	568
530.979	515
531.047	73
531.115	953
531.183	-7
531.252	608
531.320	839
531.388	805
531.456	1121
531.524	-793
531.592	685
531.660	2743
531.728	-193
531.796	-957
531.864	610
531.932	212
532.000	725
532.067	480
532.135	1555
532.203	2296
532.271	508
532.339	5387
532.407	17089
532.475	8088
532.542	3838
532.610	4212
532.678	4703
532.746	26780
532.814	73737
532.881	17827
532.949	2454
533.017	1437
533.084	259
533.152	1171
533.220	963
533.287	579
533.355	1246
533.423	668
533.490	331
533.558	-177
533.625	-130
533.693	236
533.761	1013
533.828	749
533.896	328
533.963	5279
534.031	5200
534.098	8358
534.166	2682
534.233	389
534.300	1724
534.368	1481
534.435	1275
534.503	1173
534.570	3515
534.637	2108
534.705	3035
534.772	4041
534.840	6918
534.907	35206
534.974	46441
535.041	4856
535.109	1525
535.176	330
535.243	1533
535.310	896
535.378	515
535.445	1117
535.512	1356
535.579	1749
535.646	470
535.714	-110
535.781	2101
535.848	1346
535.915	1987
535.982	262
536.049	901
536.116	1954
536.183	113
536.250	1319
536.317	1255
536.384	2354
536.451	4907
536.518	5261
536.585	880
536.652	4686
536.719	7926
536.786	3860
536.853	2562
536.920	6223
536.987	9953
537.053	7651
537.120	34554
537.187	31411
537.254	2315
537.321	555
537.388	2630
537.454	598
537.521	752
537.588	1520
537.654	2052
537.721	1447
537.788	2164
537.855	1174
537.921	687
537.988	1423
538.055	2893
538.121	346
538.188	1214
538.254	3547
538.321	10979
538.388	7084
538.454	2206
538.521	2272
538.587	1184
538.654	1365
538.720	1629
538.787	930
538.853	536
538.920	1080
538.986	2166
539.053	799
539.119	2665
539.185	2060
539.252	2299
539.318	4821
539.385	4471
539.451	1508
539.517	2324
539.583	3320
539.650	7504
539.716	24303
539.782	7346
539.849	1879
539.915	2764
539.981	1630
540.047	3053
540.114	1744
540.180	3446
540.246	1535
540.312	4502
540.378	10248
540.444	11185
540.510	9642
540.576	29710
540.643	8779
540.709	1201
540.775	1433
540.841	2022
540.907	2206
540.973	6560
541.039	5054
541.105	5449
541.171	1834
541.237	1279
541.303	1966
541.369	4862
541.435	3427
541.500	9057
541.566	4215
541.632	1515
541.698	1601
541.764	2351
541.830	1575
541.896	1181
541.961	2791
542.027	1597
542.093	1601
542.159	2890
542.224	1664
542.290	4848
542.356	7986
542.421	11588
542.487	4661
542.553	1560
542.618	2743
542.684	1878
542.750	1410
542.815	2957
542.881	4965
542.947	24090
543.012	18442
543.078	3025
543.143	909
543.209	2621
543.274	1835
543.340	3499
543.405	8925
543.471	13823
543.536	2657
543.602	3170
543.667	-228
543.732	2970
543.798	217
543.863	2115
543.928	434
543.994	615
544.059	722
544.124	1852
544.190	1563
544.255	2103
544.320	1962
544.386	1953
544.451	4032
544.516	5503
544.581	3492
544.646	13454
544.712	26469
544.777	4599
544.842	2747
544.907	1613
544.972	1499
545.037	2606
545.102	2584
545.168	1190
545.233	2348
545.298	3650
545.363	2141
545.428	3361
545.493	8972
545.558	19977
545.623	7253
545.688	1408
545.753	2493
545.818	1409
545.883	2614
545.947	1126
546.012	2526
546.077	1669
546.142	3821
546.207	1854
546.272	4914
546.337	4589
546.401	3575
546.466	3398
546.531	2186
546.596	4128
546.661	2629
546.725	4531
546.790	2866
546.855	3964
546.919	3269
546.984	4881
547.049	4545
547.113	6601
547.178	5055
547.243	8085
547.307	7757
547.372	9938
547.436	9718
547.501	9398
547.565	9590
547.630	12575
547.695	10352
547.759	9233
547.823	9016
547.888	9593
547.952	10528
548.017	9958
548.081	10886
548.146	11714
548.210	11599
548.274	10490
548.339	11773
548.403	10988
548.468	8552
548.532	8685
548.596	9445
548.660	10187
548.725	11127
548.789	11448
548.853	11990
548.917	10912
548.982	10841
549.046	9936
549.110	7861
549.174	9430
549.238	10060
549.303	10888
549.367	13058
549.431	12137
549.495	10204
549.559	9915
549.623	12496
549.687	13501
549.751	16188
549.815	16346
549.879	16301
549.943	15219
550.007	15700
550.071	15546
550.135	15353
550.199	13938
550.263	12576
550.327	12786
550.391	12870
550.455	13781
550.519	14548
550.582	17682
550.646	19777
550.710	19952
550.774	18963
550.838	18976
550.901	18029
550.965	20904
551.029	21298
551.093	23846
551.156	25752
551.220	30253
551.284	38425
551.347	26472
551.411	22869
551.475	22460
551.538	21171
551.602	18881
551.666	17655
551.729	16250
551.793	16651
551.856	15608
551.920	14787
551.983	15141
552.047	15253
552.110	16255
552.174	14350
552.237	15404
552.301	14750
552.364	13378
552.428	14275
552.491	14268
552.554	15525
552.618	15178
552.681	17272
552.745	17533
552.808	27447
552.871	34440
552.934	21720
552.998	14893
553.061	15082
553.124	14080
553.187	14023
553.251	14988
553.314	13816
553.377	13961
553.440	15238
553.503	18317
553.567	19770
553.630	14850
553.693	14952
553.756	15683
553.819	15256
553.882	14775
553.945	14792
554.008	15594
554.071	13741
554.134	15693
554.197	13110
554.260	13703
554.323	14988
554.386	14851
554.449	14451
554.512	14723
554.575	13371
554.638	13977
554.701	14183
554.764	13969
554.827	13553
554.889	12086
554.952	11262
555.015	10809
555.078	11974
555.141	13344
555.203	12483
555.266	11506
555.329	12252
555.391	11229
555.454	11475
555.517	10670
555.580	10385
555.642	9605
555.705	9596
555.768	9780
555.830	10691
555.893	7942
555.955	8679
556.018	10213
556.080	9519
556.143	9167
556.206	8777
556.268	8690
556.330	9460
556.393	9597
556.455	7721
556.518	8235
556.580	9431
556.643	8063
556.705	7631
556.767	6889
556.830	7974
556.892	9085
556.955	11791
557.017	9629
557.079	8129
557.142	8152
557.204	7971
557.266	15733
557.328	12442
557.391	5649
557.453	5562
557.515	5929
557.577	8013
557.639	8666
557.701	6894
557.764	6583
557.826	6434
557.888	8454
557.950	7793
558.012	10017
558.074	12519
558.136	29301
558.198	73260
558.260	25793
558.322	9061
558.384	11312
558.446	12709
558.508	17334
558.570	20737
558.632	31297
558.694	43627
558.756	49553
558.818	142828
558.880	346990
558.942	107135
559.003	81367
559.065	39878
559.127	17707
559.189	17659
559.251	20469
559.312	28655
559.374	65578
559.436	224026
559.498	107643
559.559	18968
559.621	18245
559.683	20701
559.744	32235
559.806	103235
559.868	157544
559.929	28632
559.991	18259
560.052	26052
560.114	76593
560.176	47226
560.237	41860
560.299	70157
560.360	13800
560.422	5613
560.483	5299
560.545	3013
560.606	3638
560.667	3851
560.729	3094
560.790	2936
560.852	3063
560.913	2763
560.974	2898
561.036	2891
561.097	2454
561.158	4031
561.220	4112
561.281	3424
561.342	3365
561.403	5857
561.465	6840
561.526	18662
561.587	25689
561.648	5075
561.709	2439
561.771	3494
561.832	3039
561.893	2324
561.954	2784
562.015	2327
562.076	2654
562.137	2407
562.198	2617
562.259	3038
562.320	2919
562.381	2779
562.442	5664
562.503	4408
562.564	2498
562.625	2551
562.686	2685
562.747	3230
562.808	2371
562.869	2524
562.930	2707
562.991	1810
563.051	2718
563.112	2434
563.173	2241
563.234	966
563.294	2485
563.355	1523
563.416	2989
563.477	1870
563.537	2261
563.598	2209
563.659	1641
563.720	2539
563.780	2229
563.841	2380
563.901	2126
563.962	1860
564.023	2888
564.083	2323
564.144	2075
564.204	1584
564.265	2398
564.325	2168
564.386	4313
564.446	2988
564.507	2104
564.567	2255
564.628	2046
564.688	2143
564.749	1408
564.809	2022
564.869	2387
564.930	1789
564.990	2500
565.050	2097
565.111	3189
565.171	2284
565.231	1592
565.292	3314
565.352	1815
565.412	2270
565.472	2762
565.532	3341
565.593	3286
565.653	1824
565.713	3110
565.773	3151
565.833	4839
565.893	7205
565.953	2949
566.013	2832
566.074	3142
566.134	2579
566.194	4231
566.254	4688
566.314	3379
566.374	1757
566.434	2957
566.494	2055
566.554	2090
566.614	2660
566.673	3088
566.733	2457
566.793	3107
566.853	3353
566.913	3451
566.973	3641
567.033	3662
567.092	3150
567.152	3358
567.212	2846
567.272	2835
567.331	3338
567.391	2958
567.451	3455
567.511	3830
567.570	3499
567.630	3169
567.690	3061
567.749	2988
567.809	2473
567.868	4376
567.928	3548
567.988	3636
568.047	4670
568.107	5230
568.166	7752
568.226	11993
568.285	16569
568.345	11902
568.404	9210
568.464	8020
568.523	7341
568.582	8136
568.642	9075
568.701	11079
568.761	16049
568.820	27371
568.879	22770
568.939	14587
568.998	10338
569.057	7062
569.116	6143
569.176	5628
569.235	3471
569.294	4920
569.353	4141
569.413	3519
569.472	2891
569.531	3582
569.590	2696
569.649	2711
569.708	2686
569.767	3738
569.827	4050
569.886	3627
569.945	2636
570.004	3885
570.063	2458
570.122	3327
570.181	3074
570.240	3713
570.299	3280
570.358	4007
570.417	2621
570.475	3307
570.534	3504
570.593	3964
570.652	3576
570.711	3417
570.770	2620
570.829	3604
570.887	4506
570.946	5579
571.005	3721
571.064	3583
571.122	5364
571.181	4046
571.240	3695
571.299	2336
571.357	2162
571.416	3224
571.475	2722
571.533	3094
571.592	3430
571.650	2786
571.709	2621
571.768	3998
571.826	3824
571.885	2894
571.943	2960
572.002	1800
572.060	2223
572.119	3093
572.177	3164
572.236	1876
572.294	1950
572.352	2838
572.411	2642
572.469	3288
572.528	2073
572.586	2465
572.644	3537
572.703	5070
572.761	3045
572.819	2147
572.877	1951
572.936	2245
572.994	2272
573.052	2505
573.110	2225
573.169	3672
573.227	2677
573.285	2431
573.343	2568
573.401	2028
573.459	3423
573.517	2802
573.576	1980
573.634	2919
573.692	2537
573.750	2297
573.808	2402
573.866	3156
573.924	3078
573.982	2820
574.040	1775
574.098	3137
574.155	2350
574.213	2505
574.271	1388
574.329	2583
574.387	2411
574.445	2105
574.503	2015
574.560	2415
574.618	2273
574.676	2138
574.734	971
574.792	2839
574.849	2719
574.907	1657
574.965	2272
575.022	1718
575.080	1802
575.138	3116
575.195	3046
575.253	2119
575.311	3544
575.368	3248
575.426	1857
575.483	2759
575.541	2718
575.598	2468
575.656	2089
575.713	2332
575.771	2561
575.828	1713
575.886	1939
575.943	2816
576.001	1873
576.058	1549
576.115	2664
576.173	2925
576.230	2652
576.287	4318
576.345	4562
576.402	2553
576.459	2111
576.517	2336
576.574	2687
576.631	2285
576.688	1931
576.746	1986
576.803	2349
576.860	2088
576.917	2379
576.974	2073
577.031	1354
577.089	2833
577.146	1356
577.203	1822
577.260	2375
577.317	2015
577.374	3007
577.431	3075
577.488	2006
577.545	1453
577.602	2640
577.659	1654
577.716	1362
577.773	2113
577.830	1079
577.886	1667
577.943	1944
578.000	2490
578.057	1907
578.114	2118
578.171	1986
578.227	2773
578.284	1603
578.341	2865
578.398	1552
578.454	2889
578.511	2125
578.568	2196
578.625	2512
578.681	1921
578.738	1770
578.794	1693
578.851	2904
578.908	2979
578.964	2146
579.021	2166
579.077	2772
579.134	2662
579.190	1974
579.247	2142
579.303	2509
579.360	1745
579.416	2945
579.473	2491
579.529	1512
579.586	2356
579.642	2262
579.698	2021
579.755	2021
579.811	2485
579.867	2080
579.924	2093
579.980	2035
580.036	2464
580.093	2284
580.149	1648
580.205	2336
580.261	2519
580.317	2186
580.374	2765
580.430	3453
580.486	3685
580.542	2674
580.598	3210
580.619	2964
580.654	2536
580.692	2250
580.710	2111
580.765	2606
580.767	2620
580.823	3008
580.838	2934
580.879	2707
580.911	2745
580.935	2792
580.984	1968
580.991	1852
581.047	3396
581.057	3298
581.103	2858
581.130	2868
581.159	2880
581.203	2728
581.215	2679
581.270	2547
581.276	2517
581.326	2270
581.349	2325
581.382	2373
581.422	2938
581.438	3177
581.494	2932
581.494	2930
581.550	2546
581.567	2698
581.606	2968
581.640	3045
581.661	3131
581.713	4254
581.717	4338
581.773	2911
581.786	2925
581.829	3021
581.859	3049
581.885	3029
581.932	3446
581.940	3538
581.996	3875
582.004	3896
582.052	3903
582.077	3521
582.107	3086
582.150	2562
582.163	2383
582.219	3132
582.223	3162
582.274	3612
582.296	3230
582.330	2576
582.368	2672
582.386	2774
582.441	3575
582.441	3573
582.497	3143
582.514	3125
582.552	3346
582.587	2848
582.608	2453
582.659	3326
582.663	3399
582.719	3946
582.732	3764
582.774	3124
582.805	3499
582.830	3863
582.877	3590
582.885	3529
582.941	3638
582.950	3576
582.996	3196
583.023	3501
583.052	4043
583.095	3666
583.107	3486
583.162	4093
583.168	4114
583.218	4442
583.240	4411
583.273	4174
583.313	3868
583.328	3889
583.384	4465
583.385	4460
583.439	3962
583.458	4102
583.494	4340
583.531	4284
583.549	4392
583.603	4433
583.605	4424
583.660	4275
583.676	4360
583.715	4594
583.748	4517
583.770	4549
583.820	4855
583.825	4866
583.881	4537
583.893	4337
583.936	3716
583.965	4132
583.991	4553
584.038	4713
584.046	4691
584.101	4089
584.110	4088
584.156	4469
584.183	4657
584.211	4723
584.255	4895
584.266	4969
584.321	4596
584.328	4638
584.376	4917
584.400	5142
584.431	5497
584.472	5133
584.486	5019
584.541	5695
584.545	5715
584.596	5788
584.617	5585
584.651	5788
584.689	6289
584.706	6243
584.761	6523
584.762	6512
584.816	6145
584.834	6438
584.871	6957
584.906	6561
584.926	6389
584.978	7261
584.980	7311
585.035	8073
585.051	8320
585.090	8851
585.123	9583
585.145	10013
585.195	10355
585.200	10452
585.254	12228
585.267	12913
585.309	15198
585.340	16635
585.364	17526
585.412	19984
585.419	20430
585.473	23485
585.484	24347
585.528	29778
585.556	35447
585.583	48060
585.628	78605
585.637	89858
585.692	188036
585.700	206257
585.747	263971
585.772	220239
585.801	134979
585.845	41732
585.856	30915
585.910	18465
585.917	17318
585.965	13897
585.989	12593
586.019	11363
586.061	10784
586.074	10740
586.128	10676
586.133	10736
586.183	11768
586.205	11535
586.237	10852
586.277	10187
586.292	10023
586.346	10740
586.349	10706
586.401	9965
586.421	9692
586.455	10055
586.493	11171
586.509	11712
586.564	12491
586.565	12513
586.618	15201
586.637	15807
586.672	15125
586.709	13964
586.727	13983
586.781	15501
586.781	15518
586.835	12047
586.853	11355
586.889	11053
586.925	10917
586.944	11070
586.996	11607
586.998	11649
587.052	12101
587.068	12294
587.106	12360
587.140	12015
587.161	11948
587.212	12113
587.215	12158
587.269	12760
587.284	12984
587.323	13660
587.356	13743
587.377	14035
587.427	15068
587.431	15100
587.485	14895
587.499	14886
587.539	15486
587.571	15783
587.593	16270
587.643	17636
587.648	17768
587.702	17927
587.715	18171
587.755	19123
587.786	19350
587.810	19515
587.858	20007
587.864	20146
587.917	21710
587.930	21856
587.971	23094
588.001	24353
588.025	25312
588.073	26558
588.079	26891
588.133	29816
588.145	30614
588.187	34206
588.217	36226
588.241	38407
588.288	43132
588.295	44035
588.348	51989
588.360	53532
588.402	59632
588.431	64453
588.456	70023
588.503	80798
588.510	82577
588.564	97618
588.575	100904
588.617	118744
588.646	131146
588.671	147971
588.718	182554
588.725	193901
588.778	288474
588.789	310704
588.832	507634
588.861	654654
588.886	846366
588.932	1237948
588.939	1254416
588.993	1284034
589.004	1267677
589.047	934392
589.075	696396
589.100	536814
589.147	285232
589.154	273500
589.207	199597
589.218	185324
589.261	173455
589.290	167609
589.314	177963
589.361	200906
589.368	213549
589.421	324054
589.433	350492
589.475	600640
589.504	790788
589.528	931919
589.576	1190861
589.582	1162464
589.635	775700
589.647	687097
589.689	391934
589.718	208296
589.742	169066
589.790	101795
589.795	99154
589.849	75469
589.861	70178
589.902	61032
589.932	54427
589.955	50652
590.004	42497
590.009	42187
590.062	38132
590.075	36997
590.115	34900
590.146	33445
590.168	32689
590.218	30637
590.222	30632
590.275	29628
590.289	29192
590.328	28689
590.360	28293
590.381	27647
590.431	25796
590.435	25896
590.488	26370
590.503	26502
590.541	26092
590.574	25488
590.594	25381
590.645	24765
590.647	24820
590.700	24384
590.716	24172
590.753	23753
590.787	23237
590.806	23249
590.859	23170
590.859	23244
590.912	23284
590.930	23309
590.965	23384
591.001	23202
591.018	23300
591.071	23525
591.072	23454
591.124	23230
591.143	23114
591.177	23428
591.214	23675
591.230	24010
591.283	24911
591.285	24861
591.336	25489
591.356	25749
591.389	25741
591.427	25282
591.442	24799
591.495	22657
591.498	22441
591.547	22957
591.569	23089
591.600	22973
591.640	22592
591.653	22798
591.706	23380
591.711	23360
591.759	23817
591.782	24004
591.811	24302
591.853	24471
591.864	24580
591.917	24695
591.924	24616
591.969	24336
591.995	24151
592.022	24285
592.066	24190
592.075	24369
592.127	25036
592.137	25069
592.180	25785
592.208	26136
592.233	26053
592.279	25629
592.285	25722
592.338	25805
592.350	25740
592.390	25363
592.421	24943
592.443	25445
592.491	26293
592.495	26356
592.548	26083
592.562	25926
592.600	25703
592.633	25369
592.653	25477
592.704	25412
592.705	25570
592.775	26125
592.846	26832
592.916	27897
592.987	29378
593.058	28139
593.128	26780
593.199	27497
593.270	26723
593.341	27071
593.411	28474
593.482	29193
593.553	29392
593.623	29329
593.694	29506
593.764	30713
593.835	28859
593.906	30373
593.976	29133
594.047	30079
594.117	32910
594.188	33005
594.258	31591
594.329	31782
594.399	32078
594.470	32950
594.540	34474
594.611	33719
594.681	33468
594.751	35409
594.822	37323
594.892	38375
594.963	37576
595.033	37686
595.103	38598
595.174	40743
595.244	43086
595.314	44301
595.384	41063
595.455	42603
595.525	43699
595.595	44760
595.665	45038
595.736	43304
595.806	44705
595.876	44266
595.946	45488
596.016	47541
596.087	48397
596.157	48381
596.227	48439
596.297	51765
596.367	54095
596.437	58051
596.507	58364
596.577	60045
596.647	58290
596.717	61181
596.787	61977
596.857	61751
596.927	62873
596.997	62391
597.067	62391
597.137	64321
597.207	65362
597.277	64441
597.347	62154
597.417	61832
597.487	62097
597.557	63270
597.626	64780
597.696	65627
597.766	65543
597.836	63104
597.906	58495
597.975	56052
598.045	56866
598.115	60708
598.185	63156
598.254	71629
598.324	79945
598.394	80415
598.464	77857
598.533	74102
598.603	69803
598.672	67850
598.742	68880
598.812	69560
598.881	70694
598.951	70964
599.020	72115
599.090	74410
599.159	75959
599.229	72618
599.299	69914
599.368	72256
599.437	72655
599.507	65703
599.576	64139
599.646	62943
599.715	62587
599.785	62307
599.854	60158
599.924	60287
599.993	58883
600.062	60079
600.132	62209
600.201	66265
600.270	77893
600.340	80257
600.409	78127
600.478	77870
600.547	80288
600.617	72270
600.686	58968
600.755	53647
600.824	53405
600.894	50563
600.963	49526
601.032	48819
601.101	46884
601.170	45598
601.239	45189
601.308	47264
601.378	45748
601.447	43712
601.516	45875
601.585	48703
601.654	50701
601.723	47902
601.792	46889
601.861	50288
601.930	52767
601.999	55345
602.068	52838
602.137	57269
602.206	56461
602.275	55467
602.343	58138
602.412	59599
602.481	55120
602.550	55672
602.619	56466
602.688	58568
602.756	57815
602.825	58812
602.894	60363
602.963	60249
603.032	60182
603.100	62543
603.169	60870
603.238	61425
603.307	62175
603.375	62569
603.444	64860
603.513	65212
603.581	66831
603.650	67594
603.719	63297
603.787	67307
603.856	68262
603.924	70040
603.993	72848
604.061	74632
604.130	78556
604.198	79460
604.267	81452
604.335	82132
604.404	83032
604.472	84898
604.541	85371
604.609	87066
604.678	86690
604.746	87915
604.815	90419
604.883	90157
604.951	91244
605.020	92459
605.088	93383
605.156	94784
605.225	97778
605.293	95154
605.361	98301
605.429	98553
605.498	99564
605.566	103700
605.634	109273
605.702	111620
605.771	115555
605.839	114548
605.907	113045
605.975	107406
606.043	106614
606.111	105144
606.180	105889
606.248	105154
606.316	104304
606.384	104439
606.452	106686
606.520	111828
606.588	111691
606.656	109300
606.724	106564
606.792	101607
606.860	90164
606.928	82565
606.996	79199
607.064	77259
607.132	80025
607.200	85634
607.267	88422
607.335	89627
607.403	92692
607.471	89517
607.539	86739
607.607	86715
607.674	75804
607.742	77030
607.810	77285
607.878	75924
607.946	77481
608.013	81280
608.081	82805
608.149	83760
608.216	85913
608.284	89992
608.352	89097
608.419	86933
608.487	86865
608.555	83747
608.622	87729
608.690	93423
608.757	103108
608.825	107462
608.893	104131
608.960	97825
609.028	94539
609.095	94069
609.163	92632
609.230	81773
609.298	74631
609.365	78438
609.432	85074
609.500	93287
609.567	108430
609.635	125907
609.702	130350
609.769	122159
609.837	94718
609.904	81528
609.971	82746
610.039	91862
610.106	120853
610.173	230534
610.241	519542
610.308	249387
610.375	104659
610.442	87683
610.509	84118
610.577	83214
610.644	86288
610.711	89564
610.778	90599
610.845	95054
610.912	100998
610.980	105550
611.047	106503
611.114	103663
611.181	98958
611.248	98843
611.315	105256
611.382	107054
611.449	111586
611.516	114536
611.583	112312
611.650	112348
611.717	114815
611.784	116928
611.851	121652
611.918	129065
611.984	150938
612.051	218355
612.118	446398
612.185	1102468
612.252	562502
612.319	162346
612.386	145521
612.452	135501
612.519	127896
612.586	126937
612.653	129265
612.719	134228
612.786	128134
612.853	117198
612.919	115618
612.986	117402
613.053	110971
613.120	102822
613.186	100418
613.253	102168
613.319	101431
613.386	101706
613.453	104377
613.519	107957
613.586	109890
613.652	121582
613.719	113124
613.785	112050
613.852	106252
613.918	103037
613.985	106273
614.051	113104
614.118	118819
614.184	112724
614.250	104826
614.317	106741
614.383	106245
614.449	107104
614.516	106646
614.582	106300
614.648	106123
614.715	104593
614.781	101042
614.847	101794
614.914	100526
614.980	98396
615.046	99217
615.112	102301
615.179	101748
615.245	104236
615.311	103751
615.377	109601
615.443	109096
615.509	106216
615.575	108455
615.642	107185
615.708	110699
615.774	115816
615.840	122860
615.906	132358
615.972	164118
616.038	256477
616.104	548820
616.170	1334759
616.236	940499
616.302	215623
616.368	171818
616.434	129514
616.500	123624
616.565	136583
616.631	161601
616.697	131855
616.763	141605
616.829	213489
616.895	363087
616.961	306683
617.026	132275
617.092	105983
617.158	105200
617.224	104937
617.289	96526
617.355	91609
617.421	90137
617.487	90701
617.552	86783
617.618	85997
617.684	86667
617.749	86979
617.815	81944
617.880	80455
617.946	82404
618.012	83667
618.077	84926
618.143	79935
618.208	81873
618.274	89586
618.339	89609
618.405	72848
618.470	73853
618.536	73344
618.601	71710
618.667	66060
618.732	63726
618.798	63127
618.863	61671
618.928	60871
618.994	64317
619.059	66382
619.124	75563
619.190	64958
619.255	60998
619.320	60952
619.386	61136
619.451	61243
619.516	59242
619.581	59795
619.647	61791
619.712	62980
619.777	59107
619.842	60657
619.907	61468
619.972	62133
620.038	62069
620.103	60657
620.168	58861
620.233	60649
620.298	59708
620.363	61443
620.428	63235
620.493	64767
620.558	64437
620.623	66079
620.688	66555
620.753	65563
620.818	66465
620.883	66241
620.948	65777
621.013	66809
621.078	65229
621.143	65032
621.207	67753
621.272	65644
621.337	65033
621.402	64256
621.467	65251
621.532	64831
621.596	63897
621.661	61158
621.726	59844
621.791	61468
621.855	61991
621.920	63309
621.985	62237
622.049	65524
622.114	63565
622.179	64074
622.243	66247
622.308	67192
622.373	72185
622.437	69628
622.502	65873
622.566	63763
622.631	62613
622.695	66419
622.760	64950
622.824	65675
622.889	67736
622.953	69856
623.018	84658
623.082	81945
623.147	70116
623.211	69597
623.276	69154
623.340	64223
623.404	63656
623.469	62915
623.533	63799
623.597	61841
623.662	62064
623.726	57343
623.790	53260
623.854	52027
623.919	53914
623.983	54240
624.047	55106
624.111	55264
624.176	57284
624.240	58468
624.304	62164
624.368	56032
624.432	56462
624.496	59045
624.560	64383
624.625	66079
624.689	62328
624.753	64977
624.817	60446
624.881	59517
624.945	53349
625.009	51541
625.073	53666
625.137	56184
625.201	64760
625.265	63933
625.329	55724
625.393	57918
625.456	56196
625.520	58930
625.584	60895
625.648	62952
625.712	65963
625.776	78244
625.839	75447
625.903	53011
625.967	46406
626.031	54517
626.095	68004
626.158	54238
626.222	40956
626.286	40089
626.349	37347
626.413	35791
626.477	37966
626.540	36975
626.604	34768
626.668	36139
626.731	34637
626.795	35072
626.858	36066
626.922	34210
626.986	35060
627.049	33400
627.113	35616
627.176	34747
627.240	33646
627.303	33640
627.366	33111
627.430	35108
627.493	33854
627.557	31970
627.620	35380
627.684	35747
627.747	35940
627.810	31855
627.874	29464
627.937	28034
628.000	31202
628.064	29415
628.127	25033
628.190	26346
628.253	25104
628.317	24035
628.380	24125
628.443	22070
628.506	23291
628.569	21751
628.632	19891
628.696	20510
628.759	21323
628.822	19672
628.885	19143
628.948	19665
629.011	19549
629.074	18113
629.137	17687
629.200	17931
629.263	19686
629.326	16402
629.389	17328
629.452	18915
629.515	17444
629.578	16792
629.641	19204
629.704	17870
629.767	18792
629.830	17624
629.892	16627
629.955	16310
630.018	20212
630.081	19671
630.144	21473
630.207	17423
630.269	18746
630.332	15660
630.395	15594
630.458	15978
630.520	14511
630.583	16248
630.646	16060
630.708	15403
630.771	14692
630.834	16629
630.896	15809
630.959	16848
631.021	15364
631.084	16310
631.146	16681
631.209	16606
631.272	15748
631.334	16978
631.397	16151
631.459	16420
631.522	16952
631.584	17629
631.646	19306
631.709	20057
631.771	22678
631.834	19474
631.896	17364
631.958	15636
632.021	16523
632.083	14930
632.145	15931
632.208	15741
632.270	16825
632.332	14484
632.395	14202
632.457	15717
632.519	14350
632.581	15390
632.643	12973
632.706	15333
632.768	13620
632.830	15468
632.892	15083
632.954	14762
633.016	16221
633.078	14277
633.141	15122
633.203	14300
633.265	14606
633.327	15118
633.389	15382
633.451	17430
633.513	18104
633.575	17170
633.637	17924
633.698	17011
633.760	16284
633.822	16666
633.884	16977
633.946	16764
634.008	15697
634.070	16853
634.132	17965
634.193	18335
634.255	21347
634.317	20806
634.379	22150
634.441	18240
634.502	16669
634.564	16549
634.626	14992
634.687	14740
634.749	13849
634.811	15106
634.873	13081
634.934	14176
634.996	14133
635.057	13187
635.119	13581
635.181	14522
635.242	15477
635.304	13224
635.365	17100
635.427	15126
635.488	14516
635.550	13000
635.611	14227
635.673	12187
635.734	16042
635.796	15529
635.857	18334
635.918	16637
635.980	20073
636.041	20107
636.102	21723
636.164	21496
636.225	21728
636.286	16979
636.348	16640
636.409	14458
636.470	14564
636.531	15369
636.593	13327
636.654	13699
636.715	12061
636.776	12801
636.838	11879
636.899	12458
636.960	12468
637.021	10799
637.082	11461
637.143	11764
637.204	11414
637.265	11963
637.326	12005
637.387	12061
637.448	11595
637.509	13045
637.570	12002
637.631	12446
637.692	10487
637.753	9428
637.814	11126
637.875	10771
637.936	12262
637.997	10661
638.058	11787
638.119	12302
638.179	11105
638.240	10001
638.301	11242
638.362	9818
638.423	9780
638.483	11706
638.544	9022
638.605	10946
638.666	9690
638.726	10709
638.787	10837
638.848	9506
638.908	10530
638.969	9711
639.030	9441
639.090	9366
639.151	9409
639.211	12464
639.272	14269
639.332	20401
639.393	12653
639.453	9576
639.514	10193
639.574	9614
639.635	9843
639.695	9497
639.756	8636
639.816	11228
639.877	11363
639.937	19734
639.997	21345
640.058	9067
640.118	8266
640.178	10342
640.239	9020
640.299	9076
640.359	9094
640.420	10640
640.480	11337
640.540	12345
640.600	11120
640.661	10966
640.721	9944
640.781	13603
640.841	8649
640.901	9795
640.961	10110
641.021	10748
641.082	11777
641.142	15891
641.202	12099
641.262	7728
641.322	8726
641.382	8100
641.442	8801
641.502	8063
641.562	8188
641.622	8484
641.682	9237
641.742	10584
641.802	9876
641.861	10081
641.921	9137
641.981	11495
642.041	10938
642.101	12235
642.161	7590
642.221	7333
642.280	8688
642.340	7733
642.400	7047
642.460	9039
642.519	7100
642.579	8743
642.639	8984
642.698	5921
642.758	9254
642.818	9775
642.877	6967
642.937	9331
642.997	11311
643.056	14116
643.116	8129
643.175	8868
643.235	8232
643.294	8983
643.354	9636
643.414	10106
643.473	12494
643.532	15679
643.592	22820
643.651	38277
643.711	73567
643.770	154123
643.830	399988
643.889	792926
643.948	138274
644.008	24741
644.067	17580
644.126	12539
644.186	10195
644.245	10317
644.304	7805
644.363	10053
644.423	6921
644.482	8807
644.541	9981
644.600	7616
644.659	11899
644.719	14230
644.778	20824
644.837	38309
644.896	84717
644.955	190987
645.014	48907
645.073	12101
645.132	9800
645.191	9783
645.250	8366
645.309	10823
645.368	9631
645.427	13045
645.486	21083
645.545	35649
645.604	10277
645.663	9108
645.722	7695
645.781	10352
645.840	10627
645.898	14409
645.957	21751
646.016	34025
646.075	69091
646.134	139764
646.192	411428
646.251	531597
646.310	58499
646.369	18144
646.427	15562
646.486	10230
646.545	9688
646.603	9979
646.662	7681
646.721	7601
646.779	7429
646.838	7972
646.896	11009
646.955	13799
647.014	23221
647.072	45327
647.131	123466
647.189	47500
647.248	8378
647.306	7998
647.365	7477
647.423	4651
647.481	6942
647.540	4546
647.598	6104
647.657	5786
647.715	6860
647.773	5369
647.832	6371
647.890	4125
647.948	5426
648.007	5487
648.065	4193
648.123	4161
648.181	6803
648.240	5754
648.298	4074
648.356	4550
648.414	4816
648.472	4655
648.531	5500
648.589	5096
648.647	4818
648.705	4623
648.763	4241
648.821	5499
648.879	4640
648.937	6656
648.995	7591
649.053	9453
649.111	15740
649.169	28813
649.227	53722
649.285	119596
649.343	348849
649.401	128677
649.459	31591
649.516	17343
649.574	8770
649.632	13263
649.690	13507
649.748	11061
649.806	14041
649.863	30514
649.921	85794
649.979	44211
650.037	7558
650.094	4107
650.152	5736
650.210	3519
650.268	5233
650.325	4453
650.383	4039
650.440	3282
650.498	3874
650.556	3744
650.613	3173
650.671	4063
650.728	3104
650.786	4716
650.843	4868
650.901	2708
650.958	3829
651.016	2927
651.073	3419
651.131	2865
651.188	1988
651.246	3866
651.303	1969
651.360	3075
651.418	3490
651.475	2305
651.532	2619
651.590	2877
651.647	2321
651.704	2343
651.762	3238
651.819	3147
651.876	2498
651.933	2927
651.990	3645
652.048	1509
652.105	2802
652.162	3338
652.219	2376
652.276	3053
652.333	2522
652.390	2164
652.448	3110
652.505	2897
652.562	2467
652.619	2463
652.676	3001
652.733	3656
652.790	1785
652.847	1693
652.904	3245
652.961	1474
653.017	2238
653.074	4232
653.131	2772
653.188	1439
653.245	2369
653.302	2565
653.359	2288
653.415	3049
653.472	2254
653.529	3037
653.586	2057
653.642	1756
653.699	3632
653.756	2105
653.813	2886
653.869	3391
653.926	2207
653.983	2193
654.039	3211
654.096	1990
654.152	3992
654.209	1033
654.266	2204
654.322	2131
654.379	2265
654.435	3815
654.492	2910
654.548	4383
654.605	5632
654.661	2926
654.717	2094
654.774	2999
654.830	2554
654.887	2130
654.943	1714
655.000	2732
655.056	2201
655.112	2825
655.168	1093
655.225	2157
655.281	2331
655.337	2977
655.394	2686
655.450	3124
655.506	3217
655.562	3375
655.618	3305
655.675	1499
655.731	1276
655.787	2334
655.843	2334
655.899	1366
655.955	2402
656.011	2281
656.067	1332
656.123	2534
656.179	1870
656.235	2663
656.291	1492
656.347	2869
656.403	1692
656.459	2062
656.515	3033
656.571	1972
656.627	1614
656.683	2143
656.739	2651
656.795	2431
656.850	3448
656.906	3678
656.962	2250
657.018	2317
657.074	2608
657.129	3456
657.185	5295
657.241	12497
657.297	4729
657.352	2106
657.408	1808
657.464	3067
657.519	2053
657.575	1323
657.630	1942
657.686	2074
657.742	1705
657.797	1878
657.853	1715
657.908	2730
657.964	880
658.019	2773
658.075	2334
658.130	2055
658.186	1154
658.241	2323
658.297	917
658.352	2046
658.407	1759
658.463	1727
658.518	1700
658.573	2349
658.629	866
658.684	1576
658.739	3026
658.795	757
658.850	1912
658.905	1131
658.960	1829
659.016	1336
659.071	1432
659.126	1825
659.181	2339
659.236	5738
659.291	5923
659.346	3493
659.401	1526
659.457	2785
659.512	1009
659.567	2404
659.622	1801
659.677	2010
659.732	537
659.787	1078
659.842	1730
659.897	2142
659.952	1748
660.007	1583
660.061	1687
660.116	913
660.171	1039
660.226	790
660.281	2948
660.336	1550
660.391	2384
660.445	1184
660.500	1685
660.555	1200
660.610	1461
660.664	1890
660.719	1657
660.774	1470
660.828	1805
660.883	1787
660.938	1866
660.992	793
661.047	1717
661.101	1607
661.156	1247
661.211	329
661.265	1810
661.320	643
661.374	843
661.429	1001
661.483	1242
661.538	695
661.592	573
661.647	1200
661.701	1892
661.755	1428
661.810	1814
661.864	1433
661.919	1228
661.973	1285
662.027	1690
662.081	1164
662.136	1395
662.190	2332
662.244	1723
662.299	1549
662.353	1455
662.407	1014
662.461	1526
662.515	1670
662.569	1101
662.624	1315
662.678	1454
662.732	1616
662.786	957
662.840	1500
662.894	1606
662.948	1929
663.002	1153
663.056	1031
663.110	899
663.164	1429
663.218	1752
663.272	2096
663.326	2077
663.380	1264
663.434	1414
663.488	728
663.542	1252
663.595	1015
663.649	812
663.703	1537
663.757	1562
663.811	965
663.864	1963
663.918	2219
663.972	1403
664.026	1132
664.079	399
664.133	952
664.187	2272
664.240	1233
664.294	823
664.348	644
664.401	1446
664.455	1379
664.508	933
664.562	1102
664.615	615
664.669	635
664.722	1311
664.776	423
664.829	1379
664.883	1219
664.936	648
664.990	847
665.043	1619
665.097	1359
665.150	2395
665.203	1865
665.257	1339
665.310	1025
665.363	1345
665.417	1840
665.470	1414
665.523	1110
665.576	1842
665.630	1028
665.683	1774
665.736	1776
665.789	1209
665.842	874
665.895	1554
665.949	1840
666.002	1011
666.055	1352
666.108	2472
666.161	1216
666.214	1621
666.267	1305
666.320	2731
666.373	2864
666.426	1383
666.479	830
666.532	1471
666.585	1071
666.638	1342
666.691	1159
666.744	2143
666.796	1650
666.849	1095
666.902	2566
666.955	1430
667.008	1108
667.060	1643
667.113	1171
667.166	1644
667.219	1790
667.271	1341
667.324	969
667.377	1158
667.430	1835
667.482	1568
667.535	1433
667.587	1403
667.640	2247
667.693	3384
667.745	5862
667.798	4605
667.850	2092
667.903	1779
667.955	1280
668.008	1245
668.060	1873
668.113	659
668.165	1763
668.218	2290
668.270	1871
668.322	1863
668.375	353
668.427	2293
668.479	883
668.532	565
668.584	1774
668.636	752
668.689	1789
668.741	1119
668.793	761
668.845	1200
668.898	1191
668.950	575
669.002	1964
669.054	1530
669.106	859
669.158	1640
669.211	1020
669.263	1028
669.315	1374
669.367	1634
669.419	1236
669.471	2637
669.523	2219
669.575	3443
669.627	2544
669.679	1005
669.731	1949
669.783	1758
669.835	3168
669.886	2570
669.938	1805
669.990	2380
670.042	1300
670.094	789
670.146	1530
670.197	2172
670.249	1428
670.301	2347
670.353	3120
670.404	4464
670.456	7100
670.508	10601
670.560	18746
670.611	34082
670.663	58955
670.715	159888
670.766	218213
670.818	40611
670.869	7542
670.921	5045
670.972	3917
671.024	2494
671.075	2187
671.127	2457
671.178	1120
671.230	2201
671.281	2004
671.333	2299
671.384	2411
671.436	2962
671.487	4444
671.538	5465
671.590	8797
671.641	14824
671.692	28910
671.744	54627
671.795	22320
671.846	5991
671.897	2653
671.949	2255
672.000	1884
672.051	1639
672.102	2048
672.153	1775
672.204	1240
672.256	1095
672.307	1196
672.358	1275
672.409	327
672.460	1598
672.511	672
672.562	821
672.613	877
672.664	593
672.715	1355
672.766	583
672.817	597
672.868	903
672.919	324
672.970	1354
673.021	142
673.071	390
673.122	493
673.173	629
673.224	681
673.275	634
673.326	699
673.376	592
673.427	839
673.478	884
673.528	720
673.579	61
673.630	705
673.680	1265
673.731	879
673.782	746
673.832	862
673.883	1363
673.934	1196
673.984	867
674.035	735
674.085	1092
674.136	495
674.186	169
674.237	729
674.287	1002
674.338	1155
674.388	8
674.438	618
674.489	918
674.539	121
674.589	964
674.640	716
674.690	1133
674.740	839
674.791	406
674.841	640
674.891	976
674.942	1057
674.992	135
675.042	162
675.092	-100
675.142	426
675.193	143
675.243	1170
675.293	1127
675.343	495
675.393	382
675.443	1368
675.493	356
675.543	220
675.593	-316
675.643	497
675.693	1205
675.743	608
675.793	-57
675.843	381
675.893	489
675.943	1053
675.993	136
676.043	721
676.093	578
676.142	-164
676.192	164
676.242	889
676.292	-68
676.341	284
676.391	594
676.441	-414
676.491	345
676.540	-397
676.590	-102
676.640	784
676.689	229
676.739	-167
676.789	768
676.838	514
676.888	213
676.937	-442
676.987	-200
677.037	206
677.086	-294
677.136	184
677.185	218
677.235	-118
677.284	-726
677.333	-777
677.383	-805
677.432	92
677.482	-298
677.531	-426
677.580	-552
677.630	-35
677.679	141
677.728	-429
677.778	553
677.827	449
677.876	451
677.925	-163
677.975	15
678.024	26
678.073	-141
678.122	911
678.171	77
678.220	394
678.269	885
678.319	540
678.368	209
678.417	-235
678.466	982
678.515	222
678.564	108
678.613	343
678.662	-199
678.711	359
678.760	-152
678.809	351
678.857	-403
678.906	124
678.955	-41
679.004	380
679.053	-279
679.102	633
679.151	255
679.199	-572
679.248	188
679.297	119
679.346	-215
679.394	-951
679.443	-284
679.492	64
679.540	-437
679.589	191
679.638	406
679.686	-271
679.735	-368
679.784	169
679.832	104
679.881	-26
679.929	-83
679.978	-316
680.026	-871
680.075	67
680.123	-320
680.172	-236
680.220	-950
680.268	399
680.317	-298
680.365	-186
680.414	-1144
680.462	417
680.510	254
680.559	-547
680.607	-37
680.655	-5
680.703	273
680.752	-854
680.800	-544
680.848	-491
680.896	-92
680.945	-82
680.993	-405
681.041	-824
681.089	350
681.137	-254
681.185	-57
681.233	-23
681.258	-296
681.281	-576
681.329	-417
681.377	-351
681.380	-303
681.425	193
681.473	182
681.502	726
681.521	1066
681.569	532
681.617	133
681.624	202
681.665	482
681.713	417
681.745	481
681.761	488
681.809	-498
681.857	761
681.867	696
681.904	398
681.952	465
681.989	898
682.000	993
682.048	73
682.096	480
682.111	361
682.143	43
682.191	872
682.233	894
682.239	878
682.286	708
682.334	537
682.354	567
682.382	572
682.430	1054
682.476	1500
682.477	1492
682.525	972
682.572	382
682.598	899
682.620	1311
682.667	1406
682.715	1169
682.720	1192
682.763	1270
682.810	1115
682.841	1900
682.857	2237
682.905	639
682.952	1313
682.963	1386
683.000	1575
683.047	1438
683.085	1902
683.095	2007
683.142	872
683.190	1895
683.206	1703
683.237	1353
683.284	1170
683.328	1255
683.332	1242
683.379	1529
683.426	1554
683.449	1484
683.473	1402
683.521	1206
683.568	1346
683.571	1385
683.615	1708
683.662	2313
683.693	2104
683.709	1952
683.757	1669
683.804	1981
683.814	2116
683.851	2557
683.898	2709
683.936	1833
683.945	1606
683.992	2625
684.039	2913
684.057	2943
684.086	3011
684.133	2671
684.179	2849
684.180	2832
684.227	3253
684.274	2886
684.300	3357
684.321	3699
684.368	3037
684.415	3164
684.422	3131
684.462	2697
684.509	2476
684.543	2805
684.556	2979
684.603	2730
684.649	2265
684.665	2439
684.696	2712
684.743	3186
684.786	3084
684.790	3079
684.837	2631
684.883	3062
684.908	3143
684.930	3142
684.977	3621
685.023	3659
685.029	3675
685.070	3644
685.117	2825
685.150	3487
685.164	3778
685.210	3103
685.257	4245
685.272	3944
685.303	3328
685.350	3789
685.393	4095
685.396	4126
685.443	5078
685.490	4961
685.514	5306
685.536	5220
685.583	4621
685.629	4341
685.636	4289
685.675	4282
685.722	4259
685.757	4185
685.768	4145
685.815	4215
685.861	4480
685.878	4355
685.908	4117
685.954	3700
686.000	4285
686.000	4293
686.047	4169
686.093	4417
686.121	4515
686.139	4453
686.185	4442
686.232	4309
686.242	4313
686.278	4305
686.324	4347
686.363	4109
686.370	4068
686.416	3995
686.463	3838
686.484	4011
686.509	4244
686.555	4122
686.601	3778
686.606	3854
686.647	4530
686.693	4226
686.727	4210
686.739	4166
686.785	3934
686.831	4217
686.848	4327
686.877	4620
686.923	4068
686.969	4361
686.969	4361
687.015	4437
687.061	4055
687.090	4515
687.107	4827
687.153	5089
687.199	5188
687.211	5150
687.245	4942
687.291	4682
687.332	5006
687.336	5041
687.382	5027
687.428	5035
687.453	5199
687.474	5280
687.520	5169
687.565	5047
687.574	4929
687.611	4643
687.657	4891
687.695	5240
687.702	5317
687.748	5655
687.794	5809
687.816	5967
687.839	5955
687.885	5694
687.931	5449
687.937	5412
687.976	5409
688.022	5711
688.058	5872
688.067	5912
688.113	5814
688.158	5543
688.179	5660
688.204	5777
688.249	6290
688.295	6367
688.300	6372
688.340	6277
688.386	5792
688.421	5389
688.431	5351
688.477	5586
688.522	6091
688.542	6268
688.567	6433
688.613	6486
688.658	6022
688.663	6031
688.703	5922
688.749	5764
688.784	5965
688.794	6065
688.839	5865
688.884	5814
688.905	5629
688.930	5502
688.975	5834
689.020	5534
689.026	5596
689.065	5989
689.110	5523
689.146	5373
689.155	5369
689.201	5515
689.246	6232
689.267	6075
689.291	5819
689.336	6236
689.381	5840
689.388	5797
689.426	5904
689.471	6104
689.509	6224
689.516	6221
689.561	6556
689.606	6493
689.630	6266
689.651	6034
689.696	6270
689.741	6786
689.750	6694
689.785	6621
689.830	7010
689.871	7099
689.875	7076
689.920	6711
689.965	6667
689.992	6317
690.010	6260
690.054	6411
690.099	6077
690.112	6335
690.144	6893
690.189	6700
690.233	6623
690.233	6634
690.278	6577
690.323	6485
690.354	6946
690.367	7115
690.412	6700
690.457	6683
690.474	6728
690.501	6850
690.546	6185
690.590	6853
690.595	6823
690.635	6739
690.680	6374
690.716	6227
690.724	6205
690.769	6630
690.813	6582
690.836	6568
690.857	6772
690.902	7196
690.946	7758
690.957	7890
690.991	8158
691.035	8355
691.077	8335
691.080	8333
691.124	7724
691.168	8081
691.198	7702
691.213	7572
691.257	8169
691.301	7786
691.318	7780
691.346	7898
691.390	7972
691.434	7865
691.439	7856
691.478	7873
691.522	7757
691.559	7819
691.567	7935
691.611	9129
691.655	9066
691.680	9479
691.699	9257
691.743	8639
691.787	7921
691.800	7624
691.831	7654
691.875	8019
691.919	8144
691.921	8129
691.964	8005
692.008	8104
692.041	7915
692.052	7910
692.096	8459
692.139	8198
692.162	8262
692.183	8320
692.227	8366
692.271	8602
692.282	8505
692.315	8565
692.359	9329
692.402	9675
692.403	9692
692.447	9253
692.490	8949
692.523	8763
692.534	8802
692.578	8763
692.622	8560
692.643	8607
692.666	8652
692.709	8694
692.753	8401
692.763	8439
692.797	8657
692.840	8496
692.884	8541
692.884	8562
692.928	8711
692.971	8878
693.004	8921
693.015	8906
693.059	8960
693.102	9122
693.124	9061
693.146	9064
693.189	8961
693.233	8967
693.245	9041
693.276	9297
693.320	8912
693.363	8782
693.365	8762
693.407	8783
693.450	8821
693.485	8697
693.493	8738
693.537	8993
693.580	9014
693.605	9308
693.624	9498
693.667	9547
693.710	9172
693.725	9200
693.753	9655
693.797	10273
693.840	10843
693.845	10872
693.883	10615
693.926	10668
693.966	10272
693.970	10258
694.013	10103
694.056	9701
694.086	9604
694.099	9628
694.142	9503
694.185	9302
694.206	9292
694.229	9502
694.272	9810
694.315	10149
694.326	10148
694.358	10692
694.401	11402
694.444	12311
694.446	12319
694.487	12185
694.530	12064
694.566	11818
694.573	11673
694.616	10895
694.659	9834
694.686	9245
694.702	9338
694.745	9440
694.787	9569
694.806	9555
694.830	9534
694.873	9741
694.916	9598
694.926	9653
694.959	10202
695.002	10188
695.044	10695
695.046	10680
695.087	10937
695.130	11041
695.166	11474
695.172	11476
695.215	10819
695.258	10665
695.286	10316
695.301	10330
695.343	10405
695.386	10429
695.406	10365
695.428	10502
695.471	10809
695.514	11253
695.526	11242
695.556	11170
695.599	11432
695.641	11387
695.646	11367
695.684	11011
695.726	10684
695.766	10218
695.769	10265
695.811	10436
695.854	10982
695.886	11181
695.896	11170
695.938	10920
695.981	10915
696.005	10812
696.023	10949
696.065	11114
696.108	11354
696.125	11426
696.150	11370
696.192	11289
696.235	11025
696.245	10979
696.277	11504
696.319	12166
696.361	12725
696.365	12730
696.404	12257
696.446	11799
696.485	11510
696.488	11567
696.530	11739
696.572	11841
696.604	11942
696.614	11968
696.656	11979
696.698	12003
696.724	11960
696.740	12108
696.783	12404
696.825	12780
696.844	12898
696.867	12782
696.909	12508
696.951	12089
696.964	11988
696.992	12242
697.034	12399
697.076	12625
697.083	12636
697.118	12969
697.160	13257
697.202	13519
697.203	13490
697.244	13175
697.286	12865
697.323	12377
697.327	12416
697.369	12497
697.411	12607
697.442	12687
697.453	12876
697.494	13405
697.536	14091
697.562	14410
697.578	14426
697.620	14444
697.661	14327
697.682	14299
697.703	15077
697.744	16435
697.786	17881
697.801	18372
697.828	18253
697.869	17846
697.911	17515
697.921	17374
697.952	16477
697.994	15302
698.035	14058
698.040	13878
698.077	13846
698.118	13689
698.160	13542
698.160	13502
698.201	14024
698.243	14481
698.279	14850
698.284	14868
698.325	14621
698.367	14428
698.399	14170
698.408	14232
698.449	14410
698.491	14560
698.518	14607
698.532	14670
698.573	14739
698.614	14807
698.638	14805
698.656	14716
698.697	14444
698.738	14126
698.757	13941
698.779	14193
698.820	14603
698.862	15007
698.877	15118
698.903	15141
698.944	15103
698.985	15070
698.996	15020
699.026	14864
699.067	14588
699.116	14220
699.235	13961
699.354	14127
699.474	13957
699.593	14185
699.713	15358
699.832	15014
699.951	17584
700.070	15394
700.190	13801
700.309	13920
700.428	14524
700.547	13842
700.667	13931
700.786	14651
700.905	13041
701.024	14990
701.143	13688
701.262	13258
701.381	13069
701.500	14609
701.619	17623
701.738	13906
701.857	13667
701.976	12832
702.095	13718
702.214	16195
702.333	15852
702.452	14392
702.571	13172
702.690	14007
702.809	12988
702.928	13065
703.047	12475
703.165	13208
703.284	12520
703.403	13290
703.522	12724
703.640	12940
703.759	15706
703.878	16212
703.997	12110
704.115	11946
704.234	12436
704.353	11972
704.471	11613
704.590	10884
704.708	11855
704.827	10931
704.946	11255
705.064	12265
705.183	10844
705.301	12726
705.420	12793
705.538	11896
705.656	11273
705.775	10813
705.893	11996
706.012	12238
706.130	11259
706.249	11525
706.367	12073
706.485	11307
706.604	12007
706.722	12453
706.840	15013
706.958	13889
707.077	11488
707.195	11397
707.313	10684
707.431	9533
707.549	9828
707.668	10157
707.786	11164
707.904	10304
708.022	10973
708.140	10617
708.258	10006
708.376	10611
708.494	10029
708.612	11466
708.730	12395
708.848	12134
708.966	14936
709.084	12551
709.202	11339
709.320	11473
709.438	11053
709.556	11265
709.674	10504
709.791	11035
709.909	9922
710.027	10852
710.145	10292
710.263	10658
710.380	10306
710.498	10557
710.616	10771
710.733	9258
710.851	9997
710.969	9671
711.086	9707
711.204	10661
711.322	10023
711.439	10120
711.557	10641
711.674	10239
711.792	9674
711.909	9490
712.027	9415
712.144	8749
712.262	9962
712.379	10603
712.497	12000
712.614	11071
712.732	10298
712.849	10409
712.966	12257
713.084	16536
713.201	11638
713.318	11355
713.436	10167
713.553	11239
713.670	11926
713.787	12531
713.905	11499
714.022	10962
714.139	11645
714.256	17291
714.373	25831
714.490	49112
714.608	147081
714.725	648714
714.842	540607
714.959	35229
715.076	18226
715.193	13618
715.310	13080
715.427	10336
715.544	10791
715.661	10647
715.778	10090
715.895	10043
716.011	11082
716.128	10602
716.245	11542
716.362	15467
716.479	14963
716.596	9937
716.713	9641
716.829	9735
716.946	10248
717.063	9378
717.180	8021
717.296	7784
717.413	9304
717.530	9491
717.646	8477
717.763	8588
717.880	7764
717.996	9009
718.113	9988
718.229	9600
718.346	8557
718.462	10023
718.579	14790
718.695	34027
718.812	15340
718.928	10326
719.045	9088
719.161	8574
719.277	8761
719.394	9035
719.510	9682
719.626	9350
719.743	11697
719.859	19937
719.975	40731
720.092	186419
720.208	388830
720.324	33473
720.440	12410
720.557	13615
720.673	24001
720.789	17971
720.905	19887
721.021	10346
721.137	7263
721.253	7891
721.369	7672
721.486	8595
721.602	9064
721.718	7165
721.834	7270
721.950	8242
722.066	7777
722.181	6908
722.297	9181
722.413	8036
722.529	7440
722.645	8379
722.761	7360
722.877	6787
722.993	6726
723.108	9114
723.224	7543
723.340	7230
723.456	7691
723.571	6854
723.687	6195
723.803	6843
723.918	6255
724.034	6549
724.150	6442
724.265	6900
724.381	9176
724.497	10539
724.612	6513
724.728	5707
724.843	6448
724.959	7104
725.074	9777
725.190	10527
725.305	6747
725.421	5740
725.536	5400
725.651	6461
725.767	5647
725.882	7015
725.997	5480
726.113	7290
726.228	5134
726.343	5915
726.459	5944
726.574	5851
726.689	5466
726.804	5532
726.920	5478
727.035	5154
727.150	5922
727.265	5136
727.380	6184
727.495	5736
727.610	6223
727.725	5410
727.841	6010
727.956	5960
728.071	6830
728.186	5589
728.301	6192
728.416	6942
728.531	6194
728.645	5802
728.760	7158
728.875	9308
728.990	7669
729.105	7106
729.220	7470
729.335	7447
729.449	6076
729.564	4983
729.679	4905
729.794	5239
729.908	6273
730.023	5595
730.138	5294
730.253	5961
730.367	5187
730.482	5408
730.596	5937
730.711	6044
730.826	6867
730.940	5863
731.055	7178
731.169	5493
731.284	5021
731.398	5597
731.513	6776
731.627	6593
731.742	7733
731.856	8285
731.970	8587
732.085	10730
732.199	14821
732.313	25200
732.428	72295
732.542	235325
732.656	114808
732.771	18291
732.885	11319
732.999	9367
733.113	9825
733.227	8304
733.342	7692
733.456	7583
733.570	7079
733.684	7119
733.798	6733
733.912	6832
734.026	7116
734.140	6885
734.254	6947
734.368	9100
734.482	9013
734.596	6886
734.710	6543
734.824	6488
734.938	6784
735.052	6975
735.166	7949
735.280	7369
735.393	6787
735.507	7494
735.621	7889
735.735	7932
735.849	6534
735.962	6471
736.076	6870
736.190	6602
736.303	6629
736.417	7336
736.531	5430
736.644	5737
736.758	5868
736.872	6137
736.985	6481
737.099	5748
737.212	5654
737.326	6422
737.439	5969
737.553	6307
737.666	5346
737.780	5514
737.893	6409
738.007	6566
738.120	5887
738.233	5182
738.347	6899
738.460	5747
738.573	7177
738.687	6713
738.800	7417
738.913	10715
739.026	6587
739.140	5411
739.253	5213
739.366	5592
739.479	4955
739.592	5389
739.705	5446
739.818	5818
739.932	6496
740.045	6482
740.158	5945
740.271	5916
740.384	4971
740.497	5911
740.610	6926
740.723	5778
740.836	6474
740.949	7863
741.062	10870
741.174	7351
741.287	5713
741.400	5877
741.513	6767
741.626	7359
741.739	6585
741.851	5870
741.964	4871
742.077	4993
742.189	5411
742.302	7928
742.415	6866
742.527	5919
742.640	5310
742.753	5259
742.865	4762
742.978	5031
743.090	5245
743.203	4732
743.316	4020
743.428	4750
743.541	5445
743.653	4384
743.766	4621
743.878	4744
743.990	4405
744.103	6207
744.215	4989
744.327	5894
744.440	7921
744.552	12689
744.664	6082
744.777	4850
744.889	4416
745.001	4811
745.113	3603
745.226	4004
745.338	4478
745.450	4554
745.562	4573
745.674	4007
745.786	4672
745.898	3966
746.010	4192
746.122	5365
746.234	6460
746.347	3938
746.459	4714
746.570	3195
746.682	4346
746.794	4998
746.906	3973
747.018	4165
747.130	4581
747.242	4382
747.354	4478
747.466	4406
747.577	4176
747.689	4375
747.801	3624
747.913	3446
748.024	3770
748.136	3756
748.248	3713
748.359	4304
748.471	4116
748.583	3686
748.694	3333
748.806	4351
748.918	4160
749.029	4952
749.141	4815
749.252	5325
749.364	6017
749.475	15322
749.587	6012
749.698	3354
749.809	4220
749.921	3736
750.032	4135
750.144	3432
750.255	3603
750.366	3647
750.478	2544
750.589	4519
750.700	3760
750.811	4743
750.923	6595
751.034	19272
751.145	15082
751.256	3826
751.367	3825
751.479	3920
751.590	3125
751.701	3772
751.812	2394
751.923	3380
752.034	4034
752.145	3326
752.256	3209
752.367	2707
752.478	3676
752.589	2953
752.700	3036
752.811	3505
752.922	3295
753.032	4457
753.143	5434
753.254	2776
753.365	3687
753.476	3575
753.586	2986
753.697	3272
753.808	3458
753.919	2701
754.029	3016
754.140	3724
754.251	4241
754.361	2872
754.472	2867
754.582	3717
754.693	3308
754.804	2462
754.914	2143
755.025	3179
755.135	2738
755.246	3210
755.356	3383
755.466	3082
755.577	3156
755.687	3144
755.798	2685
755.908	3428
756.018	2431
756.129	4024
756.239	2646
756.349	3156
756.460	3427
756.570	3587
756.680	3669
756.790	4299
756.900	4674
757.011	2823
757.121	2595
757.231	2712
757.341	3243
757.451	2948
757.561	2539
757.671	2848
757.781	2027
757.891	3615
758.001	1909
758.111	3754
758.221	3854
758.331	4439
758.441	4596
758.551	8280
758.661	6179
758.771	4356
758.880	3956
758.990	1994
759.100	2684
759.210	3459
759.320	3454
759.429	3887
759.539	3633
759.649	3469
759.758	4711
759.868	4186
759.978	4118
760.087	5184
760.197	5236
760.307	5283
760.416	4468
760.526	3368
760.635	4160
760.745	4515
760.854	5219
760.964	5543
761.073	5603
761.182	5113
761.292	4485
761.401	4438
761.511	3731
761.620	3402
761.729	3319
761.839	2134
761.948	3575
762.057	4374
762.166	3433
762.276	1854
762.385	3550
762.494	3136
762.603	2619
762.712	2798
762.822	2847
762.931	2757
763.040	1696
763.149	2438
763.258	2440
763.367	2610
763.476	2647
763.585	3575
763.694	2339
763.803	3038
763.912	3413
764.021	2680
764.130	2094
764.238	3010
764.347	2252
764.456	2204
764.565	2654
764.674	3898
764.783	2749
764.891	2316
765.000	3920
765.109	3573
765.217	3234
765.326	4431
765.435	4545
765.543	4112
765.652	4464
765.761	5361
765.869	7090
765.978	9136
766.086	17692
766.195	34782
766.303	107321
766.412	381352
766.520	256309
766.629	32352
766.737	11923
766.846	8181
766.954	5661
767.062	6359
767.171	3544
767.279	4813
767.387	3503
767.496	3293
767.604	3477
767.712	3360
767.820	2261
767.928	2971
768.037	2806
768.145	4041
768.253	3649
768.361	2655
768.469	2626
768.577	3541
768.685	3160
768.793	3291
768.901	2156
769.009	3828
769.117	2590
769.225	3775
769.333	5408
769.441	8675
769.549	13930
769.657	36255
769.765	145335
769.873	311406
769.981	55845
770.088	10292
770.196	6733
770.304	5035
770.412	4787
770.519	4229
770.627	2721
770.735	3342
770.842	3600
770.950	3837
771.058	3222
771.165	2750
771.273	3212
771.380	2983
771.488	4012
771.595	3434
771.703	3395
771.810	3276
771.918	4314
772.025	4626
772.133	3811
772.240	4125
772.348	4505
772.455	4646
772.562	3678
772.670	3867
772.777	4060
772.884	4155
772.991	3899
773.099	4122
773.206	3358
773.313	4737
773.420	4471
773.528	3175
773.635	4444
773.742	4546
773.849	3869
773.956	3939
774.063	3721
774.170	3695
774.277	4567
774.384	3014
774.491	3082
774.598	4986
774.705	4638
774.812	5948
774.919	3926
775.026	4237
775.133	2965
775.239	3310
775.346	3367
775.453	3039
775.560	2470
775.667	3265
775.773	2318
775.880	3796
775.987	3374
776.093	3116
776.200	3115
776.307	3232
776.413	3356
776.520	2743
776.627	3477
776.733	3236
776.840	1878
776.946	4642
777.053	3905
777.159	4857
777.266	2805
777.372	5236
777.478	4144
777.585	4161
777.691	3087
777.798	3813
777.904	4207
778.010	7823
778.117	4806
778.223	3181
778.329	2766
778.435	2653
778.542	3280
778.648	2335
778.754	2551
778.860	2843
778.966	2656
779.072	2703
779.178	2510
779.284	2896
779.391	2014
779.497	2076
779.603	4332
779.708	1126
779.815	3622
779.920	6155
780.026	6550
780.132	3042
780.238	2255
780.344	2135
780.450	3560
780.556	2345
780.661	2030
780.767	3176
780.873	2522
780.979	2368
781.085	2839
781.190	3062
781.296	1956
781.402	2057
781.507	1746
781.613	2033
781.719	1504
781.824	2471
781.930	2623
782.035	2347
782.141	1971
782.246	1300
782.352	2037
782.457	2361
782.563	2217
782.668	2536
782.773	2175
782.879	1869
782.984	2138
783.090	4181
783.195	7638
783.300	4365
783.405	2418
783.511	2409
783.616	2207
783.721	2141
783.826	2671
783.932	2834
784.037	2836
784.142	2358
784.247	1429
784.352	2040
784.457	2013
784.562	1994
784.667	1911
784.772	1779
784.877	1504
784.982	2638
785.087	1731
785.192	2609
785.297	2299
785.402	1909
785.507	1158
785.611	1830
785.716	1514
785.821	1708
785.926	1809
786.031	2422
786.135	1165
786.240	1280
786.345	990
786.450	2186
786.554	1220
786.659	1723
786.763	686
786.868	3002
786.973	2028
787.077	1605
787.182	1107
787.286	1826
787.391	2119
787.495	1452
787.600	1276
787.704	2105
787.809	2212
787.913	1196
788.017	2202
788.122	991
788.226	2066
788.330	1187
788.435	1472
788.539	1968
788.643	1315
788.747	652
788.852	1447
788.956	1646
789.060	2561
789.164	2327
789.268	606
789.372	2684
789.476	1432
789.580	1171
789.684	549
789.788	2040
789.892	973
789.996	1171
790.100	1129
790.204	1187
790.308	1520
790.412	798
790.516	1305
790.620	1064
790.724	1704
790.828	1405
790.931	267
791.035	2589
791.139	1274
791.242	1130
791.346	2080
791.450	981
791.554	1267
791.657	92
791.761	1880
791.864	2018
791.968	2132
792.072	2323
792.175	1319
792.279	493
792.382	998
792.486	995
792.589	614
792.693	2296
792.796	901
792.899	2347
793.003	1961
793.106	109
793.209	1406
793.313	3288
793.416	598
793.519	3284
793.623	5052
793.726	7272
793.829	2160
793.932	1779
794.035	1094
794.138	2822
794.242	2871
794.345	1368
794.448	3392
794.551	6246
794.654	5246
794.757	3399
794.860	1004
794.963	1943
795.066	239
795.169	1582
795.272	414
795.375	2305
795.477	1320
795.580	1748
795.683	8
795.786	805
795.889	303
795.991	1463
796.094	1561
796.197	606
796.300	2197
796.402	1325
796.505	685
796.608	1133
796.710	1977
796.813	1912
796.915	1359
797.018	984
797.120	1971
797.223	-66
797.326	2055
797.428	193
797.530	636
797.633	861
797.735	2259
797.838	741
797.940	1938
798.042	318
798.145	166
798.247	1544
798.349	-981
798.452	2294
798.554	399
798.656	673
798.758	2426
798.860	1367
798.962	481
799.065	1098
799.167	591
799.269	2942
799.371	1882
799.473	2314
799.575	1234
799.677	1241
799.779	4049
799.881	4351
799.983	3115
800.085	976
800.187	1720
800.289	-170
800.390	986
800.492	1641
800.594	1584
800.696	-19
800.798	1074
800.899	637
801.001	551
801.103	1775
801.205	251
801.306	1725
801.408	303
801.509	1258
801.611	1321
801.713	1044
801.814	-287
801.916	488
802.017	372
802.119	68
802.220	279
802.322	-630
802.423	2072
802.525	-490
802.626	1105
802.727	2088
802.829	1767
802.930	-950
803.031	2762
803.133	450
803.234	149
803.335	140
803.436	-589
803.538	581
803.639	-407
803.740	1578
803.841	-203
803.942	970
804.043	1706
804.144	830
804.245	887
804.346	256
804.447	814
804.548	3735
804.649	4035
804.750	1148
804.851	296
804.952	-119
805.053	1426
805.154	-40
805.255	1273
805.355	748
805.456	246
805.557	-161
805.658	-110
805.758	1345
805.859	2
805.960	804
806.061	-85
806.161	364
806.262	1277
806.362	594
806.463	130
806.564	1299
806.664	385
806.765	237
806.865	434
806.966	415
807.066	322
807.166	739
807.267	367
807.367	-185
807.468	543
807.568	-553
807.668	1107
807.769	969
807.869	-869
807.969	674
808.069	872
808.170	535
808.270	265
808.370	1149
808.470	3574
808.570	1228
808.670	735
808.770	515
808.870	422
808.970	1038
809.070	-410
809.170	161
809.271	1372
809.370	522
809.470	853
809.570	494
809.670	1077
809.770	1013
809.870	1111
809.970	405
810.070	411
810.169	930
810.269	-480
810.369	1757
810.469	508
810.568	494
810.668	-314
810.768	-546
810.867	1719
810.967	8
811.066	165
811.166	-8
811.265	722
811.365	-208
811.464	771
811.564	283
811.663	757
811.763	-675
811.862	198
811.962	381
812.061	270
812.160	111
812.260	821
812.359	34
812.458	-232
812.557	1085
812.657	625
812.756	1445
812.855	924
812.954	1
813.053	824
813.153	447
813.252	-770
813.351	740
813.450	-269
813.549	-536
813.648	680
813.747	294
813.846	1024
813.945	405
814.044	494
814.143	251
814.242	1172
814.341	44
814.439	459
814.538	797
814.637	568
814.736	275
814.835	776
814.933	-288
815.032	810
815.131	915
815.229	1864
815.328	3196
815.427	1460
815.525	1715
815.624	1533
815.722	847
815.821	1907
815.919	1270
816.018	939
816.116	2814
816.215	1953
816.313	1822
816.412	2352
816.510	2405
816.609	3189
816.707	1846
816.805	2021
816.904	1833
817.002	2752
817.100	2443
817.198	3196
817.296	2090
817.395	2891
817.493	3653
817.591	2832
817.689	3536
817.787	4318
817.885	7370
817.983	11139
818.081	26624
818.179	66417
818.277	180972
818.375	126468
818.473	25866
818.571	9627
818.669	7681
818.767	6898
818.865	6007
818.963	8535
819.061	12581
819.158	22559
819.256	55651
819.354	138580
819.452	327147
819.549	167033
819.647	34748
819.745	12619
819.842	10780
819.940	6794
820.038	4533
820.135	4472
820.233	4501
820.330	3052
820.428	2502
820.525	3441
820.623	2012
820.720	2024
820.818	2370
820.915	2241
821.012	1833
821.110	355
821.207	2578
821.304	2189
821.402	2341
821.499	2832
821.596	2079
821.693	2691
821.791	2719
821.888	4033
821.985	10062
822.082	6451
822.179	2829
822.276	1373
822.373	934
822.470	1296
822.567	1591
822.664	643
822.761	1851
822.858	1217
822.955	1448
823.052	1092
823.149	830
823.246	1518
823.343	322
823.440	807
823.536	1417
823.633	1003
823.730	609
823.827	1753
823.923	1604
824.020	1815
824.117	1232
824.213	-359
824.310	671
824.407	630
824.503	1222
824.600	1482
824.696	813
824.793	2066
824.889	932
824.986	817
825.082	552
825.179	350
825.275	1110
825.371	779
825.468	1061
825.564	22
825.660	1256
825.757	1636
825.853	1213
825.949	247
826.045	848
826.142	217
826.238	616
826.334	1502
826.430	-215
826.526	777
826.622	-432
826.718	696
826.814	728
826.910	1995
827.006	-255
827.102	93
827.198	1839
827.294	837
827.390	916
827.486	794
827.582	50
827.678	271
827.774	1530
827.869	152
827.965	1816
828.061	76
828.157	507
828.252	753
828.348	-240
828.444	1171
828.539	-17
828.635	1116
828.731	1145
828.826	-112
828.922	1224
829.017	454
829.113	1030
829.208	150
829.304	765
829.399	2393
829.495	270
829.590	1496
829.685	262
829.781	1438
829.876	33
829.971	639
830.066	308
830.162	365
830.257	-218
830.352	-218
830.447	2301
830.543	823
830.638	491
830.733	1399
830.828	-55
830.923	1568
831.018	883
831.113	166
831.208	141
831.303	-141
831.398	350
831.493	-16
831.588	1705
831.683	-60
831.778	1150
831.873	705
831.967	1280
832.062	2
832.157	227
832.252	1713
832.346	0
832.441	1955
832.536	2153
832.631	9058
832.725	5436
832.820	725
832.914	-107
833.009	470
833.104	1077
833.198	2684
833.293	-178
833.387	877
833.482	843
833.576	428
833.670	1281
833.765	1097
833.859	1389
833.954	2193
834.048	793
834.142	1467
834.237	143
834.331	210
834.425	865
834.519	-597
834.613	1533
834.708	-121
834.802	790
834.896	-883
834.990	644
835.084	565
835.178	139
835.272	-186
835.366	243
835.460	803
835.554	478
835.648	115
835.742	-273
835.836	157
835.930	-324
836.024	691
836.117	1411
836.211	-43
836.305	401
836.399	424
836.493	-697
836.586	1379
836.680	-998
836.774	-137
836.867	906
836.961	-419
837.055	-756
837.148	-358
837.242	-105
837.335	537
837.429	39
837.522	525
837.616	407
837.709	771
837.803	-43
837.896	788
837.989	-358
838.083	733
838.176	719
838.269	560
838.363	985
838.456	406
838.549	1673
838.642	3251
838.735	9389
838.829	2077
838.922	-706
839.015	-336
839.108	-1066
839.201	59
839.294	127
839.387	-192
839.480	-220
839.573	-317
839.666	-67
839.759	243
839.852	-13
839.945	-284
840.038	186
840.131	85
840.223	-164
840.316	997
840.409	-131
840.502	-724
840.594	1316
840.687	-669
840.780	626
840.873	-317
840.965	-294
841.058	516
841.150	1100
841.243	-66
841.336	414
841.428	-7
841.521	96
841.613	-547
841.706	750
841.798	-710
841.890	209
841.983	-1312
842.075	1082
842.167	-579
842.260	-59
842.352	1100
842.444	409
842.537	605
842.629	1104
842.721	-611
842.813	-389
842.905	-948
842.997	-228
843.090	-465
843.182	132
843.274	-185
843.366	2065
843.458	5022
843.550	3559
843.642	22
843.734	-224
843.826	327
843.918	427
844.009	639
844.101	-817
844.193	-3
844.285	-372
844.377	369
844.469	359
844.560	-293
844.652	693
844.744	187
844.835	801
844.927	91
845.019	180
845.110	-371
845.202	-551
845.293	-334
845.385	-997
845.476	-17
845.568	-267
845.659	-392
845.751	-83
845.842	237
845.934	-12
846.025	-476
846.116	449
846.208	-545
846.299	-624
846.390	-529
846.482	273
846.573	894
846.664	349
846.755	1865
846.846	1687
846.937	-1091
847.029	302
847.120	-233
847.211	-273
847.302	629
847.393	-913
847.484	513
847.575	-1278
847.666	-750
847.757	-233
847.847	-339
847.938	-39
848.029	-104
848.120	-823
848.211	-708
848.302	-871
848.392	-1055
848.483	35
848.574	-1093
848.664	-1093
848.755	-771
848.846	-54
848.936	-87
849.027	-518
849.118	-181
849.208	-671
849.299	1750
849.389	4043
849.480	9845
849.570	22340
849.661	43714
849.751	73683
849.841	21666
849.932	2616
850.022	904
850.112	891
850.203	248
850.293	598
850.383	-93
850.474	-284
850.564	193
850.654	-657
850.744	-1121
850.834	-868
850.924	253
851.014	512
851.104	366
851.194	599
851.284	919
851.374	1005
851.464	345
851.554	-529
851.644	582
851.734	299
851.824	-595
851.914	-661
852.004	378
852.094	-542
852.183	7
852.273	229
852.363	-217
852.452	863
852.542	-616
852.632	-301
852.721	94
852.811	-514
852.901	361
852.990	298
853.080	1593
853.169	1335
853.259	914
853.348	1030
853.438	2545
853.527	4063
853.617	5826
853.706	12233
853.795	23575
853.885	56692
853.974	110114
854.063	205390
854.152	308305
854.242	106068
854.331	17520
854.420	7633
854.509	4650
854.598	4291
854.687	2676
854.777	2973
854.866	1611
854.955	1261
855.044	-550
855.133	559
855.222	323
855.311	436
855.400	633
855.488	516
855.577	-315
855.666	787
855.755	-33
855.844	-251
855.933	-922
856.021	870
856.110	266
856.199	-715
856.288	-319
856.376	-723
856.465	-997
856.554	-502
856.642	-216
856.731	0
856.819	235
856.908	-410
856.996	-320
857.085	-713
857.173	-81
857.262	-469
857.350	-679
857.438	-686
857.527	-484
857.615	-331
857.703	-340
857.792	-899
857.880	-370
857.968	-1048
858.056	292
858.145	-66
858.233	-166
858.321	-128
858.409	135
858.497	-996
858.585	-344
858.673	-636
858.761	-678
858.849	-247
858.937	-165
859.025	-325
859.113	492
859.201	-844
859.289	245
859.377	-742
859.465	-34
859.552	-367
859.640	99
859.728	-490
859.816	164
859.903	127
859.991	-846
860.079	-365
860.166	-181
860.254	-795
860.342	-864
860.429	-541
860.517	-817
860.604	322
860.692	-671
860.779	-942
860.867	-14
860.954	-134
861.042	188
861.129	472
861.216	-123
861.304	-433
861.391	-113
861.478	-81
861.565	-126
861.653	289
861.740	-922
861.827	-233
861.914	1055
862.001	-480
862.089	-283
862.176	-150
862.263	-36
862.350	-651
862.437	-597
862.524	-1499
862.611	-459
862.698	-160
862.785	195
862.871	406
862.958	-475
863.045	-45
863.132	360
863.219	-644
863.306	-490
863.392	-251
863.479	-302
863.566	-405
863.652	220
863.739	-402
863.826	855
863.912	-41
863.999	-719
864.086	154
864.172	-29
864.259	-431
864.345	-214
864.432	772
864.518	-303
864.604	-2
864.691	361
864.777	318
864.863	510
864.950	1053
865.036	433
865.122	3006
865.209	1882
865.295	2318
865.381	2643
865.467	2584
865.553	3826
865.639	6697
865.726	13183
865.812	28894
865.898	58966
865.984	86736
866.070	167635
866.156	169513
866.242	40231
866.328	9016
866.414	3645
866.499	2495
866.585	2552
866.671	2134
866.757	2095
866.843	2909
866.928	1662
867.014	985
867.100	1598
867.186	1132
867.271	1788
867.357	1813
867.442	1545
867.528	1139
867.614	1026
867.699	1089
867.785	1476
867.870	838
867.956	1038
868.041	1302
868.127	954
868.212	942
868.297	803
868.383	1197
868.468	2547
868.553	5050
868.639	5393
868.724	12598
868.809	8437
868.894	1359
868.979	978
869.065	901
869.150	152
869.235	820
869.320	188
869.405	652
869.490	1236
869.575	399
869.660	392
869.745	601
869.830	-172
869.915	309
870.000	469
870.085	597
870.169	1180
870.254	520
870.339	-98
870.424	-286
870.509	473
870.593	458
870.678	-312
870.763	487
870.847	815
870.932	189
871.016	-404
871.101	233
871.186	488
871.270	859
871.355	-9
871.439	640
871.523	433
871.608	164
871.692	-188
871.777	400
871.861	1023
871.945	-416
872.030	380
872.114	-212
872.198	-396
872.282	-783
872.367	-490
872.451	183
872.535	217
872.619	695
872.703	88
872.787	504
872.871	-170
872.955	-117
873.039	-444
873.123	144
873.207	659
873.291	-655
873.375	-443
873.459	-446
873.543	99
873.627	-600
873.711	-506
873.794	-41
873.878	891
873.962	-380
874.045	49
874.129	-388
874.137	-325
874.213	307
874.245	245
874.296	149
874.352	-186
874.380	-353
874.460	-222
874.464	-218
874.547	309
874.568	287
874.631	234
874.676	-51
874.714	-297
874.784	439
874.798	577
874.881	903
874.892	748
874.965	-229
874.999	-3
875.048	272
875.107	228
875.131	216
875.215	325
875.215	324
875.298	-448
875.323	-292
875.381	64
875.430	84
875.465	95
875.538	-145
875.548	-173
875.631	-901
875.646	-779
875.714	-246
875.753	-181
875.798	-79
875.861	-690
875.881	-880
875.964	-144
875.968	-156
876.047	-325
876.076	-1
876.130	489
876.183	-44
876.213	-293
876.291	478
876.296	525
876.379	-645
876.398	-598
876.462	-386
876.506	-436
876.545	-479
876.613	-366
876.628	-353
876.711	-219
876.721	-219
876.794	-145
876.828	-77
876.877	21
876.935	-85
876.960	-158
877.043	101
877.043	100
877.125	-17
877.150	235
877.208	717
877.258	700
877.291	735
877.365	162
877.374	76
877.456	621
877.472	527
877.539	175
877.579	259
877.622	372
877.687	268
877.704	234
877.787	-403
877.794	-385
877.869	-118
877.901	-58
877.952	-17
878.008	-298
878.034	-472
878.115	-761
878.117	-759
878.199	-236
878.222	-211
878.282	-176
878.329	86
878.364	181
878.437	112
878.447	98
878.529	-637
878.544	-552
878.611	-22
878.651	-22
878.694	63
878.758	-115
878.776	-201
878.858	248
878.865	243
878.941	61
878.972	-112
879.023	-336
879.078	-125
879.105	-45
879.185	425
879.187	437
879.269	99
879.292	180
879.351	328
879.399	-159
879.433	-559
879.506	-383
879.516	-311
879.598	160
879.613	153
879.680	-207
879.720	-198
879.762	89
879.827	312
879.844	186
879.926	23
879.933	6
880.007	239
880.040	590
880.089	1291
880.147	2292
880.171	2601
880.253	5905
880.254	5929
880.335	8482
880.360	9205
880.417	11069
880.467	17917
880.499	22144
880.574	22232
880.580	22121
880.662	5971
880.680	4924
880.744	1445
880.787	817
880.825	153
880.893	-228
880.907	-188
880.989	-289
881.000	-226
881.070	-170
881.106	-181
881.152	130
881.213	345
881.233	183
881.315	28
881.319	-28
881.396	-394
881.426	-285
881.478	-269
881.532	-451
881.559	-481
881.639	-431
881.641	-429
881.722	-177
881.745	-194
881.803	83
881.852	239
881.885	125
881.958	345
881.966	351
882.047	126
882.064	192
882.129	794
882.171	937
882.210	914
882.277	1436
882.291	1580
882.372	166
882.383	92
882.454	-445
882.489	-425
882.535	-406
882.596	-504
882.616	-528
882.697	-556
882.702	-536
882.778	-281
882.808	-434
882.859	-501
882.914	-280
882.940	-258
883.020	-200
883.021	-198
883.102	-345
883.127	-308
883.183	-157
883.233	-220
883.264	-326
883.339	-478
883.345	-468
883.426	-587
883.445	-532
883.507	-497
883.551	-420
883.587	-317
883.657	-196
883.668	-98
883.749	133
883.763	254
883.830	-317
883.869	-848
883.910	-785
883.975	-185
883.991	-44
884.072	165
884.081	204
884.152	315
884.187	199
884.233	-228
884.292	-354
884.314	-255
884.394	-426
884.398	-418
884.475	-105
884.504	-25
884.555	-324
884.610	-785
884.636	-732
884.716	10
884.716	12
884.797	-335
884.821	-508
884.877	-314
884.927	12
884.958	-56
885.033	-661
885.038	-687
885.118	-489
885.139	-488
885.199	-66
885.244	248
885.279	202
885.350	-178
885.359	-195
885.439	-141
885.456	-158
885.520	-339
885.561	-423
885.600	-603
885.667	-922
885.680	-809
885.760	90
885.773	181
885.840	-203
885.878	-404
885.920	-346
885.984	-184
886.000	-191
886.080	-295
886.089	-296
886.160	-400
886.195	-541
886.240	-439
886.300	-101
886.320	-60
886.400	-207
886.406	-195
886.480	-62
886.511	-93
886.560	-49
886.616	-56
886.640	-93
886.720	-290
886.722	-295
886.800	-537
886.827	-581
886.879	-348
886.932	-247
886.959	-119
887.038	449
887.039	446
887.119	-296
887.143	-491
887.198	-318
887.248	-166
887.278	-19
887.354	332
887.358	315
887.437	-65
887.459	-215
887.517	-520
887.564	-683
887.596	-404
887.669	200
887.676	179
887.755	-217
887.774	-263
887.835	46
887.880	218
887.914	242
887.985	232
887.994	180
888.073	-324
888.090	-412
888.153	-419
888.195	-543
888.232	-465
888.300	-104
888.311	-93
888.391	-213
888.405	-220
888.470	-336
888.510	-403
888.549	-436
888.615	-508
888.628	-413
888.708	171
888.720	249
888.787	286
888.825	356
888.866	-94
888.930	-859
888.945	-781
889.024	-378
889.035	-309
889.103	-221
889.140	-201
889.182	-158
889.245	-96
889.261	-31
889.340	292
889.349	329
889.419	265
889.454	228
889.498	-32
889.559	-378
889.577	-330
889.656	-114
889.664	-91
889.735	184
889.768	314
889.814	-39
889.873	-503
889.978	-442
890.083	212
890.187	473
890.292	-298
890.397	-1338
890.501	-308
890.606	-461
890.710	398
890.815	20
890.919	35
891.024	-864
891.128	242
891.233	195
891.337	853
891.442	-59
891.546	120
891.650	14
891.755	0
891.859	1275
891.963	24
892.068	588
892.172	547
892.276	-1140
892.380	-210
892.484	-78
892.589	971
892.693	68
892.797	266
892.901	-499
893.005	493
893.109	44
893.213	195
893.317	-400
893.421	315
893.525	-474
893.629	584
893.733	-285
893.837	-24
893.941	-269
894.045	1320
894.148	-311
894.252	311
894.356	-656
894.460	471
894.564	716
894.667	49
894.771	-541
894.875	-768
894.978	-1068
895.082	-385
895.186	-624
895.289	-260
895.393	144
895.496	355
895.600	-5
895.703	-4
895.807	-43
895.910	189
896.014	212
896.117	-163
896.221	-205
896.324	-620
896.427	-109
896.531	-453
896.634	-228
896.737	37
896.840	-403
896.944	-338
897.047	-498
897.150	211
897.253	-737
897.356	219
897.460	-86
897.563	-419
897.666	-605
897.769	0
897.872	255
897.975	183
898.078	114
898.181	-45
898.284	-870
898.387	153
898.490	-864
898.593	791
898.695	-882
898.798	-17
898.901	-184
899.004	93
899.107	-502
899.209	-223
899.312	-367
899.415	71
899.518	-1233
899.620	-296
899.723	-141
899.826	29
899.928	-292
900.031	337
900.133	-198
900.236	555
900.338	-744
900.441	-687
900.543	-677
900.646	736
900.748	285
900.851	0
900.953	-115
901.055	366
901.158	-309
901.260	40
901.362	-1173
901.465	-90
901.567	-182
901.669	730
901.771	-912
901.873	454
901.976	630
902.078	157
902.180	-318
902.282	-421
902.384	-579
902.486	-210
902.588	207
902.690	-550
902.792	850
902.894	219
902.996	-48
903.098	68
903.200	-449
903.302	-488
903.404	313
903.505	-228
903.607	-305
903.709	-140
903.811	-6
903.913	-144
904.014	-726
904.116	157
904.218	-122
904.319	-668
904.421	154
904.523	-540
904.624	-36
904.726	165
904.827	-102
904.929	-788
905.030	-652
905.132	-167
905.233	-176
905.335	-399
905.436	-432
905.537	-503
905.639	-551
905.740	-580
905.841	-1319
905.943	166
906.044	-924
906.145	-64
906.247	-712
906.348	-30
906.449	166
906.550	51
906.651	-133
906.752	591
906.854	-82
906.955	-730
907.056	-706
907.157	-351
907.258	-761
907.359	30
907.460	-832
907.561	-508
907.662	-163
907.762	-240
907.863	-404
907.964	-807
908.065	-230
908.166	-776
908.267	-1014
908.367	210
908.468	-224
908.569	395
908.670	-1330
908.770	334
908.871	-325
908.971	-384
909.072	-377
909.173	-382
909.273	-631
909.374	-636
909.474	-1461
909.575	93
909.675	-691
909.776	-358
909.876	-1091
909.977	-389
910.077	-472
910.177	-557
910.278	-634
910.378	421
910.478	-783
910.579	-205
910.679	-1064
910.779	-218
910.879	360
910.980	-133
911.080	-620
911.180	-387
911.280	-1013
911.380	-258
911.480	-619
911.580	-410
911.680	-301
911.780	-789
911.880	-241
911.980	24
912.080	-612
912.180	633
912.280	470
912.380	-953
912.480	-393
912.580	-642
912.679	-804
912.779	-212
912.879	25
912.979	-498
913.078	-639
913.178	-476
913.278	-408
913.377	-408
913.477	-260
913.577	323
913.676	-468
913.776	60
913.875	-285
913.975	141
914.074	-683
914.174	-1078
914.273	-903
914.373	-63
914.472	-528
914.572	-1124
914.671	-404
914.770	-593
914.870	-859
914.969	-1024
915.068	-1005
915.167	-205
915.267	-875
915.366	-1498
915.465	-244
915.564	450
915.663	-442
915.763	-690
915.862	-456
915.961	-369
916.060	-624
916.159	-916
916.258	-745
916.357	-608
916.456	-290
916.555	-329
916.654	-150
916.752	-226
916.851	-1245
916.950	-358
917.049	-349
917.148	-335
917.247	-234
917.345	277
917.444	-511
917.543	-324
917.642	-737
917.740	-314
917.839	-850
917.937	49
918.036	-922
918.135	-878
918.233	-190
918.332	-635
918.430	-440
918.529	19
918.627	-108
918.726	-187
918.824	-22
918.923	-233
919.021	-512
919.119	-425
919.218	-1117
919.316	-557
919.414	-250
919.512	225
919.611	-290
919.709	-93
919.807	-1510
919.905	-376
920.003	-1008
920.102	-597
920.200	-434
920.298	-229
920.396	-571
920.494	-526
920.592	-718
920.690	676
920.788	-749
920.886	-530
920.984	-401
921.082	-986
921.180	-573
921.277	-176
921.375	-864
921.473	-906
921.571	-475
921.669	-319
921.766	-1065
921.864	-154
921.962	-783
922.060	-657
922.157	67
922.255	-76
922.352	-190
922.450	-760
922.548	-698
922.645	-209
922.743	-641
922.840	-448
922.938	-281
923.035	-185
923.133	-1121
923.230	-62
923.327	-521
923.425	424
923.522	-780
923.619	-304
923.717	121
923.814	-100
923.911	-555
924.008	-96
924.106	-556
924.203	-513
924.300	-485
924.397	-424
924.494	-273
924.591	-168
924.688	-604
924.786	-752
924.883	-123
924.979	-1225
925.077	-384
925.173	35
925.270	-1357
925.367	-272
925.464	-684
925.561	298
925.658	-538
925.755	-844
925.852	-495
925.948	11
926.045	-795
926.142	-298
926.239	-168
926.335	111
926.432	-305
926.529	-665
926.625	-758
926.722	302
926.818	-376
926.915	104
927.011	183
927.108	196
927.204	264
927.301	-1415
927.397	-208
927.494	-145
927.590	153
927.687	-252
927.783	-328
927.879	-407
927.976	-951
928.072	-302
928.168	-1207
928.264	104
928.361	-247
928.457	-395
928.553	-769
928.649	176
928.745	-197
928.841	-600
928.937	-601
929.033	-167
929.129	-851
929.225	-161
929.321	-664
929.417	-751
929.513	-1472
929.609	-8
929.705	-438
929.801	-43
929.897	-833
929.993	-989
930.089	-1075
930.184	-681
930.280	-478
930.376	-674
930.471	-743
930.567	95
930.663	-243
930.758	-488
930.854	-1134
930.950	-764
931.045	-585
931.141	-273
931.236	-501
931.332	-973
931.427	-707
931.523	-15
931.618	-713
931.714	-1267
931.809	-637
931.905	118
932.000	-1539
932.095	-452
932.191	-764
932.286	-459
932.381	-491
932.476	-814
932.572	-366
932.667	-1050
932.762	-453
932.857	-72
932.952	-639
933.047	-650
933.142	-1731
933.237	-802
933.332	-279
933.427	103
933.522	-382
933.617	-1431
933.712	-566
933.807	-1001
933.902	-692
933.997	-484
934.092	-526
934.187	-910
934.282	-1156
934.376	-765
934.471	-1285
934.566	-987
934.661	-1203
934.755	-504
934.850	-987
934.945	-945
935.039	-1615
935.134	108
935.228	-833
935.323	-1460
935.417	-1061
935.512	171
935.606	-1372
935.701	-717
935.795	-921
935.890	-1036
935.984	-1071
936.079	-529
936.173	-217
936.267	-331
936.362	-1830
936.456	-1080
936.550	-877
936.644	-22
936.738	-1500
936.833	-508
936.927	-264
937.021	-343
937.115	-1075
937.209	-994
937.303	-390
937.397	-1202
937.491	-1023
937.585	-611
937.679	-1420
937.773	-619
937.867	-544
937.961	-635
938.055	-1332
938.149	89
938.243	-1357
938.337	-593
938.430	-551
938.524	-582
938.618	-1228
938.712	-173
938.805	-758
938.899	-1142
938.993	-768
939.086	-548
939.180	-915
939.274	-1735
939.367	-1571
939.461	-1064
939.554	-913
939.648	-418
939.741	-282
939.835	-1563
939.928	-733
940.022	-528
940.115	-507
940.208	-554
940.302	-1394
940.395	-284
940.488	-1654
940.582	-130
940.675	-1867
940.768	-923
940.861	-1842
940.954	-635
941.048	-1021
941.141	-779
941.234	-1269
941.327	-702
941.420	-303
941.513	-1534
941.606	-1512
941.699	-350
941.792	-1466
941.885	-1737
941.978	-1125
942.071	-1023
942.164	-986
942.257	-1238
942.349	-564
942.442	-898
942.535	-1634
942.628	-1295
942.721	-1085
942.813	-1060
942.906	-86
942.999	-929
943.091	-1328
943.184	-1338
943.277	-2376
943.369	-540
943.462	-1370
943.554	-906
943.647	-1286
943.739	-442
943.832	-1466
943.924	-1394
944.017	-613
944.109	-1734
944.201	-2291
944.294	-122
944.386	-1645
944.478	-1141
944.571	-1500
944.663	-404
944.755	-1447
944.847	-755
944.940	-1281
945.032	-809
945.124	-1988
945.216	-249
945.308	-1811
945.400	-823
945.492	-724
945.584	-1623
945.676	-1222
945.768	-191
945.860	-420
945.952	-533
946.044	-513
946.136	-1399
946.228	-1245
946.320	-1276
946.412	-1405
946.503	-1851
946.595	-508
946.687	-1012
946.779	-2052
946.870	-538
946.962	-1041
947.054	95
947.145	-539
947.237	-1461
947.329	-1098
947.420	-1162
947.512	-997
947.603	-849
947.695	-1787
947.786	-1924
947.878	-1467
947.969	-674
948.061	-1868
948.152	-1264
948.243	-1328
948.335	-730
948.426	-2206
948.517	-1843
948.609	-2348
948.700	-898
948.791	-1179
948.882	-929
948.973	-1523
949.065	-1378
949.156	-1159
949.247	-1441
949.338	-1345
949.429	-882
949.520	-1940
949.611	-2272
949.702	-1385
949.793	-1400
949.884	-884
949.975	-1430
950.066	-1062
950.157	-1828
950.247	-1802
950.338	-59
950.429	-996
950.520	-1442
950.611	-1480
950.701	-1607
950.792	-2148
950.883	-1266
950.973	-863
951.064	-1064
951.155	-2708
951.245	-1671
951.336	-1477
951.427	-2574
951.517	-807
951.608	-1542
951.698	-1365
951.788	-1031
951.879	-1940
951.969	-1294
952.060	-1570
952.150	-1619
952.240	-838
952.331	-2386
952.421	-346
952.511	-1651
952.602	-1697
952.692	-1708
952.782	-1638
952.872	-1991
952.962	-1026
953.052	-1277
953.143	-2700
953.233	-1007
953.323	-1835
953.413	-2469
953.503	-1588
953.593	-1206
953.683	-1891
953.773	-2093
953.863	-1570
953.953	-2020
954.042	-1395
954.132	-1308
954.222	-1194
954.312	-1633
954.402	-1709
954.492	-1600
954.581	-1229
954.671	-1281
954.761	-1259
954.850	-267
954.940	-1660
955.030	-360
955.119	-1865
955.209	-1186
955.298	-2438
955.388	-1250
955.477	-1673
955.567	-1736
955.656	-778
955.746	-1166
955.835	-1558
955.925	-2642
956.014	-2024
956.103	-1899
956.193	-1970
956.282	-1479
956.371	-879
956.461	-1623
956.550	-1850
956.639	-1771
956.728	-2231
956.817	-1367
956.906	-2667
956.995	-1302
957.085	-2294
957.174	-1483
957.263	-1716
957.352	-2194
957.441	-2009
957.530	-1635
957.619	-1658
957.708	-1964
957.796	-2290
957.885	-1995
957.974	-2534
958.063	-1442
958.152	-2276
958.241	-1418
958.329	-1488
958.418	-1812
958.507	-1639
958.596	-693
958.684	-1736
958.773	-972
958.861	-1826
958.950	-1544
959.039	-1475
959.127	-1103
959.216	-1246
959.304	-1343
959.393	-2466
959.481	-1184
959.570	-2054
959.658	-1418
959.746	-1581
959.835	-1980
959.923	-1854
960.011	-1437
960.100	-1867
960.188	-1609
960.276	-1614
960.365	-2109
960.453	-2151
960.541	-1998
960.629	-1870
960.717	-1280
960.805	-2975
960.893	-883
960.981	-2779
961.069	-680
961.158	-1916
961.245	-817
961.333	-1705
961.421	-1683
961.509	-1799
961.597	-925
961.685	-2153
961.773	-1205
961.861	-2244
961.949	-837
962.036	-2039
962.124	-1144
962.212	-2061
962.299	-2513
962.387	-2366
962.475	-1697
962.562	-2267
962.650	-1748
962.738	-1471
962.825	-2292
962.913	-805
963.000	-2290
963.088	-1945
963.175	-2219
963.263	-2237
963.350	-1576
963.438	-2664
963.525	-2071
963.612	-1590
963.700	-1379
963.787	-1651
963.874	-2169
963.962	-1670
964.049	-1401
964.136	-2488
964.223	-1937
964.310	-1636
964.398	-1717
964.485	-2226
964.572	-1585
964.659	-1586
964.746	-1818
964.833	-2169
964.920	-1396
965.007	-1489
965.094	-1673
965.181	-2133
965.268	-1638
965.355	-1843
965.441	-1631
965.528	-2214
965.615	-1708
965.702	-1736
965.789	-3072
965.875	-2491
965.962	-1597
966.049	-2319
966.136	-830
966.222	-2139
966.309	-1328
966.395	-2337
966.482	-1362
966.569	-2653
966.655	-1649
966.742	-2016
966.828	-1527
966.915	-2743
967.001	-1055
967.087	-2763
967.174	-1902
967.260	-1132
967.347	-2103
967.433	-2002
967.519	-1268
967.605	-1663
967.692	-1945
967.778	-1811
967.864	-984
967.950	-1855
968.036	-2386
968.123	-2538
968.209	-586
968.295	-2559
968.381	-536
968.467	-1709
968.553	-3009
968.639	-1360
968.725	-2323
968.811	-2664
968.897	-2026
968.983	-1694
969.069	-2316
969.154	-2165
969.240	-591
969.326	-2110
969.412	-1985
969.497	-1898
969.583	-1694
969.669	-629
969.755	-912
969.840	-2268
969.926	-1188
970.012	-1620
970.097	-720
970.183	-1607
970.268	-1345
970.354	-1175
970.439	-1905
970.525	-1118
970.610	-2201
970.696	-1737
970.781	-1177
970.866	-2241
970.952	-1223
971.037	-1289
971.122	-1458
971.208	-1682
971.293	-1081
971.378	-2819
971.463	-1833
971.549	-1486
971.634	-1239
971.719	-1414
971.804	-2004
971.889	-1390
971.974	-1317
972.059	-1795
972.144	-650
972.229	-1105
972.314	-1823
972.399	-1233
972.484	-1429
972.569	-1252
972.654	-3254
972.739	-494
972.824	-2095
972.908	-1792
972.993	-1794
973.078	-2043
973.163	-1861
973.247	-1027
973.332	-2036
973.417	-1249
973.501	-2527
973.586	-2455
973.671	-1459
973.755	-1795
973.840	-1450
973.924	-1487
974.009	-1833
974.093	-2174
974.178	-1047
974.262	-1559
974.346	-1577
974.431	-1519
974.515	-2038
974.600	-1391
974.684	-1752
974.768	-1744
974.852	-737
974.937	-2536
975.021	-1158
975.105	-2603
975.189	-1156
975.273	-1064
975.358	-1541
975.442	-2485
975.526	-1409
975.610	-1830
975.694	-2536
975.778	-1062
975.862	-1469
975.946	-3058
976.030	-545
976.114	-1208
976.198	-1608
976.281	-1854
976.365	-652
976.449	-1596
976.533	-1378
976.617	-2220
976.700	-1247
976.784	-1502
976.868	-1281
976.951	-1256
977.035	-1555
977.119	-2056
977.202	-1897
977.286	-929
977.369	-1206
977.453	-2195
977.536	-1926
977.620	-2025
977.703	-1538
977.787	-2546
977.870	-1142
977.953	-1483
978.037	-3123
978.120	-1111
978.203	-1605
978.287	-1892
978.370	-1761
978.453	-1692
978.536	-2368
978.620	-1308
978.703	-1252
978.786	-2115
978.869	-1764
978.952	-3157
979.035	-832
979.118	-2418
979.201	-2013
979.284	-1446
979.367	-2496
979.450	-1337
979.533	-1194
979.616	-2162
979.699	-1936
979.782	-1539
979.865	-1356
979.948	-2289
980.030	-1615
980.113	-1851
980.196	-1573
980.279	-1623
980.361	-1497
980.444	-2799
980.526	-1611
980.609	-2155
980.692	-2595
980.774	-1481
980.857	-2554
980.939	-810
981.022	-1825
981.104	-1866
981.187	-1865
981.269	-1284
981.352	-789
981.434	-2062
981.516	-2060
981.599	-691
981.681	-861
981.763	-1969
981.846	-1273
981.928	-1813
982.010	-1925
982.092	-2392
982.174	-1411
982.256	-1414
982.339	-1423
982.421	-2390
982.503	-2281
982.585	-1648
982.667	-1960
982.749	-1845
982.831	-1251
982.913	-2076
982.995	-790
983.077	-2317
983.158	-696
983.240	-2247
983.322	-1649
983.404	-1412
983.486	-2474
983.568	-1347
983.649	-1901
983.731	-1100
983.813	-1901
983.894	-1121
983.976	-2167
984.058	-2891
984.139	-1066
984.221	-2661
984.302	-1428
984.384	-2307
984.465	-1509
984.547	-1622
984.628	-1836
984.710	-1324
984.791	-1326
984.872	-1378
984.954	-2135
985.035	-2215
985.116	-1489
985.198	-1716
985.279	-1478
985.360	-1748
985.441	-1482
985.522	-1752
985.604	-2261
985.685	-2854
985.766	-1282
985.847	-458
985.928	-1922
986.009	-2104
986.090	-1582
986.171	-919
986.252	-1435
986.333	-2700
986.414	-1516
986.495	-1263
986.576	-1525
986.656	-1876
986.737	-1088
986.818	-1613
986.899	-2422
986.980	-2021
987.060	-874
987.141	-2147
987.222	-1359
987.302	-1360
987.383	-1746
987.464	-2278
987.544	-1865
987.625	-1975
987.705	-1357
987.786	-1716
987.866	-1947
987.947	-1647
988.027	-1354
988.108	-1494
988.188	-1476
988.268	-1744
988.349	-2164
988.429	-1652
988.509	-958
988.589	-1614
988.670	-3017
988.750	-429
988.830	-2014
988.910	-1719
988.990	-2279
989.070	-1888
989.151	-990
989.231	-2203
989.311	-1486
989.391	-2047
989.471	-1982
989.551	-1995
989.631	-1663
989.711	-1622
989.791	-2127
989.870	-1907
989.950	-640
990.030	-2434
990.110	-1825
990.190	-1536
990.269	-1829
990.349	-1854
990.429	-1912
990.509	-1409
990.588	-2069
990.668	-1930
990.747	-1611
990.827	-1754
990.907	-1236
990.986	-2550
991.066	-1777
991.145	-2681
991.225	-1082
991.304	-1909
991.383	-1401
991.463	-1630
991.542	-1163
991.622	-2156
991.701	-1577
991.780	-2567
991.859	-1959
991.939	-1850
992.018	-1220
992.097	-1435
992.176	-1475
992.256	-2000
992.335	-1786
992.414	-2832
992.493	-2019
992.572	-1961
992.651	-1219
992.730	-1909
992.809	-1868
992.888	-2063
992.967	-1969
993.046	-1734
993.125	-2637
993.203	-2124
993.282	-1087
993.361	-2131
993.440	-1184
993.519	-2364
993.597	-1558
993.676	-2735
993.755	-1370
993.834	-1484
993.912	-3702
993.991	-638
994.069	-2402
994.148	-2327
994.226	-2110
994.305	-1845
994.384	-2206
994.462	-764
994.540	-2782
994.619	-2026
994.697	-1401
994.776	-2724
994.854	-1129
994.932	-1605
995.011	-1626
995.089	-2232
995.167	-2129
995.245	-2485
995.324	-2130
995.402	-1403
995.480	-2071
995.558	-2152
995.636	-2536
995.714	-3230
995.792	-151
995.870	-2279
995.948	-1409
996.026	-2653
996.104	-2422
996.182	-1596
996.260	-2302
996.338	-1606
996.416	-2442
996.494	-2482
996.572	-846
996.649	-2052
996.727	-2529
996.805	-2059
996.883	-2865
996.960	-2351
997.038	-1091
997.116	-1802
997.193	-2437
997.271	-1774
997.348	-1680
997.426	-2235
997.504	-2672
997.581	-1589
997.658	-656
997.736	-2844
997.813	-2842
997.891	-1311
997.968	-3030
998.046	-1896
998.123	-1995
998.200	-1798
998.277	-3125
998.355	-1862
998.432	-2698
998.509	-2139
998.586	-798
998.663	-2036
998.741	-1697
998.818	-1625
998.895	-1473
998.972	-2695
999.049	-1307
999.126	-2228
999.203	-1831
999.280	-2579
999.357	-1654
999.434	-2524
999.511	-1930
999.587	-1749
999.664	-2265
999.741	-1798
999.818	-1165
999.895	-2330
999.971	-2694
1000.048	-2525
1000.125	-1643
1000.202	-2832
1000.278	-1559
1000.355	-2290
1000.431	-2083
1000.508	-1879
1000.584	-1784
1000.661	-1556
1000.738	-2299
1000.814	-2291
1000.890	-1937
1000.967	-2340
1001.043	-1805
1001.120	-2955
1001.196	-2136
1001.272	-2125
1001.349	-1674
1001.425	-1910
1001.501	-1715
1001.577	-2801
1001.654	-1501
1001.730	-2508
1001.806	-1788
1001.882	-2702
1001.958	-1493
1002.034	-2099
1002.110	-1762
1002.186	-1630
1002.262	-2455
1002.338	-2911
1002.414	-1397
1002.490	-1387
1002.566	-2270
1002.642	-3199
1002.718	-1455
1002.794	-2166
1002.870	-1757
1002.945	-2558
1003.021	-2244
1003.097	-1838
1003.173	-1253
1003.248	-2339
1003.324	-1924
1003.400	-2397
1003.475	-2666
1003.551	-2561
1003.626	-2472
1003.702	-2039
1003.777	-1243
1003.853	-2397
1003.928	-1957
1004.004	-2709
1004.079	-1506
1004.155	-1750
1004.230	-3414
1004.305	-1482
1004.381	-2301
1004.456	-1646
1004.531	-1955
1004.607	-2821
1004.682	-1583
1004.757	-3141
1004.832	-1786
1004.907	-1829
1004.982	-1993
1005.057	-1532
1005.133	-2464
1005.208	-2717
1005.283	-2046
1005.358	-2263
1005.433	-2393
1005.508	-2777
1005.583	-2765
1005.657	-2804
1005.732	-1458
1005.807	-2991
1005.882	-2088
1005.957	-2018
1006.032	-1646
1006.106	-2228
1006.181	-2300
1006.256	-2292
1006.331	-2550
1006.405	-2582
1006.480	-1684
1006.554	-2866
1006.629	-3271
1006.704	-2472
1006.778	-1514
1006.853	-2484
1006.927	-2303
1007.002	-2265
1007.076	-1907
1007.150	-2775
1007.225	-2313
1007.299	-2817
1007.373	-2890
1007.448	-2324
1007.522	-1361
1007.596	-2046
1007.671	-2566
1007.745	-1814
1007.819	-3221
1007.893	-1940
1007.967	-1855
1008.041	-3692
1008.115	-1463
1008.190	-2484
1008.264	-1534
1008.338	-3288
1008.412	-2503
1008.486	-2283
1008.560	-1962
1008.633	-3019
1008.707	-1808
1008.781	-2302
1008.855	-1919
1008.929	-2048
1009.003	-2738
1009.076	-1597
1009.150	-2121
1009.224	-2126
1009.298	-2095
1009.371	-2749
1009.445	-1104
1009.519	-2470
1009.592	-2562
1009.666	-2367
1009.739	-2162
1009.813	-2941
1009.886	-1567
1009.960	-3069
1010.033	-1108
1010.107	-2167
1010.180	-3081
1010.253	-2860
1010.327	-3056
1010.400	-1894
1010.473	-1401
1010.547	-1188
1010.620	-2355
1010.693	-2242
1010.766	-2576
1010.840	-2588
1010.913	-2065
1010.986	-2794
1011.059	-2397
1011.132	-1893
1011.205	-1780
1011.278	-2453
1011.351	-2315
1011.424	-1805
1011.497	-2749
1011.570	-1993
1011.643	-2628
1011.716	-2740
1011.789	-2419
1011.862	-2308
1011.934	-1000
1012.007	-2899
1012.080	-2652
1012.153	-2010
1012.225	-1646
1012.298	-2555
1012.371	-2645
1012.443	-1621
1012.516	-2510
1012.588	-2168
1012.661	-1720
1012.733	-3148
1012.806	-1483
1012.879	-2184
1012.951	-1981
1013.023	-2855
1013.096	-1475
1013.168	-3640
1013.241	-1550
1013.313	-2061
1013.385	-2225
1013.458	-2396
1013.530	-1645
1013.602	-2356
1013.674	-613
1013.746	-1908
1013.819	-2736
1013.891	-1679
1013.963	-2622
1014.035	-3203
1014.107	-1848
1014.179	-2689
1014.251	-2310
1014.323	-2136
1014.395	-1774
1014.467	-2388
1014.539	-1118
1014.611	-2400
1014.683	-2312
1014.754	-1761
1014.826	-2662
1014.898	-2508
1014.970	-2952
1015.042	-1632
1015.113	-1855
1015.185	-2565
1015.257	-3172
1015.328	-2393
1015.400	-2049
1015.471	-1548
1015.543	-2893
1015.615	-2099
1015.686	-2038
1015.757	-1605
1015.829	-1684
1015.901	-1772
1015.972	-1982
1016.043	-1912
1016.115	-1713
1016.186	-2742
1016.257	-3133
1016.328	-2071
1016.400	-1063
1016.471	-3012
1016.542	-2462
1016.613	-1976
1016.685	-1504
1016.756	-2681
1016.827	-2515
1016.898	-2610
1016.969	-1913
1017.040	-2200
1017.111	-1983
1017.182	-2726
1017.253	-2075
1017.324	-2314
1017.395	-2006
1017.466	-1896
1017.537	-2188
1017.608	-1890
1017.678	-2794
1017.749	-3334
1017.820	-1896
1017.891	-2472
1017.961	-2108
1018.032	-2473
1018.103	-1642
1018.173	-1871
1018.244	-1977
1018.315	-2275
1018.385	-1272
1018.456	-2298
1018.526	-2583
1018.597	-1929
1018.667	-1958
1018.738	-3125
1018.808	-2462
1018.878	-2851
1018.949	-2075
1019.019	-2279
1019.089	-1969
1019.160	-1824
1019.230	-2659
1019.300	-2502
1019.371	-2677
1019.441	-1812
1019.511	-2297
1019.581	-1895
1019.651	-1937
1019.721	-2975
1019.791	-1809
1019.861	-2913
1019.931	-2904
1020.001	-2933
1020.071	-1643
1020.141	-2333
1020.211	-2307
1020.281	-2084
1020.351	-2760
1020.421	-2715
1020.491	-2499
1020.560	-2409
1020.630	-1565
1020.700	-2035
1020.770	-2547
1020.839	-2005
1020.909	-1982
1020.979	-2715
1021.048	-2090
1021.118	-2304
1021.187	-2020
1021.257	-2514
1021.326	-1787
1021.396	-2020
1021.465	-2086
1021.535	-1894
1021.604	-2383
1021.674	-2449
1021.743	-2077
1021.812	-2153
1021.882	-1946
1021.951	-1460
1022.020	-2130
1022.089	-1301
1022.159	-2403
1022.228	-1934
1022.297	-1701
1022.366	-2076
1022.435	-2732
1022.504	-2668
1022.573	-2594
1022.642	-2146
1022.711	-1972
1022.781	-2096
1022.849	-2394
1022.918	-1774
1022.987	-741
1023.056	-2441
1023.125	-1332
1023.194	-2547
1023.263	-2568
1023.331	-2478
1023.400	-1956
1023.469	-2265
1023.538	-1860
1023.606	-2579
1023.675	-2674
1023.744	-2308
1023.812	-2651
1023.881	-2431
1023.949	-2601
1024.018	-2093
1024.086	-2841
1024.155	-2682
1024.223	-2603
1024.292	-1590
1024.360	-1795
1024.429	-2934
1024.497	-2146
1024.565	-1839
1024.634	-1565
1024.702	-1790
1024.770	-1754
1024.838	-2814
1024.907	-1548
1024.975	-1737
1025.043	-1333
1025.111	-2827
1025.179	-1958
1025.247	-2018
1025.315	-1485
1025.383	-2961
1025.451	-2408
1025.519	-2724
1025.587	-2181
1025.655	-2531
1025.723	-2641
1025.791	-2059
1025.859	-2102
1025.927	-2653
1025.995	-1851
1026.062	-2496
1026.130	-2078
1026.198	-2184
1026.266	-2234
1026.333	-2405
1026.401	-1335
1026.469	-2747
1026.536	-1412
1026.604	-2043
1026.671	-1946
1026.739	-2115
1026.806	-1685
1026.874	-2441
1026.941	-2013
1027.009	-2297
1027.076	-2147
1027.144	-2021
1027.211	-2054
1027.278	-2576
1027.345	-2018
1027.413	-2348
1027.480	-2269
1027.547	-2916
1027.614	-2512
1027.682	-2103
1027.749	-2169
1027.816	-1407
1027.883	-1156
1027.950	-2033
1028.017	-2054
1028.084	-1662
1028.151	-2150
1028.218	-2911
1028.285	-3459
1028.352	-2249
1028.419	-3221
1028.486	-2582
1028.553	-1931
1028.619	-2698
1028.686	-2068
1028.753	-2281
1028.820	-1832
1028.886	-2452
1028.953	-1642
1029.020	-3360
1029.086	-2611
1029.153	-2086
1029.220	-2490
1029.286	-1975
1029.353	-2720
1029.419	-2146
1029.486	-1076
1029.552	-2462
1029.619	-1958
1029.685	-2631
1029.751	-1712
1029.818	-1481
1029.884	-2605
1029.951	-1229
1030.017	-2383
1030.083	-2367
1030.149	-1565
1030.216	-3118
1030.282	-1925
1030.348	-2760
1030.414	-2822
1030.480	-2190
1030.546	-2714
1030.612	-2020
1030.678	-2301
1030.744	-2602
1030.810	-2103
1030.876	-1878
1030.942	-2276
1031.008	-2624
1031.074	-1963
1031.140	-2149
1031.206	-1403
1031.272	-2549
1031.337	-2093
1031.403	-1727
1031.469	-2161
1031.534	-1568
1031.600	-1675
1031.666	-2607
1031.731	-2307
1031.797	-1787
1031.863	-2311
1031.928	-2701
1031.994	-1365
1032.059	-1964
1032.125	-1940
1032.190	-2850
1032.256	-1906
1032.321	-2135
1032.386	-1787
1032.452	-1201
1032.517	-1294
1032.582	-1975
1032.647	-1726
1032.713	-2094
1032.778	-1431
1032.843	-1954
1032.908	-1835
1032.974	-1731
1033.039	-2325
1033.104	-2030
1033.169	-1586
1033.234	-2494
1033.299	-1603
1033.364	-2746
1033.429	-1473
1033.494	-1693
1033.559	-1550
1033.624	-1863
1033.688	-1891
1033.753	-2463
1033.818	-1722
1033.883	-2261
1033.948	-2254
1034.013	-2980
1034.077	-2234
1034.142	-1984
1034.207	-2063
1034.271	-1608
1034.336	-1014
1034.400	-2464
1034.465	-1508
1034.530	-1711
1034.594	-1952
1034.658	-2755
1034.723	-1716
1034.787	-2168
1034.852	-1992
1034.916	-2658
1034.981	-2313
1035.045	-2082
1035.109	-1547
1035.173	-2069
1035.238	-1876
1035.302	-1654
1035.366	-1578
1035.430	-2464
1035.495	-1338
1035.559	-1344
1035.623	-2508
1035.687	-1978
1035.751	-1585
1035.815	-2319
1035.879	-1969
1035.943	-1615
1036.007	-1347
1036.071	-2287
1036.135	-2068
1036.198	-2036
1036.262	-1692
1036.326	-1684
1036.390	-1670
1036.454	-1682
1036.517	-2156
1036.581	-1778
1036.645	-1929
1036.709	-1957
1036.772	-1774
1036.836	-2124
1036.900	-1873
1036.963	-2230
1037.026	-2247
1037.090	-2016
1037.154	-1322
1037.217	-1777
1037.280	-1932
1037.344	-2142
1037.407	-1769
1037.471	-966
1037.534	-1590
1037.597	-2721
1037.661	-1386
1037.724	-1926
1037.787	-1509
1037.850	-1986
1037.913	-2059
1037.977	-1784
1038.040	-2788
1038.103	-2371
1038.166	-1749
1038.229	-1945
1038.292	-2059
1038.355	-1502
1038.418	-2258
1038.481	-1641
1038.544	-1957
1038.607	-1630
1038.670	-1613
1038.732	-1844
1038.795	-2079
1038.858	-2180
1038.921	-2029
1038.984	-1494
1039.046	-1533
1039.109	-1816
1039.172	-1705
1039.234	-2048
1039.297	-1400
1039.360	-1271
1039.422	-1139
1039.485	-2832
1039.547	-1862
1039.610	-2639
1039.672	-1977
1039.734	-1977
1039.797	-1428
1039.859	-1196
1039.922	-1818
1039.984	-2264
1040.046	-1857
1040.109	-2199
1040.171	-1952
1040.233	-2601
1040.295	-1478
1040.358	-2031
1040.420	-2422
1040.482	-1701
1040.544	-2342
1040.606	-2337
1040.668	-1853
1040.730	-2142
1040.792	-1984
1040.854	-2462
1040.916	-1524
1040.978	-2276
1041.040	-1264
1041.102	-1267
1041.164	-1804
1041.225	-1875
1041.287	-960
1041.349	-2338
1041.411	-1566
1041.472	-1347
1041.534	-2295
1041.596	-2216
1041.657	-1980
1041.719	-3203
1041.781	-1698
1041.842	-1647
1041.904	-1970
1041.965	-2505
1042.027	-969
1042.088	-2366
1042.150	-1756
1042.211	-2233
1042.272	-2231
1042.334	-1630
1042.395	-2027
1042.456	-2255
1042.518	-1689
1042.579	-1103
1042.640	-2234
1042.701	-1862
1042.763	-1946
1042.824	-2315
1042.885	-1722
1042.946	-2244
1043.007	-1908
1043.068	-2352
1043.129	-1247
1043.190	-2465
1043.251	-2298
1043.312	-2377
1043.373	-1343
1043.434	-2092
1043.495	-2194
1043.556	-1464
1043.616	-1406
1043.677	-2014
1043.738	-2533
1043.799	-2098
1043.859	-520
1043.920	-1612
1043.981	-1520
1044.041	-1165
1044.102	-2304
1044.162	-2045
1044.223	-1543
1044.284	-1178
1044.344	-1852
1044.405	-2514
1044.465	-1380
1044.525	-1721
1044.586	-1641
1044.646	-2190
1044.707	-1217
1044.767	-1554
1044.827	-1944
1044.887	-1083
1044.948	-1587
1045.008	-1914
1045.068	-2104
1045.128	-2226
1045.188	-1051
1045.249	-1243
1045.309	-1695
1045.369	-2069
1045.429	-1449
1045.489	-1325
1045.549	-1383
1045.609	-2486
1045.669	-2386
1045.729	-1453
1045.789	-1849
1045.848	-2345
1045.908	-1454
1045.968	-1152
1046.028	-1421
1046.088	-1317
1046.147	-1233
1046.207	-1854
1046.267	-1268
1046.326	-1492
1046.386	-846
1046.446	-2071
1046.505	-1260
1046.565	-435
1046.624	-844
1046.684	-1340
1046.743	-361
1046.803	-1120
1046.862	253
1046.922	0
