'Start Wavelength	183.907
'End Wavelength	1046.922
'Gate Delay	5.000
'Gate Width (ms)	1.050
'Laser Output Level	0.000
'X Position	0.000
'Y Position	0.000
'Z Position	0.000
'Grid Point Number	1.000
'Shot Number	100.000
183.907	24.000
183.977	321.000
184.047	188
184.116	918
184.186	-327
184.256	587
184.325	-327
184.395	-670
184.465	470
184.534	-380
184.604	-395
184.674	396
184.743	-547
184.813	543
184.883	144
184.952	-37
185.022	3
185.092	36
185.161	103
185.231	136
185.301	359
185.370	719
185.440	18
185.509	-335
185.579	230
185.649	915
185.718	555
185.788	718
185.857	-10
185.927	-472
185.996	-440
186.066	74
186.136	-190
186.205	145
186.275	-274
186.344	287
186.414	679
186.483	-287
186.553	729
186.622	997
186.692	-17
186.761	-262
186.831	32
186.900	-679
186.970	227
187.039	159
187.109	1254
187.178	444
187.248	-181
187.317	819
187.387	-66
187.456	452
187.526	725
187.595	417
187.664	-51
187.734	32
187.803	-1
187.873	-6
187.942	-163
188.012	540
188.081	-309
188.150	245
188.220	335
188.289	688
188.358	406
188.428	573
188.497	158
188.567	1394
188.636	606
188.705	-154
188.775	-229
188.844	174
188.913	555
188.983	338
189.052	313
189.121	202
189.191	-144
189.260	956
189.329	549
189.399	-196
189.468	-168
189.537	-38
189.606	-78
189.676	237
189.745	664
189.814	-502
189.883	-34
189.953	579
190.022	379
190.091	833
190.161	952
190.230	1095
190.299	26
190.368	371
190.437	-208
190.507	330
190.576	-42
190.645	184
190.714	255
190.783	-400
190.853	560
190.922	1683
190.991	205
191.060	-398
191.129	-431
191.198	190
191.268	-275
191.337	247
191.406	54
191.475	678
191.544	316
191.613	192
191.682	-282
191.752	-43
191.821	-516
191.890	56
191.959	10
192.028	885
192.097	-336
192.166	515
192.235	-80
192.304	347
192.373	589
192.442	-563
192.511	394
192.580	721
192.650	-497
192.719	224
192.788	324
192.857	219
192.926	209
192.995	192
193.064	-580
193.133	349
193.202	-437
193.271	994
193.340	693
193.409	501
193.478	786
193.547	80
193.615	749
193.684	826
193.753	-240
193.822	764
193.891	-317
193.960	644
194.029	-570
194.098	773
194.167	-39
194.236	669
194.305	18
194.374	533
194.443	-132
194.512	-107
194.580	638
194.649	1135
194.718	960
194.787	-251
194.856	161
194.925	119
194.994	-339
195.062	-46
195.131	231
195.200	357
195.269	759
195.338	1288
195.407	1018
195.475	679
195.544	1003
195.613	-191
195.682	792
195.751	1006
195.819	370
195.888	563
195.957	962
196.026	346
196.094	828
196.163	840
196.232	598
196.301	418
196.369	683
196.438	1094
196.507	241
196.576	488
196.644	469
196.713	-171
196.782	-464
196.850	-78
196.919	10
196.988	687
197.056	410
197.125	272
197.194	548
197.262	440
197.331	-234
197.400	300
197.468	501
197.537	-297
197.606	216
197.674	981
197.743	2045
197.812	577
197.880	1154
197.949	1185
198.017	1082
198.086	1158
198.155	-204
198.223	827
198.292	1745
198.360	250
198.429	-132
198.497	238
198.566	1519
198.635	2333
198.703	874
198.772	797
198.840	1445
198.909	2247
198.977	790
199.046	550
199.114	613
199.183	531
199.251	405
199.320	278
199.388	262
199.457	951
199.525	86
199.594	317
199.662	-64
199.731	376
199.799	632
199.867	663
199.936	-76
200.004	686
200.073	312
200.141	716
200.210	305
200.278	671
200.346	483
200.415	496
200.483	-252
200.552	76
200.620	377
200.688	514
200.757	0
200.825	396
200.893	612
200.962	427
201.030	297
201.098	634
201.167	878
201.235	623
201.303	194
201.372	284
201.440	407
201.508	1091
201.577	542
201.645	1073
201.713	354
201.781	-108
201.850	774
201.918	960
201.986	-428
202.055	836
202.123	-70
202.191	1
202.259	227
202.327	340
202.396	611
202.464	0
202.532	998
202.600	4325
202.669	2250
202.737	1337
202.805	349
202.873	1103
202.941	809
203.009	602
203.078	143
203.146	399
203.214	-306
203.282	97
203.350	986
203.418	-61
203.487	749
203.555	205
203.623	849
203.691	754
203.759	-146
203.827	811
203.895	465
203.963	190
204.031	363
204.099	-297
204.168	397
204.236	1250
204.304	35
204.372	1586
204.440	151
204.508	-138
204.576	-41
204.644	715
204.712	-347
204.780	665
204.848	20
204.916	212
204.984	667
205.052	834
205.120	403
205.188	856
205.256	-20
205.324	839
205.392	-684
205.460	867
205.528	-105
205.596	959
205.664	132
205.732	172
205.799	1579
205.867	3214
205.935	-148
206.003	874
206.071	-184
206.139	-255
206.207	382
206.275	357
206.343	486
206.411	462
206.478	53
206.546	77
206.614	-30
206.682	696
206.750	-121
206.818	219
206.885	873
206.953	-582
207.021	1273
207.089	986
207.157	360
207.225	344
207.292	-375
207.360	-117
207.428	155
207.496	-70
207.563	-323
207.631	468
207.699	-331
207.767	586
207.834	252
207.902	645
207.970	-57
208.038	286
208.105	-105
208.173	220
208.241	1091
208.309	610
208.376	28
208.444	2120
208.512	929
208.579	128
208.647	649
208.715	464
208.782	526
208.850	810
208.918	134
208.985	764
209.053	653
209.120	604
209.188	120
209.256	862
209.323	189
209.391	939
209.459	2046
209.526	297
209.594	-617
209.661	1186
209.729	302
209.796	8
209.864	679
209.932	-62
209.999	1282
210.067	1077
210.134	802
210.202	420
210.269	1485
210.337	1212
210.404	-41
210.472	751
210.539	966
210.607	385
210.674	677
210.742	1662
210.809	624
210.877	776
210.944	941
211.012	805
211.079	2089
211.146	-265
211.214	494
211.281	1152
211.349	1810
211.416	977
211.484	1731
211.551	453
211.618	1555
211.686	1377
211.753	917
211.821	831
211.888	344
211.955	1623
212.023	149
212.090	433
212.157	1047
212.225	1067
212.292	2108
212.359	3552
212.427	10624
212.494	5168
212.561	2098
212.629	1313
212.696	598
212.763	1120
212.831	506
212.898	1500
212.965	692
213.032	1372
213.100	1509
213.167	1373
213.234	1423
213.301	1347
213.369	1132
213.436	489
213.503	785
213.570	1598
213.638	1625
213.705	1053
213.772	406
213.839	1512
213.906	1458
213.973	1551
214.041	1681
214.108	972
214.175	71
214.242	1343
214.309	874
214.376	853
214.444	903
214.511	1641
214.578	578
214.645	1574
214.712	724
214.779	1501
214.846	282
214.913	1667
214.980	767
215.048	1697
215.115	1883
215.182	1613
215.249	1791
215.316	404
215.383	1380
215.450	1866
215.517	746
215.584	859
215.651	901
215.718	1265
215.785	1621
215.852	1505
215.919	739
215.986	2230
216.053	532
216.120	14
216.187	1000
216.254	1368
216.321	929
216.388	1292
216.455	1913
216.522	2728
216.589	2059
216.656	3367
216.722	3011
216.789	2014
216.856	1498
216.923	2026
216.990	1097
217.057	1566
217.124	1368
217.191	1922
217.258	1783
217.324	2505
217.391	2567
217.458	1850
217.525	1048
217.592	850
217.659	263
217.725	1983
217.792	2110
217.859	3053
217.926	1566
217.993	1440
218.059	1380
218.126	1287
218.193	1784
218.260	1270
218.327	734
218.393	732
218.460	44
218.527	59
218.594	853
218.660	2340
218.727	3222
218.794	846
218.860	1386
218.927	322
218.994	758
219.061	1124
219.127	1336
219.194	1866
219.261	1133
219.327	843
219.394	1336
219.461	-617
219.527	430
219.594	1440
219.661	925
219.727	-387
219.794	854
219.860	213
219.927	1015
219.994	3298
220.060	3646
220.127	2357
220.193	1420
220.260	894
220.326	1355
220.393	1947
220.460	4417
220.526	2573
220.593	275
220.659	2315
220.726	1258
220.792	5922
220.859	3585
220.925	3937
220.992	6744
221.058	7515
221.125	7005
221.191	5812
221.258	1863
221.324	1279
221.391	1753
221.457	1425
221.524	1670
221.590	2587
221.657	7027
221.723	4251
221.789	4605
221.856	4484
221.922	1482
221.989	2147
222.055	1211
222.121	1035
222.188	2918
222.254	1014
222.321	1077
222.387	1040
222.453	1205
222.520	415
222.586	979
222.652	577
222.719	663
222.785	2475
222.851	914
222.918	239
222.984	1732
223.050	1429
223.116	-389
223.183	1698
223.249	-147
223.315	394
223.382	-24
223.448	615
223.514	562
223.580	698
223.647	296
223.713	50
223.779	433
223.845	397
223.911	570
223.978	-17
224.044	1332
224.110	393
224.176	991
224.242	901
224.309	2
224.375	957
224.441	590
224.507	892
224.573	-281
224.639	959
224.705	-81
224.772	104
224.838	403
224.904	1881
224.970	979
225.036	1581
225.102	344
225.168	1107
225.234	622
225.300	128
225.366	1023
225.432	1339
225.499	206
225.565	1106
225.631	613
225.697	1102
225.763	662
225.829	659
225.895	1172
225.961	2921
226.027	1953
226.093	1178
226.159	2180
226.225	2080
226.291	5119
226.357	9017
226.423	4216
226.489	2733
226.554	1880
226.620	1143
226.686	2172
226.752	3501
226.818	3751
226.884	12556
226.950	12027
227.016	3442
227.082	2999
227.148	1991
227.214	1503
227.279	1817
227.345	773
227.411	1880
227.477	1293
227.543	3549
227.609	4076
227.674	1676
227.740	-14
227.806	1672
227.872	681
227.938	661
228.003	2244
228.069	558
228.135	484
228.201	1230
228.267	489
228.332	1625
228.398	1211
228.464	2066
228.530	-4
228.595	299
228.661	358
228.727	1819
228.792	2445
228.858	596
228.924	71
228.990	2485
229.055	417
229.121	2002
229.187	1356
229.252	1647
229.318	708
229.384	2028
229.449	1295
229.515	-530
229.581	-410
229.646	2161
229.712	1196
229.777	2994
229.843	3020
229.909	2676
229.974	2568
230.040	2847
230.105	1171
230.171	800
230.236	2003
230.302	4415
230.368	2549
230.433	1259
230.499	962
230.564	1820
230.630	-10
230.695	985
230.761	1787
230.826	-469
230.892	2559
230.957	259
231.023	379
231.088	1635
231.154	897
231.219	1955
231.284	1588
231.350	2365
231.415	441
231.481	1554
231.546	602
231.612	1491
231.677	411
231.742	135
231.808	2014
231.873	925
231.939	-792
232.004	3276
232.069	3466
232.135	1154
232.200	720
232.265	1652
232.331	285
232.396	655
232.461	-153
232.527	1433
232.592	453
232.657	1139
232.723	2852
232.788	2223
232.853	1163
232.918	797
232.984	292
233.049	333
233.114	1824
233.179	2000
233.245	4374
233.310	5011
233.375	812
233.440	1329
233.506	722
233.571	-127
233.636	667
233.701	1603
233.766	2838
233.832	4580
233.897	1592
233.962	831
234.027	2491
234.092	1799
234.157	1184
234.222	1261
234.288	1895
234.353	9864
234.418	9736
234.483	5889
234.548	3144
234.613	1735
234.678	1996
234.743	3242
234.808	10897
234.873	6350
234.938	2770
235.004	1732
235.069	1377
235.134	1774
235.199	1830
235.264	1974
235.329	380
235.394	2298
235.459	2950
235.524	1992
235.589	1112
235.654	1109
235.719	547
235.784	1941
235.849	2000
235.913	6389
235.978	5955
236.043	7468
236.108	2444
236.173	2501
236.238	3353
236.303	1255
236.368	999
236.433	3576
236.498	6780
236.563	3771
236.627	4625
236.692	16968
236.757	12447
236.822	5643
236.887	4749
236.952	3989
237.017	1119
237.081	4566
237.146	2908
237.211	6336
237.276	14918
237.341	30917
237.405	13835
237.470	5817
237.535	5848
237.600	3371
237.664	2092
237.729	1804
237.794	1979
237.859	5144
237.923	4760
237.988	2215
238.053	5000
238.118	5599
238.182	13091
238.247	12829
238.312	5016
238.376	4281
238.441	2287
238.506	3936
238.570	740
238.635	2936
238.700	1727
238.764	1444
238.829	5436
238.893	7584
238.958	3038
239.023	2947
239.087	1190
239.152	2645
239.216	461
239.281	1463
239.346	937
239.410	1293
239.475	1845
239.539	13354
239.604	9909
239.668	3550
239.733	2098
239.797	2535
239.862	5553
239.926	11637
239.991	4780
240.055	2468
240.120	1710
240.184	2565
240.249	729
240.313	1440
240.378	2387
240.442	7618
240.507	13441
240.571	4442
240.635	6253
240.700	9424
240.764	1969
240.829	1561
240.893	529
240.957	2108
241.022	7249
241.086	14946
241.151	6127
241.215	1509
241.279	3218
241.344	7442
241.408	3574
241.472	1340
241.537	3044
241.601	2576
241.665	780
241.730	1167
241.794	2447
241.858	978
241.922	1680
241.987	2226
242.051	1306
242.115	756
242.179	1338
242.244	1191
242.308	1724
242.372	1832
242.436	1987
242.501	2494
242.565	830
242.629	781
242.693	2233
242.757	1064
242.822	1680
242.886	1241
242.950	2515
243.014	2227
243.078	2045
243.142	1928
243.206	1166
243.271	2569
243.335	1136
243.399	3348
243.463	10927
243.527	34585
243.591	10905
243.655	4102
243.719	1907
243.783	2949
243.847	4321
243.911	6837
243.975	6627
244.040	4793
244.104	3670
244.168	1677
244.232	3198
244.296	4245
244.360	5300
244.424	3430
244.488	2705
244.552	2704
244.615	740
244.679	2363
244.743	1891
244.807	1883
244.871	2045
244.935	1712
244.999	866
245.063	1670
245.127	3001
245.191	3541
245.255	3540
245.319	3521
245.383	1923
245.446	4077
245.510	1360
245.574	2221
245.638	2246
245.702	1714
245.766	6440
245.829	5537
245.893	2345
245.957	2275
246.021	3159
246.085	1773
246.149	3256
246.212	9274
246.276	12773
246.340	5064
246.404	3796
246.467	4610
246.531	5282
246.595	4392
246.659	3889
246.722	2003
246.786	3877
246.850	4478
246.913	5722
246.977	2321
247.041	2520
247.104	2687
247.168	2924
247.232	8122
247.295	17178
247.359	8616
247.423	3799
247.486	7821
247.550	5382
247.614	3070
247.677	4257
247.741	2403
247.804	2105
247.868	3420
247.932	5885
247.995	16517
248.059	6094
248.122	2602
248.186	4722
248.249	6796
248.313	25650
248.376	28069
248.440	17015
248.503	5452
248.567	6938
248.630	7025
248.694	10122
248.757	12727
248.821	27980
248.884	16796
248.948	13535
249.011	21422
249.075	33359
249.138	28052
249.202	11120
249.265	7476
249.328	9659
249.392	6235
249.455	5261
249.519	4750
249.582	5386
249.645	8945
249.709	6661
249.772	4676
249.835	4608
249.899	5771
249.962	4248
250.025	4007
250.089	9653
250.152	14730
250.215	6832
250.279	5235
250.342	5859
250.405	5171
250.468	4232
250.532	6370
250.595	9593
250.658	30158
250.721	54458
250.785	18386
250.848	10558
250.911	6626
250.974	6392
251.038	8129
251.101	17254
251.164	10039
251.227	9430
251.290	7411
251.354	12285
251.417	43904
251.480	45113
251.543	26197
251.606	83292
251.669	60827
251.732	20554
251.795	22854
251.859	24338
251.922	52926
251.985	31131
252.048	12159
252.111	8749
252.174	7510
252.237	14615
252.300	34025
252.363	33337
252.426	71910
252.489	29123
252.552	15762
252.615	10238
252.678	10976
252.741	24305
252.804	29327
252.867	71133
252.930	43815
252.993	22519
253.056	14085
253.119	9658
253.182	7479
253.245	11388
253.308	9957
253.371	9286
253.434	9090
253.497	8422
253.559	17438
253.622	11605
253.685	13351
253.748	14512
253.811	6836
253.874	9689
253.937	9922
254.000	5395
254.062	10760
254.125	16980
254.188	14172
254.251	12494
254.314	5591
254.376	10795
254.439	12903
254.502	10668
254.565	10247
254.628	19150
254.690	11526
254.753	7136
254.816	5637
254.878	5816
254.941	12465
255.004	13468
255.067	5458
255.129	5667
255.192	3336
255.255	2159
255.317	4309
255.380	3186
255.443	2504
255.505	2489
255.568	1938
255.631	1709
255.693	2686
255.756	1596
255.819	2672
255.881	1538
255.944	1869
256.006	1874
256.069	1827
256.132	1630
256.194	4060
256.257	12335
256.319	9548
256.382	7890
256.444	4047
256.507	3291
256.569	2051
256.632	2704
256.694	4113
256.757	9343
256.819	23870
256.882	9181
256.944	4211
257.007	4188
257.069	4416
257.132	3289
257.194	3100
257.257	2133
257.319	2576
257.381	1767
257.444	7294
257.506	27642
257.569	33131
257.631	25401
257.693	12929
257.756	5603
257.818	5763
257.880	3372
257.943	2830
258.005	2416
258.067	2091
258.130	2127
258.192	3435
258.254	8411
258.317	5233
258.379	3757
258.441	9680
258.503	10589
258.566	13909
258.628	20880
258.690	4866
258.753	4842
258.815	7004
258.877	3621
258.939	2913
259.001	2120
259.064	1874
259.126	3107
259.188	5709
259.250	3406
259.312	4328
259.375	15640
259.437	9292
259.499	3130
259.561	2698
259.623	2623
259.685	2543
259.747	3435
259.809	13420
259.872	26485
259.934	34673
259.996	30085
260.058	7556
260.120	3236
260.182	3369
260.244	2372
260.306	1718
260.368	2227
260.430	2236
260.492	3485
260.554	10792
260.616	11221
260.678	18310
260.740	29006
260.802	6597
260.864	5155
260.926	2459
260.988	4216
261.050	3004
261.112	5218
261.174	21450
261.236	21397
261.298	6239
261.359	11462
261.421	18912
261.483	4060
261.545	4261
261.607	2043
261.669	3455
261.731	7363
261.793	18491
261.854	6692
261.916	4496
261.978	2158
262.040	4020
262.102	4083
262.164	6485
262.225	5942
262.287	2580
262.349	7682
262.411	6478
262.472	3402
262.534	6755
262.596	17174
262.658	6032
262.719	2305
262.781	4832
262.843	16836
262.904	7296
262.966	4870
263.028	5278
263.090	25839
263.151	65999
263.213	20206
263.275	9000
263.336	5300
263.398	4529
263.459	1910
263.521	2682
263.583	7179
263.644	5008
263.706	1496
263.767	1397
263.829	1301
263.891	414
263.952	685
264.014	815
264.075	809
264.137	3183
264.198	2529
264.260	1110
264.321	843
264.383	4573
264.444	7358
264.506	1732
264.567	1709
264.629	2356
264.690	2280
264.752	2246
264.813	1657
264.875	585
264.936	2121
264.998	1271
265.059	813
265.120	971
265.182	1602
265.243	10457
265.305	10461
265.366	2809
265.427	1620
265.489	2047
265.550	-41
265.611	1644
265.673	1519
265.734	1101
265.795	969
265.857	580
265.918	677
265.979	2925
266.040	18585
266.102	15500
266.163	4282
266.224	3080
266.286	1934
266.347	1401
266.408	1379
266.469	2673
266.530	1278
266.592	907
266.653	3825
266.714	8080
266.775	2052
266.836	1571
266.898	177
266.959	2041
267.020	1233
267.081	2957
267.142	1178
267.203	1234
267.264	1005
267.326	2859
267.387	1100
267.448	720
267.509	1518
267.570	1998
267.631	619
267.692	710
267.753	2154
267.814	386
267.875	3820
267.936	10539
267.997	3321
268.058	2441
268.119	1746
268.180	1807
268.241	814
268.302	1010
268.363	433
268.424	1323
268.485	1656
268.546	1084
268.607	155
268.668	970
268.729	303
268.790	1108
268.851	1402
268.912	4961
268.972	7010
269.033	2661
269.094	609
269.155	742
269.216	1323
269.277	1162
269.338	916
269.398	584
269.459	1172
269.520	3913
269.581	3542
269.642	4691
269.702	2227
269.763	2260
269.824	963
269.885	2070
269.945	4339
270.006	2071
270.067	670
270.128	904
270.188	705
270.249	1767
270.310	699
270.370	1442
270.431	989
270.492	1167
270.553	1295
270.613	4146
270.674	10267
270.734	3812
270.795	2355
270.856	3030
270.916	2595
270.977	1334
271.038	2253
271.098	2991
271.159	4165
271.219	4482
271.280	1974
271.340	1599
271.401	2835
271.462	9198
271.522	4959
271.583	2148
271.643	1884
271.704	2162
271.764	2771
271.825	6465
271.885	23464
271.946	34560
272.006	10853
272.066	14264
272.127	26760
272.187	7754
272.248	4450
272.308	4962
272.369	19784
272.429	11751
272.489	7666
272.550	7796
272.610	7014
272.671	6771
272.731	6156
272.791	11363
272.852	5057
272.912	4936
272.972	2001
273.033	2436
273.093	5324
273.153	5268
273.214	2385
273.274	4370
273.334	12309
273.394	30995
273.455	12503
273.515	11186
273.575	24871
273.635	12035
273.696	15607
273.756	31986
273.816	12641
273.876	8275
273.936	16246
273.997	30326
274.057	8071
274.117	5792
274.177	8239
274.237	32013
274.297	32887
274.358	24806
274.418	23685
274.478	18538
274.538	7702
274.598	7363
274.658	25594
274.718	33873
274.778	13002
274.838	6582
274.898	13257
274.958	46159
275.018	33366
275.078	19572
275.138	8719
275.198	4815
275.258	2801
275.318	5334
275.378	8553
275.438	8813
275.498	6122
275.558	18645
275.618	41474
275.678	24170
275.738	11461
275.798	8514
275.858	4045
275.918	3053
275.978	3315
276.038	3772
276.098	2560
276.157	6449
276.217	19241
276.277	8990
276.337	5609
276.397	4374
276.457	3913
276.517	3342
276.576	3656
276.636	2988
276.696	4941
276.756	11659
276.815	9677
276.875	4527
276.935	5518
276.995	4961
277.055	3603
277.114	2821
277.174	4830
277.234	16505
277.293	7410
277.353	4692
277.413	2818
277.472	3791
277.532	3812
277.592	6107
277.651	19307
277.711	40640
277.771	14386
277.830	41148
277.890	37033
277.950	24812
278.009	71628
278.069	29594
278.128	26522
278.188	43071
278.248	17402
278.307	42011
278.367	29317
278.426	8790
278.486	5392
278.545	4345
278.605	4334
278.664	3963
278.724	4942
278.783	12274
278.843	33787
278.902	11736
278.962	7071
279.021	8679
279.081	14902
279.140	14754
279.199	7716
279.259	8289
279.318	8265
279.378	11862
279.437	21649
279.496	69968
279.556	198635
279.615	180434
279.675	52839
279.734	28763
279.793	39330
279.853	59941
279.912	22651
279.971	13500
280.031	11396
280.090	19181
280.149	35913
280.208	33331
280.268	128722
280.327	153033
280.386	40727
280.445	26196
280.505	21246
280.564	11692
280.623	9166
280.682	11623
280.742	17069
280.801	7198
280.860	4828
280.919	5110
280.978	4480
281.037	4359
281.097	3301
281.156	5411
281.215	3349
281.274	5047
281.333	20052
281.392	18673
281.451	4932
281.510	3526
281.569	4336
281.628	3333
281.688	2915
281.747	3719
281.806	3108
281.865	2480
281.924	2049
281.983	3064
282.042	2410
282.101	1623
282.160	2600
282.219	2328
282.278	3087
282.337	9968
282.396	8452
282.454	3796
282.513	4621
282.572	15787
282.631	10660
282.690	2785
282.749	2144
282.808	3677
282.867	2432
282.926	4440
282.985	2956
283.043	2630
283.102	2722
283.161	3410
283.220	8143
283.279	21039
283.338	6957
283.396	3477
283.455	2963
283.514	4311
283.573	6629
283.631	4797
283.690	3237
283.749	3458
283.808	6848
283.866	8876
283.925	3161
283.984	4569
284.043	5016
284.101	5636
284.160	3928
284.219	4927
284.277	4928
284.336	7945
284.395	23427
284.453	22895
284.512	7802
284.570	9886
284.629	9286
284.688	9135
284.746	10423
284.805	12167
284.863	16959
284.922	20029
284.981	21727
285.039	30536
285.098	53702
285.156	125390
285.215	236434
285.273	233222
285.332	146563
285.390	74602
285.449	44850
285.507	32064
285.566	23057
285.624	17386
285.683	13291
285.741	9668
285.799	9124
285.858	8102
285.916	6990
285.975	5448
286.033	3912
286.091	4562
286.150	3709
286.208	3833
286.267	5065
286.325	5020
286.383	6996
286.442	6056
286.500	3549
286.558	3825
286.616	2616
286.675	4983
286.733	4893
286.791	3334
286.850	4826
286.908	5063
286.966	9114
287.024	4796
287.083	2923
287.141	2732
287.199	3463
287.257	5479
287.315	3725
287.374	3721
287.432	9448
287.490	6856
287.548	3724
287.606	2680
287.664	3308
287.723	4338
287.781	5402
287.839	3608
287.897	4013
287.955	5071
288.013	7977
288.071	20841
288.129	71158
288.187	220579
288.245	103783
288.303	30161
288.361	16729
288.419	12697
288.477	8204
288.535	6549
288.593	4786
288.651	3215
288.709	2254
288.767	2588
288.825	2618
288.883	2147
288.941	2161
288.999	2607
289.057	1725
289.115	1377
289.173	2176
289.231	2442
289.289	1854
289.346	2577
289.404	2592
289.462	5035
289.520	5399
289.578	2316
289.636	895
289.694	469
289.751	1132
289.809	1623
289.867	1214
289.925	2244
289.983	3194
290.040	987
290.098	900
290.156	1620
290.214	3260
290.271	1362
290.329	1053
290.387	835
290.444	368
290.502	1064
290.560	594
290.617	896
290.675	1549
290.733	1112
290.790	1673
290.848	1405
290.906	1547
290.963	2613
291.021	1267
291.078	795
291.136	2748
291.194	6233
291.251	15834
291.309	5794
291.366	2047
291.424	1903
291.481	1424
291.539	2771
291.596	2758
291.654	602
291.711	873
291.769	988
291.826	5522
291.884	3715
291.941	1136
291.999	2205
292.056	1132
292.114	2479
292.171	998
292.228	1657
292.286	2433
292.343	5751
292.401	6860
292.458	4473
292.515	2626
292.573	4005
292.630	3179
292.687	3512
292.745	2439
292.802	3437
292.859	7534
292.917	21413
292.974	15059
293.031	4775
293.089	2241
293.146	1733
293.203	1669
293.260	1316
293.318	3508
293.375	2814
293.432	1708
293.489	1938
293.546	1803
293.604	4820
293.661	15050
293.718	39505
293.775	19442
293.832	9560
293.889	7827
293.947	9491
294.004	6091
294.061	4951
294.118	8421
294.175	16865
294.232	14449
294.289	6886
294.346	3255
294.403	2791
294.460	4265
294.517	3480
294.574	2830
294.631	2234
294.688	3099
294.745	9303
294.802	34800
294.859	31201
294.916	14009
294.973	11103
295.030	7579
295.087	6597
295.144	3609
295.201	3248
295.258	2722
295.315	5287
295.372	14909
295.429	34915
295.486	14837
295.542	6446
295.599	7915
295.656	13349
295.713	14212
295.770	29298
295.827	12362
295.883	5826
295.940	4160
295.997	7608
296.054	7559
296.111	4063
296.167	3501
296.224	1790
296.281	1937
296.338	1965
296.394	2917
296.451	4060
296.508	11486
296.564	25777
296.621	15394
296.678	27150
296.734	45207
296.791	17304
296.848	8123
296.904	8775
296.961	19009
297.018	34384
297.074	28266
297.131	10713
297.187	7419
297.244	11225
297.301	32388
297.357	66770
297.414	27086
297.470	9784
297.527	5597
297.583	4845
297.640	4078
297.696	3926
297.753	2626
297.809	3121
297.866	1323
297.922	1909
297.979	1593
298.035	2801
298.092	5898
298.148	18821
298.204	21850
298.261	9840
298.317	12864
298.374	37949
298.430	27098
298.486	12726
298.543	9462
298.599	7324
298.656	8746
298.712	13011
298.768	29304
298.824	26270
298.881	8841
298.937	4978
298.993	3748
299.050	4402
299.106	4460
299.162	3978
299.218	3673
299.275	3445
299.331	3864
299.387	9459
299.443	32726
299.500	41259
299.556	16870
299.612	7882
299.668	6405
299.724	6955
299.780	8916
299.837	6557
299.893	9167
299.949	29334
300.005	40449
300.061	30159
300.117	49317
300.173	28721
300.229	12215
300.285	13680
300.341	15417
300.397	9191
300.453	5516
300.510	4506
300.566	4725
300.622	6379
300.678	15310
300.734	32066
300.790	32880
300.845	41991
300.901	25991
300.957	30996
301.013	27839
301.069	11197
301.125	7337
301.181	8091
301.237	6199
301.293	4221
301.349	3420
301.405	3355
301.461	3159
301.516	5860
301.572	5175
301.628	8405
301.684	8789
301.740	12200
301.796	23925
301.851	17092
301.907	23161
301.963	27174
302.019	38894
302.074	101850
302.130	109388
302.186	54121
302.242	21161
302.297	13925
302.353	12234
302.409	22481
302.464	23293
302.520	17831
302.576	36964
302.631	49189
302.687	27945
302.743	12353
302.798	6097
302.854	4883
302.910	4658
302.965	5924
303.021	10927
303.076	11176
303.132	13404
303.187	17510
303.243	9499
303.299	4670
303.354	2861
303.410	3456
303.465	2352
303.521	2826
303.576	3740
303.632	5687
303.687	11571
303.743	32826
303.798	32818
303.853	14043
303.909	6125
303.964	5498
304.020	7867
304.075	13675
304.130	11176
304.186	20006
304.241	21573
304.297	17557
304.352	9435
304.358	8954
304.407	5055
304.449	4986
304.463	4968
304.518	5747
304.539	5292
304.573	4563
304.629	5494
304.630	5572
304.684	9418
304.720	18352
304.739	22824
304.794	40205
304.811	35223
304.850	23064
304.902	10259
304.905	9446
304.960	5512
304.992	4829
305.015	4356
305.071	5193
305.083	5108
305.126	4750
305.173	3077
305.181	2811
305.236	2198
305.264	2598
305.292	2981
305.347	4087
305.354	4155
305.402	4659
305.445	5129
305.457	5263
305.512	6241
305.535	6512
305.567	6784
305.622	6574
305.626	6803
305.678	13051
305.716	27428
305.733	32457
305.788	45529
305.807	39718
305.843	29894
305.897	33165
305.898	33161
305.953	37272
305.988	25301
306.008	18786
306.063	9054
306.078	8180
306.118	6550
306.168	4497
306.173	4321
306.228	3535
306.259	3547
306.283	3557
306.338	2824
306.349	2881
306.393	3150
306.440	3858
306.448	3959
306.503	3706
306.530	3890
306.558	4814
306.613	9296
306.620	10229
306.668	18329
306.711	30654
306.723	32418
306.778	30252
306.801	23457
306.833	15506
306.888	6799
306.892	6524
306.943	4461
306.982	4271
306.997	4251
307.052	3762
307.072	3562
307.107	3312
307.162	3628
307.163	3640
307.217	5209
307.253	5997
307.272	6145
307.327	6827
307.343	6668
307.381	6372
307.434	6541
307.436	6743
307.491	12991
307.524	19476
307.546	21637
307.600	27423
307.614	25089
307.655	16243
307.704	8194
307.710	7702
307.765	6774
307.795	7441
307.819	8343
307.874	12382
307.885	12608
307.929	11298
307.975	8845
307.984	8911
308.038	11964
308.065	15287
308.093	26686
308.148	57665
308.156	65451
308.202	108702
308.246	146761
308.257	146766
308.312	83687
308.336	59281
308.366	43425
308.421	28823
308.426	27510
308.475	17256
308.517	11651
308.530	10426
308.585	8647
308.607	8251
308.639	8127
308.694	7990
308.697	8072
308.748	12484
308.787	17120
308.803	17150
308.857	14532
308.877	12914
308.912	11812
308.967	10986
308.967	11027
309.021	17370
309.058	22787
309.076	28258
309.130	50235
309.148	58877
309.185	103638
309.238	179076
309.239	179652
309.293	219184
309.328	210502
309.348	185835
309.402	89587
309.418	66208
309.457	43479
309.508	26505
309.511	26046
309.566	26969
309.598	29628
309.620	37813
309.674	64505
309.688	71748
309.729	68367
309.778	51742
309.783	50290
309.837	31612
309.868	23472
309.892	24968
309.946	32735
309.959	36013
310.001	46379
310.049	55845
310.055	54221
310.109	33352
310.139	20706
310.163	15952
310.218	9051
310.229	8042
310.272	6091
310.319	4912
310.326	4777
310.381	3907
310.409	3578
310.435	3406
310.489	3191
310.499	3173
310.543	3090
310.589	2939
310.598	2889
310.652	3079
310.679	2940
310.706	2785
310.760	2594
310.769	2565
310.814	2166
310.859	1953
310.868	2035
310.923	2374
310.948	2598
310.977	2733
311.031	2888
311.038	2941
311.085	3067
311.128	2890
311.139	2821
311.193	2744
311.218	2672
311.247	2688
311.301	2662
311.308	2662
311.356	2255
311.398	1871
311.410	1840
311.464	1790
311.488	1751
311.518	1794
311.572	1885
311.578	1906
311.626	3829
311.668	5555
311.680	5170
311.734	3256
311.758	2406
311.788	2317
311.842	2245
311.847	2241
311.896	2866
311.937	3446
311.950	3454
312.004	3526
312.027	3542
312.058	3215
312.112	2644
312.117	2591
312.165	2372
312.207	2196
312.297	2635
312.386	2261
312.476	2730
312.566	7256
312.656	3835
312.745	2893
312.835	1659
312.925	2785
313.015	2541
313.104	2581
313.194	2209
313.284	3159
313.374	3954
313.463	3231
313.553	2751
313.643	2465
313.732	1676
313.822	1774
313.912	2086
314.001	2723
314.091	2457
314.180	3423
314.270	3974
314.360	4021
314.449	4075
314.539	2117
314.628	1697
314.718	2193
314.808	2990
314.897	3112
314.987	3457
315.076	4544
315.166	4313
315.255	3828
315.345	4150
315.434	3898
315.524	3809
315.613	4517
315.703	8164
315.792	15825
315.881	60198
315.971	17789
316.060	9478
316.150	8977
316.239	8686
316.328	4004
316.418	3179
316.507	3369
316.597	4217
316.686	3246
316.775	3552
316.865	8279
316.954	2977
317.043	2122
317.133	3154
317.222	2807
317.311	2387
317.400	2223
317.490	5258
317.579	6261
317.668	5265
317.757	10398
317.847	26282
317.936	106145
318.025	33774
318.114	20015
318.203	9534
318.293	6142
318.382	8889
318.471	8111
318.560	8044
318.649	13887
318.738	4146
318.828	4560
318.917	4850
319.006	4628
319.095	10252
319.184	20508
319.273	16980
319.362	13043
319.451	4812
319.540	4674
319.629	10265
319.718	17732
319.807	5170
319.896	8468
319.985	26247
320.074	12953
320.163	3606
320.252	5432
320.341	3857
320.430	3519
320.519	7019
320.608	4570
320.697	3458
320.786	4012
320.875	5632
320.964	7424
321.053	12737
321.142	17504
321.230	18415
321.319	12275
321.408	28563
321.497	11640
321.586	12033
321.675	9970
321.764	9845
321.852	7045
321.941	15858
322.030	11365
322.119	9551
322.207	30057
322.296	14595
322.385	7467
322.474	11636
322.562	39649
322.651	18374
322.740	14061
322.829	18213
322.917	12604
323.006	10166
323.095	9180
323.183	5104
323.272	8944
323.361	13978
323.449	39583
323.538	12351
323.626	24839
323.715	15842
323.804	6378
323.892	22281
323.981	15470
324.069	5835
324.158	11289
324.246	11461
324.335	6312
324.424	12246
324.512	6376
324.601	13540
324.689	47549
324.778	99733
324.866	18584
324.954	4936
325.043	3873
325.131	5807
325.220	9298
325.308	9427
325.397	8275
325.485	5410
325.574	2971
325.662	2730
325.750	2999
325.839	2699
325.927	2200
326.015	3268
326.104	4436
326.192	5180
326.280	2099
326.369	2380
326.457	4559
326.545	8581
326.634	3675
326.722	2498
326.810	2402
326.898	2734
326.987	3470
327.075	8126
327.163	9526
327.251	10365
327.340	46242
327.428	77905
327.516	7598
327.604	3526
327.692	2819
327.781	2829
327.869	4228
327.957	4206
328.045	3831
328.133	2211
328.221	2501
328.309	2497
328.397	2751
328.485	3817
328.574	5467
328.662	19306
328.750	10131
328.838	2488
328.926	2184
329.014	1953
329.102	3390
329.190	6300
329.278	5680
329.366	1590
329.454	2075
329.542	1863
329.630	808
329.718	1594
329.806	3244
329.893	1318
329.981	2200
330.069	1726
330.157	6147
330.245	17527
330.333	8882
330.421	3023
330.509	6286
330.597	23476
330.684	14156
330.772	3838
330.860	3102
330.948	3333
331.036	2850
331.123	661
331.211	1785
331.299	1085
331.387	3007
331.475	5944
331.562	2532
331.650	1206
331.738	1975
331.825	2199
331.913	846
332.001	1033
332.089	1509
332.176	3840
332.264	10136
332.352	8137
332.439	2685
332.527	1811
332.614	2061
332.702	2583
332.790	3042
332.877	6018
332.965	12248
333.052	5246
333.140	6792
333.228	17024
333.315	3932
333.403	2852
333.490	6637
333.578	8958
333.665	24261
333.753	9202
333.840	3812
333.928	3155
334.015	6096
334.103	9465
334.190	27357
334.278	6829
334.365	4815
334.452	4824
334.540	2584
334.627	2999
334.715	3973
334.802	8962
334.889	41073
334.977	47049
335.064	9708
335.151	3021
335.239	2726
335.326	3559
335.413	12347
335.501	15499
335.588	3105
335.675	2234
335.762	1796
335.850	4701
335.937	5036
336.024	11524
336.111	45524
336.199	25194
336.286	6136
336.373	2812
336.460	2045
336.547	1743
336.635	3645
336.722	3053
336.809	1870
336.896	3899
336.983	9032
337.070	17925
337.157	25937
337.245	25228
337.332	18192
337.419	2332
337.506	1172
337.593	2114
337.680	3951
337.767	12391
337.854	4626
337.941	5685
338.028	9167
338.115	2945
338.202	3110
338.289	6499
338.376	25235
338.463	7348
338.550	6325
338.637	7805
338.724	4373
338.811	6819
338.898	2193
338.984	1848
339.071	1606
339.158	3851
339.245	11291
339.332	6252
339.419	4920
339.506	4695
339.593	1483
339.679	1636
339.766	1852
339.853	2121
339.940	8628
340.027	2178
340.113	2703
340.200	3659
340.287	2630
340.374	4157
340.460	7998
340.547	3345
340.634	6625
340.720	23831
340.807	14222
340.894	2818
340.980	2741
341.067	2355
341.154	3451
341.240	5475
341.327	12313
341.414	3883
341.500	4057
341.587	2677
341.674	2759
341.760	7253
341.847	8720
341.933	3229
342.020	956
342.106	1314
342.193	3456
342.279	5325
342.366	3739
342.452	7884
342.539	4542
342.625	9810
342.712	26325
342.798	10300
342.885	3342
342.971	1368
343.058	1301
343.144	1965
343.230	2690
343.317	2689
343.403	1814
343.490	1121
343.576	1680
343.662	2425
343.749	3857
343.835	4553
343.921	9339
344.008	54857
344.094	133417
344.180	27424
344.267	10381
344.353	33089
344.439	30959
344.525	11900
344.612	4297
344.698	3087
344.784	2424
344.870	2228
344.957	2913
345.043	4944
345.129	2772
345.215	7453
345.301	4069
345.387	3782
345.474	937
345.560	1206
345.646	1788
345.732	2010
345.818	3244
345.904	3203
345.990	2770
346.076	3108
346.162	4334
346.249	3123
346.335	1573
346.421	2830
346.507	14090
346.593	51833
346.679	10318
346.765	2700
346.851	3046
346.937	1063
347.023	2932
347.108	3325
347.194	1995
347.280	2155
347.366	5158
347.452	15210
347.538	62862
347.624	41744
347.710	30174
347.796	4078
347.882	2110
347.967	2107
348.053	1507
348.139	1674
348.225	1875
348.311	1817
348.397	1813
348.482	3301
348.568	3582
348.654	1359
348.740	3307
348.825	2428
348.911	6230
348.997	28528
349.083	56250
349.168	7444
349.254	3399
349.340	2398
349.425	1943
349.511	3125
349.597	3880
349.682	8979
349.768	32342
349.854	13930
349.939	2349
350.025	1341
350.110	1616
350.196	1407
350.282	767
350.367	921
350.453	2713
350.538	3079
350.624	3280
350.709	3267
350.795	1167
350.880	2256
350.966	3724
351.051	3239
351.137	2529
351.222	3157
351.308	9247
351.393	26475
351.479	6228
351.564	1761
351.649	2301
351.735	1879
351.820	2004
351.906	1720
351.991	3418
352.076	15637
352.162	25090
352.247	4588
352.332	3150
352.418	6699
352.503	8719
352.588	36839
352.673	29150
352.759	6611
352.844	3305
352.929	4189
353.014	5457
353.100	2846
353.185	6398
353.270	9853
353.355	9311
353.441	3009
353.526	3124
353.611	7930
353.696	9229
353.781	6586
353.866	1997
353.952	3492
354.037	6974
354.122	19215
354.207	17271
354.292	5312
354.377	2707
354.462	2044
354.547	2769
354.632	2763
354.717	3950
354.802	7284
354.887	3238
354.972	2266
355.057	1675
355.142	1275
355.227	3601
355.312	5538
355.397	11757
355.482	31122
355.567	14400
355.652	10313
355.737	11609
355.822	38176
355.907	30898
355.991	4945
356.076	2481
356.161	2423
356.246	1864
356.331	3062
356.416	9019
356.501	68991
356.585	71122
356.670	9118
356.755	6395
356.840	9271
356.924	43587
357.009	162894
357.094	56707
357.179	11098
357.263	7686
357.348	6530
357.433	6478
357.517	5863
357.602	4945
357.687	3467
357.771	7489
357.856	20299
357.941	12675
358.025	31560
358.110	147169
358.195	63496
358.279	9646
358.364	7002
358.448	25490
358.533	68492
358.617	47430
358.702	48464
358.787	16437
358.871	9312
358.956	7298
359.040	2426
359.125	1604
359.209	2994
359.294	9710
359.378	14828
359.462	7907
359.547	4432
359.631	1938
359.716	1209
359.800	1214
359.885	3470
359.969	2868
360.053	3508
360.138	2930
360.222	5212
360.306	8868
360.391	6927
360.475	12538
360.559	26779
360.644	25981
360.728	18351
360.812	36058
360.896	105190
360.981	34654
361.065	15105
361.149	5310
361.233	4509
361.318	3337
361.402	5491
361.486	4760
361.570	2031
361.654	4980
361.739	12715
361.823	64327
361.907	102977
361.991	16328
362.075	9061
362.159	17922
362.243	12050
362.327	10554
362.411	16476
362.495	7646
362.580	3830
362.664	3087
362.748	2508
362.832	3853
362.916	4862
363.000	23376
363.084	85100
363.168	121918
363.252	25116
363.336	7819
363.420	8953
363.503	19199
363.587	18992
363.671	5536
363.755	4710
363.839	8849
363.923	3947
364.007	9267
364.091	8739
364.175	6335
364.258	30527
364.342	27678
364.426	55159
364.510	30445
364.594	11291
364.677	16181
364.761	89146
364.845	60940
364.929	16416
365.013	12224
365.096	10745
365.180	12167
365.264	7520
365.347	27627
365.431	11308
365.515	3945
365.598	1772
365.682	2923
365.766	1922
365.849	3099
365.933	3713
366.017	4362
366.100	551
366.184	835
366.267	2941
366.351	1538
366.435	1950
366.518	1452
366.602	1426
366.685	2695
366.769	1976
366.852	2980
366.936	7932
367.019	5911
367.103	1623
367.186	3492
367.270	1744
367.353	1441
367.436	2720
367.520	1781
367.603	4250
367.687	4727
367.770	10571
367.853	6980
367.937	24237
368.020	39936
368.104	7726
368.187	8241
368.270	11212
368.353	8957
368.437	9809
368.520	16729
368.603	13407
368.687	24998
368.770	49824
368.853	10707
368.936	9302
369.020	5958
369.103	3422
369.186	1946
369.269	1615
369.352	6669
369.436	9286
369.519	5613
369.602	793
369.685	4596
369.768	3129
369.851	2515
369.934	1805
370.018	2418
370.101	8111
370.184	7501
370.267	3995
370.350	5853
370.433	11521
370.516	44701
370.599	65592
370.682	18566
370.765	25415
370.848	31048
370.931	65284
371.014	21994
371.097	4288
371.180	3731
371.263	2805
371.346	1008
371.429	3055
371.511	2270
371.594	5547
371.677	7516
371.760	6272
371.843	8711
371.926	46225
372.009	112702
372.091	32712
372.174	23164
372.257	62325
372.340	22546
372.423	10428
372.505	9741
372.588	5411
372.671	18878
372.754	63931
372.836	29759
372.919	9727
373.002	14545
373.085	7952
373.167	9706
373.250	24769
373.332	60275
373.415	77388
373.498	165675
373.580	56175
373.663	93160
373.746	116658
373.828	22794
373.911	9254
373.993	6171
374.076	14260
374.159	14610
374.241	13727
374.324	51914
374.406	32988
374.489	46838
374.571	141653
374.654	53690
374.736	25124
374.819	86880
374.901	121306
374.983	124553
375.066	19647
375.148	5865
375.231	12689
375.313	23468
375.395	9099
375.478	3974
375.560	4006
375.643	5797
375.725	23867
375.807	110901
375.890	73329
375.972	18780
376.054	10867
376.136	14352
376.219	8333
376.301	29993
376.383	97152
376.465	34160
376.548	19005
376.630	24145
376.712	80721
376.794	35227
376.877	5078
376.959	2167
377.041	2927
377.123	2689
377.205	3055
377.287	1375
377.369	2463
377.452	3312
377.534	2388
377.616	2303
377.698	2079
377.780	1427
377.862	3159
377.944	2895
378.026	622
378.108	2894
378.190	1585
378.272	2517
378.354	1237
378.436	1159
378.518	2668
378.600	8618
378.682	11324
378.764	34556
378.846	27367
378.928	5841
379.010	7617
379.091	6034
379.173	2519
379.255	2617
379.337	4602
379.419	16866
379.501	51472
379.583	18347
379.664	4975
379.746	11122
379.828	32732
379.910	46509
379.991	40701
380.073	6625
380.155	4144
380.237	3060
380.318	2234
380.400	2347
380.482	7464
380.564	10830
380.645	11952
380.727	10053
380.809	6294
380.890	4407
380.972	2911
381.053	3228
381.135	5393
381.217	11333
381.298	35260
381.380	16833
381.461	14570
381.543	79100
381.624	96046
381.706	15980
381.787	6870
381.869	9017
381.951	32046
382.032	132743
382.113	78592
382.195	13289
382.276	9689
382.358	23836
382.439	70694
382.521	80001
382.602	127885
382.684	52825
382.765	97607
382.846	112400
382.928	199811
383.009	102618
383.090	60855
383.172	261040
383.253	411202
383.334	124338
383.416	115308
383.497	57600
383.578	25367
383.659	49831
383.741	208973
383.822	583575
383.903	283282
383.984	84729
384.066	131519
384.147	76448
384.228	17148
384.309	12154
384.390	9250
384.471	7153
384.553	6589
384.634	9781
384.715	9135
384.796	4957
384.877	7490
384.958	33261
385.039	38139
385.120	13165
385.201	6265
385.282	6062
385.363	6030
385.444	6379
385.525	12198
385.606	52590
385.687	46772
385.768	9698
385.849	9027
385.930	54214
386.011	97030
386.092	23413
386.173	5343
386.254	3917
386.335	4520
386.416	4385
386.496	19361
386.577	32186
386.658	8886
386.739	4630
386.820	4335
386.901	2753
386.981	3535
387.062	3441
387.143	7852
387.224	33986
387.304	30323
387.385	9088
387.466	4092
387.547	5730
387.627	4540
387.708	13202
387.789	61003
387.869	78492
387.950	20348
388.031	3239
388.111	646
388.192	4862
388.273	5845
388.353	4496
388.434	3844
388.514	11975
388.595	63354
388.676	80029
388.756	32912
388.837	31628
388.917	18242
388.998	2667
389.078	4269
389.159	3312
389.239	1935
389.320	7189
389.400	4375
389.480	12568
389.561	35130
389.641	17650
389.722	6359
389.802	8450
389.883	14779
389.963	45854
390.043	25183
390.124	4350
390.204	11213
390.284	37720
390.365	21897
390.445	17661
390.525	68652
390.605	64732
390.686	17518
390.766	7371
390.846	4950
390.927	2776
391.007	2153
391.087	4522
391.167	2890
391.247	3153
391.328	4676
391.408	5353
391.488	3890
391.568	1444
391.648	4778
391.728	7743
391.808	7060
391.888	7709
391.969	19286
392.049	30663
392.129	11560
392.209	14746
392.289	42799
392.369	20391
392.449	8390
392.529	7725
392.609	9871
392.689	13108
392.769	46363
392.849	37084
392.929	22307
393.009	56062
393.089	49973
393.169	49601
393.248	161572
393.328	603162
393.408	637930
393.488	172197
393.568	48103
393.648	23333
393.728	14930
393.807	10219
393.887	9620
393.967	7808
394.047	8157
394.127	8121
394.206	12783
394.286	40882
394.366	211089
394.446	221144
394.525	40019
394.605	10651
394.685	8234
394.764	11663
394.844	17006
394.924	13982
395.003	7525
395.083	6297
395.163	5932
395.242	5693
395.322	6028
395.402	3851
395.481	5478
395.561	8586
395.640	24442
395.720	23506
395.799	21817
395.879	16451
395.958	13796
396.038	57533
396.117	275221
396.197	291823
396.276	63286
396.356	17716
396.435	13037
396.515	14022
396.594	20054
396.673	42664
396.753	171283
396.832	549861
396.912	393801
396.991	88600
397.070	24712
397.150	12467
397.229	10364
397.308	11662
397.388	17560
397.467	10416
397.546	4292
397.625	2609
397.705	5991
397.784	5554
397.863	2747
397.942	2939
398.022	3112
398.101	5279
398.180	14417
398.259	7008
398.338	3715
398.417	3725
398.497	2002
398.576	3329
398.655	1836
398.734	2717
398.813	2096
398.892	5452
398.971	15965
399.050	6884
399.129	1274
399.208	1494
399.287	2005
399.366	985
399.445	1166
399.524	2110
399.603	1229
399.682	4038
399.761	9637
399.840	18880
399.919	12975
399.998	2610
400.077	-99
400.156	146
400.235	3755
400.313	1022
400.392	1350
400.471	17235
400.550	27882
400.629	5728
400.708	2367
400.786	1174
400.865	2635
400.944	3081
401.023	4154
401.102	785
401.180	711
401.259	1109
401.338	1189
401.416	3040
401.495	2232
401.574	1765
401.652	684
401.731	2803
401.810	680
401.888	179
401.967	212
402.046	1585
402.124	2817
402.203	2564
402.281	1841
402.360	2136
402.438	4275
402.517	1764
402.596	922
402.674	258
402.753	319
402.831	592
402.910	2051
402.988	11037
403.066	44003
403.145	23771
403.223	12588
403.302	33754
403.380	24639
403.459	24615
403.537	8202
403.615	2847
403.694	26
403.772	2327
403.850	773
403.929	688
404.007	717
404.085	5277
404.164	4860
404.242	1721
404.320	2535
404.398	4711
404.477	17656
404.555	101436
404.633	84986
404.711	10856
404.789	3338
404.868	2438
404.946	744
405.024	797
405.102	503
405.180	367
405.258	-189
405.336	1488
405.415	-306
405.493	2915
405.571	4437
405.649	310
405.727	313
405.805	2772
405.883	1621
405.961	2766
406.039	729
406.117	-195
406.195	4264
406.273	21313
406.351	82238
406.429	45572
406.507	3837
406.585	1186
406.663	1899
406.740	3399
406.818	1772
406.896	1081
406.974	2059
407.052	5467
407.130	46892
407.208	64810
407.285	12306
407.363	1620
407.441	1319
407.519	1667
407.596	1928
407.674	7199
407.752	23934
407.830	19434
407.907	4437
407.985	1896
408.063	1222
408.141	168
408.218	1985
408.296	1260
408.373	1962
408.451	2082
408.529	1753
408.606	712
408.684	765
408.762	173
408.839	0
408.917	329
408.994	308
409.072	-548
409.149	474
409.227	2439
409.304	2851
409.382	2924
409.459	2014
409.537	5264
409.614	3021
409.692	1228
409.769	1983
409.846	5013
409.924	5926
410.001	1208
410.079	2067
410.156	1651
410.233	2060
410.311	1328
410.388	546
410.465	922
410.543	307
410.620	680
410.697	944
410.775	1582
410.852	-700
410.929	2407
411.006	1852
411.083	-86
411.161	1480
411.238	2265
411.315	794
411.392	808
411.469	1798
411.547	996
411.624	-1261
411.701	65
411.778	1893
411.855	4961
411.932	1293
412.009	929
412.086	1028
412.163	1016
412.240	630
412.317	1122
412.394	421
412.471	387
412.548	-341
412.625	281
412.702	489
412.779	2082
412.856	900
412.933	-819
413.010	173
413.087	1642
413.164	13816
413.241	21596
413.318	3396
413.395	2525
413.471	3732
413.548	1716
413.625	571
413.702	-230
413.779	554
413.855	211
413.932	-602
414.009	-640
414.086	-108
414.162	425
414.239	2568
414.316	14822
414.393	36609
414.469	11265
414.546	620
414.623	554
414.699	494
414.776	732
414.853	-50
414.929	1479
415.006	517
415.082	-43
415.159	-113
415.236	624
415.312	1269
415.389	3316
415.465	4169
415.542	1748
415.618	179
415.695	3092
415.771	1660
415.848	659
415.924	1333
416.000	388
416.077	877
416.153	-633
416.230	-731
416.306	329
416.383	-222
416.459	444
416.535	21
416.612	-581
416.688	338
416.764	417
416.841	-27
416.917	117
416.993	1009
417.069	1267
417.146	846
417.222	915
417.298	414
417.374	165
417.451	861
417.527	1698
417.603	1720
417.679	1228
417.755	623
417.831	8
417.908	16
417.984	-208
418.060	-596
418.136	3705
418.212	5073
418.288	1879
418.364	1237
418.440	334
418.516	1429
418.592	1021
418.668	5763
418.744	9662
418.820	6432
418.896	1636
418.972	-538
419.048	1011
419.124	4087
419.200	2840
419.276	442
419.352	-633
419.428	866
419.504	640
419.579	1509
419.655	1171
419.731	1365
419.807	6605
419.883	12544
419.959	8647
420.034	1989
420.110	4975
420.186	22829
420.262	17420
420.337	1830
420.413	1359
420.489	936
420.565	1139
420.640	459
420.716	1261
420.792	-802
420.867	1436
420.943	-526
421.019	2750
421.094	1047
421.170	26
421.245	-141
421.321	891
421.397	276
421.472	3714
421.548	12384
421.623	8700
421.699	2429
421.774	2783
421.850	1799
421.925	4073
422.001	3680
422.076	3084
422.152	2733
422.227	5921
422.302	7159
422.378	9855
422.453	18496
422.529	48223
422.604	153520
422.679	259422
422.755	167934
422.830	56318
422.905	19990
422.981	11124
423.056	6479
423.131	5073
423.207	3370
423.282	3334
423.357	7448
423.432	4977
423.508	5694
423.583	11598
423.658	8608
423.733	2429
423.808	2639
423.883	3303
423.959	2430
424.034	2418
424.109	2114
424.184	340
424.259	420
424.334	586
424.409	216
424.484	296
424.559	929
424.634	508
424.709	2104
424.784	3643
424.859	2065
424.934	2897
425.009	14608
425.084	27417
425.159	8181
425.234	1624
425.309	-300
425.384	4493
425.459	6662
425.534	1611
425.609	-96
425.683	551
425.758	260
425.833	400
425.908	1763
425.983	8560
426.058	28763
426.132	11048
426.207	970
426.282	1936
426.357	-43
426.431	462
426.506	8
426.581	743
426.655	-326
426.730	856
426.805	-231
426.879	710
426.954	-118
427.029	4300
427.103	27403
427.178	73867
427.253	31278
427.327	3503
427.402	1580
427.476	6900
427.551	2549
427.625	960
427.700	320
427.774	-387
427.849	527
427.923	95
427.998	36
428.072	138
428.147	3587
428.221	18806
428.296	61639
428.370	32968
428.444	3115
428.519	904
428.593	1845
428.667	2421
428.742	2268
428.816	5165
428.890	30069
428.965	56912
429.039	15834
429.113	3700
429.188	2131
429.262	734
429.336	2571
429.410	11908
429.485	6762
429.559	2385
429.633	1904
429.707	887
429.781	4037
429.855	30930
429.930	54722
430.004	19899
430.078	13452
430.152	21273
430.226	77808
430.300	84514
430.374	12653
430.448	3198
430.522	4911
430.596	14682
430.670	16158
430.744	73669
430.818	114908
430.892	24058
430.966	2634
431.040	1261
431.114	-897
431.188	156
431.262	229
431.336	-395
431.410	2013
431.484	4986
431.557	5624
431.631	-550
431.705	769
431.779	10147
431.853	54068
431.927	40358
432.000	4071
432.074	-86
432.148	-136
432.222	133
432.295	-511
432.369	42
432.443	2981
432.516	27276
432.590	77758
432.664	27845
432.737	2136
432.811	126
432.885	-677
432.958	992
433.032	-752
433.106	-473
433.179	-214
433.253	-839
433.326	-702
433.400	-497
433.473	3
433.547	-1231
433.620	-231
433.694	1664
433.767	2213
433.841	-868
433.914	-806
433.988	-228
434.061	195
434.134	-301
434.208	-977
434.281	-938
434.355	-641
434.428	-50
434.501	-621
434.575	-584
434.648	-909
434.721	-174
434.795	27
434.868	-1017
434.941	-426
435.014	-51
435.088	309
435.161	1759
435.234	2999
435.307	3653
435.381	553
435.454	405
435.527	2313
435.600	2739
435.673	1122
435.746	267
435.819	534
435.892	41
435.966	-893
436.039	-945
436.112	-194
436.185	-511
436.258	-538
436.331	-1475
436.404	-1254
436.477	-548
436.550	-1415
436.623	-718
436.696	-485
436.769	-111
436.842	-235
436.915	122
436.987	417
437.060	36
437.133	289
437.206	-1272
437.279	-330
437.352	-92
437.425	-46
437.498	365
437.570	2639
437.643	2109
437.716	836
437.789	-732
437.861	484
437.934	2679
438.007	1560
438.080	48
438.152	755
438.225	4318
438.298	40396
438.370	122420
438.443	51858
438.516	7287
438.588	1047
438.661	-121
438.734	142
438.806	1279
438.879	333
438.951	923
439.024	1013
439.096	-333
439.169	-364
439.241	-287
439.314	-524
439.386	-111
439.459	538
439.531	1527
439.604	215
439.676	-238
439.749	-1219
439.821	-186
439.893	97
439.966	-291
440.038	-293
440.110	507
440.183	94
440.255	-601
440.327	1010
440.400	13758
440.472	70465
440.544	53981
440.617	7031
440.689	2698
440.761	1626
440.833	3250
440.905	2426
440.978	333
441.050	-290
441.122	-47
441.194	-367
441.266	-898
441.338	-533
441.411	2531
441.483	19418
441.555	35504
441.627	8446
441.699	1234
441.771	20
441.843	-286
441.915	-656
441.987	-460
442.059	-881
442.131	37
442.203	902
442.275	1199
442.347	2626
442.419	3519
442.491	25543
442.563	73451
442.635	35621
442.706	9661
442.778	6489
442.850	1338
442.922	503
442.994	900
443.066	921
443.137	1915
443.209	1534
443.281	2750
443.353	6957
443.425	31238
443.496	131467
443.568	145002
443.640	55730
443.711	10397
443.783	3111
443.855	1284
443.926	664
443.998	375
444.070	705
444.141	685
444.213	2411
444.285	4274
444.356	2791
444.428	1013
444.499	431
444.571	-1075
444.642	-132
444.714	304
444.785	2235
444.857	2015
444.928	2009
445.000	2738
445.071	1658
445.143	4407
445.214	3531
445.285	6212
445.357	17182
445.428	81016
445.500	218148
445.571	145200
445.642	73424
445.714	23333
445.785	10719
445.856	4463
445.928	4793
445.999	3998
446.070	1678
446.141	1578
446.213	4546
446.284	1025
446.355	301
446.426	55
446.497	378
446.569	1417
446.640	3414
446.711	4724
446.782	1014
446.853	1160
446.924	1500
446.995	1029
447.066	169
447.138	338
447.209	409
447.280	-39
447.351	-570
447.422	-925
447.493	-311
447.564	2355
447.635	3838
447.706	1805
447.777	-699
447.847	-465
447.918	-618
447.989	-101
448.060	270
448.131	1594
448.202	3448
448.273	3932
448.344	1122
448.414	136
448.485	479
448.556	247
448.627	-688
448.698	-208
448.768	-967
448.839	166
448.910	-479
448.981	816
449.051	463
449.122	-681
449.193	-680
449.263	-492
449.334	-747
449.405	779
449.475	4746
449.546	4562
449.616	1056
449.687	1476
449.758	-140
449.828	-760
449.899	-757
449.969	-82
450.040	-1024
450.110	367
450.181	87
450.251	-273
450.322	159
450.392	120
450.463	-648
450.533	-703
450.604	-1098
450.674	-524
450.744	-359
450.815	-417
450.885	-673
450.955	-109
451.026	-1165
451.096	-349
451.166	-410
451.237	620
451.307	2629
451.377	1942
451.447	-988
451.518	-1072
451.588	-1091
451.658	-64
451.728	-324
451.799	2775
451.869	4593
451.939	437
452.009	-746
452.079	-1388
452.149	49
452.219	184
452.289	3749
452.360	3633
452.430	1200
452.500	810
452.570	1939
452.640	3346
452.710	9188
452.780	12865
452.850	12381
452.920	15130
452.990	5113
453.060	1391
453.129	2078
453.199	1928
453.269	5425
453.339	15975
453.409	26568
453.479	19511
453.549	28864
453.619	29717
453.688	15233
453.758	2676
453.828	-110
453.898	-260
453.968	-585
454.037	-215
454.087	-335
454.107	-392
454.168	-447
454.177	-473
454.247	-331
454.249	-313
454.316	-226
454.330	-255
454.386	-419
454.411	67
454.456	755
454.492	1962
454.525	3010
454.574	2101
454.595	1711
454.655	481
454.665	280
454.734	40
454.736	99
454.804	1549
454.817	2048
454.873	3870
454.898	4553
454.943	5612
454.979	4379
455.013	3321
455.060	1450
455.082	641
455.141	1125
455.152	1214
455.221	2857
455.222	2936
455.291	6396
455.303	6552
455.360	6987
455.384	9778
455.430	14111
455.465	12119
455.499	10430
455.546	6334
455.569	4295
455.627	3979
455.638	3959
455.707	2023
455.708	2025
455.777	-200
455.789	-47
455.846	464
455.869	147
455.916	-387
455.950	-222
455.985	-104
456.031	-85
456.054	-87
456.112	146
456.124	168
456.193	53
456.193	38
456.262	651
456.274	737
456.332	1071
456.355	1040
456.401	789
456.436	938
456.470	1100
456.516	814
456.540	676
456.597	848
456.609	878
456.678	843
456.678	829
456.747	42
456.759	-8
456.817	-25
456.840	-10
456.886	-201
456.920	204
456.955	771
457.001	903
457.024	919
457.082	1058
457.093	1053
457.162	1640
457.163	1657
457.232	2449
457.243	2284
457.301	1241
457.324	777
457.370	226
457.405	713
457.439	1070
457.485	1302
457.508	1459
457.566	1441
457.577	1487
457.646	2384
457.647	2404
457.715	4747
457.727	5449
457.784	10103
457.808	13484
457.853	17126
457.889	20115
457.922	20022
457.969	13137
457.991	13523
458.050	16641
458.060	17212
458.129	29988
458.130	30390
458.198	29926
458.211	26770
458.267	15568
458.292	10458
458.336	5845
458.372	5338
458.405	7475
458.453	11849
458.474	15563
458.533	29976
458.543	31011
458.611	49416
458.614	49732
458.680	31285
458.694	24120
458.749	10892
458.775	7752
458.818	4015
458.855	3355
458.887	2833
458.936	2193
458.955	1998
459.016	1235
459.024	1187
459.093	2079
459.097	2120
459.162	2352
459.177	2438
459.230	2955
459.257	3399
459.299	3428
459.338	2878
459.368	2969
459.418	3510
459.437	3279
459.499	2044
459.505	2000
459.574	2554
459.579	2525
459.643	2066
459.659	2115
459.711	2525
459.740	2691
459.780	2719
459.820	2983
459.849	2941
459.900	2427
459.917	2377
459.981	2193
459.986	2196
460.054	2770
460.061	2830
460.123	2967
460.141	2940
460.191	3379
460.222	4034
460.260	4932
460.302	5699
460.328	5212
460.382	3957
460.397	3883
460.462	3290
460.465	3379
460.534	5609
460.543	5928
460.602	17850
460.623	22513
460.671	36438
460.703	48311
460.739	43245
460.783	34725
460.808	29089
460.864	7549
460.876	6103
460.944	2872
460.945	2839
461.013	2748
461.024	2799
461.081	3394
461.104	3712
461.150	3594
461.184	3565
461.218	3505
461.264	2922
461.286	2846
461.345	2606
461.355	2537
461.423	2625
461.425	2615
461.491	2189
461.505	2238
461.559	3585
461.585	4100
461.628	5645
461.665	7440
461.696	7912
461.745	9248
461.764	8618
461.825	4840
461.832	4849
461.901	3775
461.905	3804
461.969	2506
461.985	2295
462.037	3417
462.065	3591
462.105	2907
462.145	2570
462.173	3161
462.225	4183
462.241	4437
462.305	6297
462.310	6211
462.378	4760
462.385	4435
462.446	3683
462.465	3544
462.514	3612
462.545	3953
462.582	3636
462.625	3125
462.650	3012
462.705	2568
462.718	2493
462.785	2142
462.786	2144
462.854	2628
462.865	2663
462.922	3885
462.945	4468
462.990	3788
463.025	3001
463.058	2625
463.104	2055
463.126	2021
463.184	2372
463.194	2536
463.262	3200
463.264	3237
463.330	3495
463.344	3458
463.398	3462
463.424	3390
463.466	2787
463.504	2625
463.533	2994
463.583	3235
463.601	3301
463.663	3647
463.669	3707
463.737	4303
463.743	4403
463.805	6127
463.823	6542
463.873	8141
463.903	9087
463.940	9208
463.982	9483
464.008	8136
464.062	4990
464.076	4898
464.142	3451
464.144	3435
464.211	3341
464.221	3396
464.279	3770
464.301	3812
464.347	3938
464.381	4201
464.414	4359
464.461	4474
464.482	4727
464.540	5241
464.550	5337
464.617	6224
464.620	6241
464.685	6752
464.699	6879
464.753	8146
464.779	8733
464.820	9311
464.859	9770
464.888	8753
464.938	7013
464.956	7181
465.018	7596
465.023	7576
465.091	7233
465.098	7193
465.158	7312
465.177	7366
465.226	7399
465.257	7308
465.293	7020
465.336	6746
465.361	7481
465.416	9080
465.428	9093
465.495	9331
465.496	9355
465.563	10722
465.575	10961
465.631	13017
465.654	14068
465.698	10426
465.734	6976
465.765	6588
465.813	5900
465.833	5941
465.893	6380
465.900	6348
465.968	5965
465.972	5926
466.035	5839
466.052	5801
466.102	6035
466.131	6166
466.170	6067
466.210	5950
466.237	6046
466.290	6120
466.304	6189
466.369	6508
466.372	6535
466.439	6991
466.449	7033
466.506	7677
466.528	7937
466.573	9341
466.607	10333
466.641	13428
466.687	17737
466.708	18850
466.766	21916
466.775	20745
466.842	11627
466.845	11175
466.909	9320
466.925	8874
466.977	8111
467.004	7746
467.044	8483
467.083	9164
467.111	9892
467.163	11255
467.178	11906
467.242	14509
467.245	14466
467.312	13019
467.321	12804
467.379	11449
467.400	10922
467.446	10496
467.480	10155
467.559	10143
467.638	8522
467.717	9477
467.796	12515
467.875	13466
467.955	10275
468.034	12144
468.113	18410
468.192	24441
468.271	12122
468.350	11643
468.429	15211
468.508	17230
468.588	12261
468.667	9397
468.746	8856
468.825	8630
468.904	8770
468.983	9246
469.062	11696
469.141	12604
469.220	7950
469.299	8238
469.378	10264
469.456	13052
469.535	10817
469.614	10506
469.693	9825
469.772	11103
469.851	13363
469.930	12166
470.009	11871
470.088	12767
470.166	17671
470.245	32144
470.324	38805
470.403	19588
470.482	12463
470.560	10325
470.639	9718
470.718	13406
470.797	10455
470.875	11268
470.954	12931
471.033	12056
471.111	7969
471.190	7774
471.269	7528
471.347	7768
471.426	7936
471.505	8754
471.583	10508
471.662	10155
471.740	9067
471.819	9962
471.898	7802
471.976	8919
472.055	7747
472.133	8729
472.212	10266
472.290	9404
472.369	7921
472.447	7919
472.526	6563
472.604	8308
472.683	9152
472.761	9713
472.839	8700
472.918	8831
472.996	7289
473.075	8569
473.153	8485
473.231	7380
473.310	8569
473.388	8195
473.466	8408
473.545	9884
473.623	14918
473.701	14084
473.780	8646
473.858	7099
473.936	10686
474.014	7911
474.093	9065
474.171	9227
474.249	10638
474.327	8973
474.405	6910
474.484	7644
474.562	7545
474.640	6917
474.718	6939
474.796	7819
474.874	8085
474.952	6855
475.030	5717
475.108	7106
475.187	7447
475.265	9357
475.343	14340
475.421	17928
475.499	7257
475.577	7925
475.655	7007
475.733	11297
475.811	13203
475.889	13919
475.966	10928
476.044	7838
476.122	10354
476.200	14374
476.278	11513
476.356	6175
476.434	6724
476.512	9878
476.590	13925
476.667	10920
476.745	6005
476.823	7175
476.901	5545
476.979	5262
477.056	6783
477.134	6779
477.212	6873
477.290	7303
477.367	5016
477.445	5600
477.523	4991
477.601	5818
477.678	5000
477.756	6107
477.834	5892
477.911	5282
477.989	5764
478.066	5653
478.144	5871
478.222	9609
478.299	19439
478.377	16438
478.454	6096
478.532	5968
478.609	5578
478.687	7297
478.764	5059
478.842	6206
478.919	6364
478.997	7250
479.074	4098
479.152	5641
479.229	6475
479.307	4338
479.384	4489
479.461	4174
479.539	4741
479.616	4954
479.694	4594
479.771	5003
479.848	4472
479.926	4825
480.003	7757
480.080	5365
480.157	4446
480.235	4717
480.312	5323
480.389	4407
480.467	5786
480.544	6932
480.621	6144
480.698	5969
480.775	5201
480.853	5279
480.930	4614
481.007	4574
481.084	5553
481.161	6549
481.238	5412
481.315	4631
481.392	4491
481.470	4886
481.547	4541
481.624	4231
481.701	4059
481.778	4907
481.855	5260
481.932	5006
482.009	8361
482.086	8027
482.163	5644
482.240	11205
482.317	24724
482.393	16657
482.470	5652
482.547	4997
482.624	4170
482.701	4637
482.778	4085
482.855	3813
482.932	4229
483.009	4630
483.085	5635
483.162	6740
483.239	7077
483.316	4962
483.393	5280
483.469	4990
483.546	5672
483.623	5159
483.699	4415
483.776	4625
483.853	5499
483.930	6668
484.006	13088
484.083	21247
484.160	22956
484.236	38511
484.313	29242
484.389	20181
484.466	19421
484.543	18869
484.619	18567
484.696	21231
484.772	18641
484.849	18701
484.925	15938
485.002	16597
485.078	17257
485.155	16983
485.231	15825
485.308	14909
485.384	14720
485.461	16685
485.537	20685
485.614	21453
485.690	15564
485.766	14310
485.843	17053
485.919	24035
485.995	25900
486.072	13701
486.148	13235
486.224	13633
486.301	12981
486.377	15840
486.453	13537
486.530	15964
486.606	21886
486.682	22534
486.758	21671
486.835	21963
486.911	20047
486.987	28222
487.063	43754
487.139	65894
487.215	44341
487.292	21683
487.368	17612
487.444	19153
487.520	23469
487.596	23745
487.672	38933
487.748	111074
487.824	162431
487.900	42423
487.976	17977
488.052	15277
488.128	18337
488.204	15467
488.280	14071
488.356	14815
488.432	19686
488.508	26143
488.584	16484
488.660	14097
488.736	14856
488.812	16175
488.888	21376
488.964	28379
489.039	61425
489.115	97354
489.191	53393
489.267	14281
489.343	12313
489.418	10951
489.494	11655
489.570	10274
489.646	11902
489.722	11666
489.797	10565
489.873	13894
489.949	19111
490.024	16990
490.100	10816
490.176	10348
490.251	14424
490.327	20929
490.403	10790
490.478	9661
490.554	8612
490.629	10187
490.705	8851
490.781	10434
490.856	9161
490.932	12094
491.007	11558
491.083	10860
491.158	9061
491.234	9917
491.309	14640
491.385	14915
491.460	9610
491.536	10696
491.611	10858
491.686	11989
491.762	17461
491.837	38499
491.913	61017
491.988	86663
492.063	115131
492.139	21889
492.214	11360
492.289	8861
492.365	8283
492.440	10586
492.515	7821
492.590	8331
492.666	7175
492.741	9533
492.816	10562
492.891	6589
492.967	7931
493.042	7472
493.117	7196
493.192	8166
493.267	11112
493.342	26049
493.418	33570
493.493	8955
493.568	6045
493.643	7386
493.718	7811
493.793	11950
493.868	17320
493.943	11508
494.018	8575
494.093	5608
494.168	6559
494.243	6972
494.318	5804
494.393	6504
494.468	6104
494.543	6912
494.618	8203
494.693	7246
494.768	6028
494.842	7153
494.917	6173
494.992	6897
495.067	5971
495.142	6559
495.217	6981
495.292	7924
495.366	8447
495.441	10977
495.516	13989
495.591	20643
495.665	82928
495.740	208486
495.815	73804
495.890	10269
495.964	5391
496.039	9201
496.114	6985
496.188	8262
496.263	7776
496.338	5260
496.412	6649
496.487	7662
496.561	10234
496.636	10791
496.710	7577
496.785	6954
496.860	7333
496.934	5807
497.009	7405
497.083	7436
497.158	6362
497.232	6338
497.307	9426
497.381	7549
497.455	8412
497.530	10485
497.604	7302
497.679	7321
497.753	12121
497.827	15741
497.902	13816
497.976	16201
498.050	29526
498.125	117804
498.199	123797
498.273	30392
498.348	23276
498.422	17228
498.496	16435
498.570	15178
498.645	8988
498.719	7425
498.793	9698
498.867	13395
498.941	16243
499.016	42213
499.090	120685
499.164	40513
499.238	6610
499.312	7827
499.386	10993
499.460	8817
499.534	7918
499.609	9636
499.683	10492
499.757	9428
499.831	17285
499.905	73498
499.979	66625
500.053	10879
500.127	15726
500.201	17038
500.275	8437
500.349	8096
500.422	9157
500.496	15841
500.570	37791
500.644	53243
500.718	77683
500.792	17790
500.866	7014
500.940	7040
501.013	6401
501.087	7781
501.161	17240
501.235	18023
501.309	21060
501.382	57890
501.456	55572
501.530	15260
501.603	18350
501.677	7664
501.751	3775
501.825	7733
501.898	9335
501.972	21500
502.046	14398
502.119	5928
502.193	13946
502.266	25868
502.340	12671
502.413	10857
502.487	19334
502.561	11311
502.634	7086
502.708	7799
502.781	5295
502.855	5432
502.928	2226
503.002	3604
503.075	2308
503.149	3528
503.222	3953
503.295	3878
503.369	4786
503.442	5853
503.516	16036
503.589	39553
503.662	24420
503.736	10545
503.809	20355
503.882	17840
503.956	27208
504.029	31563
504.102	59663
504.175	84742
504.249	19564
504.322	7395
504.395	5853
504.468	4500
504.542	3420
504.615	2311
504.688	3391
504.761	3360
504.834	5742
504.907	8480
504.980	16931
505.053	5604
505.127	7491
505.200	10707
505.273	3974
505.346	3127
505.419	2071
505.492	4090
505.565	2382
505.638	2716
505.711	1478
505.784	2622
505.857	1792
505.930	3886
506.003	1464
506.076	4692
506.149	3352
506.221	3120
506.294	5386
506.367	8404
506.440	31332
506.513	19395
506.586	4940
506.659	4340
506.731	3910
506.804	4942
506.877	7955
506.950	4162
507.022	2511
507.095	2132
507.168	5250
507.241	5327
507.313	3069
507.386	3758
507.459	8523
507.531	5526
507.604	3709
507.677	3846
507.749	1775
507.822	6466
507.894	14249
507.967	16260
508.040	8479
508.112	7631
508.185	6863
508.257	5830
508.330	11988
508.402	5638
508.475	4704
508.547	5388
508.620	4878
508.692	6633
508.765	4959
508.837	4148
508.909	4542
508.982	4482
509.054	6223
509.127	4735
509.199	3808
509.271	3125
509.344	3690
509.416	3825
509.488	4276
509.560	5029
509.633	5448
509.705	7752
509.777	5546
509.849	10159
509.922	5292
509.994	3955
510.066	5051
510.138	4542
510.210	14111
510.283	11721
510.355	9874
510.427	9184
510.499	12048
510.571	14461
510.643	7566
510.715	13481
510.787	10357
510.859	7768
510.931	8112
511.003	11947
511.076	10872
511.148	4955
511.219	5392
511.291	7730
511.363	6942
511.435	4947
511.507	4793
511.579	6235
511.651	6303
511.723	5272
511.795	5001
511.867	4466
511.939	5895
512.010	7587
512.082	7778
512.154	5745
512.226	6863
512.298	11737
512.369	15409
512.441	12732
512.513	13038
512.585	8246
512.656	9209
512.728	8765
512.800	7448
512.871	7228
512.943	7264
513.015	5709
513.086	6860
513.158	7247
513.230	6785
513.301	13151
513.373	18371
513.444	8599
513.516	5674
513.588	6614
513.659	8283
513.731	12464
513.802	8753
513.874	22257
513.945	38849
514.016	10713
514.088	6014
514.159	6965
514.231	12240
514.302	15475
514.374	9613
514.445	7247
514.516	12702
514.588	8047
514.659	7387
514.730	10265
514.802	12339
514.873	8015
514.944	9253
515.016	7778
515.087	10024
515.158	9599
515.229	11303
515.301	10840
515.372	10546
515.443	6696
515.514	6852
515.585	5514
515.656	7104
515.728	7356
515.799	6586
515.870	7533
515.941	8819
516.012	7073
516.083	11942
516.154	13688
516.225	21985
516.296	20521
516.367	18623
516.438	23784
516.509	32153
516.580	44181
516.651	145180
516.722	580184
516.793	211694
516.864	41786
516.935	40124
517.006	49449
517.077	65205
517.148	143462
517.219	650385
517.289	981154
517.360	128825
517.431	31827
517.502	15666
517.573	14749
517.643	14498
517.714	15353
517.785	17735
517.856	20315
517.926	30024
517.997	36697
518.068	51127
518.138	71014
518.209	100241
518.280	384661
518.350	1552966
518.421	507814
518.492	53891
518.562	25563
518.633	21238
518.703	19570
518.774	33435
518.845	94367
518.915	90588
518.986	23024
519.056	16937
519.127	30836
519.197	40142
519.268	51259
519.338	26117
519.408	11751
519.479	19894
519.549	14246
519.620	9125
519.690	6822
519.760	6145
519.831	7312
519.901	6605
519.971	6325
520.042	6067
520.112	6131
520.182	11015
520.253	12121
520.323	7391
520.393	12919
520.463	25327
520.534	12299
520.604	35073
520.674	12174
520.744	9579
520.814	36884
520.885	30054
520.955	12231
521.025	39518
521.095	15939
521.165	6877
521.235	4450
521.305	4794
521.375	5937
521.445	7260
521.515	10214
521.585	12514
521.655	9822
521.725	10135
521.795	12534
521.865	5191
521.935	7942
522.005	5497
522.075	5010
522.145	5217
522.215	3959
522.285	6689
522.355	7943
522.424	13275
522.494	11728
522.564	11591
522.634	27367
522.704	92601
522.774	31328
522.843	6896
522.913	5632
522.983	9927
523.053	6762
523.122	7392
523.192	10052
523.262	47874
523.331	42642
523.401	7802
523.471	4533
523.540	5650
523.610	3505
523.680	4470
523.749	3932
523.819	5360
523.888	3516
523.958	3389
524.027	3883
524.097	3711
524.166	3150
524.236	4886
524.305	6819
524.375	2966
524.444	2181
524.514	6128
524.583	3054
524.653	4077
524.722	5285
524.791	2677
524.861	4870
524.930	3585
524.999	3837
525.069	7673
525.138	4057
525.207	3692
525.277	3938
525.346	4312
525.415	4496
525.484	5016
525.554	5049
525.623	5284
525.692	6401
525.761	7278
525.830	8640
525.900	10929
525.969	17029
526.038	28196
526.107	56172
526.176	182887
526.245	139725
526.314	44334
526.383	93661
526.452	118207
526.522	215272
526.591	201902
526.660	58252
526.729	32206
526.797	35609
526.867	66488
526.935	301306
527.004	527317
527.073	256639
527.142	22243
527.211	8681
527.280	10544
527.349	9436
527.418	4097
527.487	6533
527.555	3947
527.624	3399
527.693	1963
527.762	4709
527.831	1985
527.899	2766
527.968	3355
528.037	2130
528.106	4630
528.174	12431
528.243	6685
528.312	10609
528.380	17821
528.449	3544
528.518	3957
528.586	1099
528.655	3304
528.723	2978
528.792	1732
528.861	2031
528.929	1091
528.998	2275
529.066	1620
529.135	2606
529.203	1447
529.272	1362
529.340	4079
529.409	4699
529.477	709
529.545	2147
529.614	4667
529.682	3016
529.751	3854
529.819	8015
529.887	3425
529.956	2827
530.024	4015
530.092	2928
530.161	5211
530.229	10139
530.297	3144
530.365	4117
530.434	2302
530.502	2199
530.570	2800
530.638	983
530.707	3091
530.775	4512
530.843	1536
530.911	2802
530.979	2986
531.047	2236
531.115	2805
531.183	3185
531.252	3274
531.320	1610
531.388	1568
531.456	2995
531.524	779
531.592	2949
531.660	4959
531.728	2754
531.796	2383
531.864	3108
531.932	2338
532.000	4301
532.067	3652
532.135	5053
532.203	5867
532.271	4908
532.339	12340
532.407	37805
532.475	20583
532.542	9958
532.610	9606
532.678	13839
532.746	66075
532.814	178313
532.881	35498
532.949	7633
533.017	4952
533.084	3979
533.152	2979
533.220	2925
533.287	3919
533.355	3121
533.423	3455
533.490	2824
533.558	3201
533.625	2701
533.693	4037
533.761	3858
533.828	4096
533.896	3328
533.963	11404
534.031	13360
534.098	20936
534.166	7954
534.233	3404
534.300	5729
534.368	4876
534.435	4032
534.503	5002
534.570	7647
534.637	6249
534.705	8075
534.772	9129
534.840	15666
534.907	78187
534.974	98821
535.041	9289
535.109	5886
535.176	3828
535.243	4363
535.310	4182
535.378	3529
535.445	3389
535.512	3734
535.579	4143
535.646	3322
535.714	3363
535.781	6403
535.848	4855
535.915	5402
535.982	3238
536.049	4087
536.116	4650
536.183	3567
536.250	4487
536.317	4385
536.384	6083
536.451	10606
536.518	11402
536.585	6433
536.652	9342
536.719	16214
536.786	10975
536.853	7587
536.920	12389
536.987	23032
537.053	19665
537.120	84543
537.187	69186
537.254	6298
537.321	5388
537.388	6077
537.454	2914
537.521	4224
537.588	4291
537.654	5753
537.721	6153
537.788	6891
537.855	4107
537.921	4545
537.988	4980
538.055	6344
538.121	3983
538.188	5494
538.254	9043
538.321	23821
538.388	14094
538.454	5825
538.521	5443
538.587	4558
538.654	4225
538.720	5049
538.787	4326
538.853	4401
538.920	6015
538.986	6790
539.053	4879
539.119	6051
539.185	6054
539.252	8002
539.318	12451
539.385	8920
539.451	6666
539.517	8157
539.583	9017
539.650	19612
539.716	59074
539.782	14426
539.849	6467
539.915	6690
539.981	6265
540.047	7472
540.114	7045
540.180	7998
540.246	6151
540.312	9744
540.378	22351
540.444	23762
540.510	22653
540.576	70162
540.643	18827
540.709	5571
540.775	5779
540.841	5178
540.907	7887
540.973	12362
541.039	11762
541.105	14068
541.171	6726
541.237	5133
541.303	5262
541.369	8232
541.435	9444
541.500	20455
541.566	11170
541.632	4785
541.698	5094
541.764	5305
541.830	5028
541.896	4119
541.961	4876
542.027	5131
542.093	5904
542.159	6676
542.224	6100
542.290	10753
542.356	19495
542.421	25409
542.487	9757
542.553	5441
542.618	7283
542.684	5943
542.750	5969
542.815	8166
542.881	12708
542.947	58847
543.012	40913
543.078	6567
543.143	6112
543.209	6257
543.274	5870
543.340	8061
543.405	21250
543.471	34119
543.536	6754
543.602	5216
543.667	4342
543.732	5585
543.798	3928
543.863	5491
543.928	4531
543.994	4034
544.059	4797
544.124	4942
544.190	5041
544.255	5569
544.320	6204
544.386	6340
544.451	10304
544.516	12675
544.581	10306
544.646	35226
544.712	55004
544.777	9931
544.842	6822
544.907	4973
544.972	5722
545.037	5846
545.102	5492
545.168	5753
545.233	6927
545.298	7733
545.363	7227
545.428	9740
545.493	20025
545.558	49647
545.623	16714
545.688	6302
545.753	6641
545.818	6791
545.883	6780
545.947	6635
546.012	6597
546.077	6706
546.142	8104
546.207	7175
546.272	11667
546.337	13181
546.401	9188
546.466	8842
546.531	8228
546.596	10125
546.661	10058
546.725	9503
546.790	9031
546.855	11161
546.919	9349
546.984	12142
547.049	14223
547.113	14657
547.178	15959
547.243	17445
547.307	20759
547.372	25296
547.436	24141
547.501	24522
547.565	26392
547.630	26784
547.695	26032
547.759	24463
547.823	22842
547.888	23303
547.952	24386
548.017	25485
548.081	28009
548.146	27133
548.210	27181
548.274	27755
548.339	26427
548.403	25581
548.468	22623
548.532	22762
548.596	23210
548.660	23688
548.725	26609
548.789	28365
548.853	28611
548.917	24957
548.982	25759
549.046	24123
549.110	19691
549.174	20973
549.238	24757
549.303	26775
549.367	29704
549.431	25451
549.495	24707
549.559	24599
549.623	28843
549.687	33558
549.751	36383
549.815	37642
549.879	38249
549.943	35543
550.007	37346
550.071	36285
550.135	37276
550.199	32127
550.263	31048
550.327	30230
550.391	30135
550.455	32382
550.519	35001
550.582	38242
550.646	46873
550.710	46820
550.774	41436
550.838	42848
550.901	43743
550.965	47017
551.029	46477
551.093	50763
551.156	55603
551.220	65657
551.284	83870
551.347	58318
551.411	50583
551.475	48912
551.538	45398
551.602	41039
551.666	38524
551.729	34870
551.793	35433
551.856	34630
551.920	34086
551.983	34127
552.047	34870
552.110	35507
552.174	34115
552.237	35447
552.301	33786
552.364	31375
552.428	30604
552.491	32294
552.554	33551
552.618	34522
552.681	35680
552.745	37061
552.808	57585
552.871	72688
552.934	42375
552.998	34068
553.061	31811
553.124	30262
553.187	29593
553.251	31058
553.314	31287
553.377	30886
553.440	34259
553.503	40649
553.567	43247
553.630	33761
553.693	33130
553.756	32992
553.819	31532
553.882	31768
553.945	30315
554.008	30716
554.071	29673
554.134	30974
554.197	28846
554.260	28446
554.323	30563
554.386	30143
554.449	31976
554.512	32525
554.575	28124
554.638	30295
554.701	29446
554.764	28815
554.827	27534
554.889	26488
554.952	24636
555.015	24628
555.078	24876
555.141	26363
555.203	24992
555.266	24050
555.329	25340
555.391	23330
555.454	23900
555.517	24159
555.580	22175
555.642	20249
555.705	20398
555.768	21011
555.830	19261
555.893	19458
555.955	19126
556.018	17969
556.080	18310
556.143	19261
556.206	19012
556.268	18840
556.330	18748
556.393	18802
556.455	16789
556.518	18659
556.580	19287
556.643	16682
556.705	16676
556.767	14686
556.830	16495
556.892	17767
556.955	23558
557.017	17931
557.079	14828
557.142	15466
557.204	16063
557.266	28212
557.328	23494
557.391	12620
557.453	13115
557.515	12699
557.577	15110
557.639	15328
557.701	12844
557.764	12116
557.826	13486
557.888	15431
557.950	15652
558.012	16803
558.074	22536
558.136	50749
558.198	128036
558.260	40179
558.322	18573
558.384	20504
558.446	24492
558.508	28984
558.570	36681
558.632	53710
558.694	74005
558.756	83435
558.818	258088
558.880	636815
558.942	168183
559.003	140391
559.065	63516
559.127	29180
559.189	28959
559.251	33275
559.312	47215
559.374	113511
559.436	408058
559.498	173243
559.559	32060
559.621	28983
559.683	32659
559.744	52776
559.806	183290
559.868	262951
559.929	43032
559.991	27960
560.052	41364
560.114	126956
560.176	72303
560.237	71124
560.299	115105
560.360	21127
560.422	9250
560.483	8541
560.545	7951
560.606	7035
560.667	6166
560.729	5794
560.790	6606
560.852	6530
560.913	5664
560.974	6381
561.036	5189
561.097	6350
561.158	6496
561.220	6940
561.281	6575
561.342	6976
561.403	9338
561.465	11396
561.526	31276
561.587	40616
561.648	8144
561.709	5300
561.771	6163
561.832	5464
561.893	4691
561.954	5485
562.015	5844
562.076	5003
562.137	5580
562.198	4992
562.259	5571
562.320	5247
562.381	6544
562.442	10504
562.503	6960
562.564	5147
562.625	4254
562.686	5430
562.747	4395
562.808	4215
562.869	4217
562.930	5608
562.991	4979
563.051	4688
563.112	5048
563.173	4306
563.234	3376
563.294	5160
563.355	4843
563.416	5814
563.477	4342
563.537	4248
563.598	4455
563.659	5229
563.720	5263
563.780	4805
563.841	5392
563.901	4853
563.962	5295
564.023	4384
564.083	4593
564.144	4949
564.204	4006
564.265	4047
564.325	4445
564.386	6921
564.446	6383
564.507	3549
564.567	4029
564.628	4636
564.688	3822
564.749	3760
564.809	4539
564.869	5005
564.930	4422
564.990	4239
565.050	3982
565.111	4388
565.171	3920
565.231	4292
565.292	4949
565.352	3884
565.412	4915
565.472	4498
565.532	5279
565.593	4484
565.653	4483
565.713	5559
565.773	5431
565.833	7612
565.893	9729
565.953	5331
566.013	4748
566.074	4555
566.134	5980
566.194	7079
566.254	8885
566.314	5732
566.374	3978
566.434	4158
566.494	3706
566.554	4336
566.614	4628
566.673	4954
566.733	5204
566.793	4617
566.853	5088
566.913	5243
566.973	4490
567.033	5336
567.092	4644
567.152	5203
567.212	5905
567.272	4612
567.331	5145
567.391	4888
567.451	5804
567.511	6631
567.570	7125
567.630	5228
567.690	4992
567.749	4787
567.809	5081
567.868	6338
567.928	6265
567.988	7292
568.047	7575
568.107	8407
568.166	12289
568.226	18657
568.285	25672
568.345	17422
568.404	13250
568.464	11335
568.523	10354
568.582	11474
568.642	13109
568.701	16867
568.761	25871
568.820	45490
568.879	36392
568.939	20062
568.998	13890
569.057	11226
569.116	8886
569.176	7210
569.235	5647
569.294	6787
569.353	5536
569.413	5950
569.472	4980
569.531	4798
569.590	3682
569.649	4675
569.708	4670
569.767	5337
569.827	5331
569.886	5162
569.945	4041
570.004	5861
570.063	5808
570.122	5291
570.181	4548
570.240	5259
570.299	4863
570.358	4926
570.417	4293
570.475	4784
570.534	5550
570.593	5979
570.652	5277
570.711	5459
570.770	5214
570.829	5980
570.887	6205
570.946	7705
571.005	5209
571.064	5809
571.122	7279
571.181	5814
571.240	4529
571.299	3908
571.357	3585
571.416	4016
571.475	5436
571.533	4827
571.592	4069
571.650	3546
571.709	4811
571.768	5177
571.826	4655
571.885	4132
571.943	3958
572.002	4207
572.060	3430
572.119	3403
572.177	3495
572.236	3795
572.294	3404
572.352	3908
572.411	3549
572.469	3717
572.528	3875
572.586	3737
572.644	4306
572.703	5407
572.761	3839
572.819	3162
572.877	3454
572.936	2620
572.994	2911
573.052	3182
573.110	3912
573.169	5155
573.227	3582
573.285	4298
573.343	3017
573.401	3619
573.459	3387
573.517	3627
573.576	3586
573.634	4237
573.692	4037
573.750	3619
573.808	2530
573.866	3292
573.924	4584
573.982	3776
574.040	3689
574.098	3902
574.155	3582
574.213	3273
574.271	3518
574.329	4300
574.387	3259
574.445	2500
574.503	3177
574.560	2424
574.618	3733
574.676	3337
574.734	3608
574.792	3872
574.849	2538
574.907	2830
574.965	1987
575.022	2517
575.080	2056
575.138	3723
575.195	3316
575.253	2700
575.311	4630
575.368	3982
575.426	1789
575.483	3196
575.541	3023
575.598	2824
575.656	3095
575.713	2360
575.771	3014
575.828	3671
575.886	2008
575.943	2712
576.001	2749
576.058	3517
576.115	2876
576.173	3602
576.230	4670
576.287	6749
576.345	4817
576.402	1754
576.459	3686
576.517	2986
576.574	2846
576.631	2704
576.688	2610
576.746	2664
576.803	2450
576.860	2105
576.917	3384
576.974	3289
577.031	2959
577.089	3006
577.146	2157
577.203	2760
577.260	3337
577.317	3067
577.374	3631
577.431	3331
577.488	3296
577.545	3219
577.602	2576
577.659	3044
577.716	2850
577.773	2671
577.830	2211
577.886	2892
577.943	2621
578.000	2660
578.057	3769
578.114	4411
578.171	5541
578.227	6583
578.284	3095
578.341	3526
578.398	2653
578.454	3627
578.511	2776
578.568	3808
578.625	3810
578.681	2842
578.738	2484
578.794	2532
578.851	2098
578.908	3216
578.964	2870
579.021	3837
579.077	3244
579.134	3608
579.190	2689
579.247	3279
579.303	2968
579.360	2794
579.416	2890
579.473	2032
579.529	2823
579.586	2679
579.642	2639
579.698	2490
579.755	3069
579.811	2457
579.867	2464
579.924	3006
579.980	1987
580.036	2580
580.093	2415
580.149	3706
580.205	2999
580.261	3019
580.317	2829
580.374	4142
580.430	3415
580.486	3367
580.542	3165
580.598	2811
580.619	2954
580.654	3204
580.692	2964
580.710	2849
580.765	3422
580.767	3440
580.823	3582
580.838	3331
580.879	2664
580.911	3305
580.935	3777
580.984	2822
580.991	2696
581.047	3678
581.057	3610
581.103	3294
581.130	3426
581.159	3575
581.203	2835
581.215	2634
581.270	2596
581.276	2654
581.326	3237
581.349	3302
581.382	3377
581.422	2807
581.438	2578
581.494	2915
581.494	2921
581.550	3648
581.567	3920
581.606	4473
581.640	3629
581.661	3104
581.713	4070
581.717	4153
581.773	3148
581.786	3249
581.829	3540
581.859	3310
581.885	3149
581.932	3196
581.940	3197
581.996	3605
582.004	3631
582.052	3729
582.077	3582
582.107	3454
582.150	3339
582.163	3286
582.219	2480
582.223	2554
582.274	3487
582.296	3324
582.330	3084
582.368	3553
582.386	3769
582.441	3555
582.441	3554
582.497	3692
582.514	3644
582.552	3719
582.587	3985
582.608	4144
582.659	3717
582.663	3657
582.719	3228
582.732	3154
582.774	3228
582.805	3645
582.830	3923
582.877	4562
582.885	4671
582.941	4122
582.950	4164
582.996	4358
583.023	4355
583.052	4420
583.095	3878
583.107	3679
583.162	4054
583.168	4041
583.218	4069
583.240	4163
583.273	4232
583.313	3761
583.328	3639
583.384	3802
583.385	3817
583.439	3936
583.458	3732
583.494	3520
583.531	4128
583.549	4392
583.603	4128
583.605	4126
583.660	3656
583.676	3799
583.715	3873
583.748	3794
583.770	3969
583.820	4421
583.825	4421
583.881	3442
583.893	3426
583.936	3736
583.965	3902
583.991	3818
584.038	3880
584.046	3924
584.101	3900
584.110	3844
584.156	3666
584.183	3915
584.211	4033
584.255	4129
584.266	4215
584.321	4240
584.328	4224
584.376	4097
584.400	4610
584.431	5288
584.472	4699
584.486	4447
584.541	4989
584.545	5000
584.596	5467
584.617	5322
584.651	5169
584.689	5479
584.706	5447
584.761	5276
584.762	5271
584.816	5123
584.834	5402
584.871	6066
584.906	5895
584.926	5845
584.978	5833
584.980	5837
585.035	7080
585.051	7358
585.090	8157
585.123	8566
585.145	8823
585.195	9737
585.200	9841
585.254	11989
585.267	12510
585.309	14430
585.340	16337
585.364	17849
585.412	19118
585.419	19319
585.473	23012
585.484	23800
585.528	29172
585.556	35407
585.583	49299
585.628	82805
585.637	95384
585.692	204954
585.700	224609
585.747	290304
585.772	242068
585.801	141754
585.845	41490
585.856	31096
585.910	16899
585.917	15598
585.965	12953
585.989	11679
586.019	10293
586.061	9662
586.074	9711
586.128	10010
586.133	9998
586.183	9984
586.205	10348
586.237	10643
586.277	9605
586.292	9124
586.346	8417
586.349	8366
586.401	8960
586.421	9399
586.455	9442
586.493	9605
586.509	10040
586.564	11115
586.565	11173
586.618	14689
586.637	15000
586.672	14476
586.709	13919
586.727	13602
586.781	13544
586.781	13550
586.835	10600
586.853	10302
586.889	9893
586.925	9062
586.944	8943
586.996	9834
586.998	9864
587.052	10182
587.068	10059
587.106	10105
587.140	10278
587.161	10249
587.212	10462
587.215	10499
587.269	10916
587.284	10959
587.323	10646
587.356	10592
587.377	10903
587.427	11932
587.431	12010
587.485	12415
587.499	12437
587.539	12655
587.571	13021
587.593	13284
587.643	14308
587.648	14406
587.702	14410
587.715	14693
587.755	15777
587.786	15839
587.810	15819
587.858	16074
587.864	16227
587.917	18624
587.930	18935
587.971	20136
588.001	21164
588.025	21862
588.073	23649
588.079	24003
588.133	26391
588.145	27104
588.187	29919
588.217	32100
588.241	34479
588.288	39364
588.295	40137
588.348	47314
588.360	48785
588.402	55370
588.431	60486
588.456	64707
588.503	74320
588.510	76089
588.564	91645
588.575	95296
588.617	112015
588.646	124098
588.671	138980
588.718	171263
588.725	180755
588.778	264954
588.789	286292
588.832	464516
588.861	605079
588.886	794236
588.932	1191198
588.939	1213329
588.993	1269192
589.004	1256173
589.047	905373
589.075	649899
589.100	488919
589.147	253982
589.154	242177
589.207	178319
589.218	167028
589.261	156272
589.290	151929
589.314	159834
589.361	180480
589.368	191060
589.421	290648
589.433	315988
589.475	544914
589.504	728374
589.528	879619
589.576	1149645
589.582	1122466
589.635	732903
589.647	643242
589.689	352718
589.718	182888
589.742	146244
589.790	87876
589.795	85159
589.849	63715
589.861	59294
589.902	51130
589.932	45090
589.955	41952
590.004	35727
590.009	35289
590.062	31006
590.075	29824
590.115	28155
590.146	27087
590.168	26282
590.218	24551
590.222	24548
590.275	23830
590.289	23710
590.328	22898
590.360	21844
590.381	21557
590.431	21060
590.435	21032
590.488	20031
590.503	19766
590.541	20026
590.574	20026
590.594	19669
590.645	18722
590.647	18726
590.700	17974
590.716	17718
590.753	17992
590.787	18247
590.806	18346
590.859	18469
590.859	18495
590.912	17965
590.930	17757
590.965	17676
591.001	17582
591.018	17549
591.071	17341
591.072	17308
591.124	17794
591.143	17899
591.177	17742
591.214	17633
591.230	17862
591.283	18483
591.285	18470
591.336	19544
591.356	19973
591.389	20472
591.427	20748
591.442	20022
591.495	17140
591.498	16903
591.547	16604
591.569	16459
591.600	16704
591.640	16892
591.653	17029
591.706	17475
591.711	17493
591.759	17453
591.782	17373
591.811	17979
591.853	18756
591.864	18695
591.917	18211
591.924	18083
591.969	17607
591.995	17371
592.022	17440
592.066	17417
592.075	17642
592.127	18815
592.137	19000
592.180	19948
592.208	20484
592.233	19915
592.279	18693
592.285	18710
592.338	18618
592.350	18543
592.390	18510
592.421	18465
592.443	18735
592.491	19206
592.495	19301
592.548	20111
592.562	20300
592.600	19598
592.633	18919
592.653	18940
592.704	18813
592.705	18961
592.775	21032
592.846	20774
592.916	21427
592.987	23278
593.058	20720
593.128	20528
593.199	19797
593.270	20145
593.341	19692
593.411	21833
593.482	21358
593.553	21536
593.623	21203
593.694	21583
593.764	22517
593.835	22050
593.906	21044
593.976	22709
594.047	22358
594.117	24839
594.188	24971
594.258	25155
594.329	23359
594.399	24949
594.470	24821
594.540	26165
594.611	25905
594.681	25870
594.751	25654
594.822	28926
594.892	29841
594.963	29241
595.033	29546
595.103	29263
595.174	30311
595.244	33674
595.314	35602
595.384	31758
595.455	31856
595.525	33865
595.595	34689
595.665	35400
595.736	33513
595.806	34364
595.876	35177
595.946	35155
596.016	35977
596.087	37957
596.157	36915
596.227	37332
596.297	39566
596.367	42276
596.437	43138
596.507	45904
596.577	47485
596.647	45513
596.717	46927
596.787	48123
596.857	47282
596.927	48726
596.997	47591
597.067	48980
597.137	49910
597.207	50253
597.277	49365
597.347	50156
597.417	47594
597.487	47757
597.557	48676
597.626	50469
597.696	51803
597.766	50264
597.836	49594
597.906	45464
597.975	43683
598.045	44595
598.115	45498
598.185	48474
598.254	55880
598.324	61031
598.394	63032
598.464	60966
598.533	58221
598.603	54373
598.672	54117
598.742	54425
598.812	53388
598.881	55589
598.951	55648
599.020	55143
599.090	57765
599.159	58636
599.229	55771
599.299	55509
599.368	57304
599.437	57110
599.507	50758
599.576	50304
599.646	49479
599.715	48918
599.785	48026
599.854	47828
599.924	46967
599.993	45623
600.062	46417
600.132	46992
600.201	50292
600.270	60959
600.340	63372
600.409	61485
600.478	60464
600.547	63362
600.617	56749
600.686	46597
600.755	42567
600.824	41315
600.894	39533
600.963	38204
601.032	37596
601.101	38283
601.170	35642
601.239	35007
601.308	37071
601.378	36226
601.447	35140
601.516	35092
601.585	36806
601.654	40982
601.723	36412
601.792	37245
601.861	38357
601.930	42636
601.999	44692
602.068	42143
602.137	46145
602.206	45960
602.275	44434
602.343	47749
602.412	48435
602.481	43160
602.550	43420
602.619	44453
602.688	46331
602.756	45660
602.825	44311
602.894	46575
602.963	46302
603.032	49396
603.100	48937
603.169	48275
603.238	48415
603.307	47722
603.375	49082
603.444	50947
603.513	51018
603.581	51665
603.650	52716
603.719	49407
603.787	51598
603.856	52875
603.924	54020
603.993	56581
604.061	57546
604.130	62717
604.198	63880
604.267	64969
604.335	64315
604.404	65841
604.472	66069
604.541	67290
604.609	65817
604.678	68002
604.746	68362
604.815	71794
604.883	69632
604.951	71555
605.020	72453
605.088	73964
605.156	74144
605.225	75250
605.293	75812
605.361	75904
605.429	77210
605.498	79476
605.566	81198
605.634	84732
605.702	87896
605.771	90572
605.839	90479
605.907	88216
605.975	84207
606.043	82680
606.111	83267
606.180	84282
606.248	80055
606.316	81350
606.384	81553
606.452	85164
606.520	91492
606.588	88099
606.656	86106
606.724	84844
606.792	78207
606.860	70437
606.928	63303
606.996	62793
607.064	61043
607.132	62979
607.200	66625
607.267	70251
607.335	69318
607.403	73155
607.471	68740
607.539	67828
607.607	67614
607.674	60248
607.742	61264
607.810	61842
607.878	60538
607.946	60140
608.013	64331
608.081	65793
608.149	65343
608.216	68759
608.284	70493
608.352	70724
608.419	68094
608.487	70747
608.555	66435
608.622	68607
608.690	74723
608.757	81981
608.825	82144
608.893	80723
608.960	77274
609.028	74197
609.095	74758
609.163	73321
609.230	64219
609.298	60105
609.365	62021
609.432	67397
609.500	71954
609.567	84718
609.635	95840
609.702	102023
609.769	97813
609.837	74318
609.904	63940
609.971	67059
610.039	78172
610.106	107474
610.173	220533
610.241	529387
610.308	254418
610.375	89545
610.442	69610
610.509	65546
610.577	67112
610.644	67976
610.711	70707
610.778	72540
610.845	74911
610.912	79841
610.980	83500
611.047	83898
611.114	82274
611.181	78110
611.248	76490
611.315	83935
611.382	84124
611.449	88273
611.516	91159
611.583	89007
611.650	88107
611.717	90388
611.784	91593
611.851	98377
611.918	107226
611.984	127693
612.051	198474
612.118	439521
612.185	1131302
612.252	610939
612.319	145354
612.386	119179
612.452	107321
612.519	102738
612.586	101090
612.653	102943
612.719	106513
612.786	100786
612.853	92073
612.919	90470
612.986	92507
613.053	87964
613.120	81371
613.186	78370
613.253	80125
613.319	80131
613.386	79231
613.453	82215
613.519	85112
613.586	90366
613.652	101448
613.719	92818
613.785	90230
613.852	83320
613.918	80363
613.985	85123
614.051	89784
614.118	97037
614.184	91166
614.250	82763
614.317	83563
614.383	82080
614.449	83364
614.516	82584
614.582	83898
614.648	82020
614.715	81424
614.781	80571
614.847	79856
614.914	78521
614.980	76652
615.046	76704
615.112	80458
615.179	81015
615.245	81005
615.311	81609
615.377	85940
615.443	87080
615.509	83131
615.575	86517
615.642	85008
615.708	89460
615.774	93273
615.840	99675
615.906	110846
615.972	144684
616.038	241057
616.104	549801
616.170	1378873
616.236	1037546
616.302	208443
616.368	156644
616.434	109364
616.500	103403
616.565	116792
616.631	148434
616.697	113894
616.763	121826
616.829	197090
616.895	365960
616.961	317137
617.026	120522
617.092	87413
617.158	83736
617.224	81731
617.289	76620
617.355	70959
617.421	70064
617.487	71061
617.552	66442
617.618	65984
617.684	66294
617.749	67899
617.815	64218
617.880	61533
617.946	62161
618.012	63515
618.077	65639
618.143	62324
618.208	62933
618.274	68181
618.339	68557
618.405	54698
618.470	57505
618.536	55000
618.601	55906
618.667	50438
618.732	48576
618.798	47508
618.863	47412
618.928	46916
618.994	49226
619.059	51599
619.124	60970
619.190	50890
619.255	46891
619.320	46680
619.386	47141
619.451	45228
619.516	44353
619.581	45674
619.647	46775
619.712	45673
619.777	45106
619.842	45444
619.907	46185
619.972	47526
620.038	46379
620.103	44524
620.168	44367
620.233	44569
620.298	45421
620.363	45075
620.428	48701
620.493	47394
620.558	49737
620.623	50127
620.688	50275
620.753	49071
620.818	50874
620.883	51182
620.948	50514
621.013	50102
621.078	48882
621.143	47603
621.207	52115
621.272	50314
621.337	48599
621.402	47705
621.467	49484
621.532	48914
621.596	48956
621.661	46635
621.726	45498
621.791	45721
621.855	47663
621.920	46974
621.985	47781
622.049	48647
622.114	48794
622.179	47991
622.243	49416
622.308	49324
622.373	54370
622.437	51593
622.502	48077
622.566	47102
622.631	46720
622.695	49317
622.760	48891
622.824	47931
622.889	49131
622.953	52520
623.018	67326
623.082	64106
623.147	54033
623.211	51516
623.276	51813
623.340	48245
623.404	47001
623.469	45355
623.533	48037
623.597	44637
623.662	45848
623.726	41661
623.790	39350
623.854	37976
623.919	41242
623.983	40045
624.047	40698
624.111	41807
624.176	41288
624.240	42340
624.304	45165
624.368	40746
624.432	43060
624.496	44808
624.560	49276
624.625	51803
624.689	47072
624.753	46985
624.817	45672
624.881	42931
624.945	40375
625.009	38367
625.073	39064
625.137	41973
625.201	51636
625.265	49143
625.329	41900
625.393	42300
625.456	42437
625.520	43566
625.584	45330
625.648	47725
625.712	50875
625.776	60567
625.839	60701
625.903	39636
625.967	35573
626.031	41066
626.095	52751
626.158	41258
626.222	31078
626.286	29418
626.349	27257
626.413	25342
626.477	27702
626.540	27325
626.604	26422
626.668	26224
626.731	25220
626.795	25243
626.858	26531
626.922	24413
626.986	25129
627.049	24311
627.113	26508
627.176	25186
627.240	24953
627.303	24414
627.366	24761
627.430	24864
627.493	25044
627.557	22526
627.620	26659
627.684	25882
627.747	26148
627.810	22391
627.874	22339
627.937	20159
628.000	23133
628.064	22793
628.127	17536
628.190	19498
628.253	19672
628.317	17600
628.380	16211
628.443	16309
628.506	16778
628.569	16750
628.632	14983
628.696	15103
628.759	15156
628.822	14968
628.885	14825
628.948	14514
629.011	15414
629.074	13895
629.137	13425
629.200	12497
629.263	15102
629.326	11520
629.389	12649
629.452	12127
629.515	13314
629.578	12192
629.641	14148
629.704	12101
629.767	13546
629.830	13264
629.892	12861
629.955	11176
630.018	15419
630.081	15322
630.144	19727
630.207	13498
630.269	15155
630.332	12157
630.395	12133
630.458	11341
630.520	11384
630.583	11256
630.646	12372
630.708	11022
630.771	11283
630.834	12796
630.896	12271
630.959	11416
631.021	11698
631.084	11088
631.146	12179
631.209	12927
631.272	11941
631.334	11805
631.397	12758
631.459	12790
631.522	14814
631.584	14042
631.646	16332
631.709	16387
631.771	20888
631.834	16473
631.896	14454
631.958	12314
632.021	13870
632.083	11209
632.145	12688
632.208	11481
632.270	12782
632.332	11198
632.395	10377
632.457	12184
632.519	11154
632.581	11158
632.643	10018
632.706	11639
632.768	9870
632.830	11590
632.892	11048
632.954	10243
633.016	12209
633.078	10688
633.141	11031
633.203	10596
633.265	11654
633.327	11259
633.389	10792
633.451	12338
633.513	16447
633.575	13994
633.637	15586
633.698	13267
633.760	12659
633.822	12507
633.884	13595
633.946	13284
634.008	13537
634.070	14654
634.132	15977
634.193	17053
634.255	19464
634.317	19230
634.379	20542
634.441	16375
634.502	14249
634.564	14646
634.626	12845
634.687	13351
634.749	11643
634.811	10139
634.873	11125
634.934	10061
634.996	12369
635.057	9555
635.119	10284
635.181	12052
635.242	12859
635.304	10050
635.365	12963
635.427	10968
635.488	12358
635.550	10129
635.611	11855
635.673	9214
635.734	13730
635.796	11874
635.857	15648
635.918	14407
635.980	19249
636.041	18713
636.102	21510
636.164	20909
636.225	22399
636.286	15389
636.348	15303
636.409	13121
636.470	11732
636.531	11744
636.593	10159
636.654	9861
636.715	10048
636.776	9540
636.838	8655
636.899	9629
636.960	8988
637.021	9991
637.082	9950
637.143	9132
637.204	8175
637.265	7746
637.326	8812
637.387	9058
637.448	7564
637.509	9803
637.570	8975
637.631	9006
637.692	7503
637.753	6517
637.814	8484
637.875	7870
637.936	8285
637.997	8284
638.058	8411
638.119	7642
638.179	8465
638.240	7656
638.301	7587
638.362	7693
638.423	6872
638.483	8451
638.544	5643
638.605	7799
638.666	6441
638.726	7824
638.787	7809
638.848	6972
638.908	7250
638.969	6781
639.030	6887
639.090	5897
639.151	6793
639.211	8800
639.272	11327
639.332	18287
639.393	10472
639.453	8468
639.514	7808
639.574	7940
639.635	6156
639.695	7703
639.756	6417
639.816	8047
639.877	9657
639.937	17948
639.997	22413
640.058	6920
640.118	6437
640.178	7222
640.239	6849
640.299	6387
640.359	6562
640.420	7590
640.480	9225
640.540	10358
640.600	9063
640.661	9337
640.721	8821
640.781	11364
640.841	7420
640.901	7259
640.961	8263
641.021	8138
641.082	11128
641.142	15156
641.202	9213
641.262	5100
641.322	7413
641.382	4488
641.442	6766
641.502	5414
641.562	6536
641.622	5703
641.682	7555
641.742	8754
641.802	8241
641.861	7463
641.921	7744
641.981	9629
642.041	8314
642.101	10172
642.161	6866
642.221	4929
642.280	6002
642.340	4805
642.400	4888
642.460	6550
642.519	5870
642.579	6085
642.639	6958
642.698	4148
642.758	7823
642.818	6078
642.877	6243
642.937	6554
642.997	8866
643.056	12513
643.116	6769
643.175	7613
643.235	6689
643.294	6873
643.354	8238
643.414	8873
643.473	12120
643.532	13770
643.592	22257
643.651	39092
643.711	77574
643.770	163623
643.830	424208
643.889	873290
643.948	165193
644.008	26149
644.067	16263
644.126	11535
644.186	8930
644.245	9126
644.304	5609
644.363	9217
644.423	5784
644.482	7162
644.541	8171
644.600	6777
644.659	10586
644.719	11695
644.778	21888
644.837	39901
644.896	90861
644.955	211735
645.014	56529
645.073	11913
645.132	8051
645.191	7471
645.250	7195
645.309	8350
645.368	7866
645.427	12061
645.486	21250
645.545	37120
645.604	9615
645.663	6536
645.722	6513
645.781	7954
645.840	9043
645.898	13172
645.957	21995
646.016	35383
646.075	72974
646.134	149484
646.192	439195
646.251	600972
646.310	68175
646.369	17599
646.427	15105
646.486	10305
646.545	8341
646.603	7194
646.662	6912
646.721	6361
646.779	6451
646.838	5223
646.896	10261
646.955	12717
647.014	21722
647.072	45646
647.131	134070
647.189	52654
647.248	7526
647.306	6497
647.365	5951
647.423	4162
647.481	5899
647.540	3449
647.598	3832
647.657	4115
647.715	5040
647.773	3363
647.832	4709
647.890	2794
647.948	3338
648.007	4041
648.065	3164
648.123	3468
648.181	5043
648.240	4197
648.298	3584
648.356	3074
648.414	3746
648.472	3401
648.531	4081
648.589	2410
648.647	3502
648.705	2701
648.763	4477
648.821	3525
648.879	3761
648.937	4967
648.995	7408
649.053	9012
649.111	15825
649.169	28547
649.227	57788
649.285	126007
649.343	381375
649.401	152035
649.459	33407
649.516	18412
649.574	8541
649.632	12724
649.690	13008
649.748	10976
649.806	14528
649.863	30809
649.921	92716
649.979	52233
650.037	7536
650.094	2956
650.152	4709
650.210	2319
650.268	3456
650.325	3436
650.383	3463
650.440	2080
650.498	3653
650.556	2077
650.613	3261
650.671	2562
650.728	3533
650.786	2770
650.843	4571
650.901	1248
650.958	3439
651.016	2246
651.073	2813
651.131	2040
651.188	1969
651.246	1616
651.303	1238
651.360	2945
651.418	1973
651.475	1704
651.532	1485
651.590	2514
651.647	1525
651.704	2475
651.762	1422
651.819	2729
651.876	1868
651.933	1214
651.990	3007
652.048	476
652.105	1072
652.162	1912
652.219	1838
652.276	2424
652.333	2184
652.390	1002
652.448	2430
652.505	1350
652.562	2553
652.619	1423
652.676	2030
652.733	2475
652.790	1689
652.847	1228
652.904	1812
652.961	1011
653.017	1203
653.074	2267
653.131	2110
653.188	655
653.245	1399
653.302	1437
653.359	1453
653.415	2048
653.472	1791
653.529	2319
653.586	1143
653.642	603
653.699	2407
653.756	893
653.813	1292
653.869	1224
653.926	1925
653.983	1097
654.039	2419
654.096	1529
654.152	2592
654.209	425
654.266	2072
654.322	754
654.379	2376
654.435	1255
654.492	2295
654.548	2892
654.605	5187
654.661	2272
654.717	1307
654.774	1877
654.830	1553
654.887	1251
654.943	1661
655.000	2187
655.056	2094
655.112	1730
655.168	1573
655.225	628
655.281	2176
655.337	1797
655.394	2566
655.450	1833
655.506	2134
655.562	2241
655.618	2348
655.675	584
655.731	2298
655.787	1297
655.843	2251
655.899	724
655.955	2118
656.011	1873
656.067	1193
656.123	2191
656.179	2907
656.235	3912
656.291	1450
656.347	2854
656.403	2089
656.459	1447
656.515	2055
656.571	1409
656.627	1333
656.683	1762
656.739	2346
656.795	2374
656.850	2672
656.906	3173
656.962	2750
657.018	760
657.074	1906
657.129	2283
657.185	4402
657.241	9205
657.297	4658
657.352	1556
657.408	1607
657.464	2208
657.519	1178
657.575	408
657.630	1554
657.686	898
657.742	1386
657.797	627
657.853	1363
657.908	1636
657.964	554
658.019	1136
658.075	1131
658.130	856
658.186	393
658.241	1447
658.297	554
658.352	428
658.407	1863
658.463	-164
658.518	894
658.573	721
658.629	493
658.684	101
658.739	1377
658.795	-232
658.850	1077
658.905	301
658.960	1179
659.016	624
659.071	1904
659.126	1619
659.181	2030
659.236	5298
659.291	6012
659.346	1593
659.401	1780
659.457	1369
659.512	555
659.567	1450
659.622	607
659.677	171
659.732	937
659.787	1261
659.842	1354
659.897	1000
659.952	1385
660.007	964
660.061	1221
660.116	-239
660.171	1176
660.226	232
660.281	1352
660.336	293
660.391	1409
660.445	431
660.500	852
660.555	898
660.610	525
660.664	1176
660.719	371
660.774	731
660.828	1931
660.883	751
660.938	1628
660.992	-341
661.047	970
661.101	-58
661.156	577
661.211	1
661.265	516
661.320	409
661.374	1165
661.429	502
661.483	1754
661.538	-244
661.592	4
661.647	926
661.701	1208
661.755	462
661.810	1105
661.864	1
661.919	780
661.973	351
662.027	368
662.081	57
662.136	798
662.190	475
662.244	408
662.299	575
662.353	871
662.407	226
662.461	415
662.515	1127
662.569	1441
662.624	1169
662.678	1198
662.732	1144
662.786	547
662.840	663
662.894	1007
662.948	-301
663.002	644
663.056	966
663.110	221
663.164	461
663.218	494
663.272	1172
663.326	2326
663.380	842
663.434	1080
663.488	638
663.542	1249
663.595	269
663.649	517
663.703	1101
663.757	734
663.811	219
663.864	788
663.918	1124
663.972	975
664.026	574
664.079	356
664.133	309
664.187	886
664.240	-60
664.294	1025
664.348	746
664.401	867
664.455	1018
664.508	568
664.562	251
664.615	1743
664.669	-171
664.722	1098
664.776	340
664.829	562
664.883	511
664.936	454
664.990	1469
665.043	816
665.097	293
665.150	1503
665.203	-153
665.257	607
665.310	1389
665.363	669
665.417	1321
665.470	813
665.523	441
665.576	1312
665.630	1094
665.683	593
665.736	765
665.789	1402
665.842	932
665.895	1350
665.949	396
666.002	982
666.055	408
666.108	851
666.161	296
666.214	1396
666.267	1640
666.320	2223
666.373	636
666.426	1641
666.479	483
666.532	1089
666.585	861
666.638	2025
666.691	573
666.744	1292
666.796	620
666.849	1193
666.902	692
666.955	1303
667.008	220
667.060	240
667.113	157
667.166	861
667.219	1251
667.271	1262
667.324	521
667.377	1263
667.430	710
667.482	998
667.535	177
667.587	1166
667.640	1355
667.693	2088
667.745	4795
667.798	5697
667.850	1223
667.903	1440
667.955	744
668.008	1445
668.060	1645
668.113	462
668.165	1530
668.218	1175
668.270	973
668.322	1334
668.375	492
668.427	856
668.479	205
668.532	1617
668.584	287
668.636	980
668.689	639
668.741	971
668.793	1188
668.845	676
668.898	882
668.950	663
669.002	820
669.054	882
669.106	608
669.158	1019
669.211	434
669.263	159
669.315	1560
669.367	1393
669.419	1134
669.471	2253
669.523	2324
669.575	3312
669.627	974
669.679	1430
669.731	1086
669.783	1484
669.835	2011
669.886	2133
669.938	881
669.990	1154
670.042	950
670.094	1050
670.146	825
670.197	1101
670.249	974
670.301	1946
670.353	2437
670.404	2686
670.456	4808
670.508	7828
670.560	12892
670.611	24926
670.663	44646
670.715	120417
670.766	174676
670.818	35147
670.869	6227
670.921	3383
670.972	2340
671.024	1612
671.075	1576
671.127	2126
671.178	1346
671.230	2130
671.281	1350
671.333	2074
671.384	861
671.436	1660
671.487	3285
671.538	5065
671.590	7627
671.641	15534
671.692	30841
671.744	60929
671.795	27765
671.846	7670
671.897	2907
671.949	2438
672.000	1631
672.051	1096
672.102	820
672.153	1532
672.204	252
672.256	669
672.307	435
672.358	1203
672.409	881
672.460	585
672.511	840
672.562	21
672.613	294
672.664	1239
672.715	92
672.766	466
672.817	-339
672.868	1227
672.919	-180
672.970	330
673.021	-71
673.071	-274
673.122	340
673.173	376
673.224	-403
673.275	506
673.326	123
673.376	-80
673.427	312
673.478	1014
673.528	475
673.579	1127
673.630	-38
673.680	645
673.731	258
673.782	34
673.832	-246
673.883	683
673.934	-501
673.984	-60
674.035	-197
674.085	688
674.136	249
674.186	839
674.237	1035
674.287	844
674.338	870
674.388	605
674.438	-612
674.489	1006
674.539	267
674.589	174
674.640	168
674.690	930
674.740	-217
674.791	461
674.841	266
674.891	-43
674.942	-42
674.992	714
675.042	-40
675.092	329
675.142	-595
675.193	-342
675.243	160
675.293	983
675.343	-500
675.393	336
675.443	-36
675.493	255
675.543	-323
675.593	111
675.643	407
675.693	453
675.743	-271
675.793	632
675.843	-556
675.893	-244
675.943	-77
675.993	1025
676.043	-40
676.093	427
676.142	-712
676.192	790
676.242	-198
676.292	671
676.341	-376
676.391	295
676.441	-467
676.491	-269
676.540	-692
676.590	-498
676.640	154
676.689	-414
676.739	-869
676.789	437
676.838	-179
676.888	778
676.937	-1036
676.987	402
677.037	180
677.086	-748
677.136	-235
677.185	-425
677.235	-624
677.284	-121
677.333	-116
677.383	604
677.432	13
677.482	20
677.531	559
677.580	-308
677.630	-298
677.679	312
677.728	-84
677.778	225
677.827	212
677.876	120
677.925	-564
677.975	-764
678.024	-148
678.073	-220
678.122	-859
678.171	77
678.220	-318
678.269	494
678.319	289
678.368	821
678.417	-98
678.466	747
678.515	155
678.564	321
678.613	-192
678.662	872
678.711	-197
678.760	88
678.809	-495
678.857	382
678.906	-73
678.955	31
679.004	34
679.053	125
679.102	289
679.151	-339
679.199	-292
679.248	402
679.297	-515
679.346	194
679.394	-311
679.443	-250
679.492	-303
679.540	-395
679.589	-649
679.638	134
679.686	-556
679.735	462
679.784	111
679.832	-15
679.881	-488
679.929	-108
679.978	-1002
680.026	-585
680.075	-199
680.123	113
680.172	-97
680.220	-610
680.268	-100
680.317	-1224
680.365	-833
680.414	-1155
680.462	-338
680.510	568
680.559	-1190
680.607	-299
680.655	-256
680.703	138
680.752	-406
680.800	-154
680.848	-790
680.896	-170
680.945	-587
680.993	-444
681.041	-48
681.089	448
681.137	-728
681.185	-336
681.233	-399
681.258	-284
681.281	-189
681.329	-414
681.377	-768
681.380	-709
681.425	128
681.473	207
681.502	134
681.521	62
681.569	246
681.617	380
681.624	383
681.665	299
681.713	395
681.745	-61
681.761	-291
681.809	-95
681.857	1322
681.867	946
681.904	-420
681.952	501
681.989	658
682.000	696
682.048	748
682.096	56
682.111	-16
682.143	-243
682.191	800
682.233	520
682.239	465
682.286	328
682.334	-348
682.354	1
682.382	449
682.430	226
682.476	285
682.477	274
682.525	1015
682.572	-216
682.598	101
682.620	357
682.667	-133
682.715	1676
682.720	1587
682.763	639
682.810	1080
682.841	963
682.857	856
682.905	974
682.952	886
682.963	929
683.000	1092
683.047	435
683.085	1546
683.095	1820
683.142	461
683.190	820
683.206	849
683.237	910
683.284	1374
683.328	432
683.332	345
683.379	1132
683.426	46
683.449	781
683.473	1474
683.521	325
683.568	1176
683.571	1162
683.615	894
683.662	1526
683.693	1325
683.709	1186
683.757	923
683.804	1011
683.814	1117
683.851	1465
683.898	1000
683.936	1217
683.945	1281
683.992	1892
684.039	1854
684.057	1954
684.086	1999
684.133	2281
684.179	1409
684.180	1373
684.227	2700
684.274	2440
684.300	2707
684.321	2837
684.368	1627
684.415	1917
684.422	1919
684.462	1851
684.509	1594
684.543	1176
684.556	1044
684.603	1760
684.649	1111
684.665	1313
684.696	1710
684.743	1372
684.786	1898
684.790	1941
684.837	477
684.883	2280
684.908	1957
684.930	1600
684.977	2151
685.023	1561
685.029	1612
685.070	1974
685.117	1766
685.150	1794
685.164	1801
685.210	1082
685.257	2679
685.272	2555
685.303	2277
685.350	2436
685.393	2012
685.396	1999
685.443	2726
685.490	3912
685.514	3932
685.536	3582
685.583	3450
685.629	2788
685.636	2706
685.675	2482
685.722	2775
685.757	2413
685.768	2278
685.815	2617
685.861	3489
685.878	3229
685.908	2776
685.954	1929
686.000	2658
686.000	2668
686.047	2451
686.093	2713
686.121	2785
686.139	2799
686.185	3210
686.232	2662
686.242	2617
686.278	2339
686.324	2795
686.363	2732
686.370	2726
686.416	1904
686.463	2696
686.484	2585
686.509	2497
686.555	2490
686.601	2181
686.606	2267
686.647	2936
686.693	2390
686.727	2319
686.739	2335
686.785	1850
686.831	2512
686.848	2660
686.877	2835
686.923	2973
686.969	2508
686.969	2506
687.015	2717
687.061	2234
687.090	2634
687.107	2800
687.153	2913
687.199	3289
687.211	3124
687.245	2741
687.291	2845
687.332	3003
687.336	3012
687.382	2817
687.428	2838
687.453	2909
687.474	2903
687.520	2998
687.565	2580
687.574	2458
687.611	2289
687.657	3385
687.695	3233
687.702	3219
687.748	4325
687.794	4386
687.816	4526
687.839	4345
687.885	3352
687.931	3708
687.937	3618
687.976	3311
688.022	3164
688.058	3193
688.067	3249
688.113	3472
688.158	3381
688.179	3604
688.204	3715
688.249	3059
688.295	3217
688.300	3194
688.340	3172
688.386	3304
688.421	3231
688.431	3259
688.477	3337
688.522	3865
688.542	4024
688.567	4111
688.613	3979
688.658	3608
688.663	3613
688.703	3565
688.749	3597
688.784	3449
688.794	3464
688.839	3828
688.884	3594
688.905	3828
688.930	4062
688.975	3727
689.020	3841
689.026	3786
689.065	3399
689.110	3646
689.146	3397
689.155	3339
689.201	3634
689.246	3518
689.267	3637
689.291	3867
689.336	3917
689.381	3505
689.388	3572
689.426	3761
689.471	3763
689.509	3627
689.516	3642
689.561	3946
689.606	3586
689.630	3755
689.651	3817
689.696	3229
689.741	4063
689.750	3930
689.785	3609
689.830	3924
689.871	3629
689.875	3599
689.920	4125
689.965	3574
689.992	3401
690.010	3287
690.054	3090
690.099	3544
690.112	3488
690.144	3572
690.189	3678
690.233	3716
690.233	3723
690.278	3983
690.323	4137
690.354	4612
690.367	4783
690.412	3783
690.457	3749
690.474	3813
690.501	3961
690.546	4039
690.590	3977
690.595	3938
690.635	3775
690.680	3832
690.716	4063
690.724	4139
690.769	4000
690.813	4785
690.836	4585
690.857	4518
690.902	5062
690.946	5043
690.957	5192
690.991	5842
691.035	6178
691.077	6896
691.080	6909
691.124	6022
691.168	6310
691.198	6037
691.213	5904
691.257	5657
691.301	5177
691.318	5227
691.346	5288
691.390	4752
691.434	4348
691.439	4251
691.478	4005
691.522	4629
691.559	4747
691.567	4777
691.611	4805
691.655	4617
691.680	4760
691.699	4814
691.743	4832
691.787	4743
691.800	4650
691.831	4620
691.875	5147
691.919	5235
691.921	5226
691.964	5126
692.008	5197
692.041	5269
692.052	5287
692.096	4906
692.139	5001
692.162	4861
692.183	4795
692.227	5195
692.271	4704
692.282	4764
692.315	5217
692.359	5353
692.402	5804
692.403	5815
692.447	5202
692.490	5425
692.523	4897
692.534	4826
692.578	4927
692.622	4856
692.643	5052
692.666	5186
692.709	4736
692.753	4835
692.763	4763
692.797	4748
692.840	4896
692.884	4867
692.884	4879
692.928	5224
692.971	5129
693.004	5334
693.015	5352
693.059	5021
693.102	4900
693.124	4770
693.146	4913
693.189	5160
693.233	5505
693.245	5633
693.276	5754
693.320	5570
693.363	5624
693.365	5602
693.407	5483
693.450	5519
693.485	5632
693.493	5682
693.537	5730
693.580	5621
693.605	5691
693.624	6011
693.667	6832
693.710	7439
693.725	7588
693.753	8255
693.797	9510
693.840	10781
693.845	10913
693.883	10342
693.926	9567
693.966	8633
693.970	8529
694.013	7473
694.056	6753
694.086	5589
694.099	5466
694.142	5902
694.185	5949
694.206	6063
694.229	6166
694.272	5931
694.315	6141
694.326	6140
694.358	6764
694.401	7592
694.444	8398
694.446	8426
694.487	8234
694.530	7578
694.566	7329
694.573	7264
694.616	6360
694.659	5722
694.686	5422
694.702	5536
694.745	5510
694.787	5662
694.806	5626
694.830	5597
694.873	5672
694.916	5702
694.926	5668
694.959	5730
695.002	6076
695.044	6200
695.046	6186
695.087	6317
695.130	6480
695.166	6733
695.172	6725
695.215	6359
695.258	6145
695.286	5826
695.301	5777
695.343	5788
695.386	5863
695.406	5790
695.428	5772
695.471	5880
695.514	5850
695.526	5791
695.556	5801
695.599	6199
695.641	6172
695.646	6181
695.684	6273
695.726	6143
695.766	6191
695.769	6218
695.811	6258
695.854	6381
695.886	6346
695.896	6318
695.938	6340
695.981	6132
696.005	5959
696.023	6149
696.065	6702
696.108	7460
696.125	7624
696.150	7415
696.192	7312
696.235	6927
696.245	6842
696.277	6821
696.319	6677
696.361	6684
696.365	6646
696.404	6699
696.446	6976
696.485	7159
696.488	7188
696.530	7348
696.572	7262
696.604	7322
696.614	7309
696.656	7121
696.698	7043
696.724	6804
696.740	6740
696.783	6770
696.825	6742
696.844	6732
696.867	6814
696.909	6788
696.951	6869
696.964	6841
696.992	6759
697.034	6680
697.076	6578
697.083	6559
697.118	6905
697.160	7120
697.202	7505
697.203	7492
697.244	7390
697.286	7381
697.323	7148
697.327	7176
697.369	7370
697.411	7569
697.442	7699
697.453	7798
697.494	8149
697.536	8398
697.562	8575
697.578	8628
697.620	8674
697.661	8724
697.682	8704
697.703	9067
697.744	9788
697.786	10614
697.801	10814
697.828	10571
697.869	10257
697.911	9902
697.921	9773
697.952	9284
697.994	8691
698.035	8092
698.040	7994
698.077	8312
698.118	8593
698.160	8990
698.160	8967
698.201	8896
698.243	8774
698.279	8731
698.284	8765
698.325	8800
698.367	8859
698.399	8828
698.408	8847
698.449	8857
698.491	8859
698.518	8854
698.532	8841
698.573	8673
698.614	8549
698.638	8451
698.656	8484
698.697	8510
698.738	8513
698.757	8496
698.779	8528
698.820	8539
698.862	8564
698.877	8545
698.903	8749
698.944	9045
698.985	9340
698.996	9397
699.026	9011
699.067	8440
699.116	7737
699.235	8790
699.354	8549
699.474	8651
699.593	8359
699.713	9800
699.832	10028
699.951	10733
700.070	10111
700.190	8496
700.309	9412
700.428	9235
700.547	9287
700.667	8717
700.786	9999
700.905	8116
701.024	8790
701.143	8165
701.262	8416
701.381	8119
701.500	8906
701.619	11347
701.738	7280
701.857	7506
701.976	7295
702.095	8628
702.214	10247
702.333	10887
702.452	8823
702.571	7488
702.690	7873
702.809	8016
702.928	7337
703.047	8662
703.165	8145
703.284	7909
703.403	8336
703.522	7607
703.640	8957
703.759	10542
703.878	10368
703.997	7325
704.115	7511
704.234	7647
704.353	7909
704.471	6728
704.590	6080
704.708	6844
704.827	6895
704.946	6552
705.064	6567
705.183	7287
705.301	7064
705.420	8327
705.538	7895
705.656	6959
705.775	6667
705.893	9008
706.012	9516
706.130	7232
706.249	7204
706.367	7372
706.485	7487
706.604	7566
706.722	7889
706.840	9895
706.958	9796
707.077	7503
707.195	6695
707.313	6929
707.431	5781
707.549	6076
707.668	7161
707.786	7166
707.904	6570
708.022	6856
708.140	7054
708.258	7135
708.376	6178
708.494	5935
708.612	7459
708.730	7893
708.848	7822
708.966	8656
709.084	8433
709.202	7164
709.320	7105
709.438	7138
709.556	7404
709.674	7220
709.791	7080
709.909	5953
710.027	6336
710.145	5869
710.263	6334
710.380	7059
710.498	6316
710.616	6045
710.733	6548
710.851	6427
710.969	6682
711.086	6701
711.204	6574
711.322	6361
711.439	5851
711.557	5985
711.674	6288
711.792	6080
711.909	5747
712.027	6289
712.144	5692
712.262	5981
712.379	6512
712.497	7975
712.614	7686
712.732	6733
712.849	6959
712.966	9255
713.084	12221
713.201	8337
713.318	7305
713.436	7111
713.553	7051
713.670	7579
713.787	7455
713.905	7567
714.022	7246
714.139	8393
714.256	11475
714.373	16835
714.490	35184
714.608	108167
714.725	488368
714.842	430446
714.959	24107
715.076	11267
715.193	9383
715.310	8435
715.427	7424
715.544	7245
715.661	6472
715.778	6450
715.895	6832
716.011	7268
716.128	7172
716.245	7628
716.362	10848
716.479	11104
716.596	7047
716.713	6972
716.829	7054
716.946	6265
717.063	5865
717.180	4984
717.296	5341
717.413	5626
717.530	5780
717.646	6721
717.763	4933
717.880	5826
717.996	5979
718.113	6760
718.229	5479
718.346	5520
718.462	7167
718.579	11486
718.695	26012
718.812	11768
718.928	7450
719.045	5964
719.161	5249
719.277	5798
719.394	5818
719.510	6600
719.626	6087
719.743	8282
719.859	12432
719.975	26765
720.092	126416
720.208	274742
720.324	23595
720.440	8412
720.557	8394
720.673	18249
720.789	13887
720.905	16311
721.021	6033
721.137	5009
721.253	5388
721.369	4933
721.486	5022
721.602	6182
721.718	4047
721.834	3656
721.950	5516
722.066	5089
722.181	4367
722.297	5626
722.413	4966
722.529	4992
722.645	4768
722.761	4258
722.877	4578
722.993	4622
723.108	6344
723.224	4444
723.340	4091
723.456	3909
723.571	2788
723.687	3902
723.803	4045
723.918	4192
724.034	3863
724.150	3678
724.265	4312
724.381	6400
724.497	8028
724.612	4040
724.728	3641
724.843	3494
724.959	4437
725.074	7171
725.190	7914
725.305	5278
725.421	3720
725.536	3244
725.651	3706
725.767	3466
725.882	3177
725.997	3281
726.113	4276
726.228	3287
726.343	3358
726.459	3230
726.574	3897
726.689	3341
726.804	3176
726.920	3333
727.035	3176
727.150	3434
727.265	3187
727.380	4632
727.495	3559
727.610	2958
727.725	3150
727.841	4049
727.956	3601
728.071	4706
728.186	3858
728.301	2774
728.416	4637
728.531	3433
728.645	3992
728.760	4718
728.875	6841
728.990	6412
729.105	3962
729.220	5205
729.335	4916
729.449	3526
729.564	3307
729.679	2068
729.794	3278
729.908	3110
730.023	2887
730.138	3055
730.253	3332
730.367	2662
730.482	2699
730.596	3266
730.711	4723
730.826	4015
730.940	3951
731.055	3893
731.169	3324
731.284	3833
731.398	3368
731.513	3864
731.627	3976
731.742	4406
731.856	4382
731.970	4186
732.085	6162
732.199	8382
732.313	15572
732.428	43825
732.542	152145
732.656	75999
732.771	12106
732.885	6589
732.999	5258
733.113	6064
733.227	4705
733.342	5008
733.456	4647
733.570	3914
733.684	3779
733.798	4298
733.912	3991
734.026	2944
734.140	4371
734.254	4050
734.368	5338
734.482	6254
734.596	3238
734.710	3642
734.824	4056
734.938	4569
735.052	4041
735.166	4189
735.280	4965
735.393	4384
735.507	2995
735.621	4104
735.735	5566
735.849	4066
735.962	3843
736.076	4501
736.190	3303
736.303	4311
736.417	4763
736.531	3339
736.644	3301
736.758	3099
736.872	3710
736.985	3505
737.099	3186
737.212	2652
737.326	5024
737.439	3771
737.553	3131
737.666	4027
737.780	2958
737.893	2863
738.007	2828
738.120	3139
738.233	3838
738.347	3749
738.460	3145
738.573	4979
738.687	3713
738.800	5142
738.913	7416
739.026	4524
739.140	3380
739.253	2822
739.366	3619
739.479	2320
739.592	3209
739.705	2790
739.818	3713
739.932	2867
740.045	3855
740.158	3651
740.271	3505
740.384	3582
740.497	4115
740.610	4827
740.723	3787
740.836	4831
740.949	5692
741.062	7919
741.174	5194
741.287	3041
741.400	3959
741.513	4755
741.626	6508
741.739	3942
741.851	4463
741.964	3674
742.077	3847
742.189	4193
742.302	6769
742.415	5548
742.527	3463
742.640	3128
742.753	2452
742.865	2525
742.978	2478
743.090	2838
743.203	2561
743.316	2322
743.428	2199
743.541	2744
743.653	1889
743.766	2533
743.878	3452
743.990	3159
744.103	4125
744.215	4997
744.327	3206
744.440	5990
744.552	8957
744.664	3970
744.777	2687
744.889	1977
745.001	2468
745.113	1953
745.226	2342
745.338	2840
745.450	2004
745.562	1948
745.674	2622
745.786	2364
745.898	2301
746.010	2279
746.122	2073
746.234	1762
746.347	2156
746.459	2796
746.570	2056
746.682	2411
746.794	4281
746.906	2161
747.018	1604
747.130	2904
747.242	2211
747.354	2464
747.466	3034
747.577	1864
747.689	2321
747.801	2552
747.913	1147
748.024	1020
748.136	1730
748.248	1656
748.359	1913
748.471	1627
748.583	2059
748.694	2559
748.806	2047
748.918	1451
749.029	1922
749.141	4131
749.252	3577
749.364	4741
749.475	12001
749.587	4695
749.698	884
749.809	2240
749.921	2122
750.032	1719
750.144	1109
750.255	1944
750.366	2071
750.478	1529
750.589	2298
750.700	2827
750.811	3293
750.923	3763
751.034	14031
751.145	11146
751.256	2402
751.367	1474
751.479	2263
751.590	1802
751.701	1070
751.812	1047
751.923	1516
752.034	898
752.145	1413
752.256	1305
752.367	915
752.478	1655
752.589	1531
752.700	1876
752.811	1428
752.922	1824
753.032	1734
753.143	3938
753.254	1764
753.365	2217
753.476	1692
753.586	1599
753.697	513
753.808	1101
753.919	835
754.029	992
754.140	1778
754.251	1482
754.361	1544
754.472	1666
754.582	1584
754.693	1905
754.804	1849
754.914	1862
755.025	362
755.135	729
755.246	1137
755.356	863
755.466	2500
755.577	1410
755.687	1396
755.798	1107
755.908	1146
756.018	1537
756.129	1146
756.239	1485
756.349	1684
756.460	1155
756.570	2281
756.680	1485
756.790	2224
756.900	2448
757.011	408
757.121	883
757.231	991
757.341	1144
757.451	921
757.561	1470
757.671	843
757.781	1349
757.891	1825
758.001	1279
758.111	1613
758.221	2345
758.331	3080
758.441	2729
758.551	5543
758.661	3819
758.771	1741
758.880	1453
758.990	1976
759.100	1209
759.210	1555
759.320	1359
759.429	2067
759.539	1681
759.649	1603
759.758	2824
759.868	2642
759.978	2023
760.087	3147
760.197	2596
760.307	2371
760.416	2342
760.526	2306
760.635	3064
760.745	2445
760.854	2830
760.964	3558
761.073	3729
761.182	2660
761.292	3218
761.401	2299
761.511	1514
761.620	2772
761.729	847
761.839	1682
761.948	3074
762.057	2114
762.166	1363
762.276	149
762.385	2068
762.494	1941
762.603	1438
762.712	2186
762.822	579
762.931	1102
763.040	777
763.149	681
763.258	1286
763.367	2010
763.476	1544
763.585	1740
763.694	1360
763.803	1694
763.912	1472
764.021	1756
764.130	1408
764.238	2082
764.347	1610
764.456	1783
764.565	1645
764.674	2031
764.783	1706
764.891	2226
765.000	2997
765.109	1928
765.217	2240
765.326	3440
765.435	3453
765.543	3842
765.652	3046
765.761	4785
765.869	6689
765.978	10674
766.086	20072
766.195	39786
766.303	114212
766.412	365408
766.520	292392
766.629	53280
766.737	18364
766.846	11189
766.954	6825
767.062	6547
767.171	4611
767.279	4087
767.387	2800
767.496	2504
767.604	3236
767.712	2651
767.820	2881
767.928	2662
768.037	2030
768.145	2990
768.253	2805
768.361	1790
768.469	2163
768.577	1965
768.685	2848
768.793	2968
768.901	1956
769.009	2840
769.117	2116
769.225	4019
769.333	5007
769.441	8069
769.549	15790
769.657	38536
769.765	143457
769.873	319251
769.981	81253
770.088	14041
770.196	6703
770.304	5964
770.412	4185
770.519	3237
770.627	3321
770.735	2478
770.842	2699
770.950	2844
771.058	2662
771.165	1635
771.273	1481
771.380	2322
771.488	2738
771.595	2019
771.703	1717
771.810	2823
771.918	1999
772.025	3213
772.133	2870
772.240	2423
772.348	2591
772.455	2870
772.562	1918
772.670	1913
772.777	2682
772.884	2576
772.991	2183
773.099	3077
773.206	1348
773.313	3061
773.420	3086
773.528	1628
773.635	2109
773.742	2092
773.849	2773
773.956	2054
774.063	2309
774.170	2555
774.277	3020
774.384	2102
774.491	1971
774.598	2096
774.705	1792
774.812	3246
774.919	2437
775.026	2312
775.133	2176
775.239	2046
775.346	1468
775.453	1791
775.560	2024
775.667	2068
775.773	1173
775.880	2036
775.987	2552
776.093	2100
776.200	2243
776.307	1051
776.413	2467
776.520	1794
776.627	1980
776.733	1453
776.840	1106
776.946	3648
777.053	3390
777.159	8325
777.266	3969
777.372	6958
777.478	6966
777.585	4193
777.691	1622
777.798	2291
777.904	2862
778.010	5296
778.117	4038
778.223	1970
778.329	2226
778.435	1847
778.542	3023
778.648	1499
778.754	673
778.860	1179
778.966	1681
779.072	604
779.178	1282
779.284	1068
779.391	1011
779.497	571
779.603	3233
779.708	1166
779.815	2067
779.920	5164
780.026	9018
780.132	1285
780.238	913
780.344	2014
780.450	1735
780.556	1762
780.661	864
780.767	1305
780.873	997
780.979	1397
781.085	710
781.190	928
781.296	1142
781.402	1541
781.507	373
781.613	1291
781.719	1067
781.824	2287
781.930	1647
782.035	899
782.141	1006
782.246	719
782.352	1244
782.457	1346
782.563	1139
782.668	1494
782.773	1104
782.879	1021
782.984	988
783.090	2770
783.195	5479
783.300	2531
783.405	1007
783.511	711
783.616	1235
783.721	1695
783.826	1889
783.932	1947
784.037	1084
784.142	1250
784.247	1492
784.352	1482
784.457	1587
784.562	1966
784.667	1099
784.772	1692
784.877	588
784.982	1616
785.087	1736
785.192	1520
785.297	1044
785.402	594
785.507	254
785.611	1061
785.716	1067
785.821	1448
785.926	642
786.031	592
786.135	18
786.240	976
786.345	-131
786.450	781
786.554	949
786.659	-194
786.763	-223
786.868	1702
786.973	1701
787.077	221
787.182	1182
787.286	1065
787.391	432
787.495	-210
787.600	1308
787.704	354
787.809	418
787.913	1189
788.017	245
788.122	1736
788.226	1009
788.330	319
788.435	346
788.539	638
788.643	483
788.747	225
788.852	257
788.956	333
789.060	1056
789.164	1051
789.268	135
789.372	538
789.476	1540
789.580	470
789.684	-183
789.788	810
789.892	279
789.996	1330
790.100	434
790.204	581
790.308	1667
790.412	730
790.516	120
790.620	716
790.724	492
790.828	19
790.931	-176
791.035	1327
791.139	525
791.242	-226
791.346	1803
791.450	226
791.554	1244
791.657	16
791.761	1867
791.864	1157
791.968	773
792.072	956
792.175	397
792.279	679
792.382	764
792.486	1298
792.589	-289
792.693	1700
792.796	57
792.899	847
793.003	1904
793.106	411
793.209	964
793.313	3945
793.416	274
793.519	1818
793.623	4294
793.726	5899
793.829	1660
793.932	1343
794.035	391
794.138	2267
794.242	1887
794.345	1429
794.448	2148
794.551	4570
794.654	6296
794.757	4725
794.860	1268
794.963	1310
795.066	75
795.169	1550
795.272	234
795.375	432
795.477	327
795.580	167
795.683	-69
795.786	814
795.889	-403
795.991	675
796.094	2232
796.197	229
796.300	1246
796.402	-179
796.505	-146
796.608	232
796.710	1483
796.813	865
796.915	605
797.018	535
797.120	828
797.223	-76
797.326	1758
797.428	116
797.530	200
797.633	693
797.735	1707
797.838	631
797.940	873
798.042	-231
798.145	150
798.247	148
798.349	-1398
798.452	1884
798.554	-109
798.656	-113
798.758	931
798.860	862
798.962	-460
799.065	-5
799.167	-797
799.269	918
799.371	1781
799.473	1059
799.575	1053
799.677	1632
799.779	3112
799.881	3201
799.983	1637
800.085	177
800.187	944
800.289	-392
800.390	763
800.492	959
800.594	1641
800.696	480
800.798	513
800.899	-295
801.001	-5
801.103	305
801.205	339
801.306	-14
801.408	-43
801.509	1042
801.611	974
801.713	-54
801.814	621
801.916	-3
802.017	607
802.119	-818
802.220	549
802.322	-1323
802.423	1715
802.525	-347
802.626	886
802.727	787
802.829	1663
802.930	-569
803.031	1314
803.133	586
803.234	539
803.335	20
803.436	-1014
803.538	225
803.639	-1072
803.740	1045
803.841	-406
803.942	749
804.043	943
804.144	343
804.245	-159
804.346	-379
804.447	280
804.548	2726
804.649	2715
804.750	256
804.851	63
804.952	-450
805.053	44
805.154	-945
805.255	405
805.355	53
805.456	-1032
805.557	-414
805.658	-152
805.758	994
805.859	-188
805.960	241
806.061	-263
806.161	221
806.262	422
806.362	-463
806.463	-66
806.564	476
806.664	-193
806.765	-51
806.865	652
806.966	572
807.066	-83
807.166	-229
807.267	210
807.367	-302
807.468	833
807.568	-839
807.668	873
807.769	929
807.869	341
807.969	-348
808.069	144
808.170	561
808.270	375
808.370	1151
808.470	1599
808.570	402
808.670	-407
808.770	870
808.870	-640
808.970	-265
809.070	38
809.170	1267
809.271	2948
809.370	505
809.470	128
809.570	-15
809.670	406
809.770	-309
809.870	151
809.970	652
810.070	-544
810.169	313
810.269	-1293
810.369	646
810.469	583
810.568	-557
810.668	-602
810.768	-269
810.867	114
810.967	-1011
811.066	-246
811.166	-598
811.265	32
811.365	-435
811.464	-733
811.564	5
811.663	-509
811.763	-697
811.862	99
811.962	339
812.061	-834
812.160	-1082
812.260	-175
812.359	64
812.458	-443
812.557	902
812.657	308
812.756	210
812.855	-324
812.954	-622
813.053	-85
813.153	-275
813.252	33
813.351	290
813.450	-111
813.549	-357
813.648	103
813.747	-1107
813.846	382
813.945	-60
814.044	-736
814.143	146
814.242	95
814.341	-1265
814.439	-222
814.538	-32
814.637	-625
814.736	-511
814.835	646
814.933	-353
815.032	-312
815.131	28
815.229	539
815.328	619
815.427	783
815.525	725
815.624	380
815.722	-102
815.821	697
815.919	492
816.018	187
816.116	883
816.215	-49
816.313	160
816.412	493
816.510	481
816.609	1454
816.707	1009
816.805	916
816.904	1243
817.002	2412
817.100	2248
817.198	1977
817.296	1702
817.395	1730
817.493	1763
817.591	1155
817.689	2484
817.787	2143
817.885	5265
817.983	8798
818.081	21222
818.179	56359
818.277	156638
818.375	113743
818.473	22123
818.571	8862
818.669	6020
818.767	5948
818.865	4820
818.963	5601
819.061	9541
819.158	19059
819.256	46444
819.354	120634
819.452	293284
819.549	154466
819.647	27878
819.745	10343
819.842	7574
819.940	5334
820.038	3684
820.135	2372
820.233	4145
820.330	1452
820.428	182
820.525	3179
820.623	1908
820.720	1026
820.818	1261
820.915	847
821.012	1686
821.110	-379
821.207	1763
821.304	959
821.402	425
821.499	1979
821.596	3197
821.693	1506
821.791	1550
821.888	3099
821.985	7864
822.082	5002
822.179	1207
822.276	1462
822.373	677
822.470	268
822.567	666
822.664	480
822.761	634
822.858	698
822.955	740
823.052	777
823.149	464
823.246	250
823.343	154
823.440	469
823.536	254
823.633	792
823.730	-208
823.827	1127
823.923	113
824.020	1340
824.117	760
824.213	214
824.310	1032
824.407	402
824.503	101
824.600	967
824.696	136
824.793	1541
824.889	568
824.986	1342
825.082	612
825.179	929
825.275	1026
825.371	166
825.468	141
825.564	-843
825.660	772
825.757	192
825.853	817
825.949	-183
826.045	167
826.142	-88
826.238	349
826.334	803
826.430	-452
826.526	332
826.622	45
826.718	523
826.814	-200
826.910	590
827.006	165
827.102	-314
827.198	13
827.294	-199
827.390	318
827.486	50
827.582	-4
827.678	-549
827.774	1714
827.869	-813
827.965	710
828.061	29
828.157	149
828.252	-117
828.348	-838
828.444	8
828.539	-702
828.635	183
828.731	276
828.826	-591
828.922	504
829.017	597
829.113	382
829.208	-16
829.304	-97
829.399	1358
829.495	82
829.590	587
829.685	-463
829.781	-387
829.876	-464
829.971	-647
830.066	-83
830.162	47
830.257	134
830.352	-171
830.447	1021
830.543	401
830.638	-1309
830.733	697
830.828	-136
830.923	137
831.018	123
831.113	89
831.208	-589
831.303	-762
831.398	-178
831.493	-260
831.588	434
831.683	-1080
831.778	-233
831.873	997
831.967	1029
832.062	294
832.157	-1100
832.252	1033
832.346	193
832.441	1792
832.536	1888
832.631	5191
832.725	3632
832.820	364
832.914	-215
833.009	-112
833.104	162
833.198	1101
833.293	-882
833.387	81
833.482	-177
833.576	-463
833.670	782
833.765	-180
833.859	443
833.954	751
834.048	185
834.142	315
834.237	-885
834.331	52
834.425	-655
834.519	-1064
834.613	49
834.708	-1170
834.802	-528
834.896	-418
834.990	-644
835.084	-332
835.178	52
835.272	-868
835.366	-654
835.460	433
835.554	-174
835.648	15
835.742	-1233
835.836	73
835.930	-974
836.024	143
836.117	785
836.211	-1094
836.305	-550
836.399	403
836.493	-1728
836.586	253
836.680	-155
836.774	-779
836.867	-556
836.961	-1055
837.055	-716
837.148	-1782
837.242	-468
837.335	-382
837.429	-826
837.522	-699
837.616	-526
837.709	125
837.803	-608
837.896	93
837.989	-1075
838.083	60
838.176	814
838.269	-342
838.363	29
838.456	310
838.549	810
838.642	1975
838.735	6282
838.829	1351
838.922	-597
839.015	-624
839.108	-845
839.201	398
839.294	171
839.387	-76
839.480	-840
839.573	-219
839.666	-128
839.759	-911
839.852	-635
839.945	-553
840.038	-880
840.131	-802
840.223	-611
840.316	257
840.409	65
840.502	-1026
840.594	626
840.687	-2034
840.780	-282
840.873	-771
840.965	-1146
841.058	138
841.150	372
841.243	-749
841.336	579
841.428	-69
841.521	-1148
841.613	-1496
841.706	-646
841.798	-777
841.890	-274
841.983	-1365
842.075	-143
842.167	-701
842.260	-550
842.352	-545
842.444	-1061
842.537	-3
842.629	883
842.721	-1575
842.813	-928
842.905	-1133
842.997	-420
843.090	-6
843.182	-341
843.274	-197
843.366	1043
843.458	3833
843.550	2169
843.642	-275
843.734	-227
843.826	-491
843.918	-78
844.009	-79
844.101	-178
844.193	-449
844.285	-1317
844.377	122
844.469	752
844.560	535
844.652	848
844.744	-52
844.835	-527
844.927	-604
845.019	-295
845.110	218
845.202	-504
845.293	-755
845.385	-1005
845.476	-456
845.568	494
845.659	-1470
845.751	-594
845.842	-450
845.934	-1057
846.025	-1424
846.116	99
846.208	-979
846.299	-1042
846.390	-1242
846.482	-443
846.573	-438
846.664	144
846.755	268
846.846	512
846.937	-1678
847.029	-263
847.120	-795
847.211	-756
847.302	976
847.393	-1517
847.484	-722
847.575	-1387
847.666	-983
847.757	-414
847.847	-654
847.938	-3
848.029	-444
848.120	-789
848.211	-614
848.302	-842
848.392	-517
848.483	-40
848.574	-764
848.664	-1224
848.755	-743
848.846	-372
848.936	-832
849.027	-643
849.118	189
849.208	414
849.299	1349
849.389	4188
849.480	10846
849.570	22629
849.661	45030
849.751	78128
849.841	23693
849.932	2686
850.022	-216
850.112	757
850.203	-265
850.293	86
850.383	886
850.474	-386
850.564	-1472
850.654	-903
850.744	79
850.834	-438
850.924	110
851.014	56
851.104	-385
851.194	-942
851.284	802
851.374	-1
851.464	-64
851.554	478
851.644	-264
851.734	278
851.824	42
851.914	-722
852.004	308
852.094	-808
852.183	101
852.273	308
852.363	191
852.452	467
852.542	-384
852.632	-239
852.721	277
852.811	-704
852.901	79
852.990	449
853.080	1355
853.169	1202
853.259	572
853.348	1358
853.438	2626
853.527	4338
853.617	5775
853.706	12170
853.795	25596
853.885	63426
853.974	121282
854.063	227588
854.152	353539
854.242	124812
854.331	19859
854.420	7244
854.509	4620
854.598	5290
854.687	2804
854.777	2620
854.866	1616
854.955	878
855.044	773
855.133	625
855.222	707
855.311	-43
855.400	20
855.488	254
855.577	339
855.666	564
855.755	942
855.844	87
855.933	-482
856.021	-290
856.110	289
856.199	-650
856.288	-295
856.376	-653
856.465	-1244
856.554	-159
856.642	-580
856.731	-394
856.819	-500
856.908	62
856.996	-755
857.085	-567
857.173	-223
857.262	-516
857.350	-827
857.438	-493
857.527	130
857.615	-840
857.703	-258
857.792	-848
857.880	-976
857.968	-396
858.056	-694
858.145	-490
858.233	151
858.321	-150
858.409	726
858.497	-1216
858.585	-963
858.673	-562
858.761	-899
858.849	-1086
858.937	-1061
859.025	157
859.113	-699
859.201	-579
859.289	-258
859.377	-980
859.465	-488
859.552	-1355
859.640	-347
859.728	-918
859.816	-442
859.903	328
859.991	-144
860.079	-480
860.166	-649
860.254	-926
860.342	-68
860.429	-1147
860.517	-1127
860.604	238
860.692	-761
860.779	-655
860.867	-425
860.954	-602
861.042	-931
861.129	-442
861.216	-663
861.304	-863
861.391	-293
861.478	-699
861.565	-129
861.653	254
861.740	-1495
861.827	-237
861.914	450
862.001	-1718
862.089	39
862.176	-198
862.263	-1052
862.350	-652
862.437	-873
862.524	-516
862.611	-854
862.698	-328
862.785	357
862.871	-61
862.958	-820
863.045	-35
863.132	-849
863.219	-142
863.306	-743
863.392	-1130
863.479	-1120
863.566	-839
863.652	54
863.739	-970
863.826	154
863.912	-925
863.999	-952
864.086	-926
864.172	-684
864.259	-607
864.345	-1035
864.432	-272
864.518	-538
864.604	-359
864.691	37
864.777	-701
864.863	360
864.950	706
865.036	-160
865.122	1592
865.209	1152
865.295	1469
865.381	2380
865.467	1952
865.553	3196
865.639	6744
865.726	13167
865.812	30263
865.898	63018
865.984	95450
866.070	181261
866.156	192325
866.242	45883
866.328	8204
866.414	3385
866.499	2598
866.585	1809
866.671	1359
866.757	1875
866.843	1453
866.928	993
867.014	154
867.100	1242
867.186	573
867.271	956
867.357	1018
867.442	661
867.528	798
867.614	-561
867.699	449
867.785	1394
867.870	1021
867.956	1962
868.041	1201
868.127	1217
868.212	1043
868.297	942
868.383	983
868.468	1607
868.553	3106
868.639	3155
868.724	7560
868.809	6812
868.894	685
868.979	187
869.065	-118
869.150	-468
869.235	-720
869.320	-166
869.405	-1062
869.490	-821
869.575	-454
869.660	-838
869.745	558
869.830	-111
869.915	-361
870.000	-284
870.085	-91
870.169	393
870.254	396
870.339	-430
870.424	-254
870.509	8
870.593	-609
870.678	-276
870.763	-468
870.847	-93
870.932	274
871.016	-159
871.101	303
871.186	-174
871.270	94
871.355	-545
871.439	68
871.523	-164
871.608	-181
871.692	-439
871.777	607
871.861	-748
871.945	-810
872.030	32
872.114	-560
872.198	-547
872.282	-423
872.367	-24
872.451	-477
872.535	-544
872.619	-96
872.703	-320
872.787	-618
872.871	-975
872.955	-242
873.039	-714
873.123	-109
873.207	1110
873.291	-566
873.375	-652
873.459	-346
873.543	-351
873.627	-675
873.711	-833
873.794	-629
873.878	-103
873.962	234
874.045	-337
874.129	-227
874.137	-261
874.213	-604
874.245	-684
874.296	-810
874.352	-978
874.380	-1066
874.460	-600
874.464	-581
874.547	729
874.568	627
874.631	320
874.676	76
874.714	-122
874.784	546
874.798	673
874.881	1185
874.892	999
874.965	-179
874.999	137
875.048	485
875.107	-84
875.131	-287
875.215	-483
875.215	-483
875.298	-775
875.323	-483
875.381	228
875.430	114
875.465	5
875.538	-217
875.548	-228
875.631	-329
875.646	-432
875.714	-1109
875.753	-906
875.798	-549
875.861	-146
875.881	-69
875.964	-218
875.968	-208
876.047	84
876.076	-6
876.130	-186
876.183	221
876.213	457
876.291	553
876.296	556
876.379	-1173
876.398	-970
876.462	-355
876.506	-380
876.545	-295
876.613	-243
876.628	-259
876.711	-470
876.721	-390
876.794	210
876.828	43
876.877	-153
876.935	-146
876.960	-111
877.043	246
877.043	248
877.125	508
877.150	503
877.208	582
877.258	521
877.291	544
877.365	-39
877.374	-142
877.456	495
877.472	411
877.539	276
877.579	473
877.622	617
877.687	363
877.704	323
877.787	656
877.794	584
877.869	-361
877.901	-147
877.952	341
878.008	446
878.034	418
878.115	-455
878.117	-467
878.199	-272
878.222	-28
878.282	535
878.329	404
878.364	291
878.437	384
878.447	377
878.529	-847
878.544	-784
878.611	-266
878.651	-262
878.694	-238
878.758	84
878.776	147
878.858	-147
878.865	-112
878.941	207
878.972	15
879.023	-91
879.078	-100
879.105	-219
879.185	135
879.187	154
879.269	151
879.292	181
879.351	-344
879.399	-649
879.433	-547
879.506	346
879.516	406
879.598	161
879.613	125
879.680	266
879.720	322
879.762	109
879.827	-193
879.844	-162
879.926	-21
879.933	-13
880.007	-147
880.040	183
880.089	815
880.147	1367
880.171	1544
880.253	3342
880.254	3358
880.335	5807
880.360	6516
880.417	8527
880.467	13081
880.499	16248
880.574	18871
880.580	18711
880.662	5390
880.680	3986
880.744	616
880.787	151
880.825	-36
880.893	-66
880.907	-14
880.989	5
881.000	20
881.070	214
881.106	381
881.152	468
881.213	-29
881.233	-218
881.315	-137
881.319	-141
881.396	217
881.426	185
881.478	-215
881.532	-9
881.559	190
881.639	-123
881.641	-133
881.722	47
881.745	-85
881.803	77
881.852	449
881.885	312
881.958	-335
881.966	-340
882.047	472
882.064	511
882.129	260
882.171	537
882.210	1011
882.277	1091
882.291	1105
882.372	660
882.383	595
882.454	145
882.489	193
882.535	-37
882.596	-405
882.616	-380
882.697	11
882.702	-10
882.778	-282
882.808	-88
882.859	-69
882.914	-395
882.940	-455
883.020	-391
883.021	-383
883.102	327
883.127	565
883.183	36
883.233	-613
883.264	-602
883.339	-271
883.345	-273
883.426	-620
883.445	-607
883.507	-291
883.551	-132
883.587	-36
883.657	27
883.668	34
883.749	167
883.763	122
883.830	-432
883.869	-493
883.910	-172
883.975	11
883.991	-64
884.072	-382
884.081	-406
884.152	-250
884.187	-233
884.233	-237
884.292	40
884.314	77
884.394	-326
884.398	-348
884.475	-865
884.504	-895
884.555	-484
884.610	-302
884.636	-283
884.716	4
884.716	7
884.797	-129
884.821	-167
884.877	-134
884.927	-342
884.958	-480
885.033	-247
885.038	-239
885.118	-362
885.139	-375
885.199	-110
885.244	-25
885.279	-363
885.350	-1001
885.359	-887
885.439	-9
885.456	208
885.520	-120
885.561	-402
885.600	-216
885.667	258
885.680	283
885.760	53
885.773	66
885.840	-125
885.878	-268
885.920	-158
885.984	-58
886.000	-98
886.080	-485
886.089	-474
886.160	-233
886.195	-316
886.240	-167
886.300	110
886.320	37
886.400	-112
886.406	-131
886.480	-254
886.511	-237
886.560	-14
886.616	-114
886.640	-206
886.720	-471
886.722	-472
886.800	-128
886.827	-86
886.879	-221
886.932	-378
886.959	-249
887.038	73
887.039	80
887.119	306
887.143	359
887.198	411
887.248	488
887.278	428
887.354	114
887.358	115
887.437	208
887.459	231
887.517	560
887.564	715
887.596	500
887.669	45
887.676	72
887.755	431
887.774	503
887.835	435
887.880	457
887.914	563
887.985	589
887.994	477
888.073	-494
888.090	-699
888.153	155
888.195	737
888.232	460
888.300	-116
888.311	-121
888.391	-57
888.405	-68
888.470	-316
888.510	-494
888.549	-284
888.615	194
888.628	69
888.708	-762
888.720	-894
888.787	146
888.825	700
888.866	150
888.930	-609
888.945	-498
889.024	5
889.035	75
889.103	-7
889.140	-79
889.182	70
889.245	336
889.261	225
889.340	-346
889.349	-411
889.419	168
889.454	461
889.498	-9
889.559	-685
889.577	-518
889.656	244
889.664	318
889.735	166
889.768	92
889.814	307
889.873	594
889.978	238
890.083	1088
890.187	-400
890.292	277
890.397	-442
890.501	185
890.606	-1057
890.710	1044
890.815	-425
890.919	263
891.024	-42
891.128	1168
891.233	-368
891.337	514
891.442	-340
891.546	372
891.650	147
891.755	419
891.859	477
891.963	371
892.068	252
892.172	83
892.276	123
892.380	967
892.484	-968
892.589	316
892.693	-438
892.797	-366
892.901	-288
893.005	811
893.109	-898
893.213	-185
893.317	130
893.421	558
893.525	-83
893.629	-383
893.733	-248
893.837	59
893.941	-157
894.045	560
894.148	-305
894.252	607
894.356	-229
894.460	837
894.564	-562
894.667	68
894.771	-577
894.875	574
894.978	-405
895.082	643
895.186	90
895.289	412
895.393	172
895.496	-452
895.600	-717
895.703	237
895.807	-132
895.910	404
896.014	196
896.117	253
896.221	-218
896.324	-885
896.427	-990
896.531	-245
896.634	-433
896.737	457
896.840	-9
896.944	140
897.047	56
897.150	405
897.253	-321
897.356	215
897.460	-88
897.563	200
897.666	-589
897.769	-321
897.872	-877
897.975	154
898.078	-1092
898.181	284
898.284	-223
898.387	922
898.490	-322
898.593	332
898.695	143
898.798	250
898.901	48
899.004	574
899.107	-462
899.209	-272
899.312	71
899.415	597
899.518	-359
899.620	288
899.723	-311
899.826	364
899.928	898
900.031	494
900.133	-73
900.236	-130
900.338	-411
900.441	112
900.543	-161
900.646	631
900.748	-144
900.851	-282
900.953	-489
901.055	-383
901.158	48
901.260	316
901.362	48
901.465	-217
901.567	-571
901.669	546
901.771	-223
901.873	-190
901.976	-154
902.078	280
902.180	-38
902.282	218
902.384	-483
902.486	681
902.588	-375
902.690	-524
902.792	-1337
902.894	651
902.996	-558
903.098	280
903.200	-274
903.302	-92
903.404	24
903.505	486
903.607	57
903.709	696
903.811	-339
903.913	-165
904.014	-150
904.116	26
904.218	230
904.319	338
904.421	-110
904.523	-55
904.624	73
904.726	800
904.827	-461
904.929	330
905.030	-1006
905.132	1039
905.233	-424
905.335	-456
905.436	-891
905.537	-145
905.639	376
905.740	73
905.841	553
905.943	341
906.044	-185
906.145	197
906.247	-346
906.348	18
906.449	-329
906.550	363
906.651	188
906.752	196
906.854	-395
906.955	-325
907.056	-380
907.157	158
907.258	-174
907.359	339
907.460	-164
907.561	185
907.662	-884
907.762	240
907.863	-1070
907.964	435
908.065	232
908.166	-46
908.267	-64
908.367	-285
908.468	-321
908.569	570
908.670	-136
908.770	112
908.871	194
908.971	762
909.072	-284
909.173	6
909.273	-256
909.374	-182
909.474	339
909.575	10
909.675	-868
909.776	462
909.876	-385
909.977	265
910.077	-179
910.177	130
910.278	354
910.378	-245
910.478	-831
910.579	-26
910.679	-219
910.779	435
910.879	125
910.980	366
911.080	-576
911.180	109
911.280	98
911.380	-113
911.480	266
911.580	-17
911.680	-497
911.780	-155
911.880	-424
911.980	-334
912.080	-739
912.180	812
912.280	347
912.380	78
912.480	-341
912.580	-573
912.679	203
912.779	-337
912.879	554
912.979	419
913.078	-669
913.178	-652
913.278	-215
913.377	19
913.477	-60
913.577	8
913.676	-89
913.776	414
913.875	-750
913.975	64
914.074	505
914.174	-152
914.273	80
914.373	851
914.472	-769
914.572	92
914.671	-911
914.770	-615
914.870	-557
914.969	649
915.068	-549
915.167	1481
915.267	28
915.366	455
915.465	-524
915.564	449
915.663	-120
915.763	-534
915.862	-132
915.961	537
916.060	-120
916.159	726
916.258	-125
916.357	-417
916.456	-430
916.555	797
916.654	-359
916.752	-21
916.851	-1094
916.950	147
917.049	-85
917.148	101
917.247	-220
917.345	135
917.444	-437
917.543	-53
917.642	-647
917.740	-624
917.839	-541
917.937	523
918.036	-147
918.135	210
918.233	-494
918.332	-69
918.430	-344
918.529	36
918.627	194
918.726	-129
918.824	338
918.923	36
919.021	-961
919.119	-69
919.218	-1112
919.316	-188
919.414	-829
919.512	743
919.611	-130
919.709	-408
919.807	76
919.905	178
920.003	162
920.102	195
920.200	13
920.298	836
920.396	-439
920.494	-511
920.592	-568
920.690	635
920.788	-887
920.886	680
920.984	-72
921.082	-25
921.180	296
921.277	284
921.375	892
921.473	202
921.571	-16
921.669	124
921.766	88
921.864	374
921.962	125
922.060	493
922.157	130
922.255	1544
922.352	55
922.450	1461
922.548	76
922.645	1675
922.743	714
922.840	1219
922.938	966
923.035	241
923.133	235
923.230	1273
923.327	1288
923.425	1739
923.522	1377
923.619	815
923.717	430
923.814	1013
923.911	590
924.008	1531
924.106	1009
924.203	350
924.300	72
924.397	1160
924.494	1534
924.591	1526
924.688	-34
924.786	809
924.883	885
924.979	510
925.077	1337
925.173	1024
925.270	766
925.367	128
925.464	1371
925.561	1341
925.658	880
925.755	2258
925.852	163
925.948	57
926.045	923
926.142	1628
926.239	1174
926.335	373
926.432	733
926.529	1352
926.625	1192
926.722	211
926.818	456
926.915	1552
927.011	195
927.108	695
927.204	282
927.301	1084
927.397	342
927.494	870
927.590	737
927.687	656
927.783	964
927.879	310
927.976	320
928.072	1742
928.168	35
928.264	474
928.361	93
928.457	1257
928.553	589
928.649	833
928.745	-265
928.841	643
928.937	566
929.033	1359
929.129	504
929.225	872
929.321	190
929.417	510
929.513	395
929.609	1645
929.705	-91
929.801	875
929.897	262
929.993	64
930.089	278
930.184	1053
930.280	273
930.376	1431
930.471	-145
930.567	901
930.663	989
930.758	957
930.854	130
930.950	27
931.045	-131
931.141	871
931.236	1061
931.332	667
931.427	211
931.523	985
931.618	355
931.714	344
931.809	733
931.905	1047
932.000	557
932.095	-460
932.191	443
932.286	880
932.381	-203
932.476	550
932.572	708
932.667	1001
932.762	262
932.857	947
932.952	345
933.047	897
933.142	-178
933.237	726
933.332	138
933.427	685
933.522	-298
933.617	7
933.712	494
933.807	52
933.902	272
933.997	793
934.092	197
934.187	1024
934.282	94
934.376	1100
934.471	69
934.566	630
934.661	126
934.755	531
934.850	604
934.945	1446
935.039	-398
935.134	1142
935.228	-191
935.323	274
935.417	571
935.512	160
935.606	262
935.701	-10
935.795	-247
935.890	861
935.984	-129
936.079	18
936.173	-31
936.267	477
936.362	143
936.456	334
936.550	1203
936.644	455
936.738	382
936.833	805
936.927	196
937.021	65
937.115	-11
937.209	149
937.303	869
937.397	603
937.491	355
937.585	250
937.679	-262
937.773	630
937.867	243
937.961	350
938.055	-181
938.149	450
938.243	432
938.337	149
938.430	259
938.524	370
938.618	528
938.712	607
938.805	84
938.899	-135
938.993	55
939.086	328
939.180	-296
939.274	1514
939.367	776
939.461	181
939.554	252
939.648	388
939.741	-341
939.835	48
939.928	207
940.022	1109
940.115	-155
940.208	106
940.302	-168
940.395	863
940.488	-719
940.582	1339
940.675	-593
940.768	-205
940.861	-784
940.954	916
941.048	-168
941.141	161
941.234	-333
941.327	574
941.420	196
941.513	500
941.606	122
941.699	-109
941.792	-328
941.885	285
941.978	-3
942.071	-31
942.164	-375
942.257	360
942.349	-585
942.442	675
942.535	-631
942.628	-14
942.721	104
942.813	83
942.906	145
942.999	336
943.091	195
943.184	266
943.277	-183
943.369	769
943.462	-375
943.554	118
943.647	-734
943.739	300
943.832	430
943.924	-718
944.017	-76
944.109	-174
944.201	-392
944.294	18
944.386	-880
944.478	-243
944.571	-267
944.663	-20
944.755	83
944.847	265
944.940	7
945.032	-379
945.124	290
945.216	1020
945.308	363
945.400	295
945.492	3
945.584	454
945.676	339
945.768	382
945.860	-452
945.952	377
946.044	-136
946.136	107
946.228	-246
946.320	-413
946.412	214
946.503	192
946.595	1061
946.687	-225
946.779	-458
946.870	377
946.962	-987
947.054	237
947.145	95
947.237	116
947.329	64
947.420	220
947.512	-553
947.603	120
947.695	-1146
947.786	202
947.878	-928
947.969	263
948.061	-400
948.152	-314
948.243	-381
948.335	-296
948.426	-347
948.517	493
948.609	328
948.700	98
948.791	-6
948.882	-111
948.973	-928
949.065	-182
949.156	140
949.247	-470
949.338	-565
949.429	-342
949.520	367
949.611	-199
949.702	-316
949.793	-24
949.884	-806
949.975	-56
950.066	-1214
950.157	343
950.247	-680
950.338	-419
950.429	-1749
950.520	553
950.611	-640
950.701	-814
950.792	-355
950.883	410
950.973	-578
951.064	-57
951.155	-91
951.245	779
951.336	475
951.427	-225
951.517	291
951.608	1421
951.698	62
951.788	58
951.879	-649
951.969	-105
952.060	-1342
952.150	-620
952.240	94
952.331	-1684
952.421	-22
952.511	-106
952.602	-25
952.692	44
952.782	-486
952.872	769
952.962	260
953.052	-153
953.143	-1117
953.233	-190
953.323	-508
953.413	-623
953.503	100
953.593	249
953.683	179
953.773	-1156
953.863	-906
953.953	-334
954.042	-1152
954.132	-1020
954.222	-899
954.312	-299
954.402	-1120
954.492	-1065
954.581	-627
954.671	-945
954.761	-2064
954.850	65
954.940	-1102
955.030	190
955.119	-342
955.209	393
955.298	-905
955.388	391
955.477	16
955.567	-722
955.656	-192
955.746	-245
955.835	-145
955.925	-1076
956.014	-580
956.103	-15
956.193	-881
956.282	26
956.371	-130
956.461	177
956.550	-20
956.639	12
956.728	-575
956.817	33
956.906	-873
956.995	207
957.085	-1215
957.174	-258
957.263	243
957.352	-490
957.441	-937
957.530	-14
957.619	-33
957.708	-1066
957.796	-441
957.885	91
957.974	-1249
958.063	-705
958.152	-1529
958.241	-647
958.329	-607
958.418	-1227
958.507	-488
958.596	187
958.684	-680
958.773	64
958.861	-1321
958.950	-281
959.039	326
959.127	-10
959.216	-560
959.304	-930
959.393	-1113
959.481	112
959.570	-695
959.658	-316
959.746	-901
959.835	-141
959.923	-557
960.011	-1107
960.100	-26
960.188	-61
960.276	-800
960.365	-63
960.453	-483
960.541	-933
960.629	-1157
960.717	-729
960.805	-1474
960.893	-184
960.981	-1244
961.069	612
961.158	-657
961.245	827
961.333	-1135
961.421	-1243
961.509	47
961.597	-242
961.685	-1187
961.773	-501
961.861	-1715
961.949	-189
962.036	-973
962.124	229
962.212	-1147
962.299	-224
962.387	-510
962.475	122
962.562	-1332
962.650	515
962.738	139
962.825	-1024
962.913	-603
963.000	-39
963.088	-469
963.175	-264
963.263	-713
963.350	-17
963.438	-970
963.525	-628
963.612	-722
963.700	-505
963.787	919
963.874	489
963.962	-584
964.049	9
964.136	-828
964.223	-1136
964.310	-1515
964.398	-738
964.485	-1242
964.572	-778
964.659	-1521
964.746	-325
964.833	-774
964.920	35
965.007	-529
965.094	158
965.181	-766
965.268	227
965.355	-860
965.441	-188
965.528	-2323
965.615	-28
965.702	-1883
965.789	-550
965.875	-1427
965.962	-3
966.049	-1727
966.136	-33
966.222	-1772
966.309	381
966.395	-1496
966.482	-444
966.569	-1279
966.655	-32
966.742	-1264
966.828	109
966.915	-1944
967.001	665
967.087	-1151
967.174	-1061
967.260	-1348
967.347	-43
967.433	-1216
967.519	571
967.605	-1253
967.692	-736
967.778	-1059
967.864	-569
967.950	-451
968.036	-615
968.123	-859
968.209	-223
968.295	-1585
968.381	417
968.467	-706
968.553	-1181
968.639	296
968.725	-2293
968.811	-1536
968.897	20
968.983	-904
969.069	-838
969.154	-309
969.240	-155
969.326	-1325
969.412	-942
969.497	-1768
969.583	-1019
969.669	-110
969.755	53
969.840	-1045
969.926	-155
970.012	-614
970.097	535
970.183	-1468
970.268	-53
970.354	-507
970.439	-1127
970.525	-7
970.610	-1156
970.696	-1161
970.781	-69
970.866	-1811
970.952	-673
971.037	-1531
971.122	-832
971.208	-1027
971.293	-1194
971.378	-1685
971.463	-725
971.549	-412
971.634	-492
971.719	-846
971.804	-1048
971.889	27
971.974	-469
972.059	-805
972.144	-132
972.229	-980
972.314	-1128
972.399	-838
972.484	-248
972.569	-812
972.654	-673
972.739	109
972.824	-71
972.908	-1210
972.993	-1222
973.078	-1452
973.163	-740
973.247	-693
973.332	-1053
973.417	-536
973.501	-328
973.586	-401
973.671	-467
973.755	-857
973.840	-242
973.924	17
974.009	-148
974.093	-647
974.178	698
974.262	-946
974.346	-915
974.431	-922
974.515	-746
974.600	-1361
974.684	338
974.768	-1637
974.852	244
974.937	-1667
975.021	-211
975.105	-195
975.189	-552
975.273	-740
975.358	-1522
975.442	-2170
975.526	18
975.610	-1245
975.694	-940
975.778	-474
975.862	12
975.946	-2659
976.030	796
976.114	-1144
976.198	-827
976.281	-808
976.365	457
976.449	-1164
976.533	89
976.617	-1193
976.700	-468
976.784	-973
976.868	-1111
976.951	-711
977.035	-960
977.119	-1157
977.202	-1148
977.286	-644
977.369	-869
977.453	-785
977.536	-205
977.620	-658
977.703	-258
977.787	-1573
977.870	551
977.953	-684
978.037	-807
978.120	-536
978.203	-1118
978.287	-813
978.370	-184
978.453	-1020
978.536	-979
978.620	-818
978.703	-299
978.786	-1783
978.869	-294
978.952	-2170
979.035	686
979.118	-976
979.201	-1069
979.284	-1405
979.367	-706
979.450	237
979.533	-324
979.616	-616
979.699	-296
979.782	-412
979.865	-635
979.948	-453
980.030	-1245
980.113	-2434
980.196	-1085
980.279	-1810
980.361	-303
980.444	-1354
980.526	18
980.609	-1338
980.692	-465
980.774	113
980.857	-2014
980.939	-474
981.022	-1024
981.104	-1383
981.187	-409
981.269	334
981.352	-486
981.434	-840
981.516	-1896
981.599	-210
981.681	-800
981.763	-501
981.846	-444
981.928	-1435
982.010	-649
982.092	-1347
982.174	-406
982.256	-1253
982.339	-595
982.421	-1057
982.503	-1174
982.585	-1905
982.667	-131
982.749	-1127
982.831	-364
982.913	-1185
982.995	-114
983.077	-860
983.158	372
983.240	-2435
983.322	-287
983.404	-414
983.486	-821
983.568	-643
983.649	-595
983.731	-729
983.813	-477
983.894	-1039
983.976	-954
984.058	-1006
984.139	505
984.221	-1735
984.302	432
984.384	-1396
984.465	-629
984.547	-1363
984.628	-1012
984.710	-158
984.791	-146
984.872	-512
984.954	-1546
985.035	-1027
985.116	-2030
985.198	-1510
985.279	865
985.360	-802
985.441	-1396
985.522	-106
985.604	-425
985.685	-1808
985.766	150
985.847	-629
985.928	-499
986.009	-663
986.090	-61
986.171	-755
986.252	-1277
986.333	-913
986.414	-645
986.495	-1415
986.576	-778
986.656	-492
986.737	-277
986.818	-1147
986.899	-691
986.980	-882
987.060	39
987.141	-1716
987.222	-1111
987.302	-253
987.383	76
987.464	-1250
987.544	-347
987.625	-1136
987.705	130
987.786	-577
987.866	-925
987.947	-72
988.027	119
988.108	-654
988.188	621
988.268	-1034
988.349	-408
988.429	-1093
988.509	-689
988.589	-1159
988.670	-1742
988.750	577
988.830	-463
988.910	-1325
988.990	36
989.070	-1332
989.151	-751
989.231	-1997
989.311	-203
989.391	-990
989.471	-777
989.551	-1530
989.631	-988
989.711	-938
989.791	-677
989.870	-2179
989.950	294
990.030	-463
990.110	-105
990.190	-574
990.269	-1134
990.349	-1679
990.429	494
990.509	-374
990.588	-871
990.668	-771
990.747	-892
990.827	-411
990.907	-781
990.986	-1477
991.066	-180
991.145	-1063
991.225	-329
991.304	-1505
991.383	159
991.463	-779
991.542	-472
991.622	-895
991.701	-749
991.780	-1242
991.859	-225
991.939	-1514
992.018	-836
992.097	-540
992.176	243
992.256	-1072
992.335	-411
992.414	-391
992.493	-1199
992.572	-696
992.651	203
992.730	-641
992.809	-216
992.888	-1160
992.967	-785
993.046	-377
993.125	-615
993.203	-1420
993.282	-1042
993.361	-956
993.440	-141
993.519	-1534
993.597	-3
993.676	-1565
993.755	-455
993.834	-943
993.912	-564
993.991	414
994.069	-1520
994.148	-1384
994.226	-1538
994.305	-407
994.384	-2037
994.462	-516
994.540	-785
994.619	-1641
994.697	-885
994.776	-1187
994.854	-328
994.932	-823
995.011	-388
995.089	-1737
995.167	-742
995.245	-1368
995.324	-858
995.402	-982
995.480	-746
995.558	-1156
995.636	-846
995.714	-1079
995.792	-224
995.870	-2416
995.948	-1335
996.026	-541
996.104	-1542
996.182	-458
996.260	-905
996.338	-846
996.416	-1066
996.494	-1990
996.572	-44
996.649	-1710
996.727	-1660
996.805	-791
996.883	-1176
996.960	-1692
997.038	-510
997.116	-640
997.193	-1581
997.271	-388
997.348	-739
997.426	-887
997.504	-1159
997.581	-1068
997.658	-129
997.736	-2039
997.813	-1333
997.891	-877
997.968	-927
998.046	-936
998.123	-887
998.200	-1295
998.277	-1849
998.355	-670
998.432	-1389
998.509	-1389
998.586	-409
998.663	-964
998.741	-392
998.818	-1174
998.895	-652
998.972	-988
999.049	-968
999.126	-1516
999.203	56
999.280	-833
999.357	-961
999.434	-1242
999.511	-1334
999.587	72
999.664	-1425
999.741	-1493
999.818	-267
999.895	-1566
999.971	-750
1000.048	-869
1000.125	-507
1000.202	-2348
1000.278	-426
1000.355	-587
1000.431	-886
1000.508	-1911
1000.584	-813
1000.661	-1178
1000.738	-1907
1000.814	-620
1000.890	27
1000.967	-1525
1001.043	-1588
1001.120	-2406
1001.196	-996
1001.272	-1711
1001.349	-928
1001.425	-1429
1001.501	-574
1001.577	-1829
1001.654	-302
1001.730	-1702
1001.806	-296
1001.882	-1692
1001.958	-952
1002.034	-516
1002.110	-1215
1002.186	-2189
1002.262	-1081
1002.338	-1004
1002.414	-923
1002.490	-225
1002.566	-1370
1002.642	-2314
1002.718	303
1002.794	-755
1002.870	-1122
1002.945	-1217
1003.021	-1327
1003.097	-1921
1003.173	-346
1003.248	-1199
1003.324	-796
1003.400	-2046
1003.475	-1634
1003.551	-1578
1003.626	-711
1003.702	-1734
1003.777	-1620
1003.853	-1749
1003.928	-1422
1004.004	-1651
1004.079	-169
1004.155	-1350
1004.230	-1507
1004.305	-683
1004.381	-1199
1004.456	-1517
1004.531	-543
1004.607	-944
1004.682	-2131
1004.757	-693
1004.832	-806
1004.907	-1510
1004.982	-450
1005.057	-1324
1005.133	-1202
1005.208	-1560
1005.283	-1364
1005.358	-1290
1005.433	-1429
1005.508	-2160
1005.583	-2447
1005.657	-2047
1005.732	-867
1005.807	-1776
1005.882	-1435
1005.957	-1034
1006.032	-388
1006.106	-1358
1006.181	-1273
1006.256	-1269
1006.331	-1941
1006.405	-1374
1006.480	-1271
1006.554	-1403
1006.629	-1196
1006.704	-1458
1006.778	-713
1006.853	-1224
1006.927	-1355
1007.002	-1388
1007.076	-232
1007.150	-1492
1007.225	-1046
1007.299	-1000
1007.373	-2066
1007.448	-1047
1007.522	19
1007.596	-1421
1007.671	-1179
1007.745	-1695
1007.819	-1346
1007.893	-1675
1007.967	-1026
1008.041	-3085
1008.115	-641
1008.190	-1810
1008.264	-1259
1008.338	-2889
1008.412	-1185
1008.486	-1796
1008.560	-1246
1008.633	-2039
1008.707	-887
1008.781	-1019
1008.855	-1727
1008.929	-1312
1009.003	-1015
1009.076	-1551
1009.150	-396
1009.224	-1047
1009.298	-555
1009.371	-1426
1009.445	-408
1009.519	-1702
1009.592	-1520
1009.666	-1819
1009.739	-629
1009.813	-2782
1009.886	-783
1009.960	-2224
1010.033	-892
1010.107	-849
1010.180	-1352
1010.253	-1494
1010.327	-2074
1010.400	-1961
1010.473	-907
1010.547	-1025
1010.620	-833
1010.693	-1638
1010.766	-985
1010.840	-1538
1010.913	-1741
1010.986	-1696
1011.059	-1100
1011.132	-1877
1011.205	-787
1011.278	-1823
1011.351	-1786
1011.424	-1590
1011.497	-1073
1011.570	-1501
1011.643	-1491
1011.716	-1894
1011.789	-1839
1011.862	-1252
1011.934	-1438
1012.007	-2289
1012.080	-1644
1012.153	-1189
1012.225	-101
1012.298	-1509
1012.371	-1751
1012.443	-1645
1012.516	-1420
1012.588	-1615
1012.661	-593
1012.733	-1724
1012.806	-456
1012.879	-1743
1012.951	-1370
1013.023	-1255
1013.096	-1205
1013.168	-1791
1013.241	-1148
1013.313	-2003
1013.385	-1641
1013.458	-1979
1013.530	-615
1013.602	-1534
1013.674	-869
1013.746	-1939
1013.819	-1577
1013.891	-779
1013.963	-1511
1014.035	-1884
1014.107	-1292
1014.179	-1812
1014.251	-1237
1014.323	-1582
1014.395	-636
1014.467	-1578
1014.539	-1477
1014.611	-1951
1014.683	-1291
1014.754	-1599
1014.826	-1302
1014.898	-1676
1014.970	-2127
1015.042	-819
1015.113	-895
1015.185	-1697
1015.257	-2283
1015.328	-1908
1015.400	-1590
1015.471	-1736
1015.543	-1753
1015.615	-1799
1015.686	-1478
1015.757	-2063
1015.829	-10
1015.901	-1882
1015.972	-889
1016.043	-1481
1016.115	-920
1016.186	-1371
1016.257	-1144
1016.328	-1348
1016.400	-650
1016.471	-2593
1016.542	-987
1016.613	-2539
1016.685	-1708
1016.756	-1270
1016.827	-1833
1016.898	-2127
1016.969	-970
1017.040	-2237
1017.111	-1404
1017.182	-1663
1017.253	-1115
1017.324	-1766
1017.395	-1262
1017.466	-1128
1017.537	-1311
1017.608	-1849
1017.678	-793
1017.749	-2254
1017.820	-1140
1017.891	-2292
1017.961	-1094
1018.032	-2033
1018.103	-1110
1018.173	-1481
1018.244	-2146
1018.315	-1607
1018.385	-1175
1018.456	-1675
1018.526	-1649
1018.597	-2134
1018.667	-592
1018.738	-1091
1018.808	-1653
1018.878	-2850
1018.949	-1224
1019.019	-2215
1019.089	-1244
1019.160	-2189
1019.230	-1848
1019.300	-1631
1019.371	-2392
1019.441	-1371
1019.511	-891
1019.581	-1541
1019.651	-957
1019.721	-1317
1019.791	-1624
1019.861	-2391
1019.931	-1707
1020.001	-1355
1020.071	-1017
1020.141	-1815
1020.211	-982
1020.281	-1656
1020.351	-1680
1020.421	-1676
1020.491	-804
1020.560	-2114
1020.630	-997
1020.700	-1705
1020.770	-1516
1020.839	-2049
1020.909	-1430
1020.979	-1481
1021.048	-2173
1021.118	-1565
1021.187	-2009
1021.257	-2014
1021.326	-1344
1021.396	-1990
1021.465	-607
1021.535	-1295
1021.604	-2435
1021.674	-1922
1021.743	-836
1021.812	-1829
1021.882	-1472
1021.951	-1998
1022.020	-1499
1022.089	-1860
1022.159	-1246
1022.228	-1289
1022.297	-1457
1022.366	-1940
1022.435	-1726
1022.504	-1889
1022.573	-2355
1022.642	-2277
1022.711	-1733
1022.781	-1213
1022.849	-1206
1022.918	-1929
1022.987	-1118
1023.056	-1417
1023.125	-1020
1023.194	-2099
1023.263	-1484
1023.331	-1848
1023.400	-2113
1023.469	-1394
1023.538	-1523
1023.606	-2008
1023.675	-1593
1023.744	-2192
1023.812	-1574
1023.881	-1518
1023.949	-1616
1024.018	-1758
1024.086	-2116
1024.155	-1897
1024.223	-1313
1024.292	-1872
1024.360	-1566
1024.429	-2594
1024.497	-1750
1024.565	-1493
1024.634	-1530
1024.702	-1817
1024.770	-1796
1024.838	-2264
1024.907	-1611
1024.975	-1462
1025.043	-1240
1025.111	-2083
1025.179	-1864
1025.247	-1903
1025.315	-1761
1025.383	-1843
1025.451	-1439
1025.519	-1518
1025.587	-1049
1025.655	-1745
1025.723	-1260
1025.791	-1796
1025.859	-1346
1025.927	-1767
1025.995	-955
1026.062	-2355
1026.130	-1253
1026.198	-2649
1026.266	-1750
1026.333	-2254
1026.401	-1393
1026.469	-1934
1026.536	-1567
1026.604	-1344
1026.671	-1417
1026.739	-1571
1026.806	-1187
1026.874	-1983
1026.941	-2177
1027.009	-1705
1027.076	-1807
1027.144	-702
1027.211	-1845
1027.278	-2621
1027.345	-1970
1027.413	-1841
1027.480	-1738
1027.547	-1775
1027.614	-2251
1027.682	-2456
1027.749	-2070
1027.816	-2075
1027.883	-1255
1027.950	-1794
1028.017	-2804
1028.084	-1523
1028.151	-3012
1028.218	-3196
1028.285	-1124
1028.352	-2322
1028.419	-1905
1028.486	-2414
1028.553	-1413
1028.619	-2935
1028.686	-2081
1028.753	-2158
1028.820	-2101
1028.886	-2758
1028.953	-1640
1029.020	-2209
1029.086	-1707
1029.153	-3066
1029.220	-2012
1029.286	-2304
1029.353	-1560
1029.419	-1952
1029.486	-2386
1029.552	-1744
1029.619	-1679
1029.685	-1324
1029.751	-1514
1029.818	-1776
1029.884	-1390
1029.951	-1286
1030.017	-2118
1030.083	-2284
1030.149	-1566
1030.216	-1647
1030.282	-1633
1030.348	-2657
1030.414	-2143
1030.480	-2812
1030.546	-1704
1030.612	-1766
1030.678	-2116
1030.744	-1955
1030.810	-1789
1030.876	-2440
1030.942	-2273
1031.008	-2436
1031.074	-1764
1031.140	-2594
1031.206	-1855
1031.272	-2203
1031.337	-1589
1031.403	-2270
1031.469	-1939
1031.534	-2338
1031.600	-1367
1031.666	-2271
1031.731	-2134
1031.797	-2179
1031.863	-2065
1031.928	-1897
1031.994	-2032
1032.059	-3465
1032.125	-1791
1032.190	-1425
1032.256	-1800
1032.321	-3016
1032.386	-2319
1032.452	-1767
1032.517	-1211
1032.582	-2131
1032.647	-1588
1032.713	-2315
1032.778	-1636
1032.843	-2245
1032.908	-2239
1032.974	-1973
1033.039	-2028
1033.104	-2162
1033.169	-2535
1033.234	-2048
1033.299	-2049
1033.364	-2093
1033.429	-1892
1033.494	-1918
1033.559	-2429
1033.624	-2315
1033.688	-1662
1033.753	-3227
1033.818	-1685
1033.883	-3099
1033.948	-1092
1034.013	-2644
1034.077	-1478
1034.142	-1226
1034.207	-1674
1034.271	-955
1034.336	-483
1034.400	-1799
1034.465	-862
1034.530	-2221
1034.594	-1939
1034.658	-2750
1034.723	-2420
1034.787	-1892
1034.852	-1851
1034.916	-2793
1034.981	-2279
1035.045	-2245
1035.109	-2071
1035.173	-2180
1035.238	-1959
1035.302	-2635
1035.366	-954
1035.430	-2435
1035.495	-2594
1035.559	-2564
1035.623	-1397
1035.687	-2169
1035.751	-2228
1035.815	-2081
1035.879	-1874
1035.943	-2378
1036.007	-2573
1036.071	-2558
1036.135	-1272
1036.198	-2123
1036.262	-2074
1036.326	-2339
1036.390	-2102
1036.454	-1250
1036.517	-1743
1036.581	-1683
1036.645	-981
1036.709	-1474
1036.772	-2415
1036.836	-2302
1036.900	-2280
1036.963	-2998
1037.026	-1997
1037.090	-2623
1037.154	-1583
1037.217	-2490
1037.280	-2174
1037.344	-2158
1037.407	-2489
1037.471	-2468
1037.534	-2499
1037.597	-2028
1037.661	-2441
1037.724	-3045
1037.787	-2434
1037.850	-2882
1037.913	-2251
1037.977	-1771
1038.040	-1902
1038.103	-3043
1038.166	-1191
1038.229	-2387
1038.292	-2067
1038.355	-2217
1038.418	-2366
1038.481	-2355
1038.544	-2426
1038.607	-1963
1038.670	-1426
1038.732	-2641
1038.795	-2266
1038.858	-2160
1038.921	-1866
1038.984	-2295
1039.046	-2128
1039.109	-1592
1039.172	-1965
1039.234	-2591
1039.297	-1723
1039.360	-2675
1039.422	-1743
1039.485	-2898
1039.547	-2959
1039.610	-2133
1039.672	-2775
1039.734	-3152
1039.797	-1754
1039.859	-1920
1039.922	-2148
1039.984	-2491
1040.046	-1990
1040.109	-1771
1040.171	-2542
1040.233	-1938
1040.295	-2118
1040.358	-2639
1040.420	-2041
1040.482	-3182
1040.544	-1577
1040.606	-1869
1040.668	-2432
1040.730	-2300
1040.792	-1871
1040.854	-3111
1040.916	-2129
1040.978	-2418
1041.040	-682
1041.102	-1159
1041.164	-1710
1041.225	-1953
1041.287	-1783
1041.349	-2109
1041.411	-2189
1041.472	-2075
1041.534	-2090
1041.596	-1996
1041.657	-2206
1041.719	-2231
1041.781	-2536
1041.842	-2084
1041.904	-1589
1041.965	-1772
1042.027	-1333
1042.088	-2919
1042.150	-2953
1042.211	-2565
1042.272	-1624
1042.334	-2503
1042.395	-2126
1042.456	-2262
1042.518	-2109
1042.579	-1783
1042.640	-1677
1042.701	-2357
1042.763	-1409
1042.824	-2184
1042.885	-2200
1042.946	-1623
1043.007	-2298
1043.068	-2553
1043.129	-1545
1043.190	-1926
1043.251	-2015
1043.312	-1624
1043.373	-1588
1043.434	-2114
1043.495	-2560
1043.556	-1924
1043.616	-1954
1043.677	-3044
1043.738	-2138
1043.799	-2160
1043.859	-2067
1043.920	-2663
1043.981	-2242
1044.041	-2212
1044.102	-1943
1044.162	-2001
1044.223	-2004
1044.284	-2040
1044.344	-2093
1044.405	-2083
1044.465	-2057
1044.525	-1756
1044.586	-1061
1044.646	-1361
1044.707	-669
1044.767	-1681
1044.827	-1991
1044.887	-1706
1044.948	-1605
1045.008	-1634
1045.068	-965
1045.128	-1768
1045.188	-1488
1045.249	-1931
1045.309	-1511
1045.369	-1649
1045.429	-1649
1045.489	-2475
1045.549	-459
1045.609	-2049
1045.669	-2337
1045.729	-2073
1045.789	-1520
1045.848	-2307
1045.908	-1383
1045.968	-1622
1046.028	-1546
1046.088	-1918
1046.147	-557
1046.207	-2459
1046.267	-1419
1046.326	-1959
1046.386	-864
1046.446	-1189
1046.505	-1347
1046.565	-554
1046.624	54
1046.684	-1795
1046.743	-521
1046.803	-762
1046.862	-703
1046.922	0
