'Start Wavelength	183.907
'End Wavelength	1046.922
'Gate Delay	5.000
'Gate Width (ms)	1.050
'Laser Output Level	0.000
'X Position	0.000
'Y Position	0.000
'Z Position	0.000
'Grid Point Number	1.000
'Shot Number	100.000
183.907	267.000
183.977	588.000
184.047	421
184.116	917
184.186	267
184.256	686
184.325	832
184.395	177
184.465	-150
184.534	172
184.604	-272
184.674	-29
184.743	-169
184.813	-157
184.883	127
184.952	118
185.022	64
185.092	-423
185.161	47
185.231	626
185.301	-234
185.370	1375
185.440	-208
185.509	1119
185.579	-455
185.649	585
185.718	386
185.788	548
185.857	362
185.927	289
185.996	-287
186.066	311
186.136	-84
186.205	294
186.275	246
186.344	-154
186.414	59
186.483	416
186.553	-130
186.622	587
186.692	-26
186.761	-89
186.831	-76
186.900	-199
186.970	1159
187.039	918
187.109	485
187.178	1164
187.248	170
187.317	676
187.387	-306
187.456	224
187.526	682
187.595	256
187.664	-424
187.734	452
187.803	-64
187.873	-31
187.942	14
188.012	125
188.081	3
188.150	559
188.220	-139
188.289	446
188.358	-190
188.428	874
188.497	-757
188.567	779
188.636	-163
188.705	-276
188.775	223
188.844	-88
188.913	215
188.983	933
189.052	79
189.121	-49
189.191	85
189.260	887
189.329	225
189.399	46
189.468	47
189.537	740
189.606	-367
189.676	766
189.745	555
189.814	724
189.883	348
189.953	368
190.022	380
190.091	1078
190.161	54
190.230	748
190.299	-75
190.368	664
190.437	-252
190.507	157
190.576	-354
190.645	479
190.714	-219
190.783	169
190.853	411
190.922	698
190.991	-23
191.060	882
191.129	178
191.198	140
191.268	626
191.337	486
191.406	907
191.475	74
191.544	-529
191.613	751
191.682	235
191.752	-81
191.821	236
191.890	503
191.959	357
192.028	873
192.097	153
192.166	588
192.235	-377
192.304	242
192.373	-587
192.442	82
192.511	-501
192.580	-84
192.650	67
192.719	418
192.788	411
192.857	199
192.926	78
192.995	421
193.064	230
193.133	617
193.202	522
193.271	1473
193.340	438
193.409	945
193.478	1119
193.547	212
193.615	1069
193.684	502
193.753	315
193.822	1284
193.891	-14
193.960	778
194.029	502
194.098	1270
194.167	-14
194.236	486
194.305	-334
194.374	473
194.443	151
194.512	1209
194.580	-212
194.649	636
194.718	202
194.787	806
194.856	-180
194.925	1282
194.994	307
195.062	747
195.131	-15
195.200	692
195.269	900
195.338	1002
195.407	487
195.475	600
195.544	683
195.613	717
195.682	875
195.751	1533
195.819	363
195.888	914
195.957	1538
196.026	1608
196.094	932
196.163	940
196.232	696
196.301	1461
196.369	935
196.438	847
196.507	556
196.576	642
196.644	-398
196.713	654
196.782	424
196.850	926
196.919	254
196.988	603
197.056	306
197.125	-217
197.194	24
197.262	775
197.331	155
197.400	736
197.468	1126
197.537	0
197.606	131
197.674	667
197.743	953
197.812	172
197.880	384
197.949	738
198.017	1078
198.086	300
198.155	132
198.223	573
198.292	979
198.360	195
198.429	575
198.497	330
198.566	691
198.635	786
198.703	726
198.772	832
198.840	479
198.909	1033
198.977	-574
199.046	992
199.114	600
199.183	512
199.251	424
199.320	548
199.388	522
199.457	-8
199.525	769
199.594	547
199.662	435
199.731	472
199.799	418
199.867	962
199.936	601
200.004	808
200.073	897
200.141	560
200.210	927
200.278	622
200.346	972
200.415	1136
200.483	25
200.552	838
200.620	314
200.688	905
200.757	391
200.825	387
200.893	529
200.962	899
201.030	-502
201.098	268
201.167	352
201.235	428
201.303	372
201.372	732
201.440	-142
201.508	1365
201.577	540
201.645	826
201.713	128
201.781	356
201.850	549
201.918	1338
201.986	-444
202.055	985
202.123	-413
202.191	783
202.259	172
202.327	190
202.396	421
202.464	427
202.532	262
202.600	2080
202.669	0
202.737	457
202.805	-181
202.873	703
202.941	699
203.009	380
203.078	271
203.146	219
203.214	-592
203.282	-1
203.350	568
203.418	1217
203.487	855
203.555	767
203.623	180
203.691	882
203.759	-154
203.827	-300
203.895	799
203.963	20
204.031	677
204.099	106
204.168	-94
204.236	1290
204.304	524
204.372	550
204.440	97
204.508	196
204.576	-53
204.644	815
204.712	807
204.780	755
204.848	-284
204.916	458
204.984	15
205.052	938
205.120	410
205.188	62
205.256	286
205.324	429
205.392	678
205.460	855
205.528	240
205.596	1256
205.664	301
205.732	450
205.799	1435
205.867	1355
205.935	-90
206.003	755
206.071	290
206.139	549
206.207	962
206.275	505
206.343	298
206.411	526
206.478	211
206.546	671
206.614	569
206.682	948
206.750	-145
206.818	1208
206.885	287
206.953	-292
207.021	802
207.089	335
207.157	-299
207.225	765
207.292	-416
207.360	705
207.428	97
207.496	167
207.563	-162
207.631	720
207.699	560
207.767	718
207.834	686
207.902	293
207.970	-119
208.038	1028
208.105	224
208.173	1340
208.241	43
208.309	1832
208.376	546
208.444	700
208.512	875
208.579	741
208.647	546
208.715	984
208.782	1374
208.850	397
208.918	867
208.985	1102
209.053	742
209.120	1060
209.188	158
209.256	441
209.323	301
209.391	790
209.459	1674
209.526	1011
209.594	654
209.661	182
209.729	182
209.796	943
209.864	583
209.932	-106
209.999	1340
210.067	1852
210.134	887
210.202	1240
210.269	2300
210.337	1556
210.404	428
210.472	1241
210.539	214
210.607	618
210.674	1067
210.742	1416
210.809	210
210.877	561
210.944	624
211.012	605
211.079	2037
211.146	1377
211.214	246
211.281	1094
211.349	1400
211.416	931
211.484	912
211.551	1112
211.618	1148
211.686	601
211.753	279
211.821	1586
211.888	577
211.955	1138
212.023	407
212.090	965
212.157	1109
212.225	985
212.292	1309
212.359	1771
212.427	3575
212.494	1968
212.561	1307
212.629	1444
212.696	1256
212.763	1426
212.831	1018
212.898	612
212.965	1097
213.032	803
213.100	584
213.167	1472
213.234	490
213.301	1277
213.369	1451
213.436	878
213.503	476
213.570	1255
213.638	898
213.705	839
213.772	167
213.839	1527
213.906	1351
213.973	1454
214.041	1911
214.108	1548
214.175	543
214.242	970
214.309	563
214.376	1033
214.444	1020
214.511	1982
214.578	785
214.645	1454
214.712	1588
214.779	1542
214.846	262
214.913	1237
214.980	1088
215.048	1931
215.115	1511
215.182	1934
215.249	677
215.316	894
215.383	1257
215.450	1378
215.517	1373
215.584	1084
215.651	440
215.718	1446
215.785	872
215.852	935
215.919	2039
215.986	2284
216.053	1203
216.120	113
216.187	1419
216.254	1946
216.321	1015
216.388	904
216.455	401
216.522	2012
216.589	1901
216.656	2501
216.722	2843
216.789	2056
216.856	1586
216.923	1182
216.990	1280
217.057	1176
217.124	1497
217.191	1610
217.258	2107
217.324	2538
217.391	1856
217.458	2585
217.525	723
217.592	1115
217.659	602
217.725	2058
217.792	1717
217.859	2068
217.926	212
217.993	1186
218.059	720
218.126	823
218.193	976
218.260	1706
218.327	1088
218.393	1274
218.460	543
218.527	-141
218.594	768
218.660	1785
218.727	1450
218.794	502
218.860	1139
218.927	1159
218.994	68
219.061	1374
219.127	572
219.194	1850
219.261	771
219.327	499
219.394	1265
219.461	660
219.527	965
219.594	1704
219.661	553
219.727	685
219.794	572
219.860	1111
219.927	570
219.994	914
220.060	1163
220.127	1653
220.193	350
220.260	1115
220.326	2019
220.393	3102
220.460	3435
220.526	2724
220.593	962
220.659	2369
220.726	1618
220.792	3010
220.859	3156
220.925	4400
220.992	5843
221.058	5394
221.125	3520
221.191	2787
221.258	395
221.324	1023
221.391	-200
221.457	1469
221.524	783
221.590	2226
221.657	3043
221.723	2193
221.789	1353
221.856	1969
221.922	895
221.989	1624
222.055	1085
222.121	1297
222.188	2445
222.254	595
222.321	1136
222.387	1061
222.453	588
222.520	1575
222.586	1125
222.652	823
222.719	1072
222.785	1252
222.851	574
222.918	1383
222.984	1321
223.050	2031
223.116	77
223.183	811
223.249	66
223.315	711
223.382	107
223.448	560
223.514	105
223.580	761
223.647	-2
223.713	1155
223.779	1264
223.845	777
223.911	1428
223.978	638
224.044	157
224.110	694
224.176	680
224.242	1490
224.309	494
224.375	2070
224.441	582
224.507	122
224.573	755
224.639	1621
224.705	540
224.772	1223
224.838	-121
224.904	1425
224.970	485
225.036	1529
225.102	487
225.168	1075
225.234	782
225.300	302
225.366	800
225.432	759
225.499	39
225.565	955
225.631	447
225.697	1188
225.763	1027
225.829	1091
225.895	1257
225.961	2343
226.027	1760
226.093	2114
226.159	2197
226.225	1991
226.291	5355
226.357	8396
226.423	5099
226.489	3983
226.554	1565
226.620	2571
226.686	2520
226.752	4724
226.818	4656
226.884	11086
226.950	8754
227.016	4294
227.082	2697
227.148	1874
227.214	3003
227.279	3179
227.345	2048
227.411	1867
227.477	988
227.543	2738
227.609	2201
227.674	2470
227.740	1990
227.806	1556
227.872	247
227.938	1319
228.003	2962
228.069	1977
228.135	1658
228.201	634
228.267	750
228.332	1409
228.398	913
228.464	1669
228.530	556
228.595	1123
228.661	704
228.727	1661
228.792	2267
228.858	897
228.924	802
228.990	2751
229.055	1257
229.121	3121
229.187	823
229.252	662
229.318	1052
229.384	1392
229.449	1343
229.515	1221
229.581	-764
229.646	2311
229.712	1118
229.777	2916
229.843	2582
229.909	2936
229.974	3416
230.040	2685
230.105	1954
230.171	2002
230.236	2341
230.302	3504
230.368	1500
230.433	1527
230.499	1331
230.564	4242
230.630	1229
230.695	1694
230.761	954
230.826	370
230.892	2288
230.957	1582
231.023	827
231.088	1241
231.154	1114
231.219	1327
231.284	1708
231.350	2165
231.415	555
231.481	1242
231.546	719
231.612	1747
231.677	-217
231.742	163
231.808	1099
231.873	987
231.939	-250
232.004	2379
232.069	1463
232.135	1002
232.200	735
232.265	716
232.331	555
232.396	1315
232.461	612
232.527	354
232.592	371
232.657	1275
232.723	1196
232.788	964
232.853	447
232.918	641
232.984	475
233.049	851
233.114	1696
233.179	2135
233.245	2193
233.310	3535
233.375	638
233.440	1779
233.506	301
233.571	1061
233.636	625
233.701	1352
233.766	2470
233.832	2297
233.897	855
233.962	1612
234.027	3063
234.092	924
234.157	1565
234.222	2068
234.288	2007
234.353	5822
234.418	5212
234.483	3901
234.548	2822
234.613	2063
234.678	1555
234.743	2046
234.808	6694
234.873	3719
234.938	2079
235.004	2260
235.069	2023
235.134	1740
235.199	1920
235.264	1451
235.329	380
235.394	1823
235.459	1819
235.524	1512
235.589	1216
235.654	1850
235.719	284
235.784	1020
235.849	1845
235.913	3643
235.978	3411
236.043	4336
236.108	1733
236.173	1275
236.238	1992
236.303	1387
236.368	1034
236.433	2819
236.498	3037
236.563	2822
236.627	4677
236.692	13727
236.757	9421
236.822	5226
236.887	3199
236.952	4411
237.017	1416
237.081	3592
237.146	3355
237.211	6615
237.276	12590
237.341	20228
237.405	9844
237.470	5090
237.535	3587
237.600	2945
237.664	2029
237.729	2353
237.794	2572
237.859	4742
237.923	2819
237.988	2445
238.053	3427
238.118	3565
238.182	6978
238.247	6940
238.312	3411
238.376	3695
238.441	1663
238.506	3682
238.570	533
238.635	1944
238.700	1329
238.764	1342
238.829	3656
238.893	4019
238.958	2680
239.023	2726
239.087	842
239.152	2545
239.216	714
239.281	1904
239.346	901
239.410	1672
239.475	1626
239.539	8043
239.604	3348
239.668	2512
239.733	1071
239.797	1738
239.862	3656
239.926	5514
239.991	2647
240.055	2044
240.120	2168
240.184	2096
240.249	763
240.313	1223
240.378	839
240.442	5633
240.507	6370
240.571	3600
240.635	3253
240.700	3765
240.764	1361
240.829	2167
240.893	823
240.957	1829
241.022	3997
241.086	6187
241.151	3289
241.215	1293
241.279	3737
241.344	4560
241.408	2168
241.472	2515
241.537	3197
241.601	3216
241.665	1192
241.730	2052
241.794	2262
241.858	2241
241.922	1880
241.987	2462
242.051	1561
242.115	1886
242.179	2206
242.244	1121
242.308	2247
242.372	2869
242.436	2625
242.501	2269
242.565	1375
242.629	1747
242.693	1963
242.757	1386
242.822	988
242.886	2389
242.950	1638
243.014	2091
243.078	2474
243.142	3246
243.206	2195
243.271	2760
243.335	2281
243.399	3137
243.463	6005
243.527	15269
243.591	5373
243.655	4019
243.719	1554
243.783	3840
243.847	2919
243.911	5213
243.975	6557
244.040	5195
244.104	3931
244.168	2942
244.232	3790
244.296	5425
244.360	4211
244.424	2520
244.488	1576
244.552	3337
244.615	1033
244.679	1767
244.743	2214
244.807	2199
244.871	1326
244.935	1511
244.999	477
245.063	1955
245.127	3226
245.191	3632
245.255	2429
245.319	3480
245.383	1922
245.446	3309
245.510	1719
245.574	3170
245.638	2260
245.702	1885
245.766	4652
245.829	3991
245.893	2038
245.957	1573
246.021	3254
246.085	2942
246.149	3736
246.212	7401
246.276	9734
246.340	5482
246.404	5017
246.467	5502
246.531	5382
246.595	4490
246.659	3937
246.722	4201
246.786	5725
246.850	4913
246.913	5104
246.977	1919
247.041	3120
247.104	4047
247.168	3537
247.232	7566
247.295	11182
247.359	7300
247.423	3298
247.486	5983
247.550	4210
247.614	4356
247.677	5497
247.741	3297
247.804	1893
247.868	3731
247.932	7115
247.995	12556
248.059	5030
248.122	2632
248.186	4404
248.249	8435
248.313	17648
248.376	18827
248.440	13304
248.503	6684
248.567	5997
248.630	7731
248.694	9794
248.757	13328
248.821	18349
248.884	16794
248.948	13917
249.011	18645
249.075	22633
249.138	20368
249.202	11242
249.265	6553
249.328	7347
249.392	6532
249.455	5610
249.519	3812
249.582	5849
249.645	7936
249.709	4785
249.772	3142
249.835	3838
249.899	4091
249.962	3927
250.025	3022
250.089	9679
250.152	14082
250.215	7451
250.279	4861
250.342	5706
250.405	5005
250.468	3610
250.532	5724
250.595	7596
250.658	17005
250.721	23860
250.785	11123
250.848	6446
250.911	4066
250.974	4144
251.038	6499
251.101	11862
251.164	7204
251.227	7363
251.290	6451
251.354	7844
251.417	22675
251.480	20021
251.543	15104
251.606	37764
251.669	26923
251.732	13245
251.795	16037
251.859	14610
251.922	26299
251.985	16196
252.048	9542
252.111	8029
252.174	7344
252.237	14748
252.300	23625
252.363	22962
252.426	33720
252.489	16873
252.552	12691
252.615	8149
252.678	8624
252.741	18287
252.804	20235
252.867	33733
252.930	25835
252.993	16500
253.056	11643
253.119	10058
253.182	7178
253.245	9020
253.308	8177
253.371	10222
253.434	9609
253.497	10155
253.559	15609
253.622	11251
253.685	17837
253.748	16721
253.811	7153
253.874	9569
253.937	8784
254.000	6614
254.062	11278
254.125	14027
254.188	17747
254.251	13000
254.314	6707
254.376	12244
254.439	14865
254.502	13998
254.565	12193
254.628	19536
254.690	15192
254.753	8697
254.816	8206
254.878	7265
254.941	10140
255.004	9425
255.067	6701
255.129	6435
255.192	4513
255.255	2471
255.317	5370
255.380	2884
255.443	2612
255.505	2532
255.568	3280
255.631	2937
255.693	4185
255.756	2194
255.819	3864
255.881	2510
255.944	3174
256.006	1716
256.069	2605
256.132	2025
256.194	3807
256.257	7828
256.319	5616
256.382	4746
256.444	3969
256.507	2846
256.569	1925
256.632	2417
256.694	4234
256.757	8820
256.819	22164
256.882	7935
256.944	4933
257.007	5258
257.069	5696
257.132	3105
257.194	3910
257.257	2752
257.319	2737
257.381	2051
257.444	7626
257.506	26178
257.569	29090
257.631	15860
257.693	9738
257.756	4380
257.818	5306
257.880	1955
257.943	3880
258.005	2577
258.067	4449
258.130	3168
258.192	5474
258.254	10182
258.317	4438
258.379	2767
258.441	7260
258.503	6701
258.566	8713
258.628	10429
258.690	2909
258.753	4368
258.815	10339
258.877	4682
258.939	3328
259.001	3223
259.064	2665
259.126	2799
259.188	4099
259.250	3584
259.312	4853
259.375	10698
259.437	6945
259.499	2101
259.561	3070
259.623	3716
259.685	5099
259.747	3610
259.809	8787
259.872	14146
259.934	22205
259.996	23688
260.058	8851
260.120	3626
260.182	2745
260.244	2892
260.306	1773
260.368	3009
260.430	3184
260.492	8716
260.554	14937
260.616	6384
260.678	12669
260.740	13910
260.802	5008
260.864	5547
260.926	3909
260.988	4752
261.050	4407
261.112	12739
261.174	24304
261.236	11598
261.298	6414
261.359	7246
261.421	11186
261.483	3402
261.545	3878
261.607	884
261.669	2966
261.731	5307
261.793	13007
261.854	5424
261.916	6139
261.978	5959
262.040	6012
262.102	3370
262.164	5139
262.225	3867
262.287	3302
262.349	7437
262.411	6043
262.472	3387
262.534	5357
262.596	8690
262.658	3646
262.719	1933
262.781	3779
262.843	9535
262.904	5191
262.966	4073
263.028	4013
263.090	15498
263.151	34620
263.213	16133
263.275	14021
263.336	4771
263.398	3405
263.459	2666
263.521	2493
263.583	7558
263.644	5141
263.706	2923
263.767	1171
263.829	2176
263.891	1787
263.952	1580
264.014	2390
264.075	6495
264.137	15934
264.198	6758
264.260	2251
264.321	2515
264.383	8515
264.444	21578
264.506	6512
264.567	4915
264.629	9530
264.690	16534
264.752	6803
264.813	4240
264.875	2635
264.936	3536
264.998	3060
265.059	2157
265.120	2292
265.182	4032
265.243	12935
265.305	10384
265.366	3797
265.427	2551
265.489	3259
265.550	897
265.611	3233
265.673	3230
265.734	3914
265.795	1022
265.857	2460
265.918	1525
265.979	4415
266.040	19351
266.102	14189
266.163	7261
266.224	8720
266.286	3850
266.347	2035
266.408	3119
266.469	2759
266.530	2363
266.592	2581
266.653	5639
266.714	8904
266.775	2713
266.836	2346
266.898	1689
266.959	7119
267.020	3908
267.081	3294
267.142	1822
267.203	1745
267.264	1448
267.326	3446
267.387	2238
267.448	1135
267.509	1891
267.570	2258
267.631	1726
267.692	927
267.753	1384
267.814	1306
267.875	4813
267.936	9913
267.997	8017
268.058	6728
268.119	3523
268.180	3808
268.241	2446
268.302	2189
268.363	2281
268.424	3410
268.485	2742
268.546	2192
268.607	1605
268.668	1739
268.729	1244
268.790	2298
268.851	3096
268.912	8947
268.972	9312
269.033	5975
269.094	2067
269.155	2893
269.216	2209
269.277	2094
269.338	904
269.398	2724
269.459	3579
269.520	5402
269.581	7033
269.642	9343
269.702	4714
269.763	3431
269.824	3276
269.885	3888
269.945	5984
270.006	3122
270.067	1437
270.128	2434
270.188	2182
270.249	2388
270.310	1499
270.370	2022
270.431	935
270.492	1700
270.553	2489
270.613	7136
270.674	11146
270.734	5070
270.795	3158
270.856	5799
270.916	3470
270.977	2969
271.038	3865
271.098	4251
271.159	7034
271.219	6013
271.280	2346
271.340	2395
271.401	2530
271.462	7861
271.522	5103
271.583	3322
271.643	3314
271.704	2211
271.764	4084
271.825	9648
271.885	23216
271.946	27720
272.006	12339
272.066	16264
272.127	21367
272.187	8582
272.248	4471
272.308	5724
272.369	15433
272.429	9284
272.489	11012
272.550	11809
272.610	10452
272.671	7214
272.731	7054
272.791	11240
272.852	6389
272.912	6303
272.972	3022
273.033	3081
273.093	5219
273.153	7539
273.214	4208
273.274	4635
273.334	16656
273.394	24223
273.455	12696
273.515	12442
273.575	23394
273.635	10610
273.696	13874
273.756	21546
273.816	9983
273.876	6595
273.936	11441
273.997	19483
274.057	5762
274.117	5323
274.177	8040
274.237	30168
274.297	22839
274.358	17643
274.418	18585
274.478	15628
274.538	6290
274.598	4943
274.658	16474
274.718	18844
274.778	8762
274.838	4777
274.898	9836
274.958	26281
275.018	21931
275.078	14895
275.138	7862
275.198	4952
275.258	3258
275.318	5615
275.378	9924
275.438	11529
275.498	6654
275.558	12707
275.618	23185
275.678	14574
275.738	13754
275.798	13014
275.858	8056
275.918	3337
275.978	5147
276.038	4843
276.098	2784
276.157	7604
276.217	18903
276.277	10072
276.337	7343
276.397	4804
276.457	6938
276.517	3224
276.576	2338
276.636	3220
276.696	5367
276.756	12034
276.815	8320
276.875	4598
276.935	5211
276.995	4727
277.055	2744
277.114	2556
277.174	4127
277.234	14310
277.293	5952
277.353	4814
277.413	3330
277.472	3556
277.532	4019
277.592	4069
277.651	10570
277.711	15360
277.771	6211
277.830	22588
277.890	16691
277.950	11411
278.009	26150
278.069	10233
278.128	13137
278.188	17840
278.248	9322
278.307	18800
278.367	11023
278.426	4322
278.486	3271
278.545	2855
278.605	2099
278.664	2372
278.724	3233
278.783	9687
278.843	19662
278.902	7192
278.962	4211
279.021	5508
279.081	4407
279.140	5123
279.199	4408
279.259	3677
279.318	3591
279.378	5465
279.437	8097
279.496	26905
279.556	65022
279.615	47150
279.675	13170
279.734	9315
279.793	15816
279.853	19313
279.912	8210
279.971	5134
280.031	3871
280.090	8517
280.149	14697
280.208	12996
280.268	52343
280.327	45193
280.386	12076
280.445	12261
280.505	11831
280.564	7425
280.623	5753
280.682	8624
280.742	11217
280.801	4429
280.860	3934
280.919	4092
280.978	3614
281.037	3202
281.097	2393
281.156	2818
281.215	2386
281.274	4533
281.333	14415
281.392	8826
281.451	2978
281.510	2612
281.569	1635
281.628	1811
281.688	1495
281.747	4207
281.806	3555
281.865	2678
281.924	2411
281.983	2698
282.042	2331
282.101	1719
282.160	2379
282.219	1602
282.278	2788
282.337	9815
282.396	6144
282.454	2565
282.513	4025
282.572	16021
282.631	8886
282.690	3075
282.749	2272
282.808	5128
282.867	4238
282.926	4012
282.985	1570
283.043	1507
283.102	2383
283.161	3052
283.220	7995
283.279	15376
283.338	4260
283.396	3161
283.455	4174
283.514	4434
283.573	7428
283.631	5645
283.690	3037
283.749	3156
283.808	8633
283.866	8656
283.925	2600
283.984	3183
284.043	4986
284.101	5251
284.160	3732
284.219	6729
284.277	4321
284.336	6692
284.395	21334
284.453	14635
284.512	6017
284.570	9812
284.629	7915
284.688	6187
284.746	6783
284.805	7481
284.863	11062
284.922	13712
284.981	13926
285.039	19133
285.098	33413
285.156	62300
285.215	70481
285.273	71823
285.332	62647
285.390	37828
285.449	24786
285.507	17018
285.566	12703
285.624	9525
285.683	7436
285.741	6473
285.799	7040
285.858	6649
285.916	5701
285.975	5483
286.033	3772
286.091	2743
286.150	2476
286.208	3790
286.267	3840
286.325	5392
286.383	8724
286.442	7561
286.500	2061
286.558	1887
286.616	2714
286.675	6114
286.733	4538
286.791	5026
286.850	4588
286.908	6832
286.966	8747
287.024	4763
287.083	2934
287.141	2136
287.199	3189
287.257	5038
287.315	3446
287.374	4001
287.432	9084
287.490	6431
287.548	4488
287.606	3321
287.664	2977
287.723	5932
287.781	8340
287.839	3442
287.897	3496
287.955	3694
288.013	4810
288.071	9581
288.129	33507
288.187	85015
288.245	35370
288.303	11954
288.361	7093
288.419	8322
288.477	5459
288.535	4205
288.593	3263
288.651	2885
288.709	1761
288.767	3236
288.825	3364
288.883	2846
288.941	1575
288.999	2415
289.057	1660
289.115	3206
289.173	3547
289.231	4167
289.289	3959
289.346	2988
289.404	4112
289.462	6962
289.520	6966
289.578	3620
289.636	2265
289.694	2253
289.751	1336
289.809	2431
289.867	1924
289.925	4393
289.983	5211
290.040	2178
290.098	1808
290.156	3912
290.214	4756
290.271	2142
290.329	1605
290.387	2188
290.444	1949
290.502	2384
290.560	2670
290.617	4162
290.675	3792
290.733	2574
290.790	3705
290.848	2979
290.906	4442
290.963	3818
291.021	3445
291.078	3241
291.136	3510
291.194	12874
291.251	21893
291.309	6623
291.366	2794
291.424	3672
291.481	3873
291.539	3921
291.596	2928
291.654	2111
291.711	2150
291.769	4228
291.826	7993
291.884	4926
291.941	2367
291.999	4115
292.056	4518
292.114	4670
292.171	2029
292.228	3110
292.286	4859
292.343	11502
292.401	14327
292.458	9136
292.515	5215
292.573	6434
292.630	5133
292.687	5398
292.745	4359
292.802	6978
292.859	17983
292.917	20377
292.974	11404
293.031	5329
293.089	3435
293.146	3685
293.203	2786
293.260	3079
293.318	4053
293.375	10280
293.432	5301
293.489	3823
293.546	2748
293.604	5350
293.661	12068
293.718	27214
293.775	19192
293.832	9846
293.889	6788
293.947	6524
294.004	4466
294.061	6790
294.118	10610
294.175	22295
294.232	29099
294.289	11883
294.346	6719
294.403	5728
294.460	5934
294.517	4855
294.574	2785
294.631	3713
294.688	4779
294.745	12293
294.802	33927
294.859	41570
294.916	16042
294.973	10477
295.030	10719
295.087	7781
295.144	5159
295.201	5553
295.258	4769
295.315	4951
295.372	13063
295.429	20270
295.486	11048
295.542	8556
295.599	21433
295.656	34462
295.713	23818
295.770	22197
295.827	9690
295.883	7556
295.940	6743
295.997	12809
296.054	10069
296.111	6572
296.167	5052
296.224	4603
296.281	3864
296.338	3818
296.394	3735
296.451	5889
296.508	11425
296.564	22509
296.621	19213
296.678	27940
296.734	36296
296.791	17662
296.848	10426
296.904	11825
296.961	22403
297.018	26627
297.074	19203
297.131	9701
297.187	6975
297.244	9840
297.301	20300
297.357	32664
297.414	14282
297.470	7801
297.527	5089
297.583	5673
297.640	6661
297.696	5592
297.753	4454
297.809	3939
297.866	2803
297.922	3100
297.979	3336
298.035	3890
298.092	6563
298.148	14188
298.204	13976
298.261	9200
298.317	16163
298.374	30915
298.430	17419
298.486	11022
298.543	7702
298.599	6500
298.656	7731
298.712	12412
298.768	20864
298.824	13118
298.881	5805
298.937	4870
298.993	5392
299.050	6697
299.106	6508
299.162	6075
299.218	6266
299.275	3852
299.331	5018
299.387	9797
299.443	24465
299.500	24784
299.556	10668
299.612	6848
299.668	6516
299.724	6258
299.780	4970
299.837	4138
299.893	7860
299.949	22863
300.005	25455
300.061	24754
300.117	36100
300.173	18671
300.229	10399
300.285	13019
300.341	15733
300.397	8030
300.453	5856
300.510	5745
300.566	5380
300.622	6176
300.678	11858
300.734	23405
300.790	21470
300.845	24006
300.901	17159
300.957	22907
301.013	18661
301.069	9153
301.125	7207
301.181	8358
301.237	6114
301.293	4577
301.349	3282
301.405	4137
301.461	4266
301.516	4586
301.572	6111
301.628	11608
301.684	10400
301.740	12375
301.796	16137
301.851	13207
301.907	20526
301.963	21714
302.019	28883
302.074	58587
302.130	59005
302.186	30596
302.242	13600
302.297	10207
302.353	10699
302.409	16056
302.464	15120
302.520	14339
302.576	29307
302.631	33088
302.687	20502
302.743	10719
302.798	6215
302.854	5503
302.910	6985
302.965	9295
303.021	14222
303.076	14104
303.132	17270
303.187	20514
303.243	10903
303.299	6470
303.354	5088
303.410	5010
303.465	4386
303.521	5199
303.576	5068
303.632	6501
303.687	9042
303.743	22241
303.798	19228
303.853	9563
303.909	6466
303.964	7221
304.020	10106
304.075	16102
304.130	15035
304.186	25443
304.241	26330
304.297	20332
304.352	11488
304.358	11186
304.407	8738
304.449	8298
304.463	8155
304.518	9062
304.539	8391
304.573	7310
304.629	8066
304.630	8107
304.684	10213
304.720	16570
304.739	19775
304.794	25618
304.811	22624
304.850	15290
304.902	9192
304.905	8804
304.960	6606
304.992	6059
305.015	5720
305.071	5888
305.083	5815
305.126	5450
305.173	4820
305.181	4740
305.236	3951
305.264	5234
305.292	6569
305.347	7612
305.354	7705
305.402	8081
305.445	7421
305.457	7294
305.512	9559
305.535	9688
305.567	9740
305.622	10878
305.626	11037
305.678	14459
305.716	21883
305.733	24793
305.788	27700
305.807	25410
305.843	21022
305.897	23791
305.898	23817
305.953	24255
305.988	18663
306.008	15468
306.063	13509
306.078	12368
306.118	9408
306.168	5605
306.173	5286
306.228	5543
306.259	4895
306.283	4536
306.338	5275
306.349	5374
306.393	5568
306.440	5216
306.448	5200
306.503	6038
306.530	7372
306.558	10182
306.613	22795
306.620	24256
306.668	31450
306.711	31352
306.723	30593
306.778	22794
306.801	18791
306.833	14111
306.888	8687
306.892	8478
306.943	6837
306.982	6262
306.997	6163
307.052	5952
307.072	6132
307.107	7050
307.162	9582
307.163	9634
307.217	15297
307.253	17713
307.272	18175
307.327	18994
307.343	17671
307.381	14314
307.434	11596
307.436	11726
307.491	20303
307.524	27943
307.546	30168
307.600	27282
307.614	24357
307.655	15224
307.704	10085
307.710	9965
307.765	10925
307.795	13189
307.819	15826
307.874	25689
307.885	25584
307.929	19232
307.975	11869
307.984	11252
308.038	12090
308.065	13106
308.093	18212
308.148	34137
308.156	38145
308.202	62334
308.246	76395
308.257	74911
308.312	43193
308.336	33503
308.366	28178
308.421	20686
308.426	19950
308.475	13846
308.517	10234
308.530	9589
308.585	8392
308.607	8048
308.639	8281
308.694	9894
308.697	10057
308.748	17905
308.787	26718
308.803	27329
308.857	21444
308.877	18506
308.912	14906
308.967	12493
308.967	12478
309.021	15048
309.058	17011
309.076	19752
309.130	32201
309.148	36919
309.185	55560
309.238	86661
309.239	86979
309.293	103787
309.328	98965
309.348	86068
309.402	44459
309.418	34470
309.457	24784
309.508	16925
309.511	16760
309.566	16691
309.598	17094
309.620	20130
309.674	30720
309.688	33381
309.729	32851
309.778	26768
309.783	26100
309.837	19006
309.868	15983
309.892	18433
309.946	26295
309.959	29074
310.001	39509
310.049	48260
310.055	46935
310.109	29838
310.139	20162
310.163	16425
310.218	11521
310.229	10658
310.272	9694
310.319	8633
310.326	8493
310.381	7992
310.409	7724
310.435	7840
310.489	8255
310.499	8316
310.543	8494
310.589	8645
310.598	8787
310.652	10085
310.679	10297
310.706	9610
310.760	8432
310.769	8216
310.814	6962
310.859	5914
310.868	5998
310.923	6418
310.948	6682
310.977	7560
311.031	9218
311.038	9472
311.085	9554
311.128	9112
311.139	9091
311.193	9137
311.218	9052
311.247	8608
311.301	7946
311.308	7841
311.356	8515
311.398	9230
311.410	9083
311.464	8080
311.488	7685
311.518	7807
311.572	7873
311.578	7891
311.626	10402
311.668	12567
311.680	12701
311.734	13068
311.758	13242
311.788	13581
311.842	14114
311.847	14146
311.896	16401
311.937	18425
311.950	18506
312.004	18711
312.027	18705
312.058	15614
312.112	10106
312.117	9544
312.165	9580
312.207	9596
312.297	16110
312.386	15010
312.476	10893
312.566	17810
312.656	11316
312.745	9470
312.835	10088
312.925	12026
313.015	10477
313.104	11158
313.194	8020
313.284	8070
313.374	11251
313.463	11113
313.553	9015
313.643	8300
313.732	7469
313.822	7580
313.912	8773
314.001	10929
314.091	12789
314.180	18717
314.270	13602
314.360	13968
314.449	12814
314.539	9338
314.628	8877
314.718	11153
314.808	13641
314.897	8922
314.987	9284
315.076	9932
315.166	13225
315.255	13619
315.345	12968
315.434	12111
315.524	11312
315.613	12835
315.703	13333
315.792	12813
315.881	11470
315.971	11018
316.060	19470
316.150	29344
316.239	29598
316.328	13789
316.418	8408
316.507	8074
316.597	10350
316.686	10931
316.775	13186
316.865	27895
316.954	10062
317.043	7497
317.133	8450
317.222	8097
317.311	7691
317.400	6892
317.490	9142
317.579	12007
317.668	8649
317.757	10345
317.847	12222
317.936	15563
318.025	22136
318.114	13720
318.203	12895
318.293	19173
318.382	37083
318.471	27342
318.560	33630
318.649	55371
318.738	16949
318.828	11781
318.917	13470
319.006	14815
319.095	30654
319.184	66357
319.273	43805
319.362	25684
319.451	10660
319.540	10224
319.629	17910
319.718	32757
319.807	17466
319.896	24826
319.985	76928
320.074	38888
320.163	15093
320.252	21097
320.341	20642
320.430	20797
320.519	20106
320.608	14738
320.697	12490
320.786	11735
320.875	12882
320.964	15768
321.053	22474
321.142	28835
321.230	33219
321.319	25174
321.408	57772
321.497	28893
321.586	24461
321.675	28657
321.764	31099
321.852	21512
321.941	34838
322.030	24422
322.119	25330
322.207	52005
322.296	44851
322.385	26758
322.474	21744
322.562	54238
322.651	39738
322.740	24637
322.829	35121
322.917	40858
323.006	25244
323.095	20143
323.183	16682
323.272	22040
323.361	29142
323.449	68246
323.538	31548
323.626	52523
323.715	38075
323.804	18781
323.892	51824
323.981	38345
324.069	15129
324.158	28845
324.246	33158
324.335	15124
324.424	24224
324.512	11481
324.601	13565
324.689	14211
324.778	19138
324.866	27272
324.954	12084
325.043	11556
325.131	19651
325.220	32938
325.308	36104
325.397	26746
325.485	19339
325.574	8229
325.662	8472
325.750	9735
325.839	9088
325.927	8220
326.015	10921
326.104	13913
326.192	20334
326.280	9135
326.369	10002
326.457	12447
326.545	20284
326.634	11265
326.722	8326
326.810	7615
326.898	8208
326.987	8868
327.075	16892
327.163	18968
327.251	11149
327.340	9483
327.428	10154
327.516	7003
327.604	8123
327.692	9038
327.781	9784
327.869	16528
327.957	11815
328.045	9855
328.133	7655
328.221	9106
328.309	8810
328.397	7977
328.485	9512
328.574	10579
328.662	28990
328.750	20683
328.838	11964
328.926	8158
329.014	8074
329.102	11438
329.190	28300
329.278	20403
329.366	7373
329.454	6958
329.542	7803
329.630	6526
329.718	7464
329.806	9287
329.893	9988
329.981	10111
330.069	7552
330.157	10539
330.245	26056
330.333	17770
330.421	7947
330.509	11757
330.597	36566
330.684	30491
330.772	14982
330.860	23834
330.948	32630
331.036	14848
331.123	6625
331.211	7623
331.299	11276
331.387	21476
331.475	44219
331.562	15109
331.650	7223
331.738	8458
331.825	13993
331.913	7495
332.001	6808
332.089	9325
332.176	21246
332.264	33284
332.352	31623
332.439	14505
332.527	11147
332.614	8676
332.702	12236
332.790	8128
332.877	17014
332.965	34246
333.052	10824
333.140	8319
333.228	18687
333.315	7847
333.403	8627
333.490	22199
333.578	20342
333.665	16323
333.753	10267
333.840	7114
333.928	9797
334.015	23654
334.103	29296
334.190	75536
334.278	28377
334.365	12703
334.452	9148
334.540	6669
334.627	9392
334.715	12865
334.802	19943
334.889	74610
334.977	74635
335.064	13429
335.151	9712
335.239	10213
335.326	15515
335.413	36128
335.501	56108
335.588	11864
335.675	9677
335.762	12216
335.850	26025
335.937	11359
336.024	21849
336.111	88651
336.199	47624
336.286	11799
336.373	7173
336.460	5696
336.547	6890
336.635	8787
336.722	8203
336.809	7772
336.896	10723
336.983	29136
337.070	66715
337.157	81292
337.245	55763
337.332	42348
337.419	9536
337.506	7663
337.593	10964
337.680	24166
337.767	74738
337.854	26984
337.941	33606
338.028	33254
338.115	14462
338.202	17672
338.289	23247
338.376	57610
338.463	26196
338.550	42762
338.637	48602
338.724	16896
338.811	28777
338.898	8915
338.984	7714
339.071	11783
339.158	10820
339.245	23611
339.332	17421
339.419	19098
339.506	20927
339.593	6332
339.679	7742
339.766	6436
339.853	10617
339.940	17680
340.027	9107
340.113	8304
340.200	11802
340.287	7756
340.374	10259
340.460	16825
340.547	9671
340.634	11030
340.720	30994
340.807	20631
340.894	7043
340.980	6804
341.067	7036
341.154	8039
341.240	11053
341.327	19656
341.414	8353
341.500	6997
341.587	7635
341.674	5935
341.760	14284
341.847	17562
341.933	7518
342.020	4217
342.106	5273
342.193	6591
342.279	12930
342.366	8483
342.452	15144
342.539	8695
342.625	17592
342.712	34786
342.798	17990
342.885	9136
342.971	5232
343.058	4440
343.144	5398
343.230	4888
343.317	5497
343.403	4764
343.490	4570
343.576	4804
343.662	5648
343.749	5883
343.835	7426
343.921	11913
344.008	40988
344.094	87643
344.180	28992
344.267	14066
344.353	27834
344.439	37841
344.525	21734
344.612	8052
344.698	7852
344.784	6844
344.870	5391
344.957	5550
345.043	10191
345.129	7498
345.215	15068
345.301	9394
345.387	7381
345.474	4921
345.560	5441
345.646	7155
345.732	7257
345.818	6435
345.904	5888
345.990	7487
346.076	7100
346.162	14972
346.249	7620
346.335	5333
346.421	5635
346.507	12020
346.593	35590
346.679	13384
346.765	8374
346.851	5148
346.937	6334
347.023	5601
347.108	7073
347.194	6063
347.280	5596
347.366	7055
347.452	12680
347.538	41248
347.624	35915
347.710	35046
347.796	10546
347.882	7470
347.967	6802
348.053	11890
348.139	8442
348.225	5275
348.311	5862
348.397	4558
348.482	6904
348.568	9491
348.654	4905
348.740	4670
348.825	4687
348.911	7905
348.997	21614
349.083	41883
349.168	12206
349.254	5344
349.340	5454
349.425	4436
349.511	7243
349.597	10252
349.682	13263
349.768	29419
349.854	17143
349.939	8600
350.025	6017
350.110	4811
350.196	5309
350.282	4918
350.367	5532
350.453	9719
350.538	10658
350.624	10206
350.709	10525
350.795	5228
350.880	6201
350.966	6510
351.051	9554
351.137	7462
351.222	6186
351.308	12672
351.393	30482
351.479	9638
351.564	4726
351.649	5434
351.735	5400
351.820	4751
351.906	5213
351.991	7514
352.076	18306
352.162	29519
352.247	10654
352.332	7818
352.418	11209
352.503	13208
352.588	44465
352.673	46116
352.759	13044
352.844	7475
352.929	8157
353.014	12141
353.100	7271
353.185	9048
353.270	15901
353.355	17864
353.441	7127
353.526	7256
353.611	13915
353.696	18523
353.781	11712
353.866	6272
353.952	7224
354.037	14190
354.122	31409
354.207	30058
354.292	12703
354.377	6626
354.462	5932
354.547	8411
354.632	8639
354.717	12268
354.802	11792
354.887	6631
354.972	5493
355.057	4689
355.142	5121
355.227	6851
355.312	10744
355.397	20733
355.482	45112
355.567	24908
355.652	18009
355.737	17311
355.822	31344
355.907	29764
355.991	7488
356.076	6480
356.161	6302
356.246	5135
356.331	6483
356.416	9966
356.501	44654
356.585	52438
356.670	12592
356.755	8934
356.840	11924
356.924	36535
357.009	115323
357.094	58152
357.179	19456
357.263	13016
357.348	12116
357.433	15154
357.517	12299
357.602	10011
357.687	6887
357.771	7729
357.856	8524
357.941	9862
358.025	28699
358.110	106029
358.195	64346
358.279	15442
358.364	10980
358.448	28287
358.533	70043
358.617	55346
358.702	49075
358.787	24051
358.871	17592
358.956	15372
359.040	6354
359.125	4755
359.209	4517
359.294	6092
359.378	5794
359.462	12011
359.547	10026
359.631	8156
359.716	5740
359.800	6755
359.885	13575
359.969	7499
360.053	5509
360.138	5443
360.222	8872
360.306	15915
360.391	13516
360.475	13354
360.559	26843
360.644	29906
360.728	24685
360.812	27063
360.896	70280
360.981	46013
361.065	34254
361.149	8966
361.233	10592
361.318	8102
361.402	8963
361.486	7626
361.570	5994
361.654	7259
361.739	16498
361.823	47763
361.907	71605
361.991	18544
362.075	12006
362.159	26390
362.243	20214
362.327	14616
362.411	14839
362.495	11588
362.580	8434
362.664	6222
362.748	5805
362.832	5798
362.916	6114
363.000	15022
363.084	49152
363.168	83068
363.252	29320
363.336	13972
363.420	18421
363.503	54624
363.587	70557
363.671	16975
363.755	13183
363.839	18236
363.923	8568
364.007	14985
364.091	18255
364.175	19990
364.258	79574
364.342	48818
364.426	30191
364.510	20093
364.594	21040
364.677	22948
364.761	58987
364.845	48817
364.929	26899
365.013	24296
365.096	17709
365.180	21922
365.264	24206
365.347	83694
365.431	50308
365.515	21494
365.598	9430
365.682	7995
365.766	19104
365.849	25988
365.933	11502
366.017	16394
366.100	16004
366.184	6587
366.267	6774
366.351	5943
366.435	5675
366.518	4519
366.602	5311
366.685	6917
366.769	7722
366.852	16051
366.936	27369
367.019	13691
367.103	12535
367.186	28473
367.270	8875
367.353	4570
367.436	5205
367.520	5067
367.603	7505
367.687	9852
367.770	18242
367.853	10690
367.937	20227
368.020	34217
368.104	12331
368.187	14071
368.270	21881
368.353	20845
368.437	21719
368.520	47510
368.603	34410
368.687	28520
368.770	50097
368.853	17557
368.936	22083
369.020	28966
369.103	9829
369.186	7471
369.269	8755
369.352	12362
369.436	21946
369.519	13577
369.602	7762
369.685	8185
369.768	9790
369.851	6901
369.934	5924
370.018	8204
370.101	16453
370.184	15406
370.267	12703
370.350	19481
370.433	28476
370.516	38063
370.599	40456
370.682	17529
370.765	40454
370.848	40655
370.931	56091
371.014	33484
371.097	9672
371.180	7303
371.263	5818
371.346	4564
371.429	6029
371.511	7027
371.594	12198
371.677	20871
371.760	30604
371.843	17022
371.926	46913
372.009	102516
372.091	48628
372.174	29138
372.257	50909
372.340	26310
372.423	33774
372.505	45715
372.588	19568
372.671	21469
372.754	55371
372.836	32074
372.919	29122
373.002	62316
373.085	23811
373.167	14960
373.250	30909
373.332	51331
373.415	64609
373.498	128146
373.580	63932
373.663	58300
373.746	86327
373.828	30012
373.911	17203
373.993	16341
374.076	53568
374.159	56286
374.241	21671
374.324	49954
374.406	38647
374.489	36977
374.571	101691
374.654	49946
374.736	26748
374.819	66571
374.901	93470
374.983	97618
375.066	24328
375.148	11742
375.231	39468
375.313	87257
375.395	44952
375.478	11461
375.560	7094
375.643	8670
375.725	22386
375.807	78034
375.890	76779
375.972	46935
376.054	27119
376.136	42032
376.219	19336
376.301	22250
376.383	65446
376.465	29165
376.548	23896
376.630	24066
376.712	55079
376.794	30566
376.877	6778
376.959	5522
377.041	7407
377.123	19209
377.205	26653
377.287	6283
377.369	4616
377.452	4706
377.534	5470
377.616	5198
377.698	5000
377.780	3933
377.862	5974
377.944	6169
378.026	3858
378.108	4675
378.190	4583
378.272	4309
378.354	3887
378.436	4096
378.518	9695
378.600	39422
378.682	30545
378.764	34717
378.846	30958
378.928	15821
379.010	21084
379.091	11516
379.173	5694
379.255	4905
379.337	7596
379.419	16802
379.501	49341
379.583	23915
379.664	9033
379.746	15973
379.828	39706
379.910	48617
379.991	41849
380.073	9721
380.155	8755
380.237	5827
380.318	5367
380.400	6319
380.482	9804
380.564	17628
380.645	16799
380.727	16448
380.809	11366
380.890	8288
380.972	6044
381.053	6023
381.135	8009
381.217	12700
381.298	41857
381.380	24595
381.461	19148
381.543	54754
381.624	72872
381.706	19780
381.787	14967
381.869	15349
381.951	27231
382.032	93316
382.113	74767
382.195	24928
382.276	15750
382.358	22395
382.439	54891
382.521	58802
382.602	91031
382.684	45599
382.765	76791
382.846	80329
382.928	98494
383.009	56980
383.090	31077
383.172	101638
383.253	177373
383.334	75613
383.416	80504
383.497	44626
383.578	18610
383.659	30935
383.741	82698
383.822	225709
383.903	131973
383.984	55119
384.066	100833
384.147	69568
384.228	19008
384.309	15310
384.390	11337
384.471	9482
384.553	10224
384.634	15630
384.715	16566
384.796	9111
384.877	8889
384.958	30466
385.039	43400
385.120	21624
385.201	10415
385.282	16863
385.363	19776
385.444	12429
385.525	17605
385.606	46593
385.687	40341
385.768	17755
385.849	23325
385.930	53903
386.011	87572
386.092	31203
386.173	11144
386.254	10630
386.335	10213
386.416	9645
386.496	25693
386.577	44245
386.658	25982
386.739	17184
386.820	19042
386.901	16901
386.981	12614
387.062	6345
387.143	9155
387.224	34812
387.304	40739
387.385	19771
387.466	15777
387.547	22846
387.627	11687
387.708	13560
387.789	55440
387.869	69752
387.950	22450
388.031	6194
388.111	7873
388.192	31069
388.273	52078
388.353	27356
388.434	10642
388.514	13421
388.595	49084
388.676	72355
388.756	42023
388.837	41429
388.917	27983
388.998	7886
389.078	7253
389.159	5298
389.239	5456
389.320	10333
389.400	9263
389.480	17987
389.561	40305
389.641	21187
389.722	9899
389.802	20198
389.883	19974
389.963	39841
390.043	34915
390.124	19921
390.204	17054
390.284	43871
390.365	30575
390.445	36905
390.525	52865
390.605	34291
390.686	24299
390.766	8785
390.846	5979
390.927	4169
391.007	4963
391.087	7826
391.167	7850
391.247	4705
391.328	12153
391.408	23560
391.488	18955
391.568	4595
391.648	7936
391.728	12952
391.808	10540
391.888	9823
391.969	18834
392.049	33880
392.129	23313
392.209	19527
392.289	37877
392.369	24790
392.449	36377
392.529	21736
392.609	13249
392.689	12668
392.769	32793
392.849	31989
392.929	25824
393.009	63216
393.089	37346
393.169	13706
393.248	27923
393.328	127598
393.408	153515
393.488	38479
393.568	12316
393.648	7633
393.728	5031
393.807	4904
393.887	4981
393.967	4863
394.047	6848
394.127	8835
394.206	10193
394.286	25791
394.366	121032
394.446	146143
394.525	36020
394.605	9862
394.685	12427
394.764	41833
394.844	70326
394.924	46586
395.003	12810
395.083	7660
395.163	7224
395.242	5822
395.322	6957
395.402	3576
395.481	7079
395.561	20674
395.640	69569
395.720	46810
395.799	63043
395.879	53362
395.958	15969
396.038	38783
396.117	159926
396.197	194254
396.276	77082
396.356	35336
396.435	34075
396.515	16443
396.594	13129
396.673	17129
396.753	37370
396.832	129718
396.912	123247
396.991	41334
397.070	11596
397.150	6466
397.229	4866
397.308	5481
397.388	7816
397.467	5133
397.546	3806
397.625	2893
397.705	7528
397.784	8950
397.863	5551
397.942	2901
398.022	4224
398.101	18052
398.180	66298
398.259	46211
398.338	13608
398.417	7532
398.497	6448
398.576	6403
398.655	3309
398.734	3538
398.813	4221
398.892	16283
398.971	65883
399.050	36649
399.129	5743
399.208	3149
399.287	4540
399.366	2537
399.445	4400
399.524	4356
399.603	3359
399.682	7695
399.761	21277
399.840	66755
399.919	58706
399.998	10941
400.077	2837
400.156	3716
400.235	7946
400.313	4607
400.392	6736
400.471	21350
400.550	38817
400.629	12988
400.708	7092
400.786	8240
400.865	25793
400.944	32522
401.023	15168
401.102	3090
401.180	3112
401.259	3436
401.338	8225
401.416	8715
401.495	7784
401.574	8294
401.652	6198
401.731	8890
401.810	8509
401.888	3652
401.967	2192
402.046	3326
402.124	6479
402.203	11820
402.281	7023
402.360	6926
402.438	29839
402.517	26073
402.596	9486
402.674	10036
402.753	5861
402.831	3427
402.910	4959
402.988	13276
403.066	45586
403.145	27861
403.223	13809
403.302	35525
403.380	28248
403.459	29208
403.537	14222
403.615	7562
403.694	2125
403.772	2687
403.850	2536
403.929	1596
404.007	2640
404.085	6025
404.164	6902
404.242	2428
404.320	4515
404.398	7251
404.477	15345
404.555	67029
404.633	66570
404.711	12215
404.789	5572
404.868	2710
404.946	2764
405.024	2093
405.102	1496
405.180	1355
405.258	2158
405.336	3432
405.415	3058
405.493	11475
405.571	9455
405.649	2833
405.727	3310
405.805	6765
405.883	5341
405.961	6800
406.039	12421
406.117	4557
406.195	5580
406.273	16264
406.351	64204
406.429	48564
406.507	16626
406.585	6998
406.663	4694
406.740	6045
406.818	5641
406.896	4113
406.974	4534
407.052	5448
407.130	36678
407.208	57027
407.285	14324
407.363	3399
407.441	3874
407.519	3170
407.596	3603
407.674	7712
407.752	13349
407.830	27988
407.907	19125
407.985	5421
408.063	3184
408.141	1878
408.218	8947
408.296	9768
408.373	4601
408.451	5163
408.529	4742
408.606	2295
408.684	2104
408.762	1933
408.839	1586
408.917	1157
408.994	1619
409.072	1773
409.149	1730
409.227	3872
409.304	5727
409.382	2630
409.459	1376
409.537	3307
409.614	3800
409.692	2866
409.769	2855
409.846	3261
409.924	7975
410.001	5154
410.079	3684
410.156	3160
410.233	1833
410.311	1482
410.388	2340
410.465	4095
410.543	5580
410.620	2729
410.697	2801
410.775	4089
410.852	1960
410.929	4569
411.006	8297
411.083	4794
411.161	12871
411.238	16922
411.315	10727
411.392	3174
411.469	6569
411.547	7747
411.624	3576
411.701	3407
411.778	3478
411.855	8573
411.932	5450
412.009	3064
412.086	3313
412.163	5200
412.240	6899
412.317	9007
412.394	8371
412.471	3411
412.548	1374
412.625	2510
412.702	5169
412.779	12556
412.856	7957
412.933	2817
413.010	2180
413.087	4607
413.164	22472
413.241	37248
413.318	9875
413.395	6318
413.471	10760
413.548	5411
413.625	3764
413.702	5210
413.779	5343
413.855	1958
413.932	1200
414.009	1794
414.086	2128
414.162	1888
414.239	4840
414.316	20477
414.393	47655
414.469	18236
414.546	3236
414.623	2046
414.699	2543
414.776	3744
414.853	3070
414.929	2586
415.006	2987
415.082	6774
415.159	5313
415.236	2794
415.312	2807
415.389	6162
415.465	9897
415.542	5274
415.618	2213
415.695	7051
415.771	4385
415.848	4508
415.924	4507
416.000	4569
416.077	3504
416.153	638
416.230	648
416.306	1253
416.383	1738
416.459	2728
416.535	1481
416.612	1559
416.688	1642
416.764	1944
416.841	1706
416.917	2479
416.993	2598
417.069	4143
417.146	5620
417.222	6451
417.298	4514
417.374	2726
417.451	3744
417.527	4447
417.603	5481
417.679	3188
417.755	3979
417.831	1547
417.908	1842
417.984	1647
418.060	1343
418.136	6930
418.212	10519
418.288	4627
418.364	3063
418.440	2705
418.516	6454
418.592	11287
418.668	17215
418.744	20753
418.820	16566
418.896	5063
418.972	1954
419.048	2548
419.124	9032
419.200	6913
419.276	3692
419.352	1512
419.428	1851
419.504	2542
419.579	4187
419.655	2520
419.731	2229
419.807	12164
419.883	20921
419.959	15176
420.034	5068
420.110	6926
420.186	27016
420.262	26012
420.337	6947
420.413	5165
420.489	3010
420.565	2062
420.640	2426
420.716	3794
420.792	970
420.867	3235
420.943	2157
421.019	6260
421.094	5503
421.170	2562
421.245	1332
421.321	1763
421.397	2200
421.472	3579
421.548	7198
421.623	8879
421.699	5383
421.774	4383
421.850	2945
421.925	6154
422.001	5378
422.076	3067
422.152	3747
422.227	8189
422.302	7360
422.378	7752
422.453	12269
422.529	26861
422.604	85414
422.679	171028
422.755	117599
422.830	38587
422.905	13381
422.981	6982
423.056	5713
423.131	4587
423.207	3914
423.282	4067
423.357	12123
423.432	9073
423.508	6533
423.583	17945
423.658	14838
423.733	5180
423.808	7538
423.883	7161
423.959	5744
424.034	3109
424.109	3065
424.184	1155
424.259	1033
424.334	1557
424.409	1765
424.484	2039
424.559	3628
424.634	1953
424.709	3679
424.784	6260
424.859	4139
424.934	5640
425.009	23431
425.084	40505
425.159	16795
425.234	4508
425.309	1798
425.384	1257
425.459	1546
425.534	2503
425.609	4953
425.683	3463
425.758	2665
425.833	3461
425.908	5195
425.983	12026
426.058	41057
426.132	20786
426.207	6324
426.282	10704
426.357	13005
426.431	4418
426.506	3909
426.581	4439
426.655	3986
426.730	3562
426.805	2976
426.879	4257
426.954	4026
427.029	7272
427.103	29047
427.178	64985
427.253	34511
427.327	7771
427.402	7467
427.476	17366
427.551	7497
427.625	6119
427.700	7089
427.774	3869
427.849	6431
427.923	3183
427.998	2650
428.072	3346
428.147	9670
428.221	20380
428.296	41027
428.370	18951
428.444	6608
428.519	13319
428.593	27493
428.667	25496
428.742	29495
428.816	22229
428.890	36902
428.965	45292
429.039	22195
429.113	35583
429.188	15471
429.262	3786
429.336	6586
429.410	22212
429.485	17233
429.559	23618
429.633	21898
429.707	5817
429.781	9832
429.855	48668
429.930	74896
430.004	57399
430.078	91019
430.152	70014
430.226	39783
430.300	38046
430.374	9409
430.448	5792
430.522	20397
430.596	71537
430.670	43835
430.744	40651
430.818	73378
430.892	21443
430.966	5572
431.040	3301
431.114	2336
431.188	2386
431.262	2825
431.336	3044
431.410	10917
431.484	35534
431.557	24554
431.631	3919
431.705	3306
431.779	5108
431.853	24841
431.927	21619
432.000	5142
432.074	3627
432.148	5550
432.222	7398
432.295	4214
432.369	3192
432.443	4996
432.516	26736
432.590	65872
432.664	33467
432.737	7450
432.811	2002
432.885	1659
432.958	2080
433.032	2562
433.106	1919
433.179	1501
433.253	1432
433.326	2257
433.400	1126
433.473	2533
433.547	777
433.620	2123
433.694	6168
433.767	7482
433.841	3658
433.914	2100
433.988	1176
434.061	2057
434.134	2336
434.208	2171
434.281	1135
434.355	1575
434.428	2648
434.501	1661
434.575	1844
434.648	3165
434.721	1852
434.795	1640
434.868	1292
434.941	1755
435.014	1293
435.088	1712
435.161	1652
435.234	4636
435.307	7941
435.381	3762
435.454	2417
435.527	2517
435.600	2396
435.673	2322
435.746	1504
435.819	1982
435.892	2526
435.966	1606
436.039	2083
436.112	3329
436.185	1183
436.258	1876
436.331	557
436.404	1415
436.477	813
436.550	1362
436.623	1731
436.696	1483
436.769	2227
436.842	3058
436.915	2787
436.987	6625
437.060	3853
437.133	1619
437.206	2142
437.279	3450
437.352	1767
437.425	1839
437.498	3160
437.570	8105
437.643	9801
437.716	3430
437.789	1843
437.861	6472
437.934	20320
438.007	10905
438.080	2467
438.152	2402
438.225	4382
438.298	25951
438.370	81151
438.443	47796
438.516	18960
438.588	5949
438.661	2463
438.734	2373
438.806	3509
438.879	5292
438.951	5608
439.024	11260
439.096	4366
439.169	2049
439.241	2168
439.314	2119
439.386	6834
439.459	10820
439.531	13700
439.604	6979
439.676	3175
439.749	2083
439.821	1603
439.893	2665
439.966	2159
440.038	3955
440.110	4997
440.183	2957
440.255	2169
440.327	4722
440.400	15932
440.472	61630
440.544	47495
440.617	10214
440.689	9076
440.761	11846
440.833	17652
440.905	12934
440.978	2649
441.050	2207
441.122	2291
441.194	1286
441.266	2313
441.338	1480
441.411	4842
441.483	21699
441.555	40206
441.627	13675
441.699	10368
441.771	11197
441.843	4302
441.915	1338
441.987	1913
442.059	2324
442.131	4461
442.203	8549
442.275	8904
442.347	8098
442.419	3808
442.491	10091
442.563	27163
442.635	22990
442.706	33057
442.778	33418
442.850	6722
442.922	2840
442.994	5158
443.066	9211
443.137	7506
443.209	4076
443.281	3851
443.353	8464
443.425	19337
443.496	44677
443.568	45760
443.640	20667
443.711	7983
443.783	4811
443.855	4802
443.926	3294
443.998	4035
444.070	8094
444.141	6751
444.213	8305
444.285	9174
444.356	9102
444.428	9638
444.499	4846
444.571	1504
444.642	3380
444.714	3100
444.785	7273
444.857	10054
444.928	28363
445.000	20267
445.071	19049
445.143	25104
445.214	11059
445.285	13168
445.357	41722
445.428	49033
445.500	84446
445.571	75990
445.642	35165
445.714	26851
445.785	44457
445.856	15966
445.928	9798
445.999	9013
446.070	8491
446.141	7468
446.213	11105
446.284	7288
446.355	9216
446.426	6644
446.497	5036
446.569	10078
446.640	16228
446.711	9623
446.782	4709
446.853	6159
446.924	8763
446.995	5602
447.066	5607
447.138	12976
447.209	9359
447.280	2111
447.351	2350
447.422	2819
447.493	5978
447.564	7652
447.635	8324
447.706	4808
447.777	2253
447.847	2577
447.918	3399
447.989	7143
448.060	11289
448.131	22268
448.202	22641
448.273	15017
448.344	8792
448.414	4361
448.485	3823
448.556	3381
448.627	2581
448.698	2719
448.768	1874
448.839	3476
448.910	12071
448.981	12914
449.051	5638
449.122	2762
449.193	2328
449.263	3008
449.334	3584
449.405	4565
449.475	10132
449.546	10036
449.616	13661
449.687	14543
449.758	5161
449.828	3266
449.899	3129
449.969	2564
450.040	2699
450.110	4761
450.181	6331
450.251	4138
450.322	2720
450.392	4627
450.463	4507
450.533	2712
450.604	4433
450.674	3799
450.744	3645
450.815	3412
450.885	4179
450.955	3547
451.026	3069
451.096	4064
451.166	5969
451.237	12575
451.307	37910
451.377	20621
451.447	5445
451.518	3661
451.588	4314
451.658	4386
451.728	8826
451.799	32155
451.869	46310
451.939	16088
452.009	4954
452.079	3476
452.149	4669
452.219	8528
452.289	38364
452.360	38147
452.430	9665
452.500	5484
452.570	6110
452.640	7327
452.710	21011
452.780	42120
452.850	24325
452.920	19734
452.990	9755
453.060	4997
453.129	8492
453.199	10325
453.269	26196
453.339	66457
453.409	106765
453.479	97536
453.549	150838
453.619	186176
453.688	96702
453.758	19226
453.828	7637
453.898	5862
453.968	6410
454.037	5022
454.087	5168
454.107	5226
454.168	4224
454.177	4073
454.247	3684
454.249	3683
454.316	3508
454.330	4065
454.386	6292
454.411	11360
454.456	19587
454.492	28537
454.525	36509
454.574	21605
454.595	15212
454.655	6470
454.665	5065
454.734	5971
454.736	6119
454.804	11169
454.817	15650
454.873	33464
454.898	38681
454.943	47721
454.979	33498
455.013	20798
455.060	12555
455.082	9199
455.141	8507
455.152	8244
455.221	22778
455.222	23147
455.291	47623
455.303	43389
455.360	24591
455.384	19169
455.430	9952
455.465	12121
455.499	13632
455.546	28906
455.569	35550
455.627	30881
455.638	30242
455.707	8400
455.708	8386
455.777	4856
455.789	4939
455.846	5515
455.869	5263
455.916	4775
455.950	5139
455.985	5413
456.031	5756
456.054	5860
456.112	4699
456.124	4505
456.193	4084
456.193	4071
456.262	5304
456.274	5826
456.332	8064
456.355	8486
456.401	8810
456.436	7970
456.470	7134
456.516	4684
456.540	3636
456.597	3449
456.609	3405
456.678	3534
456.678	3524
456.747	3014
456.759	3130
456.817	3805
456.840	3578
456.886	3052
456.920	3343
456.955	3679
457.001	3143
457.024	3024
457.082	5078
457.093	5428
457.162	7980
457.163	8000
457.232	9894
457.243	9669
457.301	7363
457.324	5630
457.370	3411
457.405	3878
457.439	4153
457.485	3617
457.508	3452
457.566	4656
457.577	4879
457.646	4924
457.647	4947
457.715	6321
457.727	6415
457.784	6990
457.808	7606
457.853	8289
457.889	8812
457.922	8310
457.969	7026
457.991	7542
458.050	9695
458.060	9925
458.129	12036
458.130	12119
458.198	10781
458.211	10076
458.267	7085
458.292	5730
458.336	4989
458.372	5062
458.405	5780
458.453	6908
458.474	8062
458.533	13102
458.543	13703
458.611	20261
458.614	20484
458.680	15669
458.694	13182
458.749	7460
458.775	6232
458.818	5338
458.855	4921
458.887	4665
458.936	4886
458.955	5002
459.016	5485
459.024	5578
459.093	5788
459.097	5824
459.162	6122
459.177	6229
459.230	7079
459.257	7894
459.299	8705
459.338	8526
459.368	8702
459.418	10151
459.437	9745
459.499	7119
459.505	7070
459.574	6232
459.579	6254
459.643	5908
459.659	5614
459.711	5536
459.740	5862
459.780	6110
459.820	6181
459.849	6191
459.900	6991
459.917	7117
459.981	7237
459.986	7231
460.054	6125
460.061	5982
460.123	5406
460.141	5739
460.191	7676
460.222	8479
460.260	8893
460.302	10592
460.328	10480
460.382	7822
460.397	7475
460.462	6466
460.465	6476
460.534	6979
460.543	7102
460.602	13718
460.623	16360
460.671	24593
460.703	32243
460.739	32232
460.783	30144
460.808	25936
460.864	9087
460.876	7893
460.944	7044
460.945	7032
461.013	6800
461.024	6739
461.081	6346
461.104	6617
461.150	6904
461.184	6629
461.218	6487
461.264	6489
461.286	6471
461.345	6387
461.355	6399
461.423	6871
461.425	6868
461.491	6671
461.505	6760
461.559	10113
461.585	11667
461.628	19334
461.665	27604
461.696	32181
461.745	46728
461.764	44542
461.825	21660
461.832	21014
461.901	9617
461.905	9445
461.969	7980
461.985	7900
462.037	7689
462.065	7458
462.105	7656
462.145	8137
462.173	11038
462.225	16545
462.241	18194
462.305	28560
462.310	28208
462.378	23877
462.385	21992
462.446	11733
462.465	9578
462.514	7752
462.545	7861
462.582	7537
462.625	7312
462.650	7113
462.705	6691
462.718	6914
462.785	8215
462.786	8274
462.854	11863
462.865	12654
462.922	16617
462.945	18490
462.990	16304
463.025	12306
463.058	10573
463.104	7953
463.126	7132
463.184	6715
463.194	6912
463.262	8289
463.264	8343
463.330	8144
463.344	8068
463.398	9061
463.424	9512
463.466	9555
463.504	10007
463.533	10253
463.583	9995
463.601	10071
463.663	10355
463.669	10558
463.737	13132
463.743	13414
463.805	19897
463.823	21700
463.873	31113
463.903	37850
463.940	42773
463.982	51350
464.008	45475
464.062	24945
464.076	23370
464.142	11033
464.144	10811
464.211	8572
464.221	8467
464.279	8338
464.301	8240
464.347	8805
464.381	9434
464.414	10537
464.461	11950
464.482	12489
464.540	14946
464.550	14629
464.617	10871
464.620	10712
464.685	10461
464.699	10599
464.753	12392
464.779	13367
464.820	13945
464.859	14354
464.888	14302
464.938	14268
464.956	14577
465.018	15928
465.023	15690
465.091	12286
465.098	11822
465.158	10761
465.177	10628
465.226	10630
465.257	10575
465.293	11505
465.336	12699
465.361	13574
465.416	15556
465.428	16312
465.495	20302
465.496	20420
465.563	35212
465.575	37937
465.631	49028
465.654	54339
465.698	37828
465.734	21407
465.765	17561
465.813	11520
465.833	10741
465.893	10122
465.900	10071
465.968	9851
465.972	9839
466.035	10100
466.052	10127
466.102	10484
466.131	10632
466.170	10362
466.210	10125
466.237	10262
466.290	10492
466.304	10594
466.369	10853
466.372	10884
466.439	11553
466.449	11626
466.506	12800
466.528	13256
466.573	17202
466.607	20110
466.641	32212
466.687	49108
466.708	55606
466.766	74159
466.775	69021
466.842	29346
466.845	27408
466.909	16880
466.925	14561
466.977	13002
467.004	12344
467.044	13231
467.083	14154
467.111	14987
467.163	16511
467.178	16985
467.242	18826
467.245	18783
467.312	17335
467.321	17121
467.379	17535
467.400	17637
467.446	18691
467.480	19405
467.559	18683
467.638	15143
467.717	15704
467.796	17049
467.875	19056
467.955	18512
468.034	23458
468.113	55836
468.192	85741
468.271	30157
468.350	14305
468.429	15100
468.508	15794
468.588	14082
468.667	14957
468.746	15798
468.825	15374
468.904	14247
468.983	15560
469.062	25083
469.141	32615
469.220	15800
469.299	14560
469.378	14704
469.456	16475
469.535	16517
469.614	15831
469.693	15877
469.772	20997
469.851	29119
469.930	23233
470.009	13912
470.088	14153
470.166	16222
470.245	19317
470.324	22430
470.403	15789
470.482	13735
470.560	13942
470.639	14861
470.718	17534
470.797	15126
470.875	17018
470.954	23519
471.033	27215
471.111	12986
471.190	12051
471.269	11594
471.347	12839
471.426	13553
471.505	15482
471.583	16541
471.662	15144
471.740	13862
471.819	14208
471.898	13740
471.976	13663
472.055	13940
472.133	14937
472.212	20029
472.290	21966
472.369	15561
472.447	12725
472.526	13057
472.604	13211
472.683	12722
472.761	13837
472.839	13903
472.918	13092
472.996	13754
473.075	15885
473.153	15773
473.231	13298
473.310	15373
473.388	16385
473.466	13977
473.545	14689
473.623	19951
473.701	19421
473.780	13415
473.858	12125
473.936	14031
474.014	13206
474.093	15099
474.171	20466
474.249	28632
474.327	22318
474.405	11874
474.484	11764
474.562	12559
474.640	12672
474.718	12482
474.796	13026
474.874	12048
474.952	11268
475.030	11031
475.108	12038
475.187	12098
475.265	12522
475.343	15635
475.421	18090
475.499	12193
475.577	13136
475.655	16393
475.733	32375
475.811	55947
475.889	53659
475.966	42073
476.044	13795
476.122	16197
476.200	18872
476.278	16554
476.356	13904
476.434	14435
476.512	16287
476.590	18789
476.667	18466
476.745	13270
476.823	14982
476.901	14821
476.979	15599
477.056	14936
477.134	14658
477.212	14034
477.290	14353
477.367	13136
477.445	14194
477.523	13290
477.601	13574
477.678	14087
477.756	17454
477.834	19219
477.911	13335
477.989	13874
478.066	13813
478.144	15286
478.222	16059
478.299	19348
478.377	18995
478.454	13134
478.532	12721
478.609	13004
478.687	14759
478.764	12347
478.842	12937
478.919	14836
478.997	14613
479.074	12823
479.152	14612
479.229	19260
479.307	14724
479.384	11550
479.461	11176
479.539	12648
479.616	15446
479.694	13925
479.771	14976
479.848	14636
479.926	19031
480.003	22146
480.080	12725
480.157	11916
480.235	12081
480.312	12282
480.389	14159
480.467	23223
480.544	28945
480.621	18960
480.698	15568
480.775	17611
480.853	18438
480.930	14940
481.007	15831
481.084	16665
481.161	18096
481.238	17275
481.315	13776
481.392	13988
481.470	14654
481.547	14461
481.624	14516
481.701	13853
481.778	14837
481.855	16270
481.932	21949
482.009	35184
482.086	29785
482.163	14521
482.240	15635
482.317	20980
482.393	20747
482.470	14583
482.547	14252
482.624	13759
482.701	15316
482.778	14150
482.855	11896
482.932	12097
483.009	12549
483.085	14235
483.162	16793
483.239	16998
483.316	13628
483.393	12480
483.469	12970
483.546	14491
483.623	17072
483.699	12764
483.776	13571
483.853	15813
483.930	18777
484.006	46566
484.083	85996
484.160	44405
484.236	44980
484.313	39887
484.389	30631
484.466	27243
484.543	24549
484.619	26204
484.696	26409
484.772	28814
484.849	33324
484.925	25848
485.002	25687
485.078	28312
485.155	30132
485.231	26204
485.308	24288
485.384	25377
485.461	30272
485.537	48182
485.614	63931
485.690	29820
485.766	24299
485.843	25617
485.919	34404
485.995	38848
486.072	22714
486.148	22036
486.224	22882
486.301	23578
486.377	28938
486.453	31900
486.530	27462
486.606	29544
486.682	33977
486.758	41293
486.835	54394
486.911	39624
486.987	62276
487.063	71786
487.139	83692
487.215	61075
487.292	30434
487.368	23999
487.444	27023
487.520	35145
487.596	31408
487.672	29192
487.748	52229
487.824	79387
487.900	35296
487.976	23645
488.052	28498
488.128	40069
488.204	32686
488.280	25789
488.356	25729
488.432	51736
488.508	92922
488.584	39972
488.660	22465
488.736	22831
488.812	23524
488.888	30430
488.964	34962
489.039	72168
489.115	124192
489.191	81172
489.267	25155
489.343	23350
489.418	19686
489.494	19112
489.570	17512
489.646	20815
489.722	20923
489.797	21194
489.873	27787
489.949	63982
490.024	67528
490.100	21611
490.176	19293
490.251	23204
490.327	30955
490.403	21162
490.478	18482
490.554	16516
490.629	16159
490.705	15643
490.781	18570
490.856	18505
490.932	20739
491.007	20971
491.083	20060
491.158	18450
491.234	22242
491.309	49750
491.385	61185
491.460	22641
491.536	19786
491.611	19308
491.686	19534
491.762	25461
491.837	48563
491.913	86685
491.988	109336
492.063	156246
492.139	49406
492.214	31174
492.289	16985
492.365	15438
492.440	19422
492.515	20843
492.590	19370
492.666	15490
492.741	20565
492.816	33060
492.891	20873
492.967	15447
493.042	12269
493.117	13994
493.192	12898
493.267	15516
493.342	21507
493.418	23586
493.493	15043
493.568	12610
493.643	13899
493.718	17706
493.793	26891
493.868	31573
493.943	20903
494.018	15551
494.093	14526
494.168	15283
494.243	12974
494.318	13379
494.393	13724
494.468	13331
494.543	13695
494.618	15317
494.693	14425
494.768	13990
494.842	14437
494.917	11592
494.992	14733
495.067	13531
495.142	11491
495.217	13012
495.292	14385
495.366	17320
495.441	22555
495.516	29499
495.591	34951
495.665	91879
495.740	248437
495.815	126475
495.890	27523
495.964	21148
496.039	22155
496.114	20854
496.188	21042
496.263	20814
496.338	20298
496.412	22128
496.487	25664
496.561	24756
496.636	26845
496.710	21447
496.785	22979
496.860	26604
496.934	22016
497.009	20638
497.083	19799
497.158	19239
497.232	21905
497.307	28959
497.381	23158
497.455	24649
497.530	34808
497.604	25620
497.679	22710
497.753	34426
497.827	45040
497.902	35102
497.976	37762
498.050	68337
498.125	282856
498.199	387697
498.273	69629
498.348	39038
498.422	29907
498.496	29110
498.570	29421
498.645	21764
498.719	22649
498.793	28060
498.867	44607
498.941	57747
499.016	111333
499.090	360595
499.164	185275
499.238	24291
499.312	21463
499.386	26189
499.460	26060
499.534	23407
499.609	26800
499.683	41246
499.757	41000
499.831	53666
499.905	223286
499.979	289421
500.053	57930
500.127	52574
500.201	37909
500.275	25824
500.349	24547
500.422	26746
500.496	35899
500.570	64531
500.644	134411
500.718	291433
500.792	98516
500.866	24975
500.940	32406
501.013	30133
501.087	25351
501.161	43597
501.235	56719
501.309	89571
501.382	242179
501.456	283221
501.530	63646
501.603	100686
501.677	57314
501.751	20981
501.825	24098
501.898	36191
501.972	107519
502.046	97280
502.119	27757
502.193	46353
502.266	124317
502.340	83095
502.413	50203
502.487	115967
502.561	81013
502.634	29468
502.708	19948
502.781	18530
502.855	16778
502.928	13911
503.002	15926
503.075	14517
503.149	16527
503.222	17474
503.295	18335
503.369	22474
503.442	26720
503.516	67508
503.589	206698
503.662	169873
503.736	49390
503.809	94537
503.882	93287
503.956	102235
504.029	125112
504.102	50775
504.175	56060
504.249	23264
504.322	20113
504.395	21924
504.468	16344
504.542	16840
504.615	14622
504.688	14102
504.761	12972
504.834	17391
504.907	19124
504.980	31812
505.053	20118
505.127	22070
505.200	28274
505.273	24756
505.346	18438
505.419	13844
505.492	14388
505.565	12406
505.638	12321
505.711	13123
505.784	12267
505.857	11509
505.930	13572
506.003	12987
506.076	13914
506.149	17820
506.221	24024
506.294	19999
506.367	37558
506.440	141216
506.513	109566
506.586	25197
506.659	17009
506.731	13701
506.804	14424
506.877	22699
506.950	18032
507.022	13171
507.095	16252
507.168	22349
507.241	15603
507.313	11148
507.386	12139
507.459	17947
507.531	12963
507.604	10949
507.677	12025
507.749	10401
507.822	13193
507.894	23278
507.967	30168
508.040	18135
508.112	15259
508.185	14836
508.257	14709
508.330	22692
508.402	16317
508.475	15149
508.547	15279
508.620	14496
508.692	23465
508.765	18236
508.837	12840
508.909	13123
508.982	12424
509.054	13893
509.127	12971
509.199	11655
509.271	11348
509.344	11801
509.416	11314
509.488	11790
509.560	12785
509.633	11851
509.705	14553
509.777	14969
509.849	18812
509.922	15500
509.994	12637
510.066	12205
510.138	12221
510.210	20892
510.283	20512
510.355	17004
510.427	15398
510.499	14743
510.571	13806
510.643	14508
510.715	23456
510.787	23790
510.859	15641
510.931	18325
511.003	24195
511.076	26141
511.148	14290
511.219	12564
511.291	20843
511.363	28935
511.435	13741
511.507	12232
511.579	12612
511.651	12664
511.723	12451
511.795	13162
511.867	12895
511.939	13238
512.010	28692
512.082	31070
512.154	13770
512.226	13967
512.298	17319
512.369	26385
512.441	21417
512.513	21474
512.585	16845
512.656	16505
512.728	19765
512.800	15182
512.871	14260
512.943	14290
513.015	12781
513.086	13704
513.158	15915
513.230	14350
513.301	20109
513.373	27639
513.444	16021
513.516	13622
513.588	13148
513.659	13880
513.731	18106
513.802	15916
513.874	28295
513.945	57474
514.016	23366
514.088	13858
514.159	14760
514.231	19185
514.302	25449
514.374	18618
514.445	16759
514.516	33676
514.588	32253
514.659	17869
514.730	32677
514.802	30174
514.873	14805
514.944	15469
515.016	14709
515.087	18972
515.158	22267
515.229	36864
515.301	16202
515.372	14737
515.443	11971
515.514	11927
515.585	10298
515.656	12660
515.728	12390
515.799	11950
515.870	13261
515.941	14347
516.012	13252
516.083	16556
516.154	17663
516.225	26663
516.296	22391
516.367	18438
516.438	21580
516.509	26341
516.580	33585
516.651	74114
516.722	295276
516.793	190924
516.864	44410
516.935	43437
517.006	41329
517.077	49310
517.148	96311
517.219	236632
517.289	448913
517.360	191183
517.431	94629
517.502	25910
517.573	23946
517.643	22364
517.714	24422
517.785	24874
517.856	24241
517.926	27782
517.997	31815
518.068	34819
518.138	43963
518.209	51315
518.280	133435
518.350	573338
518.421	283662
518.492	40790
518.562	27235
518.633	28047
518.703	24306
518.774	28120
518.845	48025
518.915	55537
518.986	30621
519.056	29940
519.127	48005
519.197	68586
519.268	153938
519.338	141015
519.408	35555
519.479	37795
519.549	33175
519.620	21749
519.690	17449
519.760	18295
519.831	19174
519.901	20896
519.971	16625
520.042	17746
520.112	21653
520.182	23190
520.253	24772
520.323	18068
520.393	17108
520.463	20984
520.534	16061
520.604	26010
520.674	21326
520.744	20886
520.814	26812
520.885	30979
520.955	43135
521.025	173936
521.095	110398
521.165	22845
521.235	18680
521.305	18073
521.375	16567
521.445	17588
521.515	20390
521.585	23911
521.655	25533
521.725	20986
521.795	19904
521.865	15114
521.935	22648
522.005	24599
522.075	16301
522.145	16707
522.215	17600
522.285	26222
522.355	30256
522.424	59620
522.494	58867
522.564	30361
522.634	39631
522.704	126171
522.774	69594
522.843	19534
522.913	17092
522.983	21115
523.053	18199
523.122	18209
523.192	20193
523.262	60487
523.331	74887
523.401	20902
523.471	13620
523.540	15606
523.610	13291
523.680	13210
523.749	14691
523.819	17196
523.888	18745
523.958	14737
524.027	15415
524.097	18072
524.166	15751
524.236	15671
524.305	17435
524.375	14848
524.444	14245
524.514	16824
524.583	15901
524.653	17752
524.722	21692
524.791	16795
524.861	15220
524.930	15104
524.999	15115
525.069	20908
525.138	19197
525.207	21677
525.277	17505
525.346	15976
525.415	15219
525.484	15113
525.554	17921
525.623	18366
525.692	14328
525.761	15883
525.830	15385
525.900	15912
525.969	20368
526.038	24982
526.107	28317
526.176	68286
526.245	66716
526.314	35009
526.383	47390
526.452	56789
526.522	80314
526.591	114185
526.660	71679
526.729	39691
526.797	35049
526.867	58024
526.935	254978
527.004	330623
527.073	171133
527.142	27596
527.211	17537
527.280	18039
527.349	20449
527.418	12257
527.487	14073
527.555	12542
527.624	12757
527.693	11475
527.762	14256
527.831	11663
527.899	13252
527.968	12758
528.037	13147
528.106	16464
528.174	26094
528.243	23458
528.312	27160
528.380	40466
528.449	16539
528.518	13893
528.586	10617
528.655	12637
528.723	12500
528.792	11691
528.861	12791
528.929	12261
528.998	12930
529.066	11878
529.135	11452
529.203	11921
529.272	10866
529.340	11649
529.409	13103
529.477	11595
529.545	15060
529.614	18581
529.682	15518
529.751	20934
529.819	18334
529.887	15973
529.956	11765
530.024	13006
530.092	10583
530.161	12487
530.229	19271
530.297	12897
530.365	12288
530.434	10204
530.502	10945
530.570	11748
530.638	10135
530.707	11604
530.775	14722
530.843	12370
530.911	12008
530.979	11480
531.047	11527
531.115	12617
531.183	12275
531.252	13753
531.320	12529
531.388	12050
531.456	13745
531.524	10409
531.592	12878
531.660	14343
531.728	12041
531.796	12539
531.864	12319
531.932	12616
532.000	12284
532.067	12833
532.135	14361
532.203	15304
532.271	15070
532.339	21272
532.407	52680
532.475	39557
532.542	21215
532.610	21766
532.678	24963
532.746	70381
532.814	246998
532.881	88970
532.949	19250
533.017	15163
533.084	13196
533.152	12903
533.220	13358
533.287	14430
533.355	12802
533.423	12486
533.490	12251
533.558	12009
533.625	12741
533.693	14607
533.761	14811
533.828	14536
533.896	12506
533.963	21152
534.031	26041
534.098	35825
534.166	23800
534.233	13271
534.300	13748
534.368	13164
534.435	12571
534.503	12038
534.570	12230
534.637	12066
534.705	13725
534.772	13397
534.840	13855
534.907	32419
534.974	49061
535.041	16354
535.109	16783
535.176	13285
535.243	11976
535.310	13404
535.378	12531
535.445	12490
535.512	11585
535.579	12282
535.646	12500
535.714	12593
535.781	15243
535.848	14245
535.915	15824
535.982	14069
536.049	13536
536.116	15790
536.183	13463
536.250	13732
536.317	14243
536.384	15603
536.451	20372
536.518	23116
536.585	16568
536.652	19929
536.719	27166
536.786	25228
536.853	19018
536.920	24545
536.987	37717
537.053	35564
537.120	108100
537.187	138039
537.254	21475
537.321	15996
537.388	15513
537.454	13641
537.521	13193
537.588	12449
537.654	15632
537.721	15903
537.788	16295
537.855	14001
537.921	14466
537.988	15674
538.055	15615
538.121	14382
538.188	15464
538.254	18103
538.321	35277
538.388	28682
538.454	15823
538.521	15827
538.587	13819
538.654	14177
538.720	14325
538.787	13477
538.853	14514
538.920	17793
538.986	18969
539.053	16803
539.119	16933
539.185	16947
539.252	18088
539.318	24930
539.385	21487
539.451	19284
539.517	19622
539.583	21929
539.650	35338
539.716	108741
539.782	46587
539.849	17965
539.915	17492
539.981	16069
540.047	19261
540.114	18791
540.180	19106
540.246	17367
540.312	20487
540.378	34931
540.444	41992
540.510	36228
540.576	114388
540.643	55387
540.709	17019
540.775	16154
540.841	15786
540.907	18963
540.973	26166
541.039	21983
541.105	26314
541.171	18064
541.237	16138
541.303	17748
541.369	17865
541.435	19025
541.500	32384
541.566	26894
541.632	15683
541.698	14877
541.764	14830
541.830	14428
541.896	14339
541.961	15732
542.027	15421
542.093	16386
542.159	16241
542.224	16363
542.290	20771
542.356	29701
542.421	43560
542.487	21994
542.553	17473
542.618	20459
542.684	19331
542.750	18441
542.815	21451
542.881	28540
542.947	88816
543.012	94446
543.078	20756
543.143	16968
543.209	18630
543.274	18616
543.340	19896
543.405	35505
543.471	72969
543.536	24758
543.602	18261
543.667	16407
543.732	16229
543.798	14561
543.863	16913
543.928	15782
543.994	14534
544.059	16016
544.124	16525
544.190	15843
544.255	17348
544.320	16972
544.386	16983
544.451	21906
544.516	25796
544.581	23735
544.646	52596
544.712	110805
544.777	32926
544.842	23002
544.907	26167
544.972	22797
545.037	21456
545.102	23581
545.168	24401
545.233	24531
545.298	25496
545.363	26694
545.428	28627
545.493	37886
545.558	85639
545.623	52356
545.688	24924
545.753	23622
545.818	23092
545.883	24383
545.947	22492
546.012	24351
546.077	26572
546.142	24994
546.207	23185
546.272	26613
546.337	29210
546.401	24938
546.466	24110
546.531	22959
546.596	25622
546.661	24774
546.725	25475
546.790	23578
546.855	24622
546.919	22917
546.984	25437
547.049	26954
547.113	29340
547.178	28370
547.243	30230
547.307	32070
547.372	36524
547.436	39874
547.501	33601
547.565	33677
547.630	35892
547.695	35624
547.759	39354
547.823	38136
547.888	31913
547.952	32138
548.017	32952
548.081	35447
548.146	42724
548.210	41863
548.274	34572
548.339	33967
548.403	32515
548.468	29939
548.532	30613
548.596	32320
548.660	31876
548.725	34377
548.789	38356
548.853	40777
548.917	34763
548.982	39270
549.046	44046
549.110	32574
549.174	30221
549.238	31733
549.303	32691
549.367	34403
549.431	33276
549.495	32019
549.559	32132
549.623	34910
549.687	39093
549.751	48968
549.815	44788
549.879	43074
549.943	39720
550.007	43238
550.071	42837
550.135	47225
550.199	44176
550.263	39256
550.327	38578
550.391	45313
550.455	43009
550.519	39888
550.582	42945
550.646	49748
550.710	57101
550.774	45251
550.838	43139
550.901	45413
550.965	46625
551.029	47727
551.093	52426
551.156	56643
551.220	76870
551.284	100566
551.347	60094
551.411	82821
551.475	113787
551.538	54480
551.602	45612
551.666	42876
551.729	38723
551.793	40540
551.856	41363
551.920	37975
551.983	39206
552.047	40554
552.110	39173
552.174	39025
552.237	39747
552.301	38131
552.364	37138
552.428	37379
552.491	38697
552.554	38689
552.618	38341
552.681	39947
552.745	38785
552.808	45532
552.871	53563
552.934	43331
552.998	37673
553.061	40742
553.124	39713
553.187	37901
553.251	39417
553.314	40737
553.377	38360
553.440	39134
553.503	42720
553.567	47418
553.630	40889
553.693	39445
553.756	40559
553.819	38427
553.882	38734
553.945	37994
554.008	38316
554.071	37905
554.134	38354
554.197	37940
554.260	35602
554.323	39097
554.386	38519
554.449	39290
554.512	38594
554.575	37393
554.638	38357
554.701	37535
554.764	36583
554.827	35834
554.889	35843
554.952	34783
555.015	32001
555.078	32768
555.141	34509
555.203	33467
555.266	32847
555.329	34596
555.391	33433
555.454	32976
555.517	33936
555.580	32341
555.642	30243
555.705	29378
555.768	32209
555.830	31657
555.893	29823
555.955	29845
556.018	31157
556.080	31348
556.143	29840
556.206	29864
556.268	31746
556.330	32101
556.393	31029
556.455	30286
556.518	36816
556.580	41261
556.643	29955
556.705	29378
556.767	27748
556.830	30506
556.892	30604
556.955	36157
557.017	33581
557.079	28983
557.142	27688
557.204	28541
557.266	42361
557.328	42219
557.391	27942
557.453	27000
557.515	26373
557.577	28826
557.639	30956
557.701	25746
557.764	25017
557.826	25789
557.888	27287
557.950	27007
558.012	25685
558.074	27371
558.136	35837
558.198	61970
558.260	40620
558.322	29734
558.384	28607
558.446	31384
558.508	31987
558.570	36763
558.632	47374
558.694	68404
558.756	50783
558.818	87726
558.880	241574
558.942	103831
559.003	64244
559.065	46732
559.127	30557
559.189	30672
559.251	32451
559.312	33963
559.374	50136
559.436	142533
559.498	103994
559.559	33386
559.621	30517
559.683	33224
559.744	44351
559.806	87605
559.868	133431
559.929	51291
559.991	37970
560.052	38938
560.114	63114
560.176	54757
560.237	44726
560.299	66689
560.360	36144
560.422	31607
560.483	31284
560.545	30375
560.606	32053
560.667	30481
560.729	29790
560.790	29211
560.852	28835
560.913	30081
560.974	29640
561.036	28403
561.097	29879
561.158	30017
561.220	31389
561.281	30467
561.342	30763
561.403	34054
561.465	36077
561.526	54324
561.587	76220
561.648	37534
561.709	30857
561.771	31156
561.832	31027
561.893	31140
561.954	30400
562.015	30254
562.076	30835
562.137	31515
562.198	31722
562.259	31362
562.320	31579
562.381	32709
562.442	38914
562.503	37156
562.564	32050
562.625	31087
562.686	31550
562.747	33542
562.808	34644
562.869	32774
562.930	39834
562.991	38936
563.051	37177
563.112	34603
563.173	33999
563.234	32566
563.294	31444
563.355	31308
563.416	32699
563.477	31554
563.537	33796
563.598	34154
563.659	33334
563.720	33928
563.780	33374
563.841	34536
563.901	34085
563.962	33552
564.023	33094
564.083	33811
564.144	33807
564.204	33549
564.265	34120
564.325	36103
564.386	51095
564.446	55766
564.507	34115
564.567	32214
564.628	32181
564.688	32624
564.749	33451
564.809	34177
564.869	40104
564.930	34560
564.990	32094
565.050	32061
565.111	32252
565.171	32027
565.231	31603
565.292	31051
565.352	31190
565.412	33159
565.472	31611
565.532	32372
565.593	31573
565.653	31039
565.713	33848
565.773	33743
565.833	34148
565.893	38838
565.953	34407
566.013	32266
566.074	33523
566.134	38313
566.194	52324
566.254	55758
566.314	42711
566.374	34574
566.434	34166
566.494	33558
566.554	33712
566.614	33878
566.673	33365
566.733	33831
566.793	35394
566.853	37185
566.913	34916
566.973	35883
567.033	36032
567.092	37851
567.152	35529
567.212	36109
567.272	34786
567.331	36007
567.391	35217
567.451	35535
567.511	40444
567.570	45748
567.630	34694
567.690	33405
567.749	33282
567.809	32728
567.868	34412
567.928	34207
567.988	36477
568.047	34528
568.107	34078
568.166	36521
568.226	39337
568.285	46580
568.345	40527
568.404	35742
568.464	34292
568.523	32472
568.582	34371
568.642	35131
568.701	37838
568.761	43498
568.820	57191
568.879	55902
568.939	47717
568.998	40284
569.057	34578
569.116	33331
569.176	31353
569.235	30890
569.294	30863
569.353	30723
569.413	32025
569.472	34185
569.531	32791
569.590	30859
569.649	31038
569.708	31194
569.767	31672
569.827	36988
569.886	35389
569.945	30824
570.004	30946
570.063	32774
570.122	33512
570.181	34811
570.240	37997
570.299	38596
570.358	36356
570.417	33753
570.475	30783
570.534	31297
570.593	33446
570.652	32561
570.711	34771
570.770	31019
570.829	34276
570.887	31729
570.946	32767
571.005	31288
571.064	30443
571.122	30987
571.181	32643
571.240	32339
571.299	31504
571.357	32570
571.416	34308
571.475	35290
571.533	37929
571.592	32443
571.650	33405
571.709	30959
571.768	31491
571.826	30348
571.885	30727
571.943	30403
572.002	29836
572.060	31190
572.119	29441
572.177	29657
572.236	28758
572.294	28555
572.352	29806
572.411	29201
572.469	28363
572.528	29059
572.586	29737
572.644	31528
572.703	38269
572.761	33949
572.819	31237
572.877	30034
572.936	29833
572.994	28503
573.052	27862
573.110	30158
573.169	28094
573.227	27309
573.285	27478
573.343	28742
573.401	28472
573.459	27160
573.517	27464
573.576	28187
573.634	28999
573.692	29742
573.750	27996
573.808	27856
573.866	30206
573.924	33022
573.982	34944
574.040	30717
574.098	27969
574.155	28740
574.213	26596
574.271	27549
574.329	27312
574.387	25980
574.445	26417
574.503	26998
574.560	25174
574.618	25683
574.676	25405
574.734	25181
574.792	27850
574.849	26926
574.907	24829
574.965	25051
575.022	24493
575.080	25766
575.138	25810
575.195	26979
575.253	26956
575.311	27398
575.368	25557
575.426	25175
575.483	25777
575.541	25639
575.598	25398
575.656	26463
575.713	26750
575.771	26837
575.828	25970
575.886	27557
575.943	29083
576.001	28992
576.058	30377
576.115	29836
576.173	32878
576.230	37148
576.287	36733
576.345	32366
576.402	30423
576.459	29913
576.517	29942
576.574	33501
576.631	33506
576.688	31976
576.746	30487
576.803	30443
576.860	28669
576.917	29399
576.974	30445
577.031	29986
577.089	29533
577.146	30960
577.203	29160
577.260	30417
577.317	30116
577.374	32816
577.431	33520
577.488	30088
577.545	28003
577.602	28039
577.659	28909
577.716	27001
577.773	27658
577.830	27517
577.886	27883
577.943	26463
578.000	27792
578.057	28890
578.114	28657
578.171	28379
578.227	27394
578.284	26874
578.341	28714
578.398	28204
578.454	29574
578.511	29945
578.568	35602
578.625	31695
578.681	28711
578.738	27741
578.794	28569
578.851	28716
578.908	29969
578.964	32451
579.021	32763
579.077	30701
579.134	29676
579.190	28806
579.247	28219
579.303	29646
579.360	27778
579.416	26460
579.473	27580
579.529	27202
579.586	26271
579.642	27911
579.698	27652
579.755	28978
579.811	27958
579.867	27034
579.924	26178
579.980	27440
580.036	27354
580.093	26786
580.149	27142
580.205	28181
580.261	27889
580.317	28203
580.374	29527
580.430	33008
580.486	33738
580.542	29019
580.598	28942
580.619	28774
580.654	28492
580.692	29117
580.710	29433
580.765	29313
580.767	29311
580.823	29489
580.838	29679
580.879	30181
580.911	29737
580.935	29403
580.984	29503
580.991	29524
581.047	31157
581.057	31178
581.103	31251
581.130	31717
581.159	32200
581.203	31824
581.215	31723
581.270	32582
581.276	32557
581.326	32235
581.349	31906
581.382	31447
581.422	32708
581.438	33211
581.494	35220
581.494	35217
581.550	33800
581.567	33918
581.606	34338
581.640	34825
581.661	35033
581.713	35346
581.717	35374
581.773	35375
581.786	35323
581.829	35118
581.859	36032
581.885	36768
581.932	37407
581.940	37510
581.996	38550
582.004	38361
582.052	36907
582.077	36440
582.107	36135
582.150	37168
582.163	37401
582.219	37566
582.223	37596
582.274	37937
582.296	37618
582.330	37097
582.368	38451
582.386	38967
582.441	37448
582.441	37433
582.497	37187
582.514	37224
582.552	37368
582.587	36987
582.608	36777
582.659	38711
582.663	38843
582.719	39097
582.732	38950
582.774	38293
582.805	38838
582.830	39382
582.877	39527
582.885	39514
582.941	38651
582.950	38794
582.996	39741
583.023	40069
583.052	40329
583.095	40464
583.107	40481
583.162	40211
583.168	40293
583.218	40955
583.240	40798
583.273	40793
583.313	41610
583.328	41831
583.384	41874
583.385	41865
583.439	41542
583.458	41693
583.494	41852
583.531	41333
583.549	41277
583.603	42912
583.605	42957
583.660	43578
583.676	43491
583.715	43552
583.748	44413
583.770	45002
583.820	44985
583.825	44982
583.881	45165
583.893	45446
583.936	46358
583.965	45847
583.991	45371
584.038	45973
584.046	46144
584.101	45569
584.110	45707
584.156	46652
584.183	46778
584.211	46763
584.255	46866
584.266	46783
584.321	45926
584.328	45835
584.376	46873
584.400	47714
584.431	48314
584.472	47655
584.486	47579
584.541	50003
584.545	49925
584.596	48699
584.617	48744
584.651	49737
584.689	51579
584.706	52347
584.761	53766
584.762	53723
584.816	53772
584.834	54076
584.871	54861
584.906	55423
584.926	55897
584.978	56656
584.980	56736
585.035	56423
585.051	57187
585.090	60071
585.123	60843
585.145	60770
585.195	60743
585.200	60912
585.254	62199
585.267	62330
585.309	62518
585.340	62621
585.364	62875
585.412	63780
585.419	64060
585.473	65683
585.484	65679
585.528	66608
585.556	68974
585.583	71707
585.628	75842
585.637	77608
585.692	94321
585.700	98499
585.747	119487
585.772	111966
585.801	94866
585.845	73906
585.856	70957
585.910	69069
585.917	68717
585.965	68285
585.989	67961
586.019	68449
586.061	70147
586.074	70796
586.128	71487
586.133	71591
586.183	74834
586.205	75586
586.237	76928
586.277	78766
586.292	79508
586.346	81505
586.349	81375
586.401	80113
586.421	80167
586.455	81826
586.493	83430
586.509	86502
586.564	99052
586.565	99320
586.618	129851
586.637	137270
586.672	127415
586.709	105068
586.727	97463
586.781	88434
586.781	88603
586.835	87674
586.853	87437
586.889	87320
586.925	86115
586.944	86277
586.996	87799
586.998	88081
587.052	91704
587.068	92336
587.106	93172
587.140	93521
587.161	93798
587.212	93818
587.215	94205
587.269	99016
587.284	99789
587.323	100136
587.356	99799
587.377	100206
587.427	101610
587.431	101978
587.485	102777
587.499	102699
587.539	104110
587.571	105414
587.593	106409
587.643	107322
587.648	107764
587.702	110115
587.715	110444
587.755	112879
587.786	114328
587.810	114523
587.858	112357
587.864	112906
587.917	118233
587.930	118999
587.971	123164
588.001	125736
588.025	127154
588.073	127812
588.079	128461
588.133	132585
588.145	133203
588.187	138462
588.217	141384
588.241	144412
588.288	150523
588.295	152202
588.348	163545
588.360	165536
588.402	177032
588.431	184626
588.456	192317
588.503	206816
588.510	210459
588.564	236842
588.575	242125
588.617	272957
588.646	293636
588.671	323061
588.718	380774
588.725	398275
588.778	535312
588.789	564358
588.832	765152
588.861	909672
588.886	1034305
588.932	1275784
588.939	1280660
588.993	1225821
589.004	1209862
589.047	1186961
589.075	1141224
589.100	984736
589.147	691847
589.154	669293
589.207	504126
589.218	470810
589.261	432515
589.290	407889
589.314	417981
589.361	438874
589.368	453851
589.421	575695
589.433	602781
589.475	820354
589.504	981023
589.528	1077313
589.576	1240874
589.582	1234700
589.635	1098078
589.647	1057793
589.689	778372
589.718	587670
589.742	503523
589.790	346800
589.795	341556
589.849	288219
589.861	276170
589.902	270821
589.932	264437
589.955	246927
590.004	204099
590.009	202840
590.062	186527
590.075	181893
590.115	175772
590.146	170508
590.168	170114
590.218	167264
590.222	167644
590.275	165918
590.289	164837
590.328	163386
590.360	160948
590.381	160350
590.431	157664
590.435	158207
590.488	158227
590.503	157708
590.541	158278
590.574	157904
590.594	157265
590.645	153633
590.647	154164
590.700	154244
590.716	153732
590.753	152761
590.787	150917
590.806	151741
590.859	152134
590.859	152634
590.912	150299
590.930	149225
590.965	151120
591.001	151694
591.018	153238
591.071	156369
591.072	155840
591.124	157485
591.143	157293
591.177	158967
591.214	159555
591.230	161104
591.283	164404
591.285	163934
591.336	163188
591.356	162145
591.389	161532
591.427	159073
591.442	158691
591.495	155362
591.498	154562
591.547	156679
591.569	156851
591.600	156638
591.640	154712
591.653	155867
591.706	158696
591.711	158421
591.759	161819
591.782	162578
591.811	167824
591.853	174323
591.864	173487
591.917	165401
591.924	163641
591.969	164020
591.995	163347
592.022	165371
592.066	167075
592.075	168458
592.127	173066
592.137	173322
592.180	184506
592.208	190584
592.233	185190
592.279	172654
592.285	172673
592.338	167504
592.350	165699
592.390	164552
592.421	162607
592.443	163755
592.491	164240
592.495	164924
592.548	165580
592.562	165125
592.600	165599
592.633	164807
592.653	164547
592.704	161305
592.705	162237
592.775	162095
592.846	162624
592.916	161923
592.987	166448
593.058	162044
593.128	159330
593.199	158952
593.270	158295
593.341	156177
593.411	153322
593.482	154137
593.553	155290
593.623	151549
593.694	156004
593.764	160447
593.835	155788
593.906	152674
593.976	148747
594.047	155910
594.117	164440
594.188	168032
594.258	149384
594.329	146311
594.399	148664
594.470	146068
594.540	143644
594.611	147431
594.681	145050
594.751	147117
594.822	150920
594.892	154304
594.963	159301
595.033	157379
595.103	156966
595.174	159504
595.244	179862
595.314	209380
595.384	158556
595.455	153163
595.525	157977
595.595	159183
595.665	158865
595.736	153934
595.806	154351
595.876	155248
595.946	153277
596.016	147271
596.087	151390
596.157	153970
596.227	152363
596.297	156762
596.367	158202
596.437	165413
596.507	178081
596.577	201382
596.647	163875
596.717	154312
596.787	153970
596.857	150121
596.927	152035
596.997	152218
597.067	148270
597.137	153876
597.207	155807
597.277	156324
597.347	158437
597.417	156418
597.487	157832
597.557	163019
597.626	158067
597.696	161432
597.766	173503
597.836	194357
597.906	165607
597.975	150811
598.045	148616
598.115	149323
598.185	149037
598.254	151042
598.324	153471
598.394	152769
598.464	152438
598.533	151527
598.603	144706
598.672	148812
598.742	145572
598.812	144707
598.881	144212
598.951	145688
599.020	141207
599.090	140087
599.159	143708
599.229	143405
599.299	136659
599.368	140887
599.437	137190
599.507	136545
599.576	139428
599.646	138067
599.715	137849
599.785	137453
599.854	140817
599.924	147085
599.993	148375
600.062	141311
600.132	140122
600.201	139351
600.270	141780
600.340	142724
600.409	138693
600.478	140829
600.547	139171
600.617	144800
600.686	142373
600.755	136931
600.824	134507
600.894	134040
600.963	132106
601.032	127897
601.101	130918
601.170	129976
601.239	128979
601.308	131274
601.378	128949
601.447	128875
601.516	126859
601.585	126695
601.654	128918
601.723	127989
601.792	126518
601.861	126059
601.930	127547
601.999	129614
602.068	122466
602.137	126330
602.206	124595
602.275	125713
602.343	132500
602.412	132014
602.481	124182
602.550	123113
602.619	123491
602.688	124343
602.756	128513
602.825	122797
602.894	124086
602.963	125539
603.032	125620
603.100	124863
603.169	122320
603.238	127215
603.307	124422
603.375	119758
603.444	122811
603.513	123009
603.581	121022
603.650	121342
603.719	120478
603.787	120290
603.856	123269
603.924	122102
603.993	124142
604.061	119684
604.130	122122
604.198	124136
604.267	124607
604.335	123459
604.404	122790
604.472	122869
604.541	124308
604.609	122672
604.678	121912
604.746	121340
604.815	123006
604.883	124669
604.951	126059
605.020	121228
605.088	125621
605.156	127428
605.225	124298
605.293	123951
605.361	126024
605.429	124639
605.498	123403
605.566	124572
605.634	127127
605.702	129283
605.771	132158
605.839	129196
605.907	129635
605.975	126387
606.043	126366
606.111	127443
606.180	125750
606.248	125117
606.316	125013
606.384	126180
606.452	139288
606.520	140269
606.588	129577
606.656	123098
606.724	124515
606.792	121507
606.860	116281
606.928	110486
606.996	109243
607.064	110563
607.132	108911
607.200	112701
607.267	113483
607.335	112490
607.403	112465
607.471	115428
607.539	113297
607.607	111005
607.674	105792
607.742	109936
607.810	111199
607.878	106169
607.946	107482
608.013	111335
608.081	112276
608.149	110065
608.216	110385
608.284	112909
608.352	110476
608.419	116322
608.487	133237
608.555	122535
608.622	109094
608.690	111525
608.757	113395
608.825	117950
608.893	117075
608.960	121302
609.028	129070
609.095	139991
609.163	120415
609.230	113436
609.298	111219
609.365	107046
609.432	111193
609.500	118739
609.567	123740
609.635	127910
609.702	128625
609.769	127660
609.837	123956
609.904	114510
609.971	106613
610.039	107014
610.106	112035
610.173	134679
610.241	191467
610.308	181373
610.375	143243
610.442	115568
610.509	106455
610.577	105847
610.644	109652
610.711	112069
610.778	115211
610.845	115338
610.912	117898
610.980	116601
611.047	116633
611.114	118424
611.181	113467
611.248	111525
611.315	114173
611.382	113514
611.449	113430
611.516	115241
611.583	114746
611.650	115561
611.717	114832
611.784	115609
611.851	117897
611.918	121512
611.984	124579
612.051	135441
612.118	175761
612.185	295397
612.252	251459
612.319	130883
612.386	123462
612.452	121233
612.519	126520
612.586	147831
612.653	135321
612.719	118287
612.786	117968
612.853	115332
612.919	113784
612.986	113009
613.053	110789
613.120	109216
613.186	105374
613.253	107454
613.319	106297
613.386	108395
613.453	108327
613.519	114459
613.586	118254
613.652	134315
613.719	123865
613.785	117639
613.852	109284
613.918	106161
613.985	104328
614.051	106134
614.118	108653
614.184	108528
614.250	102946
614.317	104342
614.383	103468
614.449	105162
614.516	104244
614.582	109743
614.648	106088
614.715	104216
614.781	105354
614.847	111604
614.914	116864
614.980	113419
615.046	108114
615.112	106315
615.179	105395
615.245	107614
615.311	111162
615.377	114083
615.443	115276
615.509	110389
615.575	112451
615.642	112233
615.708	116687
615.774	121672
615.840	134501
615.906	145735
615.972	147225
616.038	168558
616.104	225621
616.170	370447
616.236	381452
616.302	171101
616.368	150507
616.434	140678
616.500	140925
616.565	141820
616.631	145835
616.697	139123
616.763	138274
616.829	147095
616.895	174113
616.961	175324
617.026	141987
617.092	132202
617.158	132121
617.224	131352
617.289	132309
617.355	136463
617.421	145354
617.487	142310
617.552	136083
617.618	128875
617.684	131475
617.749	133633
617.815	128697
617.880	125831
617.946	129347
618.012	130764
618.077	134830
618.143	130775
618.208	130563
618.274	137305
618.339	143985
618.405	137605
618.470	136637
618.536	140856
618.601	155956
618.667	159018
618.732	145458
618.798	140963
618.863	139891
618.928	138490
618.994	147197
619.059	149570
619.124	158794
619.190	151669
619.255	142915
619.320	140831
619.386	141957
619.451	136928
619.516	138870
619.581	140687
619.647	143554
619.712	139910
619.777	140271
619.842	141695
619.907	143035
619.972	139624
620.038	142406
620.103	138990
620.168	137507
620.233	136722
620.298	136056
620.363	134491
620.428	135459
620.493	139628
620.558	135819
620.623	134035
620.688	134732
620.753	132718
620.818	133995
620.883	135892
620.948	135316
621.013	136915
621.078	140921
621.143	142091
621.207	144165
621.272	145506
621.337	148920
621.402	158092
621.467	187162
621.532	201736
621.596	174332
621.661	165407
621.726	158331
621.791	158097
621.855	161348
621.920	164147
621.985	165955
622.049	172329
622.114	171411
622.179	167232
622.243	187165
622.308	184349
622.373	180153
622.437	181317
622.502	176944
622.566	173886
622.631	179495
622.695	176620
622.760	180516
622.824	172956
622.889	172787
622.953	178319
623.018	191981
623.082	191382
623.147	174076
623.211	168882
623.276	171288
623.340	167889
623.404	163557
623.469	164366
623.533	163855
623.597	162694
623.662	162275
623.726	162941
623.790	158440
623.854	162931
623.919	163816
623.983	157406
624.047	163717
624.111	156913
624.176	159451
624.240	164156
624.304	170624
624.368	160370
624.432	157130
624.496	160096
624.560	158656
624.625	162970
624.689	157511
624.753	154662
624.817	155346
624.881	152659
624.945	149565
625.009	150272
625.073	148370
625.137	156113
625.201	160857
625.265	161353
625.329	150126
625.393	152697
625.456	150427
625.520	150692
625.584	156700
625.648	167366
625.712	193946
625.776	303414
625.839	352795
625.903	217775
625.967	151905
626.031	185283
626.095	249222
626.158	161473
626.222	137347
626.286	131667
626.349	133384
626.413	131627
626.477	135296
626.540	127627
626.604	129948
626.668	130306
626.731	129630
626.795	140191
626.858	138747
626.922	133485
626.986	131712
627.049	127864
627.113	128705
627.176	124409
627.240	125698
627.303	125414
627.366	126174
627.430	126803
627.493	128142
627.557	136569
627.620	130939
627.684	127330
627.747	128816
627.810	127727
627.874	123906
627.937	122338
628.000	127958
628.064	128491
628.127	118598
628.190	119310
628.253	122670
628.317	119502
628.380	116578
628.443	117048
628.506	120069
628.569	114894
628.632	112211
628.696	111864
628.759	112916
628.822	112472
628.885	111047
628.948	108754
629.011	111999
629.074	110523
629.137	108478
629.200	109483
629.263	114479
629.326	107277
629.389	108552
629.452	110692
629.515	113801
629.578	107051
629.641	107672
629.704	109609
629.767	111459
629.830	104381
629.892	104738
629.955	104737
630.018	107344
630.081	102698
630.144	109073
630.207	104114
630.269	109212
630.332	109141
630.395	104674
630.458	100019
630.520	101845
630.583	98797
630.646	96713
630.708	96542
630.771	98376
630.834	98040
630.896	94401
630.959	95000
631.021	94557
631.084	95879
631.146	99143
631.209	102904
631.272	93904
631.334	92737
631.397	92750
631.459	89897
631.522	89735
631.584	92281
631.646	93187
631.709	90681
631.771	98999
631.834	94318
631.896	92113
631.958	84904
632.021	89395
632.083	89862
632.145	95258
632.208	91042
632.270	88730
632.332	87381
632.395	86890
632.457	91207
632.519	90204
632.581	87682
632.643	86454
632.706	87439
632.768	87047
632.830	85288
632.892	83523
632.954	87636
633.016	90399
633.078	83179
633.141	82989
633.203	85042
633.265	86055
633.327	81860
633.389	83300
633.451	85924
633.513	93283
633.575	89428
633.637	87065
633.698	84160
633.760	84415
633.822	81712
633.884	81342
633.946	80401
634.008	81786
634.070	78524
634.132	77708
634.193	79425
634.255	78229
634.317	79106
634.379	79600
634.441	78357
634.502	79720
634.564	74818
634.626	76231
634.687	76228
634.749	78447
634.811	78322
634.873	72608
634.934	73771
634.996	77680
635.057	75858
635.119	75864
635.181	76464
635.242	76137
635.304	74049
635.365	76171
635.427	75395
635.488	74122
635.550	73580
635.611	74748
635.673	71723
635.734	79680
635.796	77697
635.857	77995
635.918	73795
635.980	76267
636.041	74711
636.102	73696
636.164	73736
636.225	71473
636.286	72941
636.348	73909
636.409	71567
636.470	69862
636.531	70101
636.593	76938
636.654	77596
636.715	68666
636.776	67233
636.838	66400
636.899	70542
636.960	70594
637.021	66334
637.082	66909
637.143	68906
637.204	66821
637.265	66744
637.326	67381
637.387	65177
637.448	65678
637.509	66808
637.570	66907
637.631	64424
637.692	64490
637.753	61929
637.814	64908
637.875	62717
637.936	64872
637.997	62655
638.058	63370
638.119	64790
638.179	64191
638.240	63091
638.301	64002
638.362	63949
638.423	66508
638.483	66195
638.544	62584
638.605	62704
638.666	61036
638.726	65515
638.787	63377
638.848	61162
638.908	62427
638.969	60215
639.030	64353
639.090	59119
639.151	59867
639.211	61622
639.272	64416
639.332	77272
639.393	66114
639.453	60053
639.514	60287
639.574	58198
639.635	57497
639.695	60409
639.756	58120
639.816	58208
639.877	58472
639.937	66115
639.997	73560
640.058	58260
640.118	57596
640.178	56781
640.239	56047
640.299	53927
640.359	56360
640.420	55481
640.480	55463
640.540	54578
640.600	53430
640.661	56448
640.721	54149
640.781	59032
640.841	54520
640.901	55509
640.961	56069
641.021	55731
641.082	56157
641.142	61220
641.202	55984
641.262	53966
641.322	55043
641.382	53329
641.442	56032
641.502	54532
641.562	56826
641.622	52842
641.682	55414
641.742	52721
641.802	55745
641.861	55581
641.921	55930
641.981	56292
642.041	57050
642.101	61139
642.161	55955
642.221	52345
642.280	52632
642.340	51198
642.400	53239
642.460	54360
642.519	54396
642.579	53826
642.639	56834
642.698	52484
642.758	53591
642.818	52716
642.877	53632
642.937	54333
642.997	55827
643.056	62506
643.116	54512
643.175	54452
643.235	52774
643.294	53968
643.354	52846
643.414	51642
643.473	54050
643.532	53500
643.592	53848
643.651	55954
643.711	61223
643.770	74895
643.830	110845
643.889	213842
643.948	101269
644.008	54169
644.067	50170
644.126	48233
644.186	48873
644.245	48249
644.304	45124
644.363	49209
644.423	47670
644.482	49056
644.541	47145
644.600	46403
644.659	49335
644.719	49453
644.778	55397
644.837	53793
644.896	60647
644.955	80249
645.014	62652
645.073	50100
645.132	50318
645.191	50528
645.250	47197
645.309	50971
645.368	48733
645.427	48399
645.486	48959
645.545	52272
645.604	47310
645.663	47257
645.722	47764
645.781	46549
645.840	45787
645.898	46602
645.957	50302
646.016	48011
646.075	54971
646.134	66489
646.192	104685
646.251	165663
646.310	64302
646.369	47534
646.427	44510
646.486	43775
646.545	46138
646.603	45138
646.662	44862
646.721	43819
646.779	41297
646.838	41600
646.896	43496
646.955	42765
647.014	45355
647.072	47770
647.131	59669
647.189	51787
647.248	43118
647.306	41231
647.365	43406
647.423	40852
647.481	43263
647.540	39421
647.598	41854
647.657	40540
647.715	41948
647.773	41394
647.832	42285
647.890	43895
647.948	43138
648.007	44092
648.065	41262
648.123	42733
648.181	44496
648.240	43003
648.298	40600
648.356	42949
648.414	44057
648.472	44847
648.531	45037
648.589	43573
648.647	41724
648.705	42795
648.763	43747
648.821	42632
648.879	40211
648.937	42140
648.995	43710
649.053	43529
649.111	43868
649.169	46690
649.227	50135
649.285	57502
649.343	98358
649.401	84220
649.459	65829
649.516	57582
649.574	40526
649.632	43594
649.690	42791
649.748	44602
649.806	42055
649.863	45115
649.921	51006
649.979	48505
650.037	40771
650.094	38755
650.152	40839
650.210	38026
650.268	40239
650.325	39399
650.383	38413
650.440	37223
650.498	39103
650.556	39307
650.613	36347
650.671	36960
650.728	38490
650.786	39691
650.843	38433
650.901	36500
650.958	37246
651.016	37277
651.073	37522
651.131	36433
651.188	37451
651.246	39095
651.303	37881
651.360	37756
651.418	37681
651.475	39010
651.532	35349
651.590	36245
651.647	36356
651.704	37343
651.762	37047
651.819	36837
651.876	35541
651.933	36840
651.990	36260
652.048	34573
652.105	35264
652.162	36877
652.219	34144
652.276	35433
652.333	36493
652.390	34432
652.448	35645
652.505	36074
652.562	34977
652.619	33638
652.676	35589
652.733	36096
652.790	34266
652.847	32837
652.904	33589
652.961	34593
653.017	33411
653.074	33708
653.131	34613
653.188	32686
653.245	34558
653.302	35501
653.359	33085
653.415	33732
653.472	35272
653.529	33510
653.586	32659
653.642	34467
653.699	31991
653.756	33166
653.813	34128
653.869	31628
653.926	31694
653.983	32316
654.039	32539
654.096	32193
654.152	34220
654.209	32214
654.266	33233
654.322	33896
654.379	37657
654.435	37142
654.492	36141
654.548	40181
654.605	50422
654.661	38589
654.717	35034
654.774	36554
654.830	36191
654.887	35878
654.943	37332
655.000	36068
655.056	35464
655.112	37898
655.168	36043
655.225	36527
655.281	37414
655.337	40612
655.394	53227
655.450	45506
655.506	41679
655.562	51631
655.618	50098
655.675	34222
655.731	33714
655.787	33981
655.843	35509
655.899	32309
655.955	33310
656.011	35039
656.067	31316
656.123	34325
656.179	35575
656.235	37403
656.291	33643
656.347	35789
656.403	34962
656.459	35502
656.515	37169
656.571	37832
656.627	36469
656.683	37415
656.739	36678
656.795	33791
656.850	34375
656.906	38440
656.962	35374
657.018	33478
657.074	35354
657.129	34926
657.185	34634
657.241	35669
657.297	36858
657.352	35354
657.408	34089
657.464	34850
657.519	34133
657.575	32139
657.630	34842
657.686	33630
657.742	33743
657.797	35347
657.853	34532
657.908	37869
657.964	34275
658.019	34123
658.075	35915
658.130	35425
658.186	33176
658.241	33644
658.297	33539
658.352	34279
658.407	34101
658.463	32066
658.518	32953
658.573	33489
658.629	32315
658.684	32547
658.739	33666
658.795	30795
658.850	32943
658.905	32954
658.960	33707
659.016	31562
659.071	33007
659.126	34081
659.181	33401
659.236	37936
659.291	39727
659.346	36017
659.401	36968
659.457	34030
659.512	32293
659.567	34908
659.622	33202
659.677	34080
659.732	33129
659.787	34045
659.842	34496
659.897	41421
659.952	35274
660.007	33965
660.061	33741
660.116	33289
660.171	33727
660.226	33044
660.281	33436
660.336	31841
660.391	32894
660.445	33856
660.500	33631
660.555	32939
660.610	33485
660.664	33596
660.719	33301
660.774	33895
660.828	33065
660.883	32522
660.938	33266
660.992	34192
661.047	33979
661.101	32767
661.156	32580
661.211	32780
661.265	32005
661.320	33606
661.374	32659
661.429	32950
661.483	33494
661.538	34097
661.592	33321
661.647	33843
661.701	32849
661.755	34234
661.810	35164
661.864	34482
661.919	33527
661.973	34873
662.027	33808
662.081	32738
662.136	33820
662.190	35352
662.244	35596
662.299	35398
662.353	33111
662.407	33308
662.461	35603
662.515	36013
662.569	36152
662.624	37690
662.678	35353
662.732	35011
662.786	35222
662.840	36324
662.894	34739
662.948	34294
663.002	31578
663.056	33408
663.110	31710
663.164	33582
663.218	32553
663.272	33548
663.326	34038
663.380	34335
663.434	35405
663.488	35041
663.542	35700
663.595	34709
663.649	34504
663.703	35233
663.757	34611
663.811	34254
663.864	33491
663.918	33078
663.972	33557
664.026	32874
664.079	33127
664.133	34327
664.187	32611
664.240	31538
664.294	32605
664.348	33795
664.401	33696
664.455	32625
664.508	31979
664.562	33311
664.615	33592
664.669	32990
664.722	33270
664.776	33517
664.829	33860
664.883	33682
664.936	34931
664.990	35999
665.043	37013
665.097	41018
665.150	42736
665.203	39052
665.257	37678
665.310	37009
665.363	36362
665.417	37980
665.470	36541
665.523	36139
665.576	37077
665.630	36147
665.683	36041
665.736	36642
665.789	38062
665.842	36984
665.895	37680
665.949	36558
666.002	35027
666.055	35663
666.108	38223
666.161	35452
666.214	36096
666.267	36580
666.320	37176
666.373	36936
666.426	35683
666.479	34746
666.532	36671
666.585	38951
666.638	39649
666.691	37692
666.744	37482
666.796	37699
666.849	37073
666.902	35192
666.955	34466
667.008	33718
667.060	32573
667.113	32601
667.166	32416
667.219	33198
667.271	34814
667.324	32932
667.377	35194
667.430	32526
667.482	32471
667.535	33757
667.587	35552
667.640	34253
667.693	37398
667.745	39749
667.798	40916
667.850	36420
667.903	35924
667.955	35987
668.008	36536
668.060	42391
668.113	42358
668.165	41482
668.218	42074
668.270	39886
668.322	39207
668.375	37564
668.427	38570
668.479	37515
668.532	38477
668.584	39063
668.636	36728
668.689	37226
668.741	37817
668.793	37517
668.845	36048
668.898	37624
668.950	36328
669.002	38509
669.054	37142
669.106	37594
669.158	39337
669.211	36972
669.263	36952
669.315	38287
669.367	36648
669.419	37497
669.471	38328
669.523	36185
669.575	37533
669.627	37425
669.679	34978
669.731	35062
669.783	35852
669.835	34772
669.886	34295
669.938	35816
669.990	34757
670.042	34218
670.094	35208
670.146	35018
670.197	34607
670.249	36993
670.301	37187
670.353	38557
670.404	40227
670.456	45505
670.508	52989
670.560	67426
670.611	93714
670.663	140918
670.715	264967
670.766	480484
670.818	216440
670.869	60408
670.921	43684
670.972	40701
671.024	38542
671.075	36653
671.127	37498
671.178	35084
671.230	35319
671.281	34624
671.333	34980
671.384	37726
671.436	40786
671.487	41065
671.538	39715
671.590	39281
671.641	41785
671.692	43616
671.744	50668
671.795	49536
671.846	40072
671.897	39853
671.949	41837
672.000	37918
672.051	38215
672.102	38700
672.153	37731
672.204	38118
672.256	38238
672.307	37609
672.358	38287
672.409	40075
672.460	36775
672.511	36446
672.562	37373
672.613	37158
672.664	35830
672.715	36204
672.766	36863
672.817	36216
672.868	35202
672.919	34914
672.970	35677
673.021	37434
673.071	34386
673.122	34825
673.173	34467
673.224	36454
673.275	34940
673.326	33566
673.376	33811
673.427	33817
673.478	34980
673.528	35282
673.579	33187
673.630	34354
673.680	34637
673.731	33630
673.782	30909
673.832	34600
673.883	35794
673.934	34493
673.984	34261
674.035	33376
674.085	33394
674.136	34483
674.186	35693
674.237	35235
674.287	43962
674.338	37453
674.388	33314
674.438	33170
674.489	31602
674.539	32394
674.589	35135
674.640	36112
674.690	34013
674.740	37519
674.791	38766
674.841	37104
674.891	36474
674.942	32590
674.992	32217
675.042	31567
675.092	30474
675.142	31823
675.193	32266
675.243	31295
675.293	32618
675.343	34736
675.393	35292
675.443	35115
675.493	31946
675.543	32267
675.593	34924
675.643	32997
675.693	32400
675.743	34395
675.793	31622
675.843	30237
675.893	33041
675.943	31250
675.993	31018
676.043	32651
676.093	31840
676.142	30774
676.192	32521
676.242	31087
676.292	29840
676.341	31602
676.391	33114
676.441	28953
676.491	29590
676.540	29622
676.590	29427
676.640	30152
676.689	30924
676.739	29274
676.789	27818
676.838	28170
676.888	29074
676.937	29788
676.987	28915
677.037	28921
677.086	27698
677.136	29247
677.185	28653
677.235	26519
677.284	28193
677.333	28878
677.383	27743
677.432	26770
677.482	27494
677.531	28434
677.580	26911
677.630	27395
677.679	25023
677.728	28953
677.778	27861
677.827	26006
677.876	27589
677.925	26831
677.975	26355
678.024	27695
678.073	28630
678.122	31134
678.171	31193
678.220	29683
678.269	31181
678.319	31168
678.368	30177
678.417	30768
678.466	31495
678.515	32102
678.564	33441
678.613	30362
678.662	29930
678.711	30884
678.760	28566
678.809	28497
678.857	30623
678.906	30114
678.955	29779
679.004	29865
679.053	30056
679.102	29427
679.151	31068
679.199	29174
679.248	27283
679.297	30332
679.346	29954
679.394	30144
679.443	28407
679.492	28194
679.540	27782
679.589	30820
679.638	29766
679.686	25968
679.735	26583
679.784	28578
679.832	30369
679.881	27328
679.929	26150
679.978	25803
680.026	26395
680.075	27885
680.123	27127
680.172	26653
680.220	24840
680.268	27649
680.317	26233
680.365	26533
680.414	25227
680.462	27000
680.510	27264
680.559	24427
680.607	25551
680.655	25498
680.703	26285
680.752	26393
680.800	24024
680.848	24479
680.896	23744
680.945	24936
680.993	25907
681.041	24769
681.089	23992
681.137	22970
681.185	23149
681.233	25631
681.258	25512
681.281	25178
681.329	24142
681.377	25653
681.380	25894
681.425	26026
681.473	29494
681.502	29289
681.521	28726
681.569	30391
681.617	29511
681.624	29720
681.665	29299
681.713	30352
681.745	29569
681.761	28851
681.809	29975
681.857	31096
681.867	31094
681.904	30177
681.952	31953
681.989	31853
682.000	31557
682.048	33006
682.096	33303
682.111	33231
682.143	32347
682.191	32782
682.233	34302
682.239	34294
682.286	33251
682.334	34314
682.354	34368
682.382	34042
682.430	35769
682.476	36664
682.477	36481
682.525	36461
682.572	35721
682.598	35810
682.620	35604
682.667	36228
682.715	38428
682.720	38639
682.763	38615
682.810	37681
682.841	37602
682.857	37263
682.905	37845
682.952	38471
682.963	38898
683.000	39943
683.047	41359
683.085	41090
683.095	40652
683.142	40850
683.190	40437
683.206	40747
683.237	41134
683.284	40581
683.328	42674
683.332	42667
683.379	42409
683.426	43208
683.449	43098
683.473	42680
683.521	43425
683.568	43678
683.571	43819
683.615	43542
683.662	43632
683.693	44717
683.709	45143
683.757	44297
683.804	45973
683.814	46229
683.851	46263
683.898	45913
683.936	46028
683.945	45946
683.992	46522
684.039	47023
684.057	47163
684.086	46966
684.133	47363
684.179	48896
684.180	48820
684.227	49309
684.274	49146
684.300	49339
684.321	49140
684.368	49445
684.415	51148
684.422	51149
684.462	50673
684.509	49724
684.543	51140
684.556	51416
684.603	51312
684.649	51492
684.665	51651
684.696	51934
684.743	52142
684.786	54004
684.790	54106
684.837	54327
684.883	56945
684.908	58177
684.930	59396
684.977	63665
685.023	62282
685.029	62482
685.070	60595
685.117	60154
685.150	60559
685.164	61456
685.210	64678
685.257	67190
685.272	67500
685.303	65989
685.350	64479
685.393	64540
685.396	64531
685.443	64429
685.490	65064
685.514	65451
685.536	65747
685.583	65831
685.629	66107
685.636	66228
685.675	65908
685.722	65192
685.757	66169
685.768	66693
685.815	68001
685.861	68525
685.878	68766
685.908	68415
685.954	68341
686.000	69653
686.000	69637
686.047	70498
686.093	72399
686.121	73522
686.139	73600
686.185	72184
686.232	71606
686.242	71567
686.278	71074
686.324	70372
686.363	69128
686.370	68967
686.416	69584
686.463	70327
686.484	70607
686.509	70898
686.555	70033
686.601	70029
686.606	70147
686.647	70874
686.693	71028
686.727	71074
686.739	71097
686.785	70828
686.831	71270
686.848	71394
686.877	71247
686.923	70788
686.969	69974
686.969	69965
687.015	71512
687.061	73544
687.090	74258
687.107	74210
687.153	72918
687.199	72783
687.211	72388
687.245	71247
687.291	71705
687.332	72067
687.336	72322
687.382	75759
687.428	77066
687.453	77353
687.474	75895
687.520	74554
687.565	72699
687.574	72463
687.611	73235
687.657	72914
687.695	73456
687.702	73732
687.748	75593
687.794	76829
687.816	77168
687.839	76344
687.885	75336
687.931	73791
687.937	73632
687.976	74445
688.022	75358
688.058	76904
688.067	77338
688.113	77478
688.158	78224
688.179	78408
688.204	78281
688.249	79313
688.295	79257
688.300	79357
688.340	82373
688.386	85174
688.421	85319
688.431	84548
688.477	83143
688.522	81648
688.542	80910
688.567	81165
688.613	82151
688.658	81242
688.663	81200
688.703	81383
688.749	82223
688.784	82827
688.794	83090
688.839	83021
688.884	83690
688.905	83377
688.930	82464
688.975	81753
689.020	81232
689.026	81141
689.065	83371
689.110	84403
689.146	86087
689.155	85836
689.201	83478
689.246	80849
689.267	80078
689.291	80975
689.336	82466
689.381	83195
689.388	83250
689.426	83564
689.471	84395
689.509	84724
689.516	84570
689.561	82730
689.606	81139
689.630	80509
689.651	81318
689.696	82317
689.741	83415
689.750	83677
689.785	84275
689.830	84193
689.871	83879
689.875	83810
689.920	82524
689.965	81356
689.992	80333
690.010	80545
690.054	81306
690.099	82423
690.112	82393
690.144	82449
690.189	82650
690.233	82325
690.233	82414
690.278	81709
690.323	81326
690.354	80751
690.367	81160
690.412	82322
690.457	83306
690.474	83685
690.501	83731
690.546	82667
690.590	81829
690.595	81716
690.635	82041
690.680	81974
690.716	82109
690.724	82472
690.769	83227
690.813	84924
690.836	84938
690.857	84561
690.902	84315
690.946	83888
690.957	83736
690.991	84867
691.035	86655
691.077	87697
691.080	87857
691.124	88095
691.168	89602
691.198	89886
691.213	89920
691.257	89723
691.301	89156
691.318	89094
691.346	88717
691.390	87096
691.434	86288
691.439	86037
691.478	87085
691.522	88505
691.559	89091
691.567	89269
691.611	89588
691.655	89706
691.680	89829
691.699	90443
691.743	92182
691.787	93101
691.800	93355
691.831	94829
691.875	96570
691.919	98681
691.921	98569
691.964	99327
692.008	99835
692.041	100370
692.052	100243
692.096	98993
692.139	98144
692.162	97320
692.183	97566
692.227	97890
692.271	98244
692.282	98081
692.315	98336
692.359	98927
692.402	98830
692.403	98985
692.447	97875
692.490	96403
692.523	95901
692.534	96787
692.578	98922
692.622	100506
692.643	101316
692.666	100860
692.709	99618
692.753	98156
692.763	97677
692.797	97287
692.840	96399
692.884	95757
692.884	95939
692.928	97384
692.971	98715
693.004	99290
693.015	99298
693.059	98698
693.102	98332
693.124	97715
693.146	97626
693.189	97692
693.233	97353
693.245	97216
693.276	98320
693.320	99084
693.363	99701
693.365	99567
693.407	100649
693.450	101100
693.485	100754
693.493	100588
693.537	99052
693.580	98472
693.605	97660
693.624	98106
693.667	98361
693.710	98530
693.725	98677
693.753	100248
693.797	102050
693.840	103740
693.845	103728
693.883	102920
693.926	101676
693.966	100408
693.970	100329
694.013	97334
694.056	94728
694.086	92801
694.099	94240
694.142	98592
694.185	102156
694.206	103704
694.229	102827
694.272	100544
694.315	98609
694.326	97950
694.358	98280
694.401	98214
694.444	97982
694.446	97793
694.487	98697
694.530	99160
694.566	99627
694.573	99780
694.616	98794
694.659	98335
694.686	97563
694.702	97071
694.745	95430
694.787	93766
694.806	92940
694.830	94396
694.873	96585
694.916	98587
694.926	98817
694.959	98102
695.002	97098
695.044	95999
695.046	95756
695.087	96997
695.130	98159
695.166	98749
695.172	99122
695.215	100258
695.258	101340
695.286	101894
695.301	102217
695.343	102628
695.386	102906
695.406	102735
695.428	101889
695.471	99960
695.514	98120
695.526	97354
695.556	98405
695.599	99694
695.641	100959
695.646	100870
695.684	100619
695.726	100050
695.766	99257
695.769	99556
695.811	100942
695.854	102000
695.886	102807
695.896	102604
695.938	100554
695.981	98635
696.005	97185
696.023	97267
696.065	97159
696.108	97202
696.125	96942
696.150	98755
696.192	101292
696.235	103884
696.245	104286
696.277	102231
696.319	99471
696.361	96383
696.365	95917
696.404	96805
696.446	97497
696.485	97749
696.488	98020
696.530	98827
696.572	99573
696.604	100082
696.614	100414
696.656	100370
696.698	100594
696.724	100498
696.740	100079
696.783	98320
696.825	96762
696.844	95736
696.867	96636
696.909	97954
696.951	99228
696.964	99402
696.992	98772
697.034	97323
697.076	96084
697.083	95652
697.118	96534
697.160	97251
697.202	97904
697.203	97690
697.244	98204
697.286	98505
697.323	98564
697.327	98649
697.369	97085
697.411	95745
697.442	94506
697.453	95136
697.494	96702
697.536	98335
697.562	99111
697.578	99108
697.620	98303
697.661	97620
697.682	97062
697.703	97405
697.744	97584
697.786	97792
697.801	97628
697.828	98448
697.869	99246
697.911	100128
697.921	100100
697.952	99871
697.994	99278
698.035	98714
698.040	98392
698.077	97809
698.118	96836
698.160	95954
698.160	95711
698.201	95776
698.243	95523
698.279	95168
698.284	95575
698.325	97113
698.367	98658
698.399	99592
698.408	99397
698.449	97373
698.491	95391
698.518	93782
698.532	94215
698.573	94885
698.614	95510
698.638	95635
698.656	96550
698.697	98111
698.738	99685
698.757	100180
698.779	101256
698.820	102810
698.862	104362
698.877	104676
698.903	104797
698.944	104559
698.985	104337
698.996	104012
699.026	104061
699.067	103762
699.116	103144
699.235	100169
699.354	98312
699.474	99783
699.593	103875
699.713	101683
699.832	96474
699.951	99355
700.070	94812
700.190	94988
700.309	96062
700.428	94131
700.547	95884
700.667	95364
700.786	95196
700.905	90277
701.024	93687
701.143	93305
701.262	85664
701.381	86506
701.500	92207
701.619	87438
701.738	86281
701.857	87652
701.976	86175
702.095	84788
702.214	86986
702.333	87758
702.452	84527
702.571	83439
702.690	85589
702.809	85425
702.928	80623
703.047	83638
703.165	81322
703.284	80461
703.403	79325
703.522	84290
703.640	83021
703.759	83862
703.878	97233
703.997	81218
704.115	81026
704.234	78275
704.353	75399
704.471	78842
704.590	76129
704.708	76638
704.827	74970
704.946	76462
705.064	80411
705.183	78788
705.301	98223
705.420	156191
705.538	146916
705.656	117964
705.775	106457
705.893	113393
706.012	123029
706.130	119965
706.249	118838
706.367	117674
706.485	120055
706.604	118142
706.722	115068
706.840	118395
706.958	118569
707.077	113199
707.195	110734
707.313	108534
707.431	107028
707.549	108136
707.668	106849
707.786	106147
707.904	104355
708.022	103891
708.140	102956
708.258	100560
708.376	102762
708.494	103528
708.612	112227
708.730	165043
708.848	172623
708.966	145732
709.084	132472
709.202	130217
709.320	139560
709.438	141033
709.556	137735
709.674	135086
709.791	137703
709.909	134024
710.027	132995
710.145	129833
710.263	133307
710.380	126620
710.498	127959
710.616	127393
710.733	123131
710.851	124784
710.969	128419
711.086	121587
711.204	118989
711.322	119014
711.439	119791
711.557	119522
711.674	116463
711.792	113437
711.909	114120
712.027	110402
712.144	112858
712.262	116399
712.379	125384
712.497	179384
712.614	202803
712.732	164973
712.849	149689
712.966	145230
713.084	158306
713.201	160875
713.318	158807
713.436	154140
713.553	156876
713.670	152911
713.787	155711
713.905	155198
714.022	149644
714.139	144720
714.256	144771
714.373	143579
714.490	144078
714.608	146132
714.725	187691
714.842	207396
714.959	138420
715.076	133001
715.193	130638
715.310	130480
715.427	128157
715.544	124790
715.661	126973
715.778	127275
715.895	143435
716.011	135353
716.128	130001
716.245	125285
716.362	126137
716.479	129991
716.596	124683
716.713	127448
716.829	119653
716.946	123742
717.063	115866
717.180	120532
717.296	115622
717.413	119255
717.530	111316
717.646	113817
717.763	114278
717.880	108261
717.996	109642
718.113	110977
718.229	104369
718.346	106937
718.462	103901
718.579	106329
718.695	109128
718.812	112621
718.928	111364
719.045	105685
719.161	100672
719.277	97896
719.394	94452
719.510	102414
719.626	99710
719.743	122972
719.859	107836
719.975	105386
720.092	112264
720.208	133674
720.324	110445
720.440	102612
720.557	106507
720.673	104806
720.789	123216
720.905	172198
721.021	125770
721.137	97955
721.253	97585
721.369	96923
721.486	98163
721.602	109030
721.718	98175
721.834	85645
721.950	91771
722.066	86783
722.181	87406
722.297	89361
722.413	85924
722.529	84357
722.645	86018
722.761	81257
722.877	84883
722.993	79779
723.108	86805
723.224	80686
723.340	84276
723.456	80238
723.571	80128
723.687	77640
723.803	79343
723.918	77558
724.034	78628
724.150	79228
724.265	76212
724.381	99089
724.497	115813
724.612	75495
724.728	74889
724.843	71289
724.959	75957
725.074	89506
725.190	109743
725.305	71634
725.421	74828
725.536	66764
725.651	69210
725.767	69624
725.882	66079
725.997	67802
726.113	66572
726.228	64691
726.343	69199
726.459	60817
726.574	67564
726.689	66494
726.804	60668
726.920	68746
727.035	65919
727.150	66496
727.265	63326
727.380	64437
727.495	63664
727.610	57860
727.725	63882
727.841	62220
727.956	58642
728.071	63092
728.186	61892
728.301	57207
728.416	62059
728.531	59599
728.645	56370
728.760	58301
728.875	57687
728.990	53864
729.105	59321
729.220	55756
729.335	55283
729.449	54659
729.564	53951
729.679	53583
729.794	54236
729.908	54695
730.023	56360
730.138	49723
730.253	53237
730.367	52639
730.482	51002
730.596	50585
730.711	53650
730.826	50450
730.940	49257
731.055	51026
731.169	48005
731.284	48411
731.398	48652
731.513	52017
731.627	49034
731.742	51118
731.856	56451
731.970	45905
732.085	48207
732.199	48433
732.313	46481
732.428	49227
732.542	61195
732.656	58848
732.771	44358
732.885	46922
732.999	45701
733.113	48935
733.227	47225
733.342	45243
733.456	45118
733.570	45057
733.684	43779
733.798	45041
733.912	45848
734.026	40875
734.140	43129
734.254	44851
734.368	53160
734.482	66132
734.596	42845
734.710	42623
734.824	41256
734.938	40987
735.052	42024
735.166	42974
735.280	42847
735.393	40214
735.507	40195
735.621	46562
735.735	59057
735.849	46223
735.962	40245
736.076	42603
736.190	41804
736.303	43530
736.417	55225
736.531	40921
736.644	40642
736.758	38394
736.872	38001
736.985	38042
737.099	37206
737.212	37422
737.326	37834
737.439	36945
737.553	36905
737.666	36345
737.780	36122
737.893	34873
738.007	35297
738.120	36926
738.233	35795
738.347	35873
738.460	34893
738.573	36595
738.687	35747
738.800	34964
738.913	34976
739.026	35664
739.140	35488
739.253	32968
739.366	34534
739.479	33849
739.592	34162
739.705	33102
739.818	34844
739.932	33896
740.045	33895
740.158	32972
740.271	33925
740.384	33287
740.497	31840
740.610	32735
740.723	33034
740.836	32753
740.949	31357
741.062	32939
741.174	34612
741.287	33392
741.400	32155
741.513	31972
741.626	31924
741.739	33327
741.851	30880
741.964	31722
742.077	32206
742.189	32733
742.302	31473
742.415	30063
742.527	31411
742.640	30671
742.753	32185
742.865	29983
742.978	29796
743.090	30607
743.203	31641
743.316	31522
743.428	30084
743.541	29896
743.653	30425
743.766	29468
743.878	31244
743.990	32657
744.103	33802
744.215	28721
744.327	29936
744.440	30889
744.552	32519
744.664	29228
744.777	29257
744.889	28434
745.001	30496
745.113	28461
745.226	28324
745.338	28491
745.450	29379
745.562	29085
745.674	28378
745.786	27443
745.898	27649
746.010	28636
746.122	28431
746.234	26099
746.347	27284
746.459	28289
746.570	27786
746.682	27390
746.794	27619
746.906	27516
747.018	27922
747.130	27163
747.242	26884
747.354	26280
747.466	27304
747.577	26275
747.689	27158
747.801	25744
747.913	26570
748.024	26042
748.136	26657
748.248	25661
748.359	24906
748.471	25013
748.583	25958
748.694	26181
748.806	26088
748.918	28823
749.029	27867
749.141	26473
749.252	26210
749.364	25019
749.475	29030
749.587	30199
749.698	25482
749.809	25333
749.921	25683
750.032	24890
750.144	24970
750.255	24901
750.366	24915
750.478	23743
750.589	25201
750.700	24252
750.811	25540
750.923	25699
751.034	27569
751.145	30062
751.256	24711
751.367	23244
751.479	24336
751.590	23166
751.701	24735
751.812	23743
751.923	23975
752.034	23712
752.145	23275
752.256	23526
752.367	23474
752.478	23053
752.589	23393
752.700	22535
752.811	24615
752.922	23392
753.032	23880
753.143	23192
753.254	23379
753.365	23351
753.476	23589
753.586	23577
753.697	23350
753.808	22826
753.919	23746
754.029	23168
754.140	23637
754.251	22366
754.361	23497
754.472	23654
754.582	22852
754.693	22648
754.804	23126
754.914	22143
755.025	22207
755.135	22986
755.246	23096
755.356	20948
755.466	22869
755.577	21610
755.687	23075
755.798	22092
755.908	21693
756.018	22307
756.129	21079
756.239	21196
756.349	21389
756.460	21857
756.570	22547
756.680	21643
756.790	21091
756.900	22050
757.011	21828
757.121	21746
757.231	21324
757.341	21622
757.451	21839
757.561	20723
757.671	20895
757.781	20416
757.891	21981
758.001	21853
758.111	22149
758.221	21816
758.331	20393
758.441	22173
758.551	22073
758.661	22962
758.771	22160
758.880	24427
758.990	26089
759.100	24241
759.210	24248
759.320	23734
759.429	23161
759.539	23492
759.649	22782
759.758	23215
759.868	23339
759.978	23556
760.087	23341
760.197	23280
760.307	23976
760.416	22951
760.526	22589
760.635	23424
760.745	22580
760.854	22805
760.964	22633
761.073	22850
761.182	22569
761.292	22347
761.401	24323
761.511	23184
761.620	22831
761.729	21426
761.839	23960
761.948	23005
762.057	22494
762.166	21679
762.276	22217
762.385	23021
762.494	22584
762.603	22894
762.712	24276
762.822	26469
762.931	26375
763.040	23979
763.149	23903
763.258	23851
763.367	23711
763.476	24587
763.585	24558
763.694	24381
763.803	24907
763.912	25242
764.021	24424
764.130	24200
764.238	24094
764.347	23847
764.456	24754
764.565	23906
764.674	24562
764.783	23716
764.891	23965
765.000	24520
765.109	24441
765.217	25704
765.326	25179
765.435	28042
765.543	26498
765.652	26357
765.761	28146
765.869	30355
765.978	36807
766.086	48105
766.195	76502
766.303	174235
766.412	512313
766.520	491402
766.629	138392
766.737	59846
766.846	43626
766.954	37071
767.062	34867
767.171	34731
767.279	34049
767.387	29907
767.496	31387
767.604	28818
767.712	28879
767.820	28334
767.928	29424
768.037	28561
768.145	29502
768.253	28166
768.361	28408
768.469	28056
768.577	27683
768.685	28243
768.793	27058
768.901	28569
769.009	27557
769.117	28350
769.225	28942
769.333	30968
769.441	36581
769.549	46364
769.657	78782
769.765	209817
769.873	483946
769.981	190346
770.088	53846
770.196	37298
770.304	34572
770.412	31607
770.519	33650
770.627	29437
770.735	28985
770.842	27671
770.950	27665
771.058	26834
771.165	27360
771.273	26947
771.380	27090
771.488	27269
771.595	27083
771.703	26012
771.810	26993
771.918	25131
772.025	27038
772.133	25405
772.240	25832
772.348	26663
772.455	25207
772.562	24331
772.670	25024
772.777	25442
772.884	24928
772.991	26016
773.099	25236
773.206	24474
773.313	24942
773.420	24014
773.528	23051
773.635	23255
773.742	24580
773.849	23102
773.956	24474
774.063	24487
774.170	23402
774.277	25615
774.384	25200
774.491	23957
774.598	25501
774.705	25278
774.812	26256
774.919	29068
775.026	28633
775.133	27128
775.239	25445
775.346	26863
775.453	24494
775.560	25657
775.667	25886
775.773	25947
775.880	26241
775.987	26184
776.093	26050
776.200	25672
776.307	24947
776.413	25436
776.520	24590
776.627	24256
776.733	25557
776.840	24278
776.946	24686
777.053	24231
777.159	25045
777.266	22278
777.372	25119
777.478	23169
777.585	23847
777.691	22521
777.798	23656
777.904	24411
778.010	24567
778.117	25298
778.223	23396
778.329	25747
778.435	25405
778.542	24010
778.648	25093
778.754	23619
778.860	24912
778.966	24218
779.072	25013
779.178	24161
779.284	23692
779.391	22227
779.497	23095
779.603	23961
779.708	23170
779.815	24241
779.920	30381
780.026	44985
780.132	26213
780.238	23241
780.344	22162
780.450	23415
780.556	21079
780.661	21925
780.767	22761
780.873	21319
780.979	21856
781.085	21703
781.190	21346
781.296	20844
781.402	21868
781.507	20878
781.613	21018
781.719	20705
781.824	21426
781.930	20538
782.035	22471
782.141	21957
782.246	21758
782.352	21462
782.457	20882
782.563	21373
782.668	21477
782.773	23089
782.879	23060
782.984	22162
783.090	22890
783.195	22065
783.300	23781
783.405	21691
783.511	22315
783.616	21763
783.721	23077
783.826	21081
783.932	22792
784.037	22404
784.142	21486
784.247	21339
784.352	21356
784.457	21178
784.562	20720
784.667	20730
784.772	20923
784.877	20458
784.982	20429
785.087	20890
785.192	20821
785.297	19878
785.402	20745
785.507	20324
785.611	20217
785.716	19922
785.821	19904
785.926	19663
786.031	18994
786.135	20721
786.240	20367
786.345	18850
786.450	20465
786.554	19720
786.659	20032
786.763	18129
786.868	20029
786.973	19429
787.077	19495
787.182	19205
787.286	20913
787.391	19000
787.495	19247
787.600	19486
787.704	18309
787.809	18642
787.913	18363
788.017	18048
788.122	19254
788.226	17931
788.330	17600
788.435	18650
788.539	19418
788.643	17025
788.747	18628
788.852	18060
788.956	18320
789.060	17571
789.164	18043
789.268	17256
789.372	18088
789.476	18139
789.580	17286
789.684	16794
789.788	18534
789.892	17598
789.996	18319
790.100	18206
790.204	17173
790.308	17252
790.412	19134
790.516	17833
790.620	17810
790.724	18135
790.828	18465
790.931	17014
791.035	19600
791.139	17495
791.242	18089
791.346	17888
791.450	17187
791.554	17835
791.657	16923
791.761	17351
791.864	17952
791.968	17433
792.072	17333
792.175	16713
792.279	16905
792.382	15973
792.486	17669
792.589	16304
792.693	17510
792.796	16529
792.899	16608
793.003	16122
793.106	15958
793.209	15569
793.313	16549
793.416	14915
793.519	17197
793.623	17411
793.726	18360
793.829	16367
793.932	16785
794.035	15941
794.138	16989
794.242	15987
794.345	17478
794.448	17830
794.551	18266
794.654	21017
794.757	26640
794.860	19622
794.963	18241
795.066	15995
795.169	15676
795.272	14667
795.375	15819
795.477	15222
795.580	15775
795.683	13492
795.786	15192
795.889	14783
795.991	16713
796.094	15703
796.197	15628
796.300	15806
796.402	14604
796.505	13595
796.608	14833
796.710	14214
796.813	13927
796.915	13946
797.018	15040
797.120	13951
797.223	13710
797.326	15248
797.428	14034
797.530	14353
797.633	15238
797.735	15479
797.838	20114
797.940	19862
798.042	13976
798.145	14203
798.247	16171
798.349	13470
798.452	14915
798.554	14110
798.656	13963
798.758	14106
798.860	14291
798.962	13913
799.065	13988
799.167	12832
799.269	14986
799.371	14953
799.473	14542
799.575	14623
799.677	17071
799.779	15400
799.881	15850
799.983	14042
800.085	13813
800.187	13369
800.289	13435
800.390	14192
800.492	13849
800.594	13847
800.696	13012
800.798	12818
800.899	12963
801.001	12328
801.103	12937
801.205	12995
801.306	11832
801.408	12620
801.509	13437
801.611	12912
801.713	12570
801.814	12018
801.916	12918
802.017	12375
802.119	13785
802.220	13082
802.322	11503
802.423	15282
802.525	15073
802.626	12444
802.727	12798
802.829	12387
802.930	12018
803.031	13444
803.133	12840
803.234	12531
803.335	12263
803.436	12313
803.538	11710
803.639	10810
803.740	12382
803.841	11333
803.942	11236
804.043	11892
804.144	11926
804.245	11668
804.346	11641
804.447	11871
804.548	12432
804.649	12630
804.750	12165
804.851	10474
804.952	11392
805.053	12547
805.154	11098
805.255	11563
805.355	11533
805.456	10400
805.557	11337
805.658	10516
805.758	12143
805.859	10812
805.960	11007
806.061	10538
806.161	11858
806.262	11301
806.362	11155
806.463	10607
806.564	12475
806.664	10850
806.765	12998
806.865	13008
806.966	11612
807.066	11055
807.166	12642
807.267	10919
807.367	10896
807.468	11568
807.568	11174
807.668	11495
807.769	11872
807.869	10944
807.969	11675
808.069	10784
808.170	11991
808.270	10234
808.370	11058
808.470	11237
808.570	11063
808.670	10076
808.770	9962
808.870	9726
808.970	10297
809.070	9934
809.170	9796
809.271	10382
809.370	10442
809.470	10910
809.570	10613
809.670	9953
809.770	10865
809.870	10346
809.970	10684
810.070	9545
810.169	9860
810.269	9173
810.369	9625
810.469	9524
810.568	10252
810.668	9853
810.768	9733
810.867	10159
810.967	10235
811.066	10256
811.166	10233
811.265	10411
811.365	10002
811.464	9586
811.564	10580
811.663	10441
811.763	8783
811.862	10050
811.962	9689
812.061	9532
812.160	9889
812.260	9007
812.359	9722
812.458	9364
812.557	10384
812.657	11271
812.756	10217
812.855	9731
812.954	9253
813.053	10794
813.153	9636
813.252	9526
813.351	9942
813.450	9913
813.549	9562
813.648	8950
813.747	8943
813.846	9106
813.945	9155
814.044	9323
814.143	9230
814.242	8988
814.341	8779
814.439	9927
814.538	8986
814.637	8512
814.736	9125
814.835	9654
814.933	9693
815.032	9718
815.131	8900
815.229	8896
815.328	10389
815.427	9288
815.525	9406
815.624	9448
815.722	9448
815.821	9643
815.919	8962
816.018	8491
816.116	9915
816.215	9305
816.313	8904
816.412	8852
816.510	9234
816.609	10336
816.707	9050
816.805	8646
816.904	8846
817.002	9567
817.100	9975
817.198	9700
817.296	9702
817.395	8396
817.493	10449
817.591	9719
817.689	9466
817.787	10228
817.885	12014
817.983	14780
818.081	22674
818.179	46794
818.277	117478
818.375	113936
818.473	26729
818.571	13490
818.669	11943
818.767	11051
818.865	12108
818.963	12611
819.061	14828
819.158	20242
819.256	37139
819.354	80801
819.452	193775
819.549	131998
819.647	30875
819.745	14384
819.842	13540
819.940	11390
820.038	10627
820.135	10255
820.233	9696
820.330	8853
820.428	9368
820.525	9781
820.623	9393
820.720	9641
820.818	9529
820.915	8999
821.012	9406
821.110	8335
821.207	9869
821.304	8385
821.402	9050
821.499	9018
821.596	9103
821.693	9256
821.791	9334
821.888	10230
821.985	10370
822.082	9682
822.179	9283
822.276	9688
822.373	9562
822.470	8045
822.567	9023
822.664	8274
822.761	10320
822.858	8542
822.955	8580
823.052	8111
823.149	7963
823.246	9233
823.343	8606
823.440	7966
823.536	8977
823.633	8596
823.730	8192
823.827	8045
823.923	8660
824.020	9406
824.117	8172
824.213	8089
824.310	8433
824.407	7359
824.503	8536
824.600	7527
824.696	8365
824.793	7691
824.889	8297
824.986	8246
825.082	8084
825.179	9024
825.275	8987
825.371	7606
825.468	9427
825.564	6984
825.660	9290
825.757	7385
825.853	9208
825.949	7877
826.045	8080
826.142	7317
826.238	7867
826.334	8180
826.430	7815
826.526	6998
826.622	7667
826.718	8263
826.814	8478
826.910	8218
827.006	8578
827.102	7888
827.198	8599
827.294	7346
827.390	7643
827.486	8415
827.582	7319
827.678	7250
827.774	8844
827.869	7223
827.965	8388
828.061	8070
828.157	8413
828.252	8344
828.348	7666
828.444	8293
828.539	7570
828.635	7394
828.731	9177
828.826	7535
828.922	8640
829.017	7342
829.113	8257
829.208	8045
829.304	7203
829.399	9343
829.495	8501
829.590	8123
829.685	7569
829.781	7048
829.876	8695
829.971	7295
830.066	7522
830.162	7911
830.257	8292
830.352	8547
830.447	9194
830.543	8535
830.638	8060
830.733	7939
830.828	8174
830.923	8034
831.018	8094
831.113	7206
831.208	7742
831.303	8736
831.398	8221
831.493	7627
831.588	8194
831.683	6867
831.778	8360
831.873	8050
831.967	8250
832.062	6687
832.157	7390
832.252	7131
832.346	7809
832.441	8492
832.536	9583
832.631	12110
832.725	12853
832.820	7518
832.914	7405
833.009	6967
833.104	8419
833.198	8261
833.293	7962
833.387	8363
833.482	8851
833.576	6994
833.670	8242
833.765	7411
833.859	8055
833.954	8051
834.048	8543
834.142	6772
834.237	7958
834.331	7332
834.425	8340
834.519	7247
834.613	8976
834.708	7838
834.802	7309
834.896	6340
834.990	7827
835.084	8115
835.178	7191
835.272	7301
835.366	8065
835.460	7123
835.554	8754
835.648	7645
835.742	8143
835.836	6439
835.930	7407
836.024	7340
836.117	8284
836.211	8292
836.305	10281
836.399	12024
836.493	8934
836.586	8086
836.680	6762
836.774	6765
836.867	8334
836.961	6081
837.055	6581
837.148	7153
837.242	7341
837.335	7245
837.429	8100
837.522	7809
837.616	9171
837.709	12261
837.803	12366
837.896	8202
837.989	8130
838.083	10856
838.176	13717
838.269	17130
838.363	10047
838.456	7981
838.549	9512
838.642	9906
838.735	13334
838.829	10562
838.922	7282
839.015	8324
839.108	7468
839.201	7412
839.294	8280
839.387	8033
839.480	8223
839.573	10091
839.666	12172
839.759	8560
839.852	7375
839.945	7946
840.038	6909
840.131	6875
840.223	6677
840.316	7709
840.409	7121
840.502	6569
840.594	7660
840.687	6452
840.780	8355
840.873	7651
840.965	7550
841.058	9925
841.150	12648
841.243	12349
841.336	8206
841.428	6814
841.521	7765
841.613	7096
841.706	8657
841.798	7728
841.890	7216
841.983	5855
842.075	9039
842.167	7175
842.260	7961
842.352	9057
842.444	10168
842.537	13435
842.629	20209
842.721	10676
842.813	7506
842.905	7452
842.997	7748
843.090	8361
843.182	9991
843.274	12584
843.366	21395
843.458	37735
843.550	33500
843.642	11615
843.734	8621
843.826	8498
843.918	9506
844.009	7673
844.101	7481
844.193	7600
844.285	6916
844.377	7651
844.469	7763
844.560	6999
844.652	7254
844.744	7363
844.835	7185
844.927	7270
845.019	8438
845.110	8228
845.202	7861
845.293	7967
845.385	6714
845.476	7245
845.568	7872
845.659	8201
845.751	8372
845.842	7605
845.934	7221
846.025	7049
846.116	7665
846.208	6857
846.299	7571
846.390	8239
846.482	7815
846.573	8710
846.664	9049
846.755	10153
846.846	10284
846.937	6767
847.029	7941
847.120	7360
847.211	7779
847.302	8120
847.393	6590
847.484	7603
847.575	7213
847.666	6986
847.757	7229
847.847	6892
847.938	7446
848.029	6560
848.120	7634
848.211	7719
848.302	7194
848.392	6233
848.483	7746
848.574	6922
848.664	6780
848.755	7367
848.846	6830
848.936	6721
849.027	7494
849.118	7163
849.208	7184
849.299	6888
849.389	7058
849.480	7783
849.570	8627
849.661	8905
849.751	9418
849.841	7742
849.932	6950
850.022	7020
850.112	6766
850.203	5994
850.293	7106
850.383	7012
850.474	7709
850.564	6781
850.654	6941
850.744	6926
850.834	7312
850.924	7512
851.014	7809
851.104	6804
851.194	7885
851.284	6869
851.374	8831
851.464	7492
851.554	8013
851.644	7710
851.734	10057
851.824	9538
851.914	7715
852.004	7791
852.094	7754
852.183	6639
852.273	6762
852.363	6737
852.452	7399
852.542	7354
852.632	6975
852.721	6022
852.811	6661
852.901	7516
852.990	7539
853.080	6865
853.169	6775
853.259	7487
853.348	6217
853.438	6608
853.527	6760
853.617	6374
853.706	8345
853.795	7286
853.885	9633
853.974	11583
854.063	15698
854.152	23291
854.242	15029
854.331	7606
854.420	7164
854.509	7561
854.598	7484
854.687	6432
854.777	8421
854.866	6228
854.955	7395
855.044	6725
855.133	6551
855.222	6683
855.311	7064
855.400	7036
855.488	6807
855.577	5902
855.666	7373
855.755	7331
855.844	7589
855.933	6835
856.021	7620
856.110	6151
856.199	5840
856.288	6377
856.376	6349
856.465	6687
856.554	7314
856.642	6549
856.731	7294
856.819	7129
856.908	6927
856.996	6775
857.085	7411
857.173	6169
857.262	6659
857.350	6648
857.438	6888
857.527	5977
857.615	7229
857.703	7503
857.792	7109
857.880	6457
857.968	6795
858.056	6397
858.145	7007
858.233	6126
858.321	6446
858.409	6846
858.497	6479
858.585	6219
858.673	6259
858.761	5626
858.849	6286
858.937	5910
859.025	7236
859.113	6971
859.201	7014
859.289	6510
859.377	6471
859.465	6233
859.552	7097
859.640	6460
859.728	7234
859.816	7111
859.903	6306
859.991	6133
860.079	6494
860.166	6178
860.254	6209
860.342	5492
860.429	6629
860.517	4792
860.604	6707
860.692	6202
860.779	6237
860.867	5972
860.954	6680
861.042	6290
861.129	6450
861.216	5721
861.304	5840
861.391	6130
861.478	6625
861.565	5766
861.653	6621
861.740	5465
861.827	6572
861.914	6016
862.001	4815
862.089	5267
862.176	5182
862.263	5527
862.350	5875
862.437	5402
862.524	5271
862.611	5440
862.698	6027
862.785	5810
862.871	6216
862.958	5452
863.045	6180
863.132	5758
863.219	6342
863.306	5689
863.392	5788
863.479	5861
863.566	5205
863.652	6289
863.739	6360
863.826	6818
863.912	6238
863.999	4746
864.086	6870
864.172	4929
864.259	5754
864.345	6125
864.432	6056
864.518	6464
864.604	5711
864.691	5160
864.777	6558
864.863	5946
864.950	6398
865.036	4821
865.122	6106
865.209	6678
865.295	6236
865.381	5452
865.467	6150
865.553	6074
865.639	6525
865.726	6378
865.812	7637
865.898	9113
865.984	10432
866.070	14228
866.156	18024
866.242	9576
866.328	5923
866.414	4151
866.499	6626
866.585	6217
866.671	6462
866.757	5978
866.843	5728
866.928	5536
867.014	5816
867.100	6149
867.186	6545
867.271	7309
867.357	7850
867.442	8703
867.528	7175
867.614	5247
867.699	5769
867.785	6285
867.870	5766
867.956	6528
868.041	7217
868.127	6715
868.212	7491
868.297	6154
868.383	6712
868.468	6439
868.553	8487
868.639	8699
868.724	11053
868.809	12503
868.894	7394
868.979	6900
869.065	6315
869.150	5060
869.235	6139
869.320	4697
869.405	5340
869.490	4826
869.575	4794
869.660	5085
869.745	5351
869.830	4366
869.915	6156
870.000	5094
870.085	5419
870.169	5506
870.254	5159
870.339	4803
870.424	5205
870.509	4840
870.593	4892
870.678	4217
870.763	5659
870.847	5162
870.932	5280
871.016	4891
871.101	4327
871.186	4879
871.270	5368
871.355	4670
871.439	5369
871.523	4716
871.608	4905
871.692	5721
871.777	4681
871.861	4306
871.945	5219
872.030	5841
872.114	4835
872.198	3967
872.282	5317
872.367	4810
872.451	4409
872.535	4965
872.619	4511
872.703	4863
872.787	3717
872.871	4755
872.955	4745
873.039	4326
873.123	4611
873.207	5168
873.291	4784
873.375	4729
873.459	4899
873.543	4309
873.627	4241
873.711	4598
873.794	4486
873.878	4675
873.962	4057
874.045	4533
874.129	5154
874.137	5082
874.213	4369
874.245	4506
874.296	4726
874.352	3941
874.380	3566
874.460	3451
874.464	3447
874.547	4327
874.568	4169
874.631	3693
874.676	4099
874.714	4456
874.784	5070
874.798	5189
874.881	5133
874.892	4989
874.965	4011
874.999	3958
875.048	3876
875.107	4087
875.131	4182
875.215	3780
875.215	3779
875.298	4021
875.323	3929
875.381	3697
875.430	4146
875.465	4444
875.538	3867
875.548	3798
875.631	3874
875.646	3904
875.714	4004
875.753	4015
875.798	4072
875.861	3741
875.881	3625
875.964	4852
875.968	4817
876.047	4151
876.076	4072
876.130	3917
876.183	4132
876.213	4267
876.291	4246
876.296	4242
876.379	3851
876.398	3813
876.462	3710
876.506	3441
876.545	3229
876.613	4224
876.628	4416
876.711	4580
876.721	4517
876.794	3973
876.828	3687
876.877	3350
876.935	3716
876.960	3879
877.043	3098
877.043	3101
877.125	3335
877.150	3590
877.208	4315
877.258	3907
877.291	3502
877.365	2938
877.374	2898
877.456	3833
877.472	3770
877.539	3472
877.579	3302
877.622	3096
877.687	3065
877.704	3053
877.787	3919
877.794	3832
877.869	2845
877.901	3177
877.952	3835
878.008	3684
878.034	3543
878.115	3320
878.117	3312
878.199	2980
878.222	2940
878.282	3197
878.329	3758
878.364	3936
878.437	3767
878.447	3769
878.529	2802
878.544	3012
878.611	3743
878.651	3215
878.694	2849
878.758	3210
878.776	3261
878.858	3410
878.865	3393
878.941	3136
878.972	2819
879.023	2336
879.078	3045
879.105	3427
879.185	3095
879.187	3083
879.269	3089
879.292	3003
879.351	2703
879.399	2808
879.433	2992
879.506	3293
879.516	3285
879.598	2679
879.613	2747
879.680	3173
879.720	3054
879.762	2950
879.827	2443
879.844	2287
879.926	3317
879.933	3270
880.007	3087
880.040	3265
880.089	3335
880.147	3199
880.171	3132
880.253	3310
880.254	3309
880.335	2595
880.360	2976
880.417	4314
880.467	4748
880.499	5209
880.574	6837
880.580	6769
880.662	4274
880.680	3851
880.744	3215
880.787	2732
880.825	2296
880.893	2458
880.907	2546
880.989	2456
881.000	2475
881.070	2711
881.106	2600
881.152	2319
881.213	2440
881.233	2426
881.315	2104
881.319	2112
881.396	2597
881.426	2583
881.478	2591
881.532	2570
881.559	2334
881.639	2442
881.641	2452
881.722	2298
881.745	2358
881.803	2747
881.852	2938
881.885	2596
881.958	2406
881.966	2466
882.047	2556
882.064	2667
882.129	2758
882.171	2665
882.210	3188
882.277	4601
882.291	4713
882.372	4168
882.383	4120
882.454	2765
882.489	2199
882.535	2357
882.596	2628
882.616	2526
882.697	2034
882.702	2000
882.778	1736
882.808	1803
882.859	1792
882.914	1873
882.940	1962
883.020	2176
883.021	2171
883.102	2130
883.127	2137
883.183	2259
883.233	1980
883.264	1537
883.339	1547
883.345	1583
883.426	1373
883.445	1426
883.507	1693
883.551	1648
883.587	1634
883.657	2119
883.668	2190
883.749	2546
883.763	2577
883.830	2189
883.869	2091
883.910	2173
883.975	1921
883.991	1825
884.072	1975
884.081	1974
884.152	1957
884.187	1743
884.233	1640
884.292	2373
884.314	2400
884.394	1209
884.398	1199
884.475	1665
884.504	1731
884.555	1504
884.610	1397
884.636	1477
884.716	1454
884.716	1450
884.797	1808
884.821	1976
884.877	1727
884.927	1459
884.958	1543
885.033	1607
885.038	1586
885.118	1798
885.139	1715
885.199	1734
885.244	2004
885.279	1983
885.350	1890
885.359	1893
885.439	1730
885.456	1677
885.520	1396
885.561	1470
885.600	1517
885.667	1636
885.680	1707
885.760	1730
885.773	1820
885.840	1980
885.878	2064
885.920	2065
885.984	1682
886.000	1613
886.080	1777
886.089	1779
886.160	1686
886.195	1691
886.240	1787
886.300	1849
886.320	1830
886.400	2051
886.406	2052
886.480	1755
886.511	1795
886.560	2016
886.616	2028
886.640	2015
886.720	2098
886.722	2109
886.800	1807
886.827	1659
886.879	1468
886.932	1291
886.959	1485
887.038	2196
887.039	2190
887.119	2172
887.143	2173
887.198	1976
887.248	1758
887.278	1607
887.354	1235
887.358	1239
887.437	1559
887.459	1651
887.517	1555
887.564	1515
887.596	1398
887.669	1120
887.676	1099
887.755	952
887.774	931
887.835	1234
887.880	1494
887.914	1497
887.985	1495
887.994	1475
888.073	1296
888.090	1324
888.153	1298
888.195	1128
888.232	800
888.300	389
888.311	565
888.391	1875
888.405	2112
888.470	1513
888.510	1134
888.549	1208
888.615	1448
888.628	1387
888.708	992
888.720	948
888.787	749
888.825	613
888.866	653
888.930	818
888.945	822
889.024	883
889.035	902
889.103	1401
889.140	1670
889.182	1615
889.245	1564
889.261	1457
889.340	1004
889.349	966
889.419	1536
889.454	1816
889.498	1228
889.559	463
889.577	519
889.656	820
889.664	864
889.735	813
889.768	793
889.814	903
889.873	1070
889.978	1130
890.083	828
890.187	877
890.292	872
890.397	489
890.501	1439
890.606	44
890.710	2008
890.815	625
890.919	397
891.024	306
891.128	640
891.233	1290
891.337	872
891.442	1111
891.546	1209
891.650	1339
891.755	1253
891.859	1839
891.963	1490
892.068	1452
892.172	1687
892.276	634
892.380	19
892.484	890
892.589	1256
892.693	902
892.797	982
892.901	1081
893.005	1195
893.109	601
893.213	975
893.317	1243
893.421	681
893.525	1170
893.629	554
893.733	626
893.837	701
893.941	782
894.045	1586
894.148	997
894.252	1081
894.356	1396
894.460	830
894.564	1013
894.667	1187
894.771	266
894.875	1022
894.978	766
895.082	234
895.186	1494
895.289	1009
895.393	1086
895.496	790
895.600	783
895.703	1106
895.807	420
895.910	1171
896.014	1544
896.117	999
896.221	1351
896.324	1020
896.427	153
896.531	1179
896.634	1099
896.737	1079
896.840	837
896.944	425
897.047	371
897.150	1467
897.253	-84
897.356	794
897.460	611
897.563	919
897.666	1007
897.769	1392
897.872	1259
897.975	982
898.078	865
898.181	1158
898.284	1213
898.387	1917
898.490	1381
898.593	658
898.695	325
898.798	504
898.901	1154
899.004	1164
899.107	621
899.209	498
899.312	1401
899.415	780
899.518	624
899.620	947
899.723	381
899.826	2157
899.928	3042
900.031	1267
900.133	953
900.236	907
900.338	630
900.441	261
900.543	1144
900.646	1218
900.748	1168
900.851	1257
900.953	1181
901.055	1011
901.158	997
901.260	1097
901.362	1064
901.465	546
901.567	890
901.669	41
901.771	383
901.873	-4
901.976	278
902.078	455
902.180	972
902.282	1128
902.384	333
902.486	931
902.588	1644
902.690	1596
902.792	900
902.894	680
902.996	42
903.098	621
903.200	762
903.302	1397
903.404	123
903.505	982
903.607	760
903.709	909
903.811	1212
903.913	645
904.014	626
904.116	694
904.218	174
904.319	596
904.421	1059
904.523	702
904.624	923
904.726	969
904.827	323
904.929	765
905.030	-236
905.132	418
905.233	-171
905.335	591
905.436	1249
905.537	521
905.639	823
905.740	1226
905.841	1016
905.943	698
906.044	809
906.145	1161
906.247	-114
906.348	650
906.449	252
906.550	638
906.651	572
906.752	1080
906.854	592
906.955	746
907.056	228
907.157	428
907.258	1200
907.359	-3
907.460	537
907.561	299
907.662	418
907.762	562
907.863	505
907.964	969
908.065	636
908.166	433
908.267	610
908.367	1075
908.468	525
908.569	1213
908.670	738
908.770	1888
908.871	1715
908.971	462
909.072	1307
909.173	1162
909.273	1161
909.374	40
909.474	1109
909.575	99
909.675	930
909.776	993
909.876	216
909.977	1563
910.077	805
910.177	507
910.278	255
910.378	1286
910.478	914
910.579	559
910.679	625
910.779	565
910.879	778
910.980	777
911.080	731
911.180	-178
911.280	842
911.380	969
911.480	302
911.580	577
911.680	582
911.780	1090
911.880	1113
911.980	524
912.080	674
912.180	959
912.280	1113
912.380	629
912.480	919
912.580	871
912.679	520
912.779	970
912.879	100
912.979	-159
913.078	624
913.178	850
913.278	775
913.377	486
913.477	446
913.577	740
913.676	275
913.776	365
913.875	1184
913.975	624
914.074	201
914.174	460
914.273	-271
914.373	518
914.472	268
914.572	859
914.671	527
914.770	774
914.870	530
914.969	63
915.068	176
915.167	455
915.267	197
915.366	336
915.465	513
915.564	1232
915.663	1033
915.763	305
915.862	-58
915.961	595
916.060	353
916.159	441
916.258	273
916.357	578
916.456	974
916.555	221
916.654	637
916.752	1106
916.851	-38
916.950	234
917.049	236
917.148	952
917.247	551
917.345	651
917.444	503
917.543	984
917.642	1885
917.740	239
917.839	752
917.937	754
918.036	1351
918.135	804
918.233	213
918.332	401
918.430	719
918.529	87
918.627	120
918.726	438
918.824	272
918.923	20
919.021	364
919.119	435
919.218	-209
919.316	898
919.414	574
919.512	761
919.611	1062
919.709	259
919.807	513
919.905	64
920.003	279
920.102	11
920.200	737
920.298	328
920.396	688
920.494	294
920.592	454
920.690	260
920.788	-92
920.886	363
920.984	890
921.082	792
921.180	1369
921.277	555
921.375	726
921.473	1134
921.571	318
921.669	1130
921.766	227
921.864	1309
921.962	575
922.060	1280
922.157	841
922.255	896
922.352	774
922.450	1379
922.548	476
922.645	459
922.743	1149
922.840	1032
922.938	1931
923.035	1709
923.133	1925
923.230	1400
923.327	2063
923.425	2191
923.522	1567
923.619	1559
923.717	1988
923.814	1752
923.911	898
924.008	1935
924.106	1186
924.203	1621
924.300	1151
924.397	1467
924.494	1759
924.591	1610
924.688	1573
924.786	917
924.883	1703
924.979	1368
925.077	1981
925.173	1760
925.270	1292
925.367	887
925.464	2167
925.561	1486
925.658	1538
925.755	1432
925.852	2020
925.948	2023
926.045	1466
926.142	1053
926.239	1679
926.335	1099
926.432	1643
926.529	1019
926.625	1605
926.722	1125
926.818	1003
926.915	1238
927.011	568
927.108	703
927.204	1425
927.301	1397
927.397	567
927.494	1156
927.590	784
927.687	1426
927.783	1984
927.879	567
927.976	539
928.072	999
928.168	1141
928.264	1485
928.361	1249
928.457	1359
928.553	619
928.649	1680
928.745	1897
928.841	1082
928.937	1033
929.033	1449
929.129	930
929.225	1458
929.321	1570
929.417	435
929.513	1677
929.609	1511
929.705	640
929.801	689
929.897	1289
929.993	51
930.089	494
930.184	371
930.280	1195
930.376	956
930.471	163
930.567	354
930.663	1191
930.758	1063
930.854	875
930.950	381
931.045	672
931.141	1536
931.236	883
931.332	789
931.427	514
931.523	949
931.618	708
931.714	123
931.809	762
931.905	1248
932.000	907
932.095	977
932.191	928
932.286	318
932.381	129
932.476	990
932.572	1257
932.667	731
932.762	1580
932.857	1524
932.952	898
933.047	240
933.142	358
933.237	877
933.332	723
933.427	1455
933.522	1201
933.617	684
933.712	602
933.807	1577
933.902	1224
933.997	926
934.092	425
934.187	1143
934.282	655
934.376	1071
934.471	325
934.566	942
934.661	810
934.755	376
934.850	657
934.945	867
935.039	322
935.134	546
935.228	1043
935.323	1377
935.417	696
935.512	541
935.606	757
935.701	333
935.795	800
935.890	1010
935.984	541
936.079	462
936.173	515
936.267	553
936.362	860
936.456	506
936.550	1651
936.644	1125
936.738	780
936.833	593
936.927	930
937.021	879
937.115	691
937.209	-33
937.303	1005
937.397	791
937.491	379
937.585	886
937.679	899
937.773	-503
937.867	916
937.961	653
938.055	571
938.149	964
938.243	-138
938.337	298
938.430	377
938.524	1055
938.618	1291
938.712	783
938.805	379
938.899	956
938.993	530
939.086	153
939.180	591
939.274	547
939.367	443
939.461	498
939.554	223
939.648	843
939.741	445
939.835	144
939.928	1047
940.022	1184
940.115	727
940.208	1400
940.302	612
940.395	-59
940.488	232
940.582	871
940.675	438
940.768	1228
940.861	741
940.954	407
941.048	666
941.141	246
941.234	202
941.327	929
941.420	1473
941.513	813
941.606	-219
941.699	1412
941.792	802
941.885	867
941.978	981
942.071	-75
942.164	-182
942.257	431
942.349	865
942.442	898
942.535	915
942.628	885
942.721	414
942.813	390
942.906	389
942.999	699
943.091	-355
943.184	-483
943.277	-40
943.369	297
943.462	-170
943.554	395
943.647	-261
943.739	91
943.832	-268
943.924	-484
944.017	-184
944.109	-9
944.201	62
944.294	724
944.386	401
944.478	1012
944.571	419
944.663	6
944.755	337
944.847	199
944.940	-203
945.032	-77
945.124	146
945.216	1060
945.308	748
945.400	374
945.492	982
945.584	649
945.676	-263
945.768	341
945.860	188
945.952	-765
946.044	970
946.136	361
946.228	133
946.320	586
946.412	-179
946.503	486
946.595	1542
946.687	545
946.779	-66
946.870	-126
946.962	-144
947.054	696
947.145	-134
947.237	-17
947.329	82
947.420	202
947.512	493
947.603	429
947.695	424
947.786	-21
947.878	98
947.969	408
948.061	-62
948.152	825
948.243	-83
948.335	-244
948.426	595
948.517	327
948.609	-583
948.700	-208
948.791	-325
948.882	-122
948.973	-210
949.065	288
949.156	209
949.247	43
949.338	117
949.429	-194
949.520	51
949.611	-229
949.702	1175
949.793	560
949.884	202
949.975	574
950.066	-360
950.157	-53
950.247	-110
950.338	-62
950.429	607
950.520	488
950.611	368
950.701	-461
950.792	803
950.883	653
950.973	-201
951.064	95
951.155	-102
951.245	215
951.336	44
951.427	-647
951.517	1893
951.608	560
951.698	-394
951.788	659
951.879	-350
951.969	199
952.060	-209
952.150	815
952.240	407
952.331	-1874
952.421	1077
952.511	12
952.602	-151
952.692	-318
952.782	448
952.872	-449
952.962	21
953.052	220
953.143	-244
953.233	180
953.323	-180
953.413	-157
953.503	-449
953.593	-536
953.683	-692
953.773	-584
953.863	637
953.953	23
954.042	513
954.132	99
954.222	775
954.312	-103
954.402	-189
954.492	391
954.581	1968
954.671	1123
954.761	-481
954.850	548
954.940	-78
955.030	164
955.119	-606
955.209	303
955.298	201
955.388	-223
955.477	760
955.567	-470
955.656	132
955.746	-535
955.835	140
955.925	179
956.014	-184
956.103	-1038
956.193	-213
956.282	-120
956.371	-85
956.461	-432
956.550	-312
956.639	26
956.728	-713
956.817	-604
956.906	-116
956.995	297
957.085	-239
957.174	-523
957.263	-646
957.352	11
957.441	160
957.530	65
957.619	146
957.708	-401
957.796	-553
957.885	-87
957.974	-748
958.063	-140
958.152	-873
958.241	-482
958.329	-838
958.418	-947
958.507	-1317
958.596	193
958.684	-212
958.773	-736
958.861	-215
958.950	-452
959.039	-658
959.127	-67
959.216	-234
959.304	-364
959.393	-190
959.481	-85
959.570	382
959.658	35
959.746	25
959.835	619
959.923	1774
960.011	761
960.100	-203
960.188	-302
960.276	-997
960.365	-42
960.453	-408
960.541	-453
960.629	214
960.717	-237
960.805	-961
960.893	-164
960.981	-417
961.069	356
961.158	563
961.245	616
961.333	198
961.421	-339
961.509	191
961.597	-265
961.685	-517
961.773	-533
961.861	-478
961.949	376
962.036	-593
962.124	-568
962.212	-1161
962.299	-837
962.387	-785
962.475	12
962.562	-825
962.650	-503
962.738	-51
962.825	-944
962.913	-439
963.000	-113
963.088	254
963.175	321
963.263	299
963.350	138
963.438	-678
963.525	-129
963.612	965
963.700	4128
963.787	12170
963.874	6613
963.962	-473
964.049	-372
964.136	-204
964.223	-868
964.310	-638
964.398	-675
964.485	-397
964.572	-72
964.659	1462
964.746	1483
964.833	-571
964.920	-790
965.007	-93
965.094	-1064
965.181	-543
965.268	-608
965.355	28
965.441	-548
965.528	-930
965.615	-6
965.702	-912
965.789	-154
965.875	-426
965.962	-718
966.049	-730
966.136	219
966.222	-873
966.309	-433
966.395	-952
966.482	-642
966.569	-1120
966.655	330
966.742	-224
966.828	-424
966.915	-211
967.001	-13
967.087	-772
967.174	-861
967.260	665
967.347	1001
967.433	2715
967.519	8180
967.605	3723
967.692	-640
967.778	-671
967.864	-630
967.950	-619
968.036	-539
968.123	-308
968.209	-419
968.295	-644
968.381	605
968.467	-332
968.553	-1046
968.639	-729
968.725	-428
968.811	762
968.897	377
968.983	-597
969.069	-66
969.154	-207
969.240	81
969.326	-1221
969.412	-639
969.497	-1133
969.583	-521
969.669	516
969.755	-807
969.840	-368
969.926	-480
970.012	-583
970.097	978
970.183	98
970.268	123
970.354	188
970.439	1412
970.525	5017
970.610	1572
970.696	731
970.781	68
970.866	-1062
970.952	-394
971.037	-1117
971.122	-242
971.208	-1076
971.293	-36
971.378	-599
971.463	-752
971.549	84
971.634	-936
971.719	-456
971.804	74
971.889	779
971.974	-354
972.059	-937
972.144	-722
972.229	-423
972.314	-1116
972.399	-243
972.484	-576
972.569	158
972.654	-491
972.739	2525
972.824	2707
972.908	1074
972.993	-362
973.078	-797
973.163	5
973.247	58
973.332	-1906
973.417	1127
973.501	-341
973.586	189
973.671	-316
973.755	-342
973.840	338
973.924	-274
974.009	53
974.093	-480
974.178	1721
974.262	380
974.346	1993
974.431	223
974.515	-22
974.600	-838
974.684	147
974.768	-1056
974.852	-659
974.937	-269
975.021	-967
975.105	-857
975.189	-421
975.273	-379
975.358	-505
975.442	-590
975.526	-371
975.610	-412
975.694	-535
975.778	61
975.862	-135
975.946	-2065
976.030	47
976.114	-1150
976.198	-793
976.281	-749
976.365	-484
976.449	-476
976.533	-342
976.617	-821
976.700	-207
976.784	257
976.868	-169
976.951	493
977.035	734
977.119	-677
977.202	-1706
977.286	-964
977.369	-280
977.453	-536
977.536	-749
977.620	-815
977.703	137
977.787	-407
977.870	422
977.953	452
978.037	-1042
978.120	131
978.203	394
978.287	2636
978.370	1529
978.453	-1108
978.536	-581
978.620	778
978.703	752
978.786	-103
978.869	29
978.952	-891
979.035	1061
979.118	-191
979.201	-789
979.284	209
979.367	-1671
979.450	510
979.533	-903
979.616	-775
979.699	-791
979.782	-270
979.865	-1125
979.948	-1042
980.030	-1654
980.113	-105
980.196	-944
980.279	331
980.361	-731
980.444	-804
980.526	-246
980.609	-277
980.692	-485
980.774	398
980.857	-652
980.939	-79
981.022	-410
981.104	-1077
981.187	-1374
981.269	-272
981.352	-552
981.434	-875
981.516	-867
981.599	338
981.681	-474
981.763	-1706
981.846	-188
981.928	-831
982.010	-138
982.092	-1044
982.174	-826
982.256	-821
982.339	-475
982.421	-643
982.503	-71
982.585	-1191
982.667	-761
982.749	27
982.831	-1150
982.913	-770
982.995	-301
983.077	-433
983.158	117
983.240	-840
983.322	-281
983.404	-403
983.486	-1375
983.568	-804
983.649	-1090
983.731	-688
983.813	-530
983.894	-327
983.976	-1409
984.058	-970
984.139	-391
984.221	-1406
984.302	-164
984.384	-147
984.465	-728
984.547	-361
984.628	-1309
984.710	-718
984.791	-906
984.872	-612
984.954	-775
985.035	-784
985.116	-940
985.198	-791
985.279	-349
985.360	-1336
985.441	-651
985.522	-420
985.604	-1340
985.685	-1558
985.766	-25
985.847	423
985.928	-1534
986.009	-210
986.090	-778
986.171	43
986.252	-1070
986.333	-92
986.414	-716
986.495	-965
986.576	-777
986.656	-1376
986.737	-695
986.818	-1291
986.899	-818
986.980	-921
987.060	-341
987.141	-1281
987.222	-606
987.302	-896
987.383	-2
987.464	-964
987.544	-631
987.625	-980
987.705	-42
987.786	-410
987.866	-1237
987.947	-122
988.027	-840
988.108	-1619
988.188	-303
988.268	-848
988.349	-893
988.429	-357
988.509	-476
988.589	229
988.670	-1542
988.750	-41
988.830	-780
988.910	-846
988.990	-63
989.070	-552
989.151	-677
989.231	-1555
989.311	-575
989.391	-669
989.471	-824
989.551	-654
989.631	-1325
989.711	-157
989.791	-524
989.870	-1685
989.950	-41
990.030	-1081
990.110	-210
990.190	-937
990.269	-850
990.349	-787
990.429	-567
990.509	-964
990.588	-1129
990.668	-225
990.747	-988
990.827	23
990.907	-369
990.986	-1219
991.066	-653
991.145	-1051
991.225	-261
991.304	-1038
991.383	-790
991.463	-620
991.542	-1286
991.622	-1169
991.701	-1094
991.780	-1154
991.859	-907
991.939	-1339
992.018	-809
992.097	-260
992.176	-324
992.256	-1755
992.335	-2052
992.414	-525
992.493	-1588
992.572	-1879
992.651	222
992.730	-988
992.809	-1312
992.888	-639
992.967	-658
993.046	-880
993.125	-1005
993.203	-1312
993.282	-1252
993.361	-526
993.440	-1370
993.519	-1277
993.597	-1046
993.676	-968
993.755	-245
993.834	-1262
993.912	-1269
993.991	-395
994.069	-1178
994.148	-1208
994.226	-1133
994.305	-1530
994.384	-1147
994.462	-311
994.540	-1425
994.619	-1514
994.697	-470
994.776	-1315
994.854	-1260
994.932	-1263
995.011	-1164
995.089	-1550
995.167	-1778
995.245	-1462
995.324	-1272
995.402	-839
995.480	-1606
995.558	-587
995.636	-1519
995.714	-1199
995.792	-570
995.870	-664
995.948	-1242
996.026	-547
996.104	-2087
996.182	-1003
996.260	-1005
996.338	-896
996.416	-1811
996.494	-1201
996.572	-242
996.649	-254
996.727	-2127
996.805	-1339
996.883	-885
996.960	-2239
997.038	-1386
997.116	-1102
997.193	-1524
997.271	-132
997.348	-1576
997.426	-1108
997.504	-1523
997.581	-1078
997.658	-1243
997.736	-1976
997.813	-1983
997.891	-1884
997.968	-1408
998.046	-644
998.123	-1372
998.200	-531
998.277	-2372
998.355	-980
998.432	-2086
998.509	-846
998.586	-1399
998.663	-645
998.741	-789
998.818	-1298
998.895	-1601
998.972	-1021
999.049	-1126
999.126	-1563
999.203	-1285
999.280	-1131
999.357	-1445
999.434	-1136
999.511	-965
999.587	-1126
999.664	-1390
999.741	-1206
999.818	-822
999.895	-1412
999.971	-1128
1000.048	-805
1000.125	-1261
1000.202	-2963
1000.278	-745
1000.355	-666
1000.431	-1661
1000.508	-2488
1000.584	-1228
1000.661	-1149
1000.738	-1006
1000.814	-1743
1000.890	-1208
1000.967	-1508
1001.043	-1502
1001.120	-810
1001.196	-1596
1001.272	-2172
1001.349	-960
1001.425	-834
1001.501	-1020
1001.577	-1867
1001.654	-1344
1001.730	-1386
1001.806	-1301
1001.882	-2462
1001.958	-726
1002.034	-1098
1002.110	-1342
1002.186	-1338
1002.262	-2042
1002.338	-1847
1002.414	-1102
1002.490	-798
1002.566	-1353
1002.642	-2085
1002.718	-137
1002.794	-1359
1002.870	-1224
1002.945	-1267
1003.021	-1566
1003.097	-1485
1003.173	-746
1003.248	-1542
1003.324	-1008
1003.400	-1299
1003.475	-1706
1003.551	-1093
1003.626	-1608
1003.702	-1156
1003.777	-776
1003.853	-1499
1003.928	-894
1004.004	-1310
1004.079	-782
1004.155	-1425
1004.230	-2292
1004.305	-592
1004.381	-1957
1004.456	-1389
1004.531	-507
1004.607	-1473
1004.682	-805
1004.757	-1126
1004.832	-1283
1004.907	-2311
1004.982	-1079
1005.057	-1228
1005.133	-2310
1005.208	-1260
1005.283	-1923
1005.358	-775
1005.433	-1513
1005.508	-594
1005.583	-2322
1005.657	-987
1005.732	-1051
1005.807	-1286
1005.882	-1398
1005.957	-1695
1006.032	-1582
1006.106	-1172
1006.181	-1293
1006.256	-2153
1006.331	-1670
1006.405	-1982
1006.480	-964
1006.554	-729
1006.629	-2141
1006.704	-1716
1006.778	-831
1006.853	-796
1006.927	-1695
1007.002	-1318
1007.076	-1069
1007.150	-2038
1007.225	-1471
1007.299	-977
1007.373	-1699
1007.448	-1503
1007.522	-1049
1007.596	-219
1007.671	-1862
1007.745	-169
1007.819	-2136
1007.893	-2208
1007.967	-1556
1008.041	-2450
1008.115	-1065
1008.190	-1252
1008.264	-1091
1008.338	-1701
1008.412	-1218
1008.486	-1248
1008.560	-1377
1008.633	-1722
1008.707	-1243
1008.781	-900
1008.855	-759
1008.929	-1831
1009.003	-1847
1009.076	-2073
1009.150	-1480
1009.224	-977
1009.298	-1397
1009.371	-1965
1009.445	-751
1009.519	-1967
1009.592	-2413
1009.666	-1473
1009.739	-1449
1009.813	-1675
1009.886	-971
1009.960	-2237
1010.033	-742
1010.107	-1982
1010.180	-2854
1010.253	-2123
1010.327	-1919
1010.400	-1750
1010.473	-1739
1010.547	-539
1010.620	-1529
1010.693	-1493
1010.766	-799
1010.840	-1307
1010.913	-1366
1010.986	-2978
1011.059	-1638
1011.132	-1457
1011.205	-1596
1011.278	-797
1011.351	-1682
1011.424	-981
1011.497	-2122
1011.570	-933
1011.643	-1983
1011.716	-1402
1011.789	-1669
1011.862	-1382
1011.934	-1177
1012.007	-2167
1012.080	-1038
1012.153	-1169
1012.225	-899
1012.298	-2195
1012.371	-1158
1012.443	-689
1012.516	-2065
1012.588	-1254
1012.661	-1059
1012.733	-1978
1012.806	-102
1012.879	-1386
1012.951	-1361
1013.023	-1396
1013.096	-1217
1013.168	-1730
1013.241	-606
1013.313	-1935
1013.385	-1954
1013.458	-2328
1013.530	-429
1013.602	-2287
1013.674	-800
1013.746	-1751
1013.819	-1998
1013.891	-718
1013.963	-1243
1014.035	-1447
1014.107	-626
1014.179	-1825
1014.251	-1430
1014.323	-1432
1014.395	-782
1014.467	-1130
1014.539	-725
1014.611	-1485
1014.683	-1127
1014.754	-1378
1014.826	-2006
1014.898	-1255
1014.970	-2010
1015.042	-1355
1015.113	-1716
1015.185	-1898
1015.257	-1690
1015.328	-987
1015.400	-2357
1015.471	-685
1015.543	-1840
1015.615	-972
1015.686	-1584
1015.757	-1705
1015.829	-1605
1015.901	-1965
1015.972	-1897
1016.043	-2303
1016.115	-1369
1016.186	-2238
1016.257	-1389
1016.328	-1608
1016.400	-871
1016.471	-1919
1016.542	-1974
1016.613	-1666
1016.685	-2063
1016.756	-1509
1016.827	-1445
1016.898	-2260
1016.969	-465
1017.040	-1472
1017.111	-1773
1017.182	-1212
1017.253	-929
1017.324	-1394
1017.395	-1785
1017.466	-1140
1017.537	-2032
1017.608	-2025
1017.678	-2122
1017.749	-1242
1017.820	-1432
1017.891	-1272
1017.961	-2445
1018.032	-1199
1018.103	-1758
1018.173	-1600
1018.244	-2118
1018.315	-2380
1018.385	-1591
1018.456	-1378
1018.526	-1734
1018.597	-2092
1018.667	-1537
1018.738	-2130
1018.808	-1367
1018.878	-926
1018.949	-2001
1019.019	-1388
1019.089	-2408
1019.160	-1327
1019.230	-1414
1019.300	-1449
1019.371	-2147
1019.441	-1815
1019.511	-1963
1019.581	-1578
1019.651	-2248
1019.721	-1804
1019.791	-1633
1019.861	-1451
1019.931	-1541
1020.001	-1661
1020.071	-1376
1020.141	-2150
1020.211	-2241
1020.281	-2875
1020.351	-2305
1020.421	-1082
1020.491	-1415
1020.560	-1692
1020.630	-1258
1020.700	-1479
1020.770	-2140
1020.839	-1566
1020.909	-1126
1020.979	-1566
1021.048	-2396
1021.118	-1690
1021.187	-1679
1021.257	-902
1021.326	-1023
1021.396	-1420
1021.465	-923
1021.535	-2313
1021.604	-1687
1021.674	-1490
1021.743	-1720
1021.812	-1966
1021.882	-2017
1021.951	-1834
1022.020	-1706
1022.089	-1756
1022.159	-1718
1022.228	-1503
1022.297	-1972
1022.366	-2043
1022.435	-2143
1022.504	-1973
1022.573	-2292
1022.642	-1347
1022.711	-1919
1022.781	-2449
1022.849	-1657
1022.918	-2646
1022.987	-2219
1023.056	-1399
1023.125	-2381
1023.194	-2256
1023.263	-2095
1023.331	-1870
1023.400	-2129
1023.469	-1879
1023.538	-1334
1023.606	-1874
1023.675	-1966
1023.744	-2194
1023.812	-1762
1023.881	-2038
1023.949	-1966
1024.018	-2178
1024.086	-2183
1024.155	-1897
1024.223	-2354
1024.292	-1532
1024.360	-2010
1024.429	-1438
1024.497	-2330
1024.565	-2197
1024.634	-2127
1024.702	-2174
1024.770	-1598
1024.838	-2060
1024.907	-1943
1024.975	-1759
1025.043	-1368
1025.111	-1990
1025.179	-1335
1025.247	-2037
1025.315	-2512
1025.383	-1993
1025.451	-1696
1025.519	-1605
1025.587	-1589
1025.655	-1644
1025.723	-2326
1025.791	-1838
1025.859	-1623
1025.927	-1343
1025.995	-2068
1026.062	-2590
1026.130	-2065
1026.198	-1521
1026.266	-2027
1026.333	-1392
1026.401	-1455
1026.469	-1518
1026.536	-1780
1026.604	-1866
1026.671	-2750
1026.739	-2196
1026.806	-1406
1026.874	-1579
1026.941	-2023
1027.009	-1706
1027.076	-1612
1027.144	-939
1027.211	-2235
1027.278	-1204
1027.345	-1667
1027.413	-1570
1027.480	-2008
1027.547	-2270
1027.614	-2158
1027.682	-2556
1027.749	-1509
1027.816	-2162
1027.883	-1512
1027.950	-1158
1028.017	-2160
1028.084	-550
1028.151	-1962
1028.218	-2581
1028.285	-1618
1028.352	-2076
1028.419	-2373
1028.486	-2505
1028.553	-1751
1028.619	-2217
1028.686	-1377
1028.753	-2307
1028.820	-1822
1028.886	-2826
1028.953	-1638
1029.020	-1668
1029.086	-1616
1029.153	-2083
1029.220	-2283
1029.286	-2561
1029.353	-1394
1029.419	-2204
1029.486	-1776
1029.552	-2351
1029.619	-2146
1029.685	-1742
1029.751	-3050
1029.818	-1225
1029.884	-2202
1029.951	-1314
1030.017	-1463
1030.083	-1903
1030.149	-1920
1030.216	-2151
1030.282	-1957
1030.348	-1708
1030.414	-2315
1030.480	-1305
1030.546	-1676
1030.612	-1490
1030.678	-1925
1030.744	-1606
1030.810	-1421
1030.876	-2112
1030.942	-1749
1031.008	-1558
1031.074	-1424
1031.140	-1727
1031.206	-1829
1031.272	-2642
1031.337	-1876
1031.403	-2075
1031.469	-1594
1031.534	-2502
1031.600	-1584
1031.666	-2247
1031.731	-2202
1031.797	-1633
1031.863	-1614
1031.928	-2033
1031.994	-1604
1032.059	-1808
1032.125	-1868
1032.190	-2141
1032.256	-1747
1032.321	-1736
1032.386	-1789
1032.452	-1866
1032.517	-2244
1032.582	-2443
1032.647	-2325
1032.713	-1197
1032.778	-1793
1032.843	-2103
1032.908	-2000
1032.974	-2707
1033.039	-1753
1033.104	-1492
1033.169	-2130
1033.234	-1700
1033.299	-1909
1033.364	-2194
1033.429	-1279
1033.494	-779
1033.559	-1971
1033.624	-1420
1033.688	-1361
1033.753	-2281
1033.818	-2240
1033.883	-2144
1033.948	-1390
1034.013	-1927
1034.077	-2469
1034.142	-1194
1034.207	-2016
1034.271	-1341
1034.336	-841
1034.400	-1751
1034.465	-2070
1034.530	-1163
1034.594	-2049
1034.658	-2716
1034.723	-1461
1034.787	-1747
1034.852	-1319
1034.916	-2139
1034.981	-2231
1035.045	-1980
1035.109	-1312
1035.173	-1733
1035.238	-2466
1035.302	-2610
1035.366	-1771
1035.430	-2220
1035.495	-2841
1035.559	-2039
1035.623	-1307
1035.687	-2033
1035.751	-2331
1035.815	-2282
1035.879	-2915
1035.943	-2279
1036.007	-1962
1036.071	-2047
1036.135	-2296
1036.198	-1447
1036.262	-2697
1036.326	-1675
1036.390	-2084
1036.454	-1124
1036.517	-1853
1036.581	-1719
1036.645	-2292
1036.709	-1625
1036.772	-2378
1036.836	-2059
1036.900	-1745
1036.963	-2525
1037.026	-1875
1037.090	-2641
1037.154	-2890
1037.217	-1122
1037.280	-2636
1037.344	-2047
1037.407	-2622
1037.471	-1669
1037.534	-2845
1037.597	-2704
1037.661	-1758
1037.724	-1586
1037.787	-2095
1037.850	-2846
1037.913	-2068
1037.977	-1696
1038.040	-2224
1038.103	-1233
1038.166	-2095
1038.229	-1362
1038.292	-1888
1038.355	-1546
1038.418	-2622
1038.481	-1451
1038.544	-2095
1038.607	-1662
1038.670	-2467
1038.732	-1916
1038.795	-1824
1038.858	-2054
1038.921	-1786
1038.984	-1881
1039.046	-2089
1039.109	-1484
1039.172	-2075
1039.234	-2517
1039.297	-2984
1039.360	-2394
1039.422	-2040
1039.485	-2114
1039.547	-2365
1039.610	-2105
1039.672	-1647
1039.734	-2078
1039.797	-1950
1039.859	-2400
1039.922	-1809
1039.984	-1741
1040.046	-2566
1040.109	-2328
1040.171	-2616
1040.233	-1310
1040.295	-1712
1040.358	-2690
1040.420	-1785
1040.482	-1775
1040.544	-2340
1040.606	-1753
1040.668	-2032
1040.730	-2312
1040.792	-2167
1040.854	-2007
1040.916	-1879
1040.978	-2620
1041.040	-2197
1041.102	-2078
1041.164	-1999
1041.225	-2468
1041.287	-2637
1041.349	-1798
1041.411	-1390
1041.472	-2110
1041.534	-2177
1041.596	-2019
1041.657	-2236
1041.719	-2529
1041.781	-2667
1041.842	-2186
1041.904	-2030
1041.965	-2355
1042.027	-2541
1042.088	-1919
1042.150	-2366
1042.211	-2014
1042.272	-2401
1042.334	-2086
1042.395	-2160
1042.456	-2260
1042.518	-1927
1042.579	-1708
1042.640	-2043
1042.701	-1870
1042.763	-1070
1042.824	-1902
1042.885	-1113
1042.946	-1872
1043.007	-2470
1043.068	-1897
1043.129	-1822
1043.190	-1909
1043.251	-2419
1043.312	-1945
1043.373	-2061
1043.434	-2062
1043.495	-2181
1043.556	-1816
1043.616	-2126
1043.677	-1979
1043.738	-2268
1043.799	-1950
1043.859	-1529
1043.920	-1733
1043.981	-1987
1044.041	-1708
1044.102	-2444
1044.162	-1922
1044.223	-2047
1044.284	-1875
1044.344	-1278
1044.405	-2175
1044.465	-1852
1044.525	-2450
1044.586	-1818
1044.646	-2992
1044.707	-1428
1044.767	-2208
1044.827	-1732
1044.887	-2438
1044.948	-1340
1045.008	-2559
1045.068	-1250
1045.128	-1525
1045.188	-1954
1045.249	-1618
1045.309	-2155
1045.369	-2030
1045.429	-2283
1045.489	-1906
1045.549	-709
1045.609	-1426
1045.669	-2322
1045.729	-2487
1045.789	-2933
1045.848	-2291
1045.908	-1469
1045.968	-1461
1046.028	-1564
1046.088	-1767
1046.147	-2098
1046.207	-1571
1046.267	-1348
1046.326	-1438
1046.386	-1650
1046.446	-1238
1046.505	-805
1046.565	-1645
1046.624	-1372
1046.684	-1419
1046.743	-1309
1046.803	-962
1046.862	-1205
1046.922	0
