'Start Wavelength	183.907
'End Wavelength	1046.922
'Gate Delay	5.000
'Gate Width (ms)	1.050
'Laser Output Level	0.000
'X Position	0.000
'Y Position	0.000
'Z Position	0.000
'Grid Point Number	1.000
'Shot Number	100.000
183.907	3.000
183.977	-86.000
184.047	176
184.116	432
184.186	776
184.256	-317
184.325	-46
184.395	-1170
184.465	160
184.534	-159
184.604	835
184.674	296
184.743	555
184.813	-236
184.883	652
184.952	-35
185.022	100
185.092	266
185.161	16
185.231	584
185.301	-526
185.370	-134
185.440	-40
185.509	-391
185.579	99
185.649	-78
185.718	251
185.788	-90
185.857	547
185.927	-647
185.996	572
186.066	170
186.136	-194
186.205	-629
186.275	251
186.344	346
186.414	325
186.483	-475
186.553	245
186.622	-65
186.692	470
186.761	-493
186.831	-451
186.900	87
186.970	-19
187.039	318
187.109	660
187.178	-681
187.248	221
187.317	168
187.387	206
187.456	-589
187.526	-309
187.595	-156
187.664	196
187.734	156
187.803	106
187.873	237
187.942	59
188.012	207
188.081	-144
188.150	39
188.220	382
188.289	-107
188.358	587
188.428	414
188.497	-699
188.567	522
188.636	-52
188.705	-661
188.775	-402
188.844	-893
188.913	808
188.983	253
189.052	382
189.121	139
189.191	-86
189.260	728
189.329	-11
189.399	-4
189.468	-58
189.537	-148
189.606	692
189.676	585
189.745	476
189.814	288
189.883	1
189.953	177
190.022	521
190.091	-182
190.161	465
190.230	655
190.299	-249
190.368	-560
190.437	70
190.507	-134
190.576	590
190.645	398
190.714	246
190.783	195
190.853	803
190.922	609
190.991	227
191.060	630
191.129	345
191.198	-16
191.268	223
191.337	-103
191.406	463
191.475	562
191.544	316
191.613	522
191.682	-355
191.752	261
191.821	-92
191.890	-220
191.959	70
192.028	96
192.097	-79
192.166	583
192.235	-195
192.304	-62
192.373	-194
192.442	240
192.511	405
192.580	-944
192.650	-433
192.719	340
192.788	76
192.857	-51
192.926	308
192.995	268
193.064	52
193.133	-114
193.202	318
193.271	-88
193.340	677
193.409	478
193.478	128
193.547	253
193.615	264
193.684	-6
193.753	-110
193.822	310
193.891	-78
193.960	-154
194.029	148
194.098	77
194.167	-314
194.236	242
194.305	-177
194.374	-123
194.443	27
194.512	463
194.580	122
194.649	23
194.718	427
194.787	843
194.856	-54
194.925	543
194.994	301
195.062	-53
195.131	491
195.200	-127
195.269	102
195.338	-541
195.407	493
195.475	-349
195.544	471
195.613	-42
195.682	59
195.751	-65
195.819	223
195.888	-54
195.957	408
196.026	149
196.094	122
196.163	-295
196.232	103
196.301	-4
196.369	180
196.438	-961
196.507	235
196.576	-256
196.644	85
196.713	-993
196.782	202
196.850	-561
196.919	333
196.988	426
197.056	-211
197.125	-310
197.194	1
197.262	-261
197.331	216
197.400	-248
197.468	90
197.537	-519
197.606	261
197.674	-432
197.743	907
197.812	-79
197.880	-754
197.949	853
198.017	674
198.086	-617
198.155	-591
198.223	-13
198.292	293
198.360	259
198.429	93
198.497	-95
198.566	89
198.635	132
198.703	392
198.772	277
198.840	683
198.909	282
198.977	-144
199.046	-222
199.114	366
199.183	-229
199.251	-453
199.320	-467
199.388	561
199.457	-609
199.525	506
199.594	384
199.662	-243
199.731	48
199.799	329
199.867	-93
199.936	409
200.004	881
200.073	981
200.141	-928
200.210	-510
200.278	33
200.346	200
200.415	23
200.483	-274
200.552	-140
200.620	37
200.688	-210
200.757	420
200.825	-306
200.893	277
200.962	-509
201.030	28
201.098	-252
201.167	517
201.235	35
201.303	252
201.372	149
201.440	-340
201.508	53
201.577	-783
201.645	-126
201.713	-224
201.781	181
201.850	455
201.918	-8
201.986	138
202.055	597
202.123	255
202.191	-347
202.259	307
202.327	-466
202.396	-128
202.464	-704
202.532	245
202.600	1578
202.669	475
202.737	-468
202.805	-49
202.873	-183
202.941	174
203.009	-610
203.078	137
203.146	501
203.214	2
203.282	-377
203.350	258
203.418	-385
203.487	142
203.555	663
203.623	330
203.691	202
203.759	-93
203.827	-374
203.895	494
203.963	-794
204.031	-252
204.099	-1
204.168	-126
204.236	62
204.304	594
204.372	-221
204.440	-143
204.508	-186
204.576	-691
204.644	-34
204.712	-299
204.780	-49
204.848	-638
204.916	-524
204.984	-736
205.052	236
205.120	4
205.188	-309
205.256	-133
205.324	-225
205.392	-417
205.460	-72
205.528	-41
205.596	-370
205.664	155
205.732	-691
205.799	152
205.867	300
205.935	-318
206.003	485
206.071	755
206.139	-10
206.207	-108
206.275	269
206.343	239
206.411	-1110
206.478	-136
206.546	147
206.614	-413
206.682	30
206.750	-166
206.818	106
206.885	285
206.953	-308
207.021	551
207.089	668
207.157	-140
207.225	-139
207.292	-723
207.360	-238
207.428	72
207.496	-510
207.563	-76
207.631	-57
207.699	226
207.767	-169
207.834	-48
207.902	-161
207.970	-462
208.038	195
208.105	236
208.173	355
208.241	438
208.309	-356
208.376	318
208.444	855
208.512	512
208.579	244
208.647	219
208.715	435
208.782	556
208.850	-55
208.918	608
208.985	-406
209.053	201
209.120	-112
209.188	-341
209.256	170
209.323	610
209.391	678
209.459	1102
209.526	-248
209.594	-296
209.661	310
209.729	-372
209.796	645
209.864	192
209.932	-774
209.999	907
210.067	309
210.134	163
210.202	200
210.269	785
210.337	1191
210.404	294
210.472	-131
210.539	913
210.607	-449
210.674	140
210.742	192
210.809	671
210.877	598
210.944	873
211.012	-519
211.079	1001
211.146	-787
211.214	457
211.281	294
211.349	517
211.416	449
211.484	623
211.551	-288
211.618	316
211.686	354
211.753	315
211.821	1257
211.888	163
211.955	175
212.023	-65
212.090	400
212.157	204
212.225	-510
212.292	1453
212.359	1315
212.427	3820
212.494	1187
212.561	1272
212.629	-177
212.696	495
212.763	900
212.831	-17
212.898	-277
212.965	420
213.032	48
213.100	-282
213.167	612
213.234	520
213.301	-80
213.369	26
213.436	555
213.503	3
213.570	-238
213.638	1262
213.705	-164
213.772	-266
213.839	-308
213.906	875
213.973	275
214.041	-214
214.108	450
214.175	105
214.242	229
214.309	1249
214.376	-67
214.444	-81
214.511	406
214.578	-24
214.645	-135
214.712	-317
214.779	179
214.846	501
214.913	724
214.980	934
215.048	299
215.115	1200
215.182	148
215.249	35
215.316	-221
215.383	430
215.450	178
215.517	641
215.584	132
215.651	261
215.718	478
215.785	930
215.852	477
215.919	1445
215.986	742
216.053	910
216.120	223
216.187	462
216.254	346
216.321	699
216.388	-350
216.455	496
216.522	421
216.589	479
216.656	1143
216.722	877
216.789	692
216.856	947
216.923	808
216.990	1061
217.057	33
217.124	1120
217.191	-10
217.258	727
217.324	565
217.391	988
217.458	1159
217.525	628
217.592	819
217.659	725
217.725	731
217.792	735
217.859	985
217.926	643
217.993	577
218.059	-44
218.126	320
218.193	487
218.260	284
218.327	813
218.393	536
218.460	-108
218.527	-603
218.594	369
218.660	576
218.727	1721
218.794	248
218.860	-81
218.927	855
218.994	728
219.061	350
219.127	1065
219.194	560
219.261	645
219.327	1
219.394	-133
219.461	-325
219.527	-20
219.594	792
219.661	527
219.727	-403
219.794	886
219.860	74
219.927	1647
219.994	1449
220.060	2662
220.127	1403
220.193	481
220.260	328
220.326	904
220.393	333
220.460	1513
220.526	524
220.593	-261
220.659	1587
220.726	1250
220.792	1425
220.859	1350
220.925	1423
220.992	2558
221.058	2720
221.125	2699
221.191	1936
221.258	727
221.324	528
221.391	401
221.457	-952
221.524	579
221.590	1111
221.657	2789
221.723	1837
221.789	1738
221.856	1683
221.922	442
221.989	699
222.055	141
222.121	305
222.188	2423
222.254	519
222.321	1370
222.387	172
222.453	546
222.520	129
222.586	669
222.652	429
222.719	486
222.785	680
222.851	728
222.918	190
222.984	732
223.050	611
223.116	-306
223.183	621
223.249	-188
223.315	-83
223.382	1128
223.448	986
223.514	185
223.580	838
223.647	-243
223.713	865
223.779	354
223.845	110
223.911	840
223.978	46
224.044	1176
224.110	-1004
224.176	444
224.242	1074
224.309	-126
224.375	993
224.441	843
224.507	272
224.573	-137
224.639	312
224.705	96
224.772	-126
224.838	-418
224.904	1255
224.970	391
225.036	1093
225.102	-474
225.168	393
225.234	911
225.300	432
225.366	560
225.432	-159
225.499	481
225.565	669
225.631	727
225.697	725
225.763	921
225.829	736
225.895	1000
225.961	1143
226.027	1753
226.093	70
226.159	2225
226.225	2002
226.291	2693
226.357	4660
226.423	2198
226.489	1806
226.554	1306
226.620	1785
226.686	1105
226.752	1865
226.818	1692
226.884	6093
226.950	4778
227.016	1542
227.082	1835
227.148	1151
227.214	1761
227.279	970
227.345	1284
227.411	693
227.477	1470
227.543	3457
227.609	3903
227.674	1712
227.740	836
227.806	1460
227.872	1525
227.938	688
228.003	1975
228.069	1264
228.135	746
228.201	476
228.267	1116
228.332	805
228.398	656
228.464	1811
228.530	397
228.595	226
228.661	304
228.727	1902
228.792	994
228.858	327
228.924	107
228.990	1900
229.055	773
229.121	527
229.187	730
229.252	1218
229.318	1116
229.384	959
229.449	1116
229.515	-528
229.581	35
229.646	1616
229.712	1015
229.777	1380
229.843	2317
229.909	1366
229.974	2499
230.040	1397
230.105	1618
230.171	1668
230.236	1995
230.302	2528
230.368	1360
230.433	835
230.499	1061
230.564	1955
230.630	1087
230.695	946
230.761	1230
230.826	636
230.892	2945
230.957	1281
231.023	367
231.088	613
231.154	410
231.219	1446
231.284	1052
231.350	1332
231.415	616
231.481	923
231.546	649
231.612	498
231.677	685
231.742	141
231.808	1557
231.873	241
231.939	-500
232.004	2314
232.069	1919
232.135	936
232.200	292
232.265	488
232.331	340
232.396	76
232.461	622
232.527	603
232.592	142
232.657	642
232.723	512
232.788	349
232.853	1231
232.918	1600
232.984	740
233.049	409
233.114	809
233.179	513
233.245	1480
233.310	1891
233.375	-434
233.440	1234
233.506	877
233.571	121
233.636	573
233.701	862
233.766	449
233.832	1493
233.897	227
233.962	-196
234.027	1627
234.092	755
234.157	188
234.222	362
234.288	1078
234.353	2431
234.418	3056
234.483	1863
234.548	2462
234.613	944
234.678	2130
234.743	693
234.808	4550
234.873	1497
234.938	1987
235.004	1140
235.069	1862
235.134	342
235.199	1745
235.264	1113
235.329	-146
235.394	942
235.459	1037
235.524	931
235.589	1517
235.654	744
235.719	1006
235.784	1840
235.849	1253
235.913	1504
235.978	1558
236.043	1723
236.108	998
236.173	598
236.238	1683
236.303	490
236.368	-7
236.433	2049
236.498	1364
236.563	1528
236.627	2068
236.692	7924
236.757	5623
236.822	2256
236.887	2379
236.952	2020
237.017	826
237.081	3096
237.146	2116
237.211	2640
237.276	7708
237.341	13811
237.405	4755
237.470	2683
237.535	1905
237.600	1249
237.664	2341
237.729	685
237.794	1316
237.859	2705
237.923	661
237.988	1066
238.053	2088
238.118	1297
238.182	4710
238.247	4195
238.312	876
238.376	2226
238.441	-341
238.506	2160
238.570	-41
238.635	1803
238.700	1003
238.764	322
238.829	2504
238.893	1780
238.958	2807
239.023	2011
239.087	1413
239.152	869
239.216	66
239.281	963
239.346	1511
239.410	829
239.475	796
239.539	3653
239.604	2743
239.668	1408
239.733	1828
239.797	2413
239.862	6979
239.926	3969
239.991	2152
240.055	703
240.120	928
240.184	1386
240.249	468
240.313	1448
240.378	1188
240.442	2284
240.507	3620
240.571	1681
240.635	1382
240.700	1795
240.764	1205
240.829	414
240.893	332
240.957	1255
241.022	3087
241.086	4207
241.151	1614
241.215	-19
241.279	1128
241.344	1838
241.408	1696
241.472	1199
241.537	2304
241.601	1817
241.665	634
241.730	1791
241.794	1631
241.858	1137
241.922	1323
241.987	1594
242.051	587
242.115	786
242.179	1367
242.244	891
242.308	2152
242.372	1739
242.436	1736
242.501	1566
242.565	982
242.629	851
242.693	1640
242.757	295
242.822	1148
242.886	1432
242.950	1115
243.014	834
243.078	1626
243.142	1012
243.206	1075
243.271	1464
243.335	915
243.399	2694
243.463	6175
243.527	14684
243.591	4720
243.655	2301
243.719	1037
243.783	1801
243.847	3236
243.911	3339
243.975	4520
244.040	1864
244.104	2057
244.168	1338
244.232	2138
244.296	3067
244.360	3207
244.424	1449
244.488	1713
244.552	1744
244.615	606
244.679	891
244.743	1984
244.807	1164
244.871	1160
244.935	646
244.999	255
245.063	609
245.127	1774
245.191	2380
245.255	1940
245.319	2451
245.383	548
245.446	2449
245.510	551
245.574	1515
245.638	1241
245.702	409
245.766	3780
245.829	2128
245.893	915
245.957	862
246.021	1960
246.085	1019
246.149	1881
246.212	5375
246.276	6712
246.340	2695
246.404	2904
246.467	2722
246.531	2683
246.595	1940
246.659	2252
246.722	1314
246.786	2435
246.850	2194
246.913	3629
246.977	654
247.041	1043
247.104	1801
247.168	2270
247.232	4998
247.295	9811
247.359	4719
247.423	2317
247.486	4941
247.550	3038
247.614	1906
247.677	3004
247.741	1515
247.804	1224
247.868	2007
247.932	4561
247.995	8661
248.059	2745
248.122	1098
248.186	2656
248.249	4401
248.313	15348
248.376	15472
248.440	8680
248.503	2661
248.567	4369
248.630	4354
248.694	6317
248.757	9378
248.821	17148
248.884	10767
248.948	8222
249.011	12932
249.075	19456
249.138	15560
249.202	6627
249.265	4102
249.328	4439
249.392	3200
249.455	3171
249.519	2028
249.582	3220
249.645	5169
249.709	3349
249.772	2061
249.835	2366
249.899	2136
249.962	2096
250.025	1451
250.089	6235
250.152	8268
250.215	4583
250.279	3223
250.342	2999
250.405	2745
250.468	1744
250.532	2673
250.595	5876
250.658	16193
250.721	23980
250.785	9166
250.848	6780
250.911	2314
250.974	3849
251.038	4753
251.101	9894
251.164	4708
251.227	5290
251.290	4338
251.354	6864
251.417	22924
251.480	19444
251.543	14587
251.606	40247
251.669	26881
251.732	10634
251.795	12417
251.859	12680
251.922	25563
251.985	13950
252.048	6742
252.111	4380
252.174	3811
252.237	9426
252.300	18767
252.363	18004
252.426	33768
252.489	12983
252.552	6448
252.615	4768
252.678	6733
252.741	13709
252.804	16097
252.867	32533
252.930	20538
252.993	11404
253.056	7692
253.119	4788
253.182	3325
253.245	5778
253.308	5178
253.371	3730
253.434	4215
253.497	5146
253.559	9502
253.622	6029
253.685	7660
253.748	7762
253.811	3489
253.874	4411
253.937	4021
254.000	2739
254.062	5939
254.125	9232
254.188	8170
254.251	6933
254.314	3180
254.376	6116
254.439	6832
254.502	6649
254.565	6084
254.628	11255
254.690	5993
254.753	4172
254.816	2798
254.878	3655
254.941	6463
255.004	5345
255.067	2701
255.129	2251
255.192	2099
255.255	1084
255.317	1928
255.380	1681
255.443	645
255.505	228
255.568	1084
255.631	861
255.693	1455
255.756	241
255.819	1582
255.881	684
255.944	941
256.006	814
256.069	505
256.132	951
256.194	214
256.257	2945
256.319	1810
256.382	1718
256.444	2347
256.507	1677
256.569	289
256.632	940
256.694	1476
256.757	4611
256.819	11088
256.882	3659
256.944	1484
257.007	2739
257.069	2400
257.132	1916
257.194	1788
257.257	1262
257.319	677
257.381	583
257.444	3796
257.506	14367
257.569	14641
257.631	9529
257.693	6100
257.756	1975
257.818	1631
257.880	1012
257.943	936
258.005	1012
258.067	590
258.130	1629
258.192	987
258.254	3060
258.317	2170
258.379	2394
258.441	5994
258.503	5427
258.566	3732
258.628	5385
258.690	1200
258.753	2922
258.815	3703
258.877	1981
258.939	1341
259.001	1134
259.064	1550
259.126	1033
259.188	1853
259.250	1971
259.312	2228
259.375	6570
259.437	3603
259.499	1736
259.561	1936
259.623	1843
259.685	1302
259.747	1566
259.809	3829
259.872	6920
259.934	12529
259.996	12378
260.058	3648
260.120	1113
260.182	1747
260.244	1190
260.306	270
260.368	2210
260.430	998
260.492	2219
260.554	5536
260.616	3214
260.678	8198
260.740	8630
260.802	2009
260.864	2639
260.926	313
260.988	2007
261.050	2057
261.112	3665
261.174	9347
261.236	6299
261.298	2480
261.359	3368
261.421	5279
261.483	1507
261.545	2536
261.607	-1
261.669	1078
261.731	2742
261.793	6955
261.854	2010
261.916	2031
261.978	1529
262.040	1906
262.102	969
262.164	892
262.225	1844
262.287	1884
262.349	4195
262.411	3875
262.472	1865
262.534	1509
262.596	3685
262.658	1226
262.719	258
262.781	1515
262.843	3354
262.904	1399
262.966	1653
263.028	1484
263.090	9119
263.151	22315
263.213	7899
263.275	4182
263.336	1693
263.398	1507
263.459	507
263.521	832
263.583	4583
263.644	2492
263.706	754
263.767	-354
263.829	846
263.891	21
263.952	177
264.014	-268
264.075	1132
264.137	4457
264.198	2337
264.260	498
264.321	305
264.383	3167
264.444	7659
264.506	883
264.567	1040
264.629	2868
264.690	5049
264.752	2577
264.813	2188
264.875	278
264.936	1767
264.998	538
265.059	593
265.120	774
265.182	1271
265.243	3946
265.305	2264
265.366	1201
265.427	1416
265.489	1077
265.550	224
265.611	1407
265.673	927
265.734	1251
265.795	-110
265.857	227
265.918	306
265.979	1286
266.040	8909
266.102	5666
266.163	2161
266.224	2356
266.286	1925
266.347	-151
266.408	536
266.469	938
266.530	392
266.592	556
266.653	3769
266.714	4633
266.775	1583
266.836	232
266.898	850
266.959	1240
267.020	1203
267.081	1662
267.142	748
267.203	123
267.264	938
267.326	2071
267.387	793
267.448	521
267.509	892
267.570	672
267.631	746
267.692	-87
267.753	405
267.814	138
267.875	3106
267.936	6249
267.997	3092
268.058	1352
268.119	358
268.180	788
268.241	-136
268.302	568
268.363	296
268.424	587
268.485	1369
268.546	101
268.607	717
268.668	534
268.729	-51
268.790	584
268.851	914
268.912	4492
268.972	4452
269.033	2108
269.094	196
269.155	399
269.216	772
269.277	629
269.338	-87
269.398	979
269.459	908
269.520	1899
269.581	2401
269.642	3301
269.702	1317
269.763	1360
269.824	1132
269.885	1842
269.945	3611
270.006	440
270.067	127
270.128	1006
270.188	287
270.249	168
270.310	405
270.370	827
270.431	681
270.492	200
270.553	851
270.613	3676
270.674	6619
270.734	2444
270.795	1246
270.856	2111
270.916	625
270.977	588
271.038	1449
271.098	1326
271.159	2828
271.219	2382
271.280	602
271.340	975
271.401	1106
271.462	1476
271.522	896
271.583	196
271.643	1758
271.704	1013
271.764	1324
271.825	4336
271.885	17367
271.946	19840
272.006	6024
272.066	9218
272.127	15737
272.187	4195
272.248	1986
272.308	1663
272.369	11521
272.429	6134
272.489	4779
272.550	4574
272.610	5241
272.671	3020
272.731	2187
272.791	3915
272.852	2688
272.912	3031
272.972	1157
273.033	1362
273.093	1369
273.153	2137
273.214	1487
273.274	1989
273.334	8143
273.394	15648
273.455	6784
273.515	7040
273.575	14271
273.635	5851
273.696	7201
273.756	14525
273.816	5749
273.876	3644
273.936	4496
273.997	7828
274.057	1880
274.117	2359
274.177	3719
274.237	19081
274.297	14291
274.358	7869
274.418	12907
274.478	8925
274.538	2464
274.598	1859
274.658	6167
274.718	7484
274.778	3852
274.838	1938
274.898	3192
274.958	9370
275.018	12414
275.078	7439
275.138	3561
275.198	1402
275.258	1564
275.318	1234
275.378	4283
275.438	5624
275.498	2436
275.558	5428
275.618	12647
275.678	9519
275.738	6455
275.798	4283
275.858	1732
275.918	845
275.978	1977
276.038	2111
276.098	1810
276.157	3762
276.217	11985
276.277	5395
276.337	3331
276.397	1864
276.457	2496
276.517	663
276.576	1678
276.636	232
276.696	2336
276.756	6743
276.815	4225
276.875	2158
276.935	1832
276.995	1960
277.055	1752
277.114	1031
277.174	2252
277.234	9263
277.293	3127
277.353	1994
277.413	1304
277.472	1216
277.532	855
277.592	2214
277.651	9840
277.711	17494
277.771	6042
277.830	22583
277.890	16573
277.950	11285
278.009	31114
278.069	10976
278.128	13968
278.188	18919
278.248	8190
278.307	21236
278.367	11521
278.426	3072
278.486	2113
278.545	1524
278.605	1821
278.664	1359
278.724	1434
278.783	6522
278.843	15180
278.902	4017
278.962	2483
279.021	2682
279.081	4091
279.140	3242
279.199	3004
279.259	2280
279.318	3036
279.378	4642
279.437	7576
279.496	28246
279.556	66627
279.615	48741
279.675	14173
279.734	8997
279.793	13892
279.853	21098
279.912	7740
279.971	5007
280.031	4235
280.090	8988
280.149	15696
280.208	11026
280.268	45974
280.327	42341
280.386	10937
280.445	9792
280.505	8723
280.564	3884
280.623	2947
280.682	5263
280.742	8491
280.801	2135
280.860	2020
280.919	1680
280.978	1800
281.037	1433
281.097	1468
281.156	1998
281.215	1082
281.274	2758
281.333	10966
281.392	7105
281.451	1870
281.510	1030
281.569	1411
281.628	778
281.688	870
281.747	1361
281.806	1297
281.865	1614
281.924	460
281.983	471
282.042	480
282.101	713
282.160	1118
282.219	1074
282.278	1494
282.337	6814
282.396	3285
282.454	929
282.513	2798
282.572	10667
282.631	4935
282.690	1456
282.749	773
282.808	1849
282.867	611
282.926	2011
282.985	1855
283.043	785
283.102	1058
283.161	1705
283.220	4098
283.279	10011
283.338	3563
283.396	1430
283.455	1868
283.514	2251
283.573	3606
283.631	3101
283.690	1696
283.749	2122
283.808	4463
283.866	5357
283.925	1413
283.984	2117
284.043	2833
284.101	2531
284.160	2418
284.219	3181
284.277	3181
284.336	4845
284.395	15344
284.453	11741
284.512	5398
284.570	7250
284.629	6493
284.688	5859
284.746	6622
284.805	8377
284.863	12481
284.922	14678
284.981	16494
285.039	23957
285.098	42857
285.156	85786
285.215	97506
285.273	102777
285.332	86655
285.390	49605
285.449	31190
285.507	22617
285.566	16351
285.624	11900
285.683	8994
285.741	6903
285.799	5888
285.858	4941
285.916	4279
285.975	3554
286.033	2693
286.091	3345
286.150	1541
286.208	2309
286.267	2274
286.325	2741
286.383	5260
286.442	3423
286.500	1486
286.558	1279
286.616	1352
286.675	2894
286.733	3182
286.791	1661
286.850	2073
286.908	3183
286.966	6116
287.024	1879
287.083	2195
287.141	700
287.199	1867
287.257	2725
287.315	1609
287.374	1997
287.432	5562
287.490	3243
287.548	1636
287.606	997
287.664	1226
287.723	1696
287.781	3000
287.839	1304
287.897	1286
287.955	1233
288.013	3824
288.071	8242
288.129	34104
288.187	87190
288.245	35560
288.303	10101
288.361	6167
288.419	4757
288.477	3595
288.535	1967
288.593	1710
288.651	621
288.709	300
288.767	659
288.825	854
288.883	428
288.941	598
288.999	799
289.057	674
289.115	383
289.173	59
289.231	276
289.289	883
289.346	525
289.404	1036
289.462	2221
289.520	2821
289.578	1042
289.636	268
289.694	252
289.751	387
289.809	629
289.867	420
289.925	1039
289.983	1520
290.040	-416
290.098	792
290.156	423
290.214	1308
290.271	166
290.329	-471
290.387	-260
290.444	829
290.502	-149
290.560	-453
290.617	-753
290.675	63
290.733	595
290.790	251
290.848	571
290.906	240
290.963	594
291.021	716
291.078	300
291.136	1075
291.194	4721
291.251	9716
291.309	2369
291.366	682
291.424	730
291.481	1417
291.539	957
291.596	1311
291.654	-63
291.711	394
291.769	1245
291.826	2574
291.884	1281
291.941	675
291.999	163
292.056	447
292.114	785
292.171	644
292.228	880
292.286	1690
292.343	3061
292.401	3254
292.458	2136
292.515	425
292.573	2013
292.630	1332
292.687	541
292.745	963
292.802	1200
292.859	5150
292.917	11419
292.974	6930
293.031	1477
293.089	430
293.146	1444
293.203	395
293.260	566
293.318	1035
293.375	983
293.432	-12
293.489	160
293.546	958
293.604	1612
293.661	6427
293.718	17945
293.775	7941
293.832	3962
293.889	3683
293.947	2061
294.004	2001
294.061	2521
294.118	5526
294.175	11075
294.232	12123
294.289	3914
294.346	2232
294.403	1773
294.460	903
294.517	865
294.574	696
294.631	485
294.688	1391
294.745	5298
294.802	19578
294.859	18739
294.916	6604
294.973	3144
295.030	3664
295.087	2462
295.144	1115
295.201	847
295.258	1058
295.315	1881
295.372	7100
295.429	14193
295.486	5963
295.542	2879
295.599	8508
295.656	12195
295.713	9000
295.770	13366
295.827	4626
295.883	2761
295.940	2487
295.997	3487
296.054	2908
296.111	1381
296.167	1455
296.224	505
296.281	474
296.338	381
296.394	538
296.451	1240
296.508	6043
296.564	12299
296.621	8098
296.678	15980
296.734	21283
296.791	7920
296.848	4428
296.904	4357
296.961	11488
297.018	16563
297.074	11194
297.131	3612
297.187	4024
297.244	4746
297.301	16680
297.357	28139
297.414	9627
297.470	3538
297.527	1784
297.583	2097
297.640	1924
297.696	1273
297.753	1119
297.809	1368
297.866	653
297.922	888
297.979	-243
298.035	849
298.092	2543
298.148	9855
298.204	8737
298.261	2890
298.317	8446
298.374	18971
298.430	10038
298.486	4693
298.543	2635
298.599	2392
298.656	3740
298.712	6721
298.768	14240
298.824	8917
298.881	3445
298.937	1196
298.993	871
299.050	983
299.106	1577
299.162	1328
299.218	1004
299.275	1595
299.331	1812
299.387	5125
299.443	18523
299.500	20948
299.556	9028
299.612	3727
299.668	3265
299.724	6182
299.780	6075
299.837	2857
299.893	4536
299.949	18321
300.005	19647
300.061	16746
300.117	26117
300.173	12763
300.229	5977
300.285	6665
300.341	8708
300.397	3146
300.453	2110
300.510	2257
300.566	2405
300.622	3936
300.678	13991
300.734	21757
300.790	17630
300.845	18395
300.901	13358
300.957	19521
301.013	13079
301.069	4975
301.125	3687
301.181	3875
301.237	2419
301.293	1235
301.349	1891
301.405	927
301.461	1674
301.516	3209
301.572	2682
301.628	4456
301.684	4120
301.740	7130
301.796	12244
301.851	7045
301.907	12753
301.963	12471
302.019	19963
302.074	49855
302.130	48302
302.186	21624
302.242	8645
302.297	5260
302.353	6051
302.409	11799
302.464	10085
302.520	8585
302.576	17895
302.631	20847
302.687	11198
302.743	4057
302.798	2420
302.854	1837
302.910	1876
302.965	2633
303.021	5589
303.076	4972
303.132	7648
303.187	7922
303.243	3801
303.299	2045
303.354	1520
303.410	1270
303.465	957
303.521	77
303.576	1436
303.632	2149
303.687	5460
303.743	14893
303.798	13049
303.853	4311
303.909	2180
303.964	1385
304.020	4072
304.075	6138
304.130	5662
304.186	10464
304.241	11501
304.297	8261
304.352	4850
304.358	4586
304.407	2438
304.449	2687
304.463	2772
304.518	2463
304.539	2301
304.573	2004
304.629	2574
304.630	2616
304.684	4824
304.720	9545
304.739	11892
304.794	17898
304.811	15257
304.850	8412
304.902	3461
304.905	3169
304.960	1689
304.992	1760
305.015	1890
305.071	1811
305.083	1959
305.126	2302
305.173	1405
305.181	1282
305.236	1303
305.264	1311
305.292	1394
305.347	2965
305.354	3083
305.402	3634
305.445	2803
305.457	2581
305.512	3483
305.535	3673
305.567	3923
305.622	4841
305.626	4932
305.678	8299
305.716	15331
305.733	17642
305.788	21177
305.807	18863
305.843	15036
305.897	18555
305.898	18579
305.953	17986
305.988	12859
306.008	10214
306.063	6706
306.078	6154
306.118	4798
306.168	3326
306.173	3245
306.228	1855
306.259	1762
306.283	1761
306.338	1458
306.349	1443
306.393	1433
306.440	1812
306.448	1895
306.503	1896
306.530	2274
306.558	3829
306.613	9144
306.620	9911
306.668	16082
306.711	22900
306.723	23120
306.778	17466
306.801	13408
306.833	8782
306.888	4004
306.892	3730
306.943	2805
306.982	2826
306.997	2794
307.052	1991
307.072	1994
307.107	2213
307.162	2503
307.163	2502
307.217	3177
307.253	3697
307.272	3926
307.327	5421
307.343	5207
307.381	4302
307.434	4256
307.436	4478
307.491	10082
307.524	15135
307.546	16972
307.600	20251
307.614	19187
307.655	11675
307.704	4896
307.710	4736
307.765	4677
307.795	5484
307.819	6378
307.874	8561
307.885	8485
307.929	6462
307.975	5186
307.984	5313
308.038	6618
308.065	7847
308.093	14611
308.148	31307
308.156	34875
308.202	59088
308.246	76049
308.257	72804
308.312	38980
308.336	27480
308.366	23777
308.421	18278
308.426	17532
308.475	10576
308.517	6722
308.530	6456
308.585	5376
308.607	5216
308.639	5503
308.694	5806
308.697	5848
308.748	8966
308.787	12100
308.803	12207
308.857	10681
308.877	9839
308.912	9437
308.967	9230
308.967	9221
309.021	15226
309.058	19954
309.076	25055
309.130	43136
309.148	48887
309.185	75166
309.238	117280
309.239	118011
309.293	144674
309.328	146505
309.348	125123
309.402	60292
309.418	43279
309.457	32100
309.508	20769
309.511	20931
309.566	25296
309.598	29003
309.620	40879
309.674	73265
309.688	81242
309.729	74752
309.778	59869
309.783	58095
309.837	36013
309.868	24373
309.892	27855
309.946	37994
309.959	40915
310.001	54578
310.049	67761
310.055	65247
310.109	38337
310.139	23367
310.163	19073
310.218	11388
310.229	9933
310.272	7945
310.319	5972
310.326	5809
310.381	4501
310.409	3865
310.435	3719
310.489	3685
310.499	3617
310.543	3329
310.589	3442
310.598	3501
310.652	3533
310.679	3554
310.706	3532
310.760	3256
310.769	3218
310.814	2868
310.859	2642
310.868	2739
310.923	3162
310.948	3343
310.977	4033
311.031	5361
311.038	5538
311.085	5051
311.128	4381
311.139	4398
311.193	4511
311.218	4512
311.247	4306
311.301	3968
311.308	3892
311.356	3797
311.398	3892
311.410	3752
311.464	2848
311.488	2435
311.518	2874
311.572	3665
311.578	3742
311.626	6258
311.668	8513
311.680	8072
311.734	5727
311.758	4708
311.788	5048
311.842	5650
311.847	5692
311.896	6515
311.937	7193
311.950	7174
312.004	6980
312.027	6871
312.058	6202
312.112	4971
312.117	4834
312.165	4266
312.207	3762
312.297	5081
312.386	4742
312.476	5560
312.566	14275
312.656	6466
312.745	3150
312.835	3930
312.925	4919
313.015	4445
313.104	4630
313.194	3787
313.284	4667
313.374	7641
313.463	8099
313.553	4953
313.643	4588
313.732	4413
313.822	3743
313.912	5254
314.001	6554
314.091	6404
314.180	7457
314.270	7763
314.360	7128
314.449	7638
314.539	5397
314.628	4894
314.718	5291
314.808	6291
314.897	4650
314.987	5743
315.076	7781
315.166	9170
315.255	7105
315.345	7965
315.434	6351
315.524	5706
315.613	6888
315.703	10666
315.792	15247
315.881	37810
315.971	15264
316.060	13123
316.150	12378
316.239	10525
316.328	5615
316.418	6083
316.507	6009
316.597	8170
316.686	7236
316.775	7398
316.865	10265
316.954	5438
317.043	4877
317.133	5452
317.222	4455
317.311	4574
317.400	3790
317.490	7507
317.579	9850
317.668	6161
317.757	10690
317.847	21320
317.936	65131
318.025	34070
318.114	20685
318.203	15013
318.293	23845
318.382	59065
318.471	39529
318.560	41355
318.649	38548
318.738	11505
318.828	8764
318.917	9824
319.006	8414
319.095	16093
319.184	49214
319.273	36207
319.362	25673
319.451	8206
319.540	7285
319.629	15327
319.718	32676
319.807	14462
319.896	17359
319.985	61200
320.074	29038
320.163	8036
320.252	10318
320.341	7916
320.430	8171
320.519	15060
320.608	10068
320.697	7802
320.786	9788
320.875	10440
320.964	15092
321.053	20973
321.142	28533
321.230	34503
321.319	21723
321.408	51104
321.497	25097
321.586	23118
321.675	16211
321.764	17995
321.852	12569
321.941	27958
322.030	22231
322.119	17959
322.207	49673
322.296	24664
322.385	17190
322.474	23254
322.562	65049
322.651	35997
322.740	24375
322.829	32568
322.917	19157
323.006	16697
323.095	17514
323.183	10095
323.272	12963
323.361	19663
323.449	40379
323.538	17613
323.626	30792
323.715	21348
323.804	8784
323.892	24653
323.981	22225
324.069	7640
324.158	11316
324.246	13403
324.335	10864
324.424	20833
324.512	8236
324.601	11871
324.689	22116
324.778	45449
324.866	17437
324.954	6274
325.043	6175
325.131	8274
325.220	10763
325.308	12263
325.397	10985
325.485	9186
325.574	5428
325.662	4887
325.750	6022
325.839	5171
325.927	4372
326.015	6564
326.104	4870
326.192	7144
326.280	5203
326.369	5593
326.457	9046
326.545	17435
326.634	7724
326.722	4073
326.810	5399
326.898	5090
326.987	6599
327.075	14371
327.163	13826
327.251	7046
327.340	16710
327.428	29695
327.516	7696
327.604	5864
327.692	4249
327.781	4243
327.869	5646
327.957	4404
328.045	6854
328.133	3732
328.221	3562
328.309	5343
328.397	5209
328.485	6260
328.574	10046
328.662	34229
328.750	16587
328.838	5160
328.926	4645
329.014	4250
329.102	6489
329.190	12189
329.278	11770
329.366	3925
329.454	2747
329.542	3146
329.630	3425
329.718	4227
329.806	5529
329.893	5133
329.981	4036
330.069	5370
330.157	16921
330.245	60611
330.333	32904
330.421	8288
330.509	9358
330.597	38824
330.684	26860
330.772	7230
330.860	6325
330.948	7737
331.036	4648
331.123	3636
331.211	2931
331.299	4106
331.387	7619
331.475	14574
331.562	6009
331.650	3980
331.738	4448
331.825	4356
331.913	3710
332.001	4433
332.089	4195
332.176	6049
332.264	10431
332.352	10937
332.439	6128
332.527	5024
332.614	3245
332.702	4314
332.790	3538
332.877	8205
332.965	17193
333.052	11301
333.140	10057
333.228	30600
333.315	9240
333.403	5283
333.490	8360
333.578	12691
333.665	42227
333.753	19635
333.840	5807
333.928	6159
334.015	10094
334.103	15325
334.190	51089
334.278	18690
334.365	14088
334.452	14011
334.540	7707
334.627	7876
334.715	9491
334.802	16232
334.889	45136
334.977	64901
335.064	25391
335.151	10021
335.239	8232
335.326	9868
335.413	27175
335.501	44969
335.588	10123
335.675	8035
335.762	8467
335.850	12038
335.937	14738
336.024	27608
336.111	73661
336.199	59874
336.286	18966
336.373	9110
336.460	6382
336.547	6340
336.635	7823
336.722	6723
336.809	4887
336.896	9454
336.983	20258
337.070	42339
337.157	62532
337.245	29459
337.332	20197
337.419	5213
337.506	3858
337.593	5352
337.680	11737
337.767	39049
337.854	13730
337.941	14021
338.028	14378
338.115	7718
338.202	6465
338.289	9721
338.376	27755
338.463	12428
338.550	20622
338.637	26353
338.724	7262
338.811	9685
338.898	4338
338.984	3974
339.071	4971
339.158	7301
339.245	20113
339.332	14581
339.419	8154
339.506	8481
339.593	3433
339.679	5243
339.766	4779
339.853	6000
339.940	15800
340.027	6182
340.113	6707
340.200	8813
340.287	5938
340.374	7525
340.460	15904
340.547	7606
340.634	10091
340.720	36359
340.807	25032
340.894	5442
340.980	5245
341.067	4767
341.154	5924
341.240	10230
341.327	22778
341.414	10136
341.500	15245
341.587	6939
341.674	4823
341.760	13781
341.847	17552
341.933	7039
342.020	2584
342.106	3547
342.193	5333
342.279	11752
342.366	9154
342.452	15912
342.539	7701
342.625	17087
342.712	43631
342.798	19319
342.885	8239
342.971	2481
343.058	2767
343.144	4371
343.230	4436
343.317	6106
343.403	5800
343.490	3749
343.576	3196
343.662	4212
343.749	5750
343.835	6222
343.921	11822
344.008	57911
344.094	151871
344.180	38930
344.267	14976
344.353	40621
344.439	46502
344.525	21965
344.612	11818
344.698	8596
344.784	6061
344.870	4600
344.957	5307
345.043	8650
345.129	6638
345.215	15093
345.301	10734
345.387	7857
345.474	2669
345.560	3148
345.646	3176
345.732	4826
345.818	7305
345.904	7909
345.990	5372
346.076	4328
346.162	10376
346.249	6954
346.335	4693
346.421	4615
346.507	15278
346.593	63634
346.679	17709
346.765	5450
346.851	6850
346.937	6415
347.023	4493
347.108	6110
347.194	5127
347.280	6763
347.366	7563
347.452	20518
347.538	76618
347.624	57369
347.710	49042
347.796	7745
347.882	4409
347.967	3711
348.053	3776
348.139	3728
348.225	3526
348.311	4987
348.397	4699
348.482	6017
348.568	7153
348.654	4768
348.740	12167
348.825	12930
348.911	10716
348.997	29804
349.083	68231
349.168	13816
349.254	7208
349.340	9675
349.425	4318
349.511	6846
349.597	7625
349.682	13747
349.768	48529
349.854	26557
349.939	5338
350.025	4387
350.110	3970
350.196	4595
350.282	3982
350.367	2945
350.453	4375
350.538	5055
350.624	6967
350.709	7099
350.795	3717
350.880	4463
350.966	4706
351.051	7742
351.137	3909
351.222	6010
351.308	14627
351.393	49356
351.479	17177
351.564	7505
351.649	4192
351.735	4256
351.820	3426
351.906	4772
351.991	6620
352.076	25587
352.162	46590
352.247	9887
352.332	6821
352.418	17329
352.503	21443
352.588	65116
352.673	59883
352.759	13696
352.844	7282
352.929	7481
353.014	10879
353.100	6854
353.185	16084
353.270	18941
353.355	17660
353.441	6260
353.526	4783
353.611	13107
353.696	17538
353.781	10434
353.866	5301
353.952	5913
354.037	12551
354.122	31297
354.207	29029
354.292	12441
354.377	5177
354.462	5243
354.547	7531
354.632	7009
354.717	9197
354.802	19868
354.887	7498
354.972	3986
355.057	3594
355.142	2938
355.227	4973
355.312	8814
355.397	20143
355.482	49689
355.567	25825
355.652	17271
355.737	18451
355.822	51671
355.907	48258
355.991	8954
356.076	5005
356.161	4392
356.246	4545
356.331	5876
356.416	11499
356.501	68886
356.585	86369
356.670	16305
356.755	10168
356.840	13161
356.924	55521
357.009	192506
357.094	82238
357.179	19162
357.263	13342
357.348	11346
357.433	11370
357.517	11080
357.602	10473
357.687	7850
357.771	16400
357.856	57503
357.941	35861
358.025	37992
358.110	172636
358.195	95929
358.279	17502
358.364	12065
358.448	35446
358.533	106802
358.617	81297
358.702	79162
358.787	31215
358.871	17988
358.956	16326
359.040	5651
359.125	4645
359.209	6350
359.294	25201
359.378	52564
359.462	19026
359.547	9972
359.631	5263
359.716	4800
359.800	4330
359.885	7432
359.969	5430
360.053	4418
360.138	5053
360.222	8367
360.306	15808
360.391	13262
360.475	26613
360.559	66554
360.644	41266
360.728	30849
360.812	38641
360.896	117132
360.981	50786
361.065	29390
361.149	8585
361.233	7899
361.318	7371
361.402	8627
361.486	7254
361.570	5622
361.654	8145
361.739	17839
361.823	68499
361.907	121914
361.991	28960
362.075	14373
362.159	31009
362.243	26869
362.327	33811
362.411	55280
362.495	24369
362.580	10628
362.664	7370
362.748	8038
362.832	12502
362.916	21619
363.000	75606
363.084	176313
363.168	168420
363.252	44382
363.336	15464
363.420	17071
363.503	41659
363.587	53981
363.671	14196
363.755	11205
363.839	16862
363.923	9726
364.007	18236
364.091	20775
364.175	21543
364.258	82355
364.342	100283
364.426	194255
364.510	114357
364.594	34701
364.677	25567
364.761	97447
364.845	78855
364.929	31015
365.013	25244
365.096	18380
365.180	22820
365.264	16993
365.347	67092
365.431	31415
365.515	9860
365.598	7180
365.682	6548
365.766	7262
365.849	9054
365.933	7217
366.017	8198
366.100	5897
366.184	3929
366.267	4700
366.351	4949
366.435	5222
366.518	4219
366.602	4522
366.685	6123
366.769	5876
366.852	8584
366.936	16383
367.019	12262
367.103	6851
367.186	10487
367.270	4661
367.353	5036
367.436	6038
367.520	5550
367.603	7836
367.687	10901
367.770	20187
367.853	11781
367.937	31555
368.020	61069
368.104	16884
368.187	14347
368.270	24041
368.353	21778
368.437	16085
368.520	18578
368.603	20555
368.687	35593
368.770	81390
368.853	22677
368.936	16889
369.020	15599
369.103	7585
369.186	6780
369.269	8655
369.352	11786
369.436	17240
369.519	12406
369.602	8971
369.685	7566
369.768	7228
369.851	5871
369.934	3827
370.018	5975
370.101	15396
370.184	12869
370.267	9660
370.350	22320
370.433	29323
370.516	60033
370.599	78074
370.682	25733
370.765	45838
370.848	50558
370.931	89916
371.014	35560
371.097	9126
371.180	7866
371.263	5138
371.346	4364
371.429	6357
371.511	6067
371.594	10642
371.677	15885
371.760	14587
371.843	16754
371.926	62759
372.009	164833
372.091	62281
372.174	35151
372.257	82886
372.340	37632
372.423	23638
372.505	23123
372.588	13037
372.671	25857
372.754	88643
372.836	48333
372.919	22266
373.002	42089
373.085	20162
373.167	17753
373.250	39811
373.332	84672
373.415	96116
373.498	205959
373.580	85392
373.663	96703
373.746	148118
373.828	36981
373.911	16373
373.993	13421
374.076	36783
374.159	37026
374.241	22223
374.324	75788
374.406	56213
374.489	51760
374.571	171436
374.654	81317
374.736	32001
374.819	99665
374.901	139701
374.983	155386
375.066	32504
375.148	12317
375.231	30311
375.313	62445
375.395	28202
375.478	10012
375.560	7725
375.643	10292
375.725	25726
375.807	118544
375.890	89940
375.972	25768
376.054	17872
376.136	17020
376.219	11367
376.301	30656
376.383	110314
376.465	47455
376.548	29211
376.630	30100
376.712	94474
376.794	50676
376.877	8323
376.959	4339
377.041	6377
377.123	8110
377.205	9583
377.287	3918
377.369	4854
377.452	5151
377.534	5876
377.616	5668
377.698	5472
377.780	3743
377.862	6430
377.944	5595
378.026	3757
378.108	4343
378.190	4488
378.272	4363
378.354	4029
378.436	3401
378.518	5893
378.600	19916
378.682	20891
378.764	55652
378.846	47951
378.928	12668
379.010	22432
379.091	12470
379.173	6308
379.255	4913
379.337	7806
379.419	23067
379.501	80875
379.583	34950
379.664	8626
379.746	18598
379.828	55378
379.910	77476
379.991	71757
380.073	13811
380.155	8532
380.237	6708
380.318	6330
380.400	7514
380.482	12416
380.564	19390
380.645	21889
380.727	22834
380.809	13064
380.890	10268
380.972	7816
381.053	7592
381.135	8210
381.217	17438
381.298	60954
381.380	33321
381.461	20531
381.543	84210
381.624	121994
381.706	26159
381.787	15271
381.869	16798
381.951	35434
382.032	150388
382.113	109357
382.195	27547
382.276	20030
382.358	36781
382.439	92089
382.521	93161
382.602	151330
382.684	73382
382.765	127918
382.846	172015
382.928	319116
383.009	188253
383.090	101964
383.172	334982
383.253	546787
383.334	198557
383.416	152051
383.497	90327
383.578	48489
383.659	83539
383.741	265579
383.822	669084
383.903	398811
383.984	133884
384.066	187728
384.147	126485
384.228	31992
384.309	23800
384.390	20193
384.471	15774
384.553	15259
384.634	17416
384.715	20160
384.796	12200
384.877	13697
384.958	49821
385.039	69684
385.120	28970
385.201	12621
385.282	12375
385.363	11586
385.444	14225
385.525	26410
385.606	77798
385.687	68500
385.768	17064
385.849	18296
385.930	69509
386.011	135960
386.092	42363
386.173	12126
386.254	8593
386.335	8345
386.416	11432
386.496	35698
386.577	61964
386.658	21371
386.739	12424
386.820	9978
386.901	7170
386.981	9440
387.062	8222
387.143	13866
387.224	56245
387.304	58177
387.385	22805
387.466	15491
387.547	19745
387.627	18280
387.708	22502
387.789	91288
387.869	119896
387.950	34763
388.031	7262
388.111	5178
388.192	10371
388.273	14477
388.353	11730
388.434	9431
388.514	16299
388.595	72496
388.676	112730
388.756	59940
388.837	53489
388.917	37306
388.998	9136
389.078	8247
389.159	7258
389.239	6086
389.320	12275
389.400	10449
389.480	17204
389.561	57767
389.641	34247
389.722	10239
389.802	18419
389.883	21912
389.963	64231
390.043	40917
390.124	10639
390.204	21794
390.284	67537
390.365	43320
390.445	26222
390.525	71499
390.605	77100
390.686	38394
390.766	15505
390.846	8702
390.927	5391
391.007	7330
391.087	7563
391.167	11069
391.247	8093
391.328	8056
391.408	9667
391.488	8221
391.568	5287
391.648	9029
391.728	14423
391.808	12966
391.888	14160
391.969	30875
392.049	58369
392.129	24425
392.209	22397
392.289	68020
392.369	37891
392.449	22028
392.529	16847
392.609	16244
392.689	20270
392.769	63967
392.849	63526
392.929	36542
393.009	87620
393.089	84587
393.169	80399
393.248	206688
393.328	613680
393.408	709304
393.488	273031
393.568	89215
393.648	44372
393.728	26992
393.807	19824
393.887	16637
393.967	13011
394.047	13009
394.127	14319
394.206	14061
394.286	29608
394.366	158073
394.446	198585
394.525	41048
394.605	11369
394.685	11756
394.764	22876
394.844	43521
394.924	39308
395.003	15658
395.083	9388
395.163	8763
395.242	7794
395.322	8703
395.402	5327
395.481	7867
395.561	16572
395.640	56027
395.720	65572
395.799	55877
395.879	38961
395.958	14658
396.038	36956
396.117	200188
396.197	255405
396.276	65082
396.356	24545
396.435	22791
396.515	22747
396.594	33220
396.673	64717
396.753	195808
396.832	578632
396.912	505661
396.991	153137
397.070	47193
397.150	24751
397.229	18769
397.308	29836
397.388	63968
397.467	30388
397.546	10223
397.625	6659
397.705	11396
397.784	11778
397.863	7041
397.942	4740
398.022	4384
398.101	11646
398.180	40432
398.259	22510
398.338	8357
398.417	7509
398.497	4695
398.576	5359
398.655	4050
398.734	3984
398.813	3673
398.892	10907
398.971	42766
399.050	24704
399.129	4395
399.208	3196
399.287	4775
399.366	2506
399.445	2848
399.524	4030
399.603	2818
399.682	7343
399.761	17832
399.840	48562
399.919	41728
399.998	6747
400.077	2559
400.156	2364
400.235	5015
400.313	2575
400.392	3495
400.471	26098
400.550	52258
400.629	14050
400.708	5462
400.786	2572
400.865	7918
400.944	10169
401.023	8095
401.102	2316
401.180	2158
401.259	1702
401.338	2468
401.416	4416
401.495	4618
401.574	3631
401.652	2745
401.731	5662
401.810	5995
401.888	3173
401.967	2224
402.046	5135
402.124	5369
402.203	6238
402.281	4019
402.360	7376
402.438	12880
402.517	8263
402.596	3476
402.674	2898
402.753	2881
402.831	2659
402.910	4879
402.988	18324
403.066	84522
403.145	55189
403.223	23628
403.302	77526
403.380	59429
403.459	64649
403.537	26578
403.615	7859
403.694	2458
403.772	3311
403.850	1750
403.929	1471
404.007	2656
404.085	9000
404.164	15832
404.242	4787
404.320	3778
404.398	6957
404.477	18680
404.555	107000
404.633	107573
404.711	17714
404.789	5385
404.868	5703
404.946	3870
405.024	2021
405.102	1566
405.180	1712
405.258	1860
405.336	2031
405.415	2445
405.493	6878
405.571	9229
405.649	2912
405.727	2315
405.805	4545
405.883	5807
405.961	5320
406.039	3572
406.117	1436
406.195	5623
406.273	21001
406.351	100656
406.429	66289
406.507	9011
406.585	2865
406.663	4846
406.740	5073
406.818	5303
406.896	2993
406.974	3199
407.052	7280
407.130	54427
407.208	93243
407.285	18380
407.363	3508
407.441	2605
407.519	2101
407.596	3195
407.674	5536
407.752	9003
407.830	11772
407.907	9527
407.985	4758
408.063	2966
408.141	1133
408.218	4446
408.296	6422
408.373	5755
408.451	5035
408.529	3834
408.606	1450
408.684	1918
408.762	1280
408.839	1300
408.917	1699
408.994	2452
409.072	3490
409.149	4142
409.227	9654
409.304	15423
409.382	9822
409.459	11468
409.537	17944
409.614	14767
409.692	8572
409.769	8690
409.846	16835
409.924	24186
410.001	19963
410.079	10684
410.156	6534
410.233	5666
410.311	4344
410.388	4509
410.465	7181
410.543	8524
410.620	4992
410.697	3520
410.775	5579
410.852	3729
410.929	7243
411.006	11665
411.083	6893
411.161	20112
411.238	19554
411.315	5765
411.392	3083
411.469	8482
411.547	12689
411.624	5260
411.701	4426
411.778	3597
411.855	9201
411.932	5523
412.009	2515
412.086	2339
412.163	3254
412.240	3368
412.317	5386
412.394	5977
412.471	2698
412.548	1595
412.625	2034
412.702	3274
412.779	9127
412.856	8645
412.933	1326
413.010	2134
413.087	3718
413.164	27490
413.241	48033
413.318	11231
413.395	6605
413.471	11764
413.548	5118
413.625	2415
413.702	2429
413.779	3076
413.855	1006
413.932	-15
414.009	330
414.086	733
414.162	1741
414.239	3629
414.316	20884
414.393	62440
414.469	24711
414.546	3087
414.623	1311
414.699	1351
414.776	3290
414.853	1790
414.929	1468
415.006	1263
415.082	2258
415.159	1847
415.236	1666
415.312	1958
415.389	5542
415.465	8436
415.542	3982
415.618	1592
415.695	4927
415.771	3379
415.848	2833
415.924	2477
416.000	1020
416.077	969
416.153	-393
416.230	-131
416.306	1000
416.383	778
416.459	1010
416.535	483
416.612	1028
416.688	1325
416.764	1805
416.841	465
416.917	796
416.993	1642
417.069	1728
417.146	2704
417.222	4353
417.298	3392
417.374	1680
417.451	2229
417.527	4198
417.603	4814
417.679	2608
417.755	1750
417.831	189
417.908	1275
417.984	86
418.060	417
418.136	6306
418.212	10287
418.288	3275
418.364	1655
418.440	1037
418.516	4513
418.592	3094
418.668	10317
418.744	19284
418.820	15274
418.896	3978
418.972	1470
419.048	1793
419.124	8216
419.200	7269
419.276	1454
419.352	216
419.428	1538
419.504	1904
419.579	4067
419.655	2817
419.731	2678
419.807	10872
419.883	22633
419.959	15051
420.034	4695
420.110	6921
420.186	38090
420.262	33142
420.337	5726
420.413	3810
420.489	2462
420.565	2754
420.640	2094
420.716	4034
420.792	1780
420.867	2880
420.943	2981
421.019	6545
421.094	5837
421.170	3907
421.245	2941
421.321	4470
421.397	4544
421.472	5990
421.548	8472
421.623	11014
421.699	8845
421.774	7725
421.850	8417
421.925	13584
422.001	13245
422.076	12955
422.152	16042
422.227	24139
422.302	31424
422.378	44829
422.453	81682
422.529	174729
422.604	372173
422.679	449864
422.755	420121
422.830	234069
422.905	104160
422.981	58434
423.056	38291
423.131	27126
423.207	20528
423.282	17621
423.357	22593
423.432	16758
423.508	14475
423.583	25424
423.658	21310
423.733	8283
423.808	8590
423.883	8465
423.959	9295
424.034	10148
424.109	8887
424.184	4054
424.259	3816
424.334	3599
424.409	2594
424.484	3331
424.559	3640
424.634	3078
424.709	4636
424.784	4977
424.859	3564
424.934	5651
425.009	24697
425.084	48361
425.159	19672
425.234	3828
425.309	2360
425.384	14725
425.459	32960
425.534	9618
425.609	2098
425.683	1591
425.758	1596
425.833	2394
425.908	3350
425.983	12321
426.058	46088
426.132	21294
426.207	3221
426.282	3517
426.357	2705
426.431	2332
426.506	1186
426.581	1598
426.655	1578
426.730	2044
426.805	1667
426.879	2664
426.954	2745
427.029	5424
427.103	33088
427.178	95453
427.253	45495
427.327	5518
427.402	6034
427.476	26605
427.551	16011
427.625	3322
427.700	2182
427.774	1747
427.849	2514
427.923	710
427.998	1795
428.072	2428
428.147	7053
428.221	32424
428.296	122560
428.370	75123
428.444	9719
428.519	4665
428.593	8321
428.667	7658
428.742	8560
428.816	11765
428.890	62547
428.965	136963
429.039	44941
429.113	11563
429.188	5367
429.262	2253
429.336	5641
429.410	21521
429.485	14086
429.559	7197
429.633	5766
429.707	3243
429.781	10189
429.855	62932
429.930	124032
430.004	43091
430.078	37847
430.152	46042
430.226	135336
430.300	164026
430.374	30891
430.448	7433
430.522	11955
430.596	35562
430.670	32026
430.744	106195
430.818	179056
430.892	39771
430.966	6532
431.040	2963
431.114	1249
431.188	741
431.262	953
431.336	606
431.410	3488
431.484	11037
431.557	10809
431.631	2443
431.705	4315
431.779	17953
431.853	103101
431.927	84758
432.000	11553
432.074	1864
432.148	1943
432.222	822
432.295	1097
432.369	1237
432.443	2232
432.516	25590
432.590	89795
432.664	36994
432.737	3758
432.811	664
432.885	830
432.958	1172
433.032	881
433.106	-57
433.179	-61
433.253	854
433.326	1474
433.400	-405
433.473	-468
433.547	-302
433.620	444
433.694	4052
433.767	5021
433.841	26
433.914	527
433.988	913
434.061	838
434.134	858
434.208	494
434.281	-589
434.355	-110
434.428	936
434.501	698
434.575	173
434.648	-213
434.721	-168
434.795	-417
434.868	-644
434.941	-587
435.014	-279
435.088	200
435.161	3163
435.234	6865
435.307	9379
435.381	3925
435.454	3951
435.527	8829
435.600	8857
435.673	5664
435.746	2996
435.819	1881
435.892	1662
435.966	660
436.039	663
436.112	1463
436.185	-178
436.258	-171
436.331	-1085
436.404	-754
436.477	-522
436.550	-489
436.623	-359
436.696	296
436.769	65
436.842	642
436.915	284
436.987	1334
437.060	7
437.133	-350
437.206	-247
437.279	269
437.352	-572
437.425	-156
437.498	277
437.570	4858
437.643	6393
437.716	1623
437.789	473
437.861	6458
437.934	28519
438.007	13862
438.080	1126
438.152	1240
438.225	4604
438.298	33234
438.370	119869
438.443	65037
438.516	24635
438.588	4135
438.661	192
438.734	-122
438.806	1470
438.879	1488
438.951	4889
439.024	14435
439.096	3621
439.169	402
439.241	-84
439.314	-220
439.386	772
439.459	2445
439.531	9023
439.604	3501
439.676	375
439.749	-25
439.821	-455
439.893	72
439.966	-288
440.038	2275
440.110	4122
440.183	956
440.255	-502
440.327	2119
440.400	13014
440.472	74674
440.544	58740
440.617	8007
440.689	8074
440.761	11839
440.833	21204
440.905	14215
440.978	1095
441.050	-131
441.122	660
441.194	21
441.266	731
441.338	212
441.411	2973
441.483	24699
441.555	45190
441.627	9994
441.699	2375
441.771	2042
441.843	694
441.915	77
441.987	307
442.059	284
442.131	2076
442.203	3751
442.275	3153
442.347	4823
442.419	9026
442.491	52029
442.563	161681
442.635	71401
442.706	18984
442.778	14060
442.850	3585
442.922	2232
442.994	2473
443.066	3442
443.137	3777
443.209	3537
443.281	5685
443.353	14574
443.425	58871
443.496	239308
443.568	276118
443.640	112276
443.711	20512
443.783	7926
443.855	4176
443.926	2299
443.998	1850
444.070	1824
444.141	2943
444.213	6073
444.285	6380
444.356	3625
444.428	3491
444.499	1890
444.571	1100
444.642	835
444.714	2302
444.785	4280
444.857	3778
444.928	5529
445.000	3641
445.071	5367
445.143	7549
445.214	8719
445.285	12483
445.357	32030
445.428	127725
445.500	335175
445.571	239789
445.642	149090
445.714	44785
445.785	19423
445.856	6881
445.928	8478
445.999	9453
446.070	9402
446.141	6048
446.213	7592
446.284	3549
446.355	2120
446.426	218
446.497	1493
446.569	1402
446.640	4047
446.711	4851
446.782	482
446.853	49
446.924	1977
446.995	1639
447.066	1120
447.138	226
447.209	779
447.280	-755
447.351	-564
447.422	-414
447.493	589
447.564	1805
447.635	4283
447.706	1099
447.777	-755
447.847	-1214
447.918	-204
447.989	89
448.060	1504
448.131	3005
448.202	3943
448.273	4737
448.344	1216
448.414	-571
448.485	246
448.556	-550
448.627	-811
448.698	-44
448.768	-364
448.839	-466
448.910	886
448.981	2030
449.051	598
449.122	-640
449.193	-729
449.263	-871
449.334	-1128
449.405	406
449.475	5197
449.546	2739
449.616	2292
449.687	2264
449.758	290
449.828	-968
449.899	-75
449.969	-1033
450.040	-729
450.110	-305
450.181	520
450.251	-13
450.322	-738
450.392	80
450.463	-958
450.533	-817
450.604	372
450.674	-669
450.744	129
450.815	-478
450.885	-392
450.955	-374
451.026	-378
451.096	-794
451.166	-284
451.237	1218
451.307	6335
451.377	1719
451.447	55
451.518	-364
451.588	-657
451.658	-173
451.728	589
451.799	4707
451.869	5801
451.939	-95
452.009	-1385
452.079	-676
452.149	-216
452.219	194
452.289	6334
452.360	4325
452.430	-107
452.500	958
452.570	1738
452.640	5381
452.710	16634
452.780	22979
452.850	14195
452.920	14326
452.990	3875
453.060	2158
453.129	2886
453.199	2413
453.269	5621
453.339	16291
453.409	27004
453.479	23193
453.549	36176
453.619	39346
453.688	14145
453.758	1068
453.828	132
453.898	-884
453.968	-553
454.037	-553
454.087	-222
454.107	-93
454.168	-789
454.177	-900
454.247	-903
454.249	-896
454.316	-935
454.330	-821
454.386	-407
454.411	412
454.456	1682
454.492	3303
454.525	4716
454.574	2124
454.595	1007
454.655	-703
454.665	-988
454.734	-663
454.736	-594
454.804	1574
454.817	2268
454.873	4798
454.898	5498
454.943	6699
454.979	3673
455.013	918
455.060	852
455.082	912
455.141	501
455.152	386
455.221	3494
455.222	3563
455.291	6837
455.303	5946
455.360	1885
455.384	2014
455.430	2385
455.465	2088
455.499	1663
455.546	3588
455.569	4391
455.627	3655
455.638	3529
455.707	513
455.708	520
455.777	-280
455.789	-348
455.846	-533
455.869	-593
455.916	-764
455.950	-437
455.985	-141
456.031	-106
456.054	-100
456.112	137
456.124	172
456.193	237
456.193	225
456.262	-448
456.274	-336
456.332	315
456.355	262
456.401	22
456.436	47
456.470	65
456.516	11
456.540	-53
456.597	-167
456.609	-157
456.678	287
456.678	277
456.747	-207
456.759	-295
456.817	-588
456.840	-433
456.886	-141
456.920	-114
456.955	-100
457.001	-333
457.024	-429
457.082	678
457.093	905
457.162	1031
457.163	1045
457.232	1420
457.243	1266
457.301	488
457.324	252
457.370	85
457.405	400
457.439	491
457.485	229
457.508	141
457.566	782
457.577	1012
457.646	1461
457.647	1492
457.715	5178
457.727	5935
457.784	11510
457.808	16181
457.853	22617
457.889	28495
457.922	29963
457.969	17908
457.991	16324
458.050	19267
458.060	19881
458.129	36532
458.130	37088
458.198	46726
458.211	42283
458.267	21256
458.292	13390
458.336	5788
458.372	5206
458.405	7321
458.453	12048
458.474	16469
458.533	33667
458.543	35456
458.611	68681
458.614	69126
458.680	48820
458.694	38871
458.749	13971
458.775	8929
458.818	3859
458.855	2894
458.887	2189
458.936	1752
458.955	1646
459.016	1134
459.024	1058
459.093	1264
459.097	1278
459.162	1564
459.177	1715
459.230	2389
459.257	2615
459.299	3014
459.338	2857
459.368	2495
459.418	3566
459.437	3710
459.499	2449
459.505	2349
459.574	402
459.579	377
459.643	741
459.659	740
459.711	688
459.740	838
459.780	1215
459.820	1726
459.849	1508
459.900	1205
459.917	1406
459.981	1311
459.986	1260
460.054	868
460.061	888
460.123	1228
460.141	1274
460.191	2023
460.222	2538
460.260	2974
460.302	3766
460.328	3442
460.382	2177
460.397	2168
460.462	1484
460.465	1458
460.534	1121
460.543	1196
460.602	2829
460.623	3481
460.671	5624
460.703	7795
460.739	8325
460.783	8007
460.808	7020
460.864	2362
460.876	1929
460.944	1254
460.945	1246
461.013	1589
461.024	1550
461.081	1488
461.104	1736
461.150	1835
461.184	1754
461.218	1596
461.264	1299
461.286	1417
461.345	1862
461.355	1794
461.423	1288
461.425	1265
461.491	1235
461.505	1368
461.559	2430
461.585	2809
461.628	4767
461.665	7006
461.696	7871
461.745	9508
461.764	8474
461.825	3229
461.832	3183
461.901	2632
461.905	2667
461.969	2376
461.985	2300
462.037	2310
462.065	2112
462.105	1662
462.145	1369
462.173	2092
462.225	3478
462.241	3750
462.305	5560
462.310	5487
462.378	4184
462.385	3884
462.446	2468
462.465	2304
462.514	2445
462.545	2442
462.582	2312
462.625	2178
462.650	2102
462.705	1945
462.718	1964
462.785	1791
462.786	1799
462.854	2452
462.865	2568
462.922	3274
462.945	3683
462.990	3244
463.025	2498
463.058	2057
463.104	1575
463.126	1529
463.184	1500
463.194	1587
463.262	2162
463.264	2191
463.330	2023
463.344	1881
463.398	2398
463.424	2664
463.466	2281
463.504	2128
463.533	2164
463.583	1988
463.601	2186
463.663	2922
463.669	2971
463.737	3454
463.743	3513
463.805	5001
463.823	5409
463.873	6703
463.903	7646
463.940	8901
463.982	10297
464.008	8845
464.062	5103
464.076	4742
464.142	2693
464.144	2659
464.211	1961
464.221	1851
464.279	2071
464.301	2059
464.347	2170
464.381	2501
464.414	2688
464.461	2738
464.482	3117
464.540	4267
464.550	4270
464.617	4193
464.620	4190
464.685	4050
464.699	3951
464.753	3966
464.779	3952
464.820	3453
464.859	2981
464.888	2836
464.938	2663
464.956	3040
465.018	4359
465.023	4284
465.091	3070
465.098	2963
465.158	3191
465.177	3237
465.226	3331
465.257	3424
465.293	3517
465.336	3422
465.361	3865
465.416	5065
465.428	5232
465.495	6116
465.496	6144
465.563	8851
465.575	9332
465.631	11153
465.654	12068
465.698	8336
465.734	4763
465.765	4055
465.813	3025
465.833	3032
465.893	3367
465.900	3315
465.968	2618
465.972	2577
466.035	2746
466.052	2766
466.102	3026
466.131	3119
466.170	3108
466.210	3134
466.237	3065
466.290	2928
466.304	2962
466.369	3007
466.372	3034
466.439	3694
466.449	3773
466.506	3863
466.528	3897
466.573	5041
466.607	5893
466.641	8717
466.687	12610
466.708	14638
466.766	20322
466.775	18994
466.842	8683
466.845	8175
466.909	4682
466.925	3880
466.977	4138
467.004	4289
467.044	4223
467.083	4172
467.111	4280
467.163	4423
467.178	4464
467.242	4614
467.245	4644
467.312	5096
467.321	5148
467.379	4910
467.400	4807
467.446	5296
467.480	5634
467.559	4222
467.638	4163
467.717	4141
467.796	5607
467.875	5850
467.955	5832
468.034	6445
468.113	15456
468.192	23290
468.271	10625
468.350	6569
468.429	11799
468.508	14484
468.588	9510
468.667	5077
468.746	5454
468.825	5010
468.904	3829
468.983	5111
469.062	6735
469.141	8870
469.220	4355
469.299	4168
469.378	3307
469.456	4312
469.535	3939
469.614	3382
469.693	4499
469.772	6233
469.851	7140
469.930	6035
470.009	4280
470.088	5374
470.166	8817
470.245	15844
470.324	21717
470.403	11941
470.482	6964
470.560	5505
470.639	5568
470.718	6612
470.797	5609
470.875	6128
470.954	7706
471.033	7758
471.111	4643
471.190	2962
471.269	2843
471.347	3364
471.426	3431
471.505	3723
471.583	3964
471.662	4109
471.740	4131
471.819	3731
471.898	4180
471.976	3867
472.055	3523
472.133	3443
472.212	5018
472.290	4717
472.369	3707
472.447	3677
472.526	3004
472.604	4311
472.683	4316
472.761	5650
472.839	4175
472.918	4723
472.996	4339
473.075	3866
473.153	4819
473.231	4085
473.310	4914
473.388	5669
473.466	5094
473.545	4408
473.623	7635
473.701	8151
473.780	4832
473.858	3784
473.936	5545
474.014	4121
474.093	5694
474.171	5900
474.249	7627
474.327	6511
474.405	3385
474.484	4055
474.562	4270
474.640	3804
474.718	3891
474.796	4574
474.874	3898
474.952	3717
475.030	3348
475.108	4257
475.187	4557
475.265	5527
475.343	9946
475.421	13302
475.499	4368
475.577	4562
475.655	5378
475.733	8636
475.811	12544
475.889	12606
475.966	10572
476.044	4592
476.122	6655
476.200	10787
476.278	8731
476.356	4766
476.434	4314
476.512	6437
476.590	10710
476.667	9359
476.745	4376
476.823	4700
476.901	3182
476.979	3474
477.056	4045
477.134	3642
477.212	4265
477.290	4033
477.367	3214
477.445	3385
477.523	3096
477.601	3811
477.678	4530
477.756	4309
477.834	5093
477.911	4118
477.989	4635
478.066	4252
478.144	4479
478.222	6645
478.299	14184
478.377	15832
478.454	4605
478.532	3753
478.609	4007
478.687	6033
478.764	3631
478.842	3383
478.919	4759
478.997	4961
479.074	2566
479.152	4461
479.229	4971
479.307	3678
479.384	3475
479.461	3280
479.539	3544
479.616	4449
479.694	4464
479.771	3958
479.848	3829
479.926	3493
480.003	6382
480.080	3878
480.157	3500
480.235	3650
480.312	3637
480.389	4031
480.467	5890
480.544	6007
480.621	5504
480.698	4669
480.775	5207
480.853	4445
480.930	3616
481.007	4643
481.084	4030
481.161	3852
481.238	4320
481.315	3895
481.392	3070
481.470	3955
481.547	4298
481.624	3636
481.701	4462
481.778	3958
481.855	4821
481.932	6109
482.009	9817
482.086	8032
482.163	6068
482.240	9267
482.317	20825
482.393	19590
482.470	6188
482.547	4552
482.624	4259
482.701	5969
482.778	5221
482.855	4137
482.932	2971
483.009	3628
483.085	5252
483.162	7498
483.239	7555
483.316	5927
483.393	5953
483.469	4959
483.546	5393
483.623	3916
483.699	3685
483.776	3460
483.853	4587
483.930	4983
484.006	12847
484.083	21763
484.160	11319
484.236	9522
484.313	8725
484.389	7988
484.466	6741
484.543	5039
484.619	7688
484.696	10310
484.772	9581
484.849	7716
484.925	6163
485.002	6118
485.078	8185
485.155	9021
485.231	6276
485.308	4990
485.384	6186
485.461	6800
485.537	10813
485.614	15223
485.690	7345
485.766	6091
485.843	6546
485.919	11952
485.995	15550
486.072	7206
486.148	5239
486.224	5477
486.301	5200
486.377	7752
486.453	9910
486.530	8705
486.606	7767
486.682	7270
486.758	9931
486.835	12403
486.911	9878
486.987	17008
487.063	26793
487.139	40871
487.215	29173
487.292	12162
487.368	8707
487.444	10165
487.520	17055
487.596	19684
487.672	29711
487.748	111193
487.824	205783
487.900	72888
487.976	15524
488.052	12202
488.128	17339
488.204	13780
488.280	8535
488.356	7839
488.432	13030
488.508	23527
488.584	11728
488.660	7602
488.736	6904
488.812	7706
488.888	9237
488.964	13386
489.039	34594
489.115	66463
489.191	46023
489.267	7392
489.343	6448
489.418	5405
489.494	4963
489.570	3522
489.646	6117
489.722	5292
489.797	5701
489.873	6445
489.949	15339
490.024	17101
490.100	6130
490.176	5771
490.251	8473
490.327	12547
490.403	7825
490.478	5281
490.554	4871
490.629	4785
490.705	5050
490.781	5377
490.856	5295
490.932	6643
491.007	7583
491.083	6171
491.158	5179
491.234	6079
491.309	12980
491.385	15042
491.460	5543
491.536	6763
491.611	6051
491.686	6613
491.762	10397
491.837	23273
491.913	44352
491.988	57884
492.063	89530
492.139	24195
492.214	9316
492.289	5377
492.365	4761
492.440	7039
492.515	6504
492.590	5662
492.666	4402
492.741	6023
492.816	8102
492.891	5599
492.967	5181
493.042	4618
493.117	4294
493.192	5412
493.267	5873
493.342	7849
493.418	10016
493.493	5597
493.568	4189
493.643	4852
493.718	5665
493.793	8624
493.868	12710
493.943	9830
494.018	6364
494.093	4834
494.168	5261
494.243	3680
494.318	3863
494.393	4148
494.468	4504
494.543	5038
494.618	5730
494.693	5101
494.768	4585
494.842	4850
494.917	4601
494.992	4430
495.067	4836
495.142	3825
495.217	4876
495.292	5011
495.366	6120
495.441	7652
495.516	10334
495.591	14268
495.665	48634
495.740	145415
495.815	84941
495.890	9503
495.964	5867
496.039	6926
496.114	6614
496.188	6114
496.263	5938
496.338	5468
496.412	5649
496.487	7101
496.561	8042
496.636	9842
496.710	5996
496.785	7255
496.860	7422
496.934	6678
497.009	6831
497.083	6437
497.158	5753
497.232	7011
497.307	8894
497.381	7986
497.455	8157
497.530	9540
497.604	7882
497.679	7588
497.753	10123
497.827	13092
497.902	13514
497.976	14481
498.050	26799
498.125	117218
498.199	174078
498.273	35280
498.348	18371
498.422	14602
498.496	13214
498.570	14719
498.645	8982
498.719	6786
498.793	9705
498.867	13483
498.941	18027
499.016	39812
499.090	141470
499.164	85463
499.238	9416
499.312	7834
499.386	9213
499.460	10379
499.534	7650
499.609	10091
499.683	13243
499.757	12439
499.831	17503
499.905	77632
499.979	112705
500.053	18545
500.127	15960
500.201	14771
500.275	9390
500.349	7591
500.422	9012
500.496	13378
500.570	28659
500.644	54794
500.718	102051
500.792	41829
500.866	7640
500.940	8655
501.013	7864
501.087	7344
501.161	15440
501.235	20607
501.309	23552
501.382	70480
501.456	93192
501.530	21544
501.603	24566
501.677	16037
501.751	5294
501.825	6449
501.898	9377
501.972	27574
502.046	27971
502.119	7227
502.193	12748
502.266	32429
502.340	23459
502.413	13365
502.487	29170
502.561	19501
502.634	7891
502.708	7021
502.781	6571
502.855	5716
502.928	3892
503.002	4283
503.075	4267
503.149	3759
503.222	3632
503.295	4464
503.369	6432
503.442	6352
503.516	18052
503.589	53191
503.662	46558
503.736	14539
503.809	25876
503.882	28797
503.956	33928
504.029	50312
504.102	65851
504.175	121177
504.249	46140
504.322	13882
504.395	9038
504.468	7058
504.542	4847
504.615	4155
504.688	4259
504.761	4074
504.834	6135
504.907	7062
504.980	15203
505.053	8095
505.127	7186
505.200	11758
505.273	6158
505.346	4914
505.419	3297
505.492	3862
505.565	3967
505.638	3047
505.711	2730
505.784	3336
505.857	2554
505.930	3268
506.003	2995
506.076	4447
506.149	4717
506.221	4898
506.294	5861
506.367	8580
506.440	39862
506.513	37666
506.586	7457
506.659	4223
506.731	4092
506.804	4970
506.877	7363
506.950	5719
507.022	4429
507.095	3417
507.168	6469
507.241	4191
507.313	3462
507.386	3492
507.459	7803
507.531	4979
507.604	3127
507.677	4160
507.749	2367
507.822	4932
507.894	8140
507.967	10048
508.040	5328
508.112	4850
508.185	5307
508.257	3630
508.330	9622
508.402	6144
508.475	3508
508.547	4628
508.620	4215
508.692	6801
508.765	5632
508.837	2121
508.909	3081
508.982	3518
509.054	3980
509.127	4422
509.199	3437
509.271	2410
509.344	2994
509.416	3266
509.488	3016
509.560	3522
509.633	3244
509.705	5747
509.777	4663
509.849	7349
509.922	6182
509.994	3360
510.066	3376
510.138	2035
510.210	5213
510.283	3568
510.355	4474
510.427	4075
510.499	4056
510.571	5565
510.643	4613
510.715	9078
510.787	8517
510.859	5385
510.931	5370
511.003	8626
511.076	10894
511.148	3725
511.219	1940
511.291	4986
511.363	7285
511.435	4338
511.507	3157
511.579	3868
511.651	3783
511.723	3520
511.795	2705
511.867	3525
511.939	2901
512.010	6985
512.082	8130
512.154	3612
512.226	3742
512.298	4859
512.369	7482
512.441	6161
512.513	7706
512.585	4706
512.656	4953
512.728	6206
512.800	4892
512.871	4295
512.943	4704
513.015	3217
513.086	4403
513.158	5268
513.230	4397
513.301	7062
513.373	13525
513.444	5579
513.516	4209
513.588	4767
513.659	4917
513.731	7038
513.802	5991
513.874	13176
513.945	31494
514.016	12572
514.088	4257
514.159	4381
514.231	8182
514.302	9025
514.374	6688
514.445	4117
514.516	9408
514.588	9292
514.659	5038
514.730	8065
514.802	9962
514.873	4250
514.944	7235
515.016	4361
515.087	7253
515.158	6843
515.229	11280
515.301	5122
515.372	6496
515.443	4436
515.514	3708
515.585	3150
515.656	4127
515.728	4850
515.799	3976
515.870	5057
515.941	5437
516.012	4746
516.083	6685
516.154	7469
516.225	13917
516.296	13942
516.367	12102
516.438	15821
516.509	22082
516.580	29476
516.651	83951
516.722	394101
516.793	277343
516.864	37034
516.935	30799
517.006	33595
517.077	43902
517.148	87779
517.219	347919
517.289	799371
517.360	189122
517.431	46503
517.502	13953
517.573	12623
517.643	10440
517.714	10067
517.785	11599
517.856	12820
517.926	18327
517.997	23731
518.068	32290
518.138	45429
518.209	63426
518.280	203748
518.350	943641
518.421	587608
518.492	63336
518.562	26813
518.633	22670
518.703	22267
518.774	38420
518.845	112218
518.915	161125
518.986	44589
519.056	19684
519.127	25332
519.197	34513
519.268	57793
519.338	49740
519.408	11639
519.479	16176
519.549	14481
519.620	8886
519.690	6427
519.760	5511
519.831	6373
519.901	6618
519.971	5525
520.042	6312
520.112	6077
520.182	8268
520.253	11024
520.323	7961
520.393	9491
520.463	22520
520.534	11388
520.604	30846
520.674	16296
520.744	9278
520.814	26628
520.885	36804
520.955	14143
521.025	52491
521.095	39838
521.165	6483
521.235	5116
521.305	4730
521.375	4764
521.445	5909
521.515	8527
521.585	10361
521.655	11782
521.725	7957
521.795	7395
521.865	3864
521.935	7112
522.005	6636
522.075	4144
522.145	5057
522.215	4893
522.285	7212
522.355	7497
522.424	14890
522.494	16020
522.564	11547
522.634	18421
522.704	74566
522.774	48412
522.843	7902
522.913	6638
522.983	7633
523.053	7332
523.122	7099
523.192	7590
523.262	31366
523.331	49027
523.401	9298
523.471	4098
523.540	4981
523.610	3667
523.680	4557
523.749	4086
523.819	4576
523.888	5327
523.958	4551
524.027	4747
524.097	5224
524.166	5076
524.236	4520
524.305	6578
524.375	4321
524.444	3379
524.514	5473
524.583	3789
524.653	4069
524.722	6762
524.791	5028
524.861	5189
524.930	4432
524.999	4555
525.069	7542
525.138	5778
525.207	6107
525.277	5704
525.346	5561
525.415	5847
525.484	6275
525.554	6556
525.623	8013
525.692	7368
525.761	9555
525.830	11495
525.900	16241
525.969	21570
526.038	39143
526.107	67641
526.176	247070
526.245	271604
526.314	77363
526.383	107603
526.452	203488
526.522	241590
526.591	366139
526.660	84053
526.729	42160
526.797	38661
526.867	58369
526.935	235951
527.004	569935
527.073	479484
527.142	50862
527.211	15668
527.280	12057
527.349	12295
527.418	5547
527.487	6520
527.555	4366
527.624	5185
527.693	4156
527.762	5674
527.831	4342
527.899	4492
527.968	4972
528.037	4732
528.106	5622
528.174	11940
528.243	9192
528.312	9513
528.380	19268
528.449	6782
528.518	5216
528.586	2050
528.655	4635
528.723	3098
528.792	3227
528.861	3842
528.929	3037
528.998	4726
529.066	3903
529.135	3903
529.203	4136
529.272	3569
529.340	6535
529.409	6657
529.477	4176
529.545	4425
529.614	7482
529.682	6043
529.751	8034
529.819	9610
529.887	6816
529.956	5113
530.024	6041
530.092	4451
530.161	6937
530.229	10369
530.297	6917
530.365	6016
530.434	5595
530.502	5280
530.570	5559
530.638	3427
530.707	6798
530.775	6509
530.843	5250
530.911	4964
530.979	5039
531.047	4847
531.115	6225
531.183	4820
531.252	6123
531.320	5397
531.388	5253
531.456	5568
531.524	4203
531.592	6168
531.660	7862
531.728	5631
531.796	5626
531.864	5494
531.932	5530
532.000	5498
532.067	6573
532.135	7035
532.203	8362
532.271	7709
532.339	12077
532.407	32217
532.475	28042
532.542	12364
532.610	12335
532.678	13738
532.746	44644
532.814	173395
532.881	71911
532.949	12048
533.017	7766
533.084	7532
533.152	6358
533.220	5965
533.287	7378
533.355	6745
533.423	6337
533.490	6191
533.558	5781
533.625	6860
533.693	6268
533.761	6863
533.828	6876
533.896	6236
533.963	11779
534.031	15644
534.098	22712
534.166	15841
534.233	6994
534.300	8673
534.368	8019
534.435	6887
534.503	9147
534.570	11134
534.637	11504
534.705	12102
534.772	14636
534.840	20500
534.907	87986
534.974	195390
535.041	32894
535.109	10308
535.176	7713
535.243	7349
535.310	7392
535.378	7367
535.445	6904
535.512	6463
535.579	6986
535.646	5509
535.714	6950
535.781	7042
535.848	7362
535.915	6720
535.982	6176
536.049	6450
536.116	7849
536.183	6386
536.250	6196
536.317	7217
536.384	7758
536.451	11067
536.518	13386
536.585	9739
536.652	10389
536.719	15338
536.786	14760
536.853	10035
536.920	13163
536.987	21340
537.053	20161
537.120	65796
537.187	101625
537.254	14211
537.321	8395
537.388	9067
537.454	7044
537.521	6087
537.588	6005
537.654	7467
537.721	6844
537.788	9033
537.855	7418
537.921	6594
537.988	7729
538.055	7674
538.121	6158
538.188	7115
538.254	9723
538.321	19869
538.388	17307
538.454	7975
538.521	8032
538.587	7258
538.654	7793
538.720	7065
538.787	7705
538.853	7551
538.920	8551
538.986	7949
539.053	7374
539.119	8182
539.185	8549
539.252	8913
539.318	14055
539.385	12915
539.451	9160
539.517	10145
539.583	10952
539.650	17763
539.716	63467
539.782	31704
539.849	8798
539.915	8793
539.981	7693
540.047	9774
540.114	9612
540.180	9884
540.246	8409
540.312	10983
540.378	18788
540.444	25891
540.510	20493
540.576	70272
540.643	39876
540.709	8626
540.775	7881
540.841	6939
540.907	9243
540.973	12939
541.039	12575
541.105	14376
541.171	8396
541.237	7347
541.303	8097
541.369	10247
541.435	10301
541.500	17809
541.566	15931
541.632	7896
541.698	7355
541.764	8096
541.830	6760
541.896	6771
541.961	7560
542.027	7987
542.093	8069
542.159	8866
542.224	7533
542.290	10906
542.356	15963
542.421	25481
542.487	12738
542.553	8900
542.618	7651
542.684	9179
542.750	8925
542.815	10764
542.881	14054
542.947	50853
543.012	65798
543.078	11148
543.143	7852
543.209	8794
543.274	8134
543.340	10251
543.405	17706
543.471	44422
543.536	14782
543.602	7805
543.667	6388
543.732	8080
543.798	6497
543.863	7525
543.928	6874
543.994	5636
544.059	7692
544.124	7818
544.190	7865
544.255	8914
544.320	8791
544.386	8497
544.451	11516
544.516	13805
544.581	12199
544.646	27451
544.712	73702
544.777	20872
544.842	9366
544.907	9009
544.972	8813
545.037	8806
545.102	9778
545.168	9237
545.233	10738
545.298	11514
545.363	11440
545.428	12940
545.493	19617
545.558	51137
545.623	32489
545.688	10297
545.753	10357
545.818	9717
545.883	10638
545.947	10629
546.012	11432
546.077	12148
546.142	13083
546.207	12480
546.272	14203
546.337	17482
546.401	14717
546.466	12613
546.531	13115
546.596	14781
546.661	16248
546.725	16555
546.790	15615
546.855	16881
546.919	16859
546.984	21040
547.049	22273
547.113	25735
547.178	25886
547.243	30153
547.307	35511
547.372	38871
547.436	41583
547.501	39979
547.565	43770
547.630	43387
547.695	42657
547.759	39652
547.823	39181
547.888	39853
547.952	40487
548.017	41081
548.081	43263
548.146	45283
548.210	45928
548.274	46424
548.339	47570
548.403	44614
548.468	39732
548.532	39697
548.596	39242
548.660	39567
548.725	42832
548.789	48826
548.853	48860
548.917	44161
548.982	45525
549.046	43405
549.110	36714
549.174	35681
549.238	39286
549.303	45325
549.367	48031
549.431	46225
549.495	42702
549.559	41095
549.623	48025
549.687	55382
549.751	57873
549.815	61751
549.879	64988
549.943	59686
550.007	63832
550.071	63892
550.135	62557
550.199	56401
550.263	53271
550.327	51030
550.391	50405
550.455	56092
550.519	58845
550.582	61609
550.646	72821
550.710	80640
550.774	71906
550.838	71592
550.901	73853
550.965	77827
551.029	81164
551.093	85699
551.156	93894
551.220	109269
551.284	146200
551.347	113336
551.411	90209
551.475	91259
551.538	78717
551.602	74304
551.666	67441
551.729	63318
551.793	60946
551.856	60162
551.920	58017
551.983	58855
552.047	58489
552.110	59254
552.174	57239
552.237	59144
552.301	57861
552.364	54398
552.428	52492
552.491	52503
552.554	55473
552.618	55274
552.681	58761
552.745	57599
552.808	69872
552.871	93320
552.934	70679
552.998	56668
553.061	54198
553.124	53750
553.187	49616
553.251	52438
553.314	53503
553.377	52422
553.440	54491
553.503	58108
553.567	60186
553.630	56508
553.693	55123
553.756	54568
553.819	53178
553.882	51337
553.945	50463
554.008	51401
554.071	50008
554.134	52859
554.197	50508
554.260	47026
554.323	49374
554.386	48735
554.449	51462
554.512	53038
554.575	49236
554.638	49927
554.701	48211
554.764	48349
554.827	45871
554.889	45226
554.952	42532
555.015	39402
555.078	41785
555.141	42735
555.203	40768
555.266	40741
555.329	41723
555.391	39210
555.454	40135
555.517	38343
555.580	36535
555.642	35005
555.705	34213
555.768	34054
555.830	34118
555.893	31661
555.955	30699
556.018	31616
556.080	31235
556.143	31530
556.206	31998
556.268	31326
556.330	31193
556.393	31084
556.455	31113
556.518	30952
556.580	31928
556.643	28199
556.705	27456
556.767	26563
556.830	27366
556.892	26953
556.955	31783
557.017	29859
557.079	25972
557.142	24382
557.204	24441
557.266	34883
557.328	35849
557.391	22395
557.453	20788
557.515	21404
557.577	23198
557.639	25488
557.701	22079
557.764	22537
557.826	23683
557.888	25448
557.950	26578
558.012	29357
558.074	33884
558.136	62364
558.198	206687
558.260	114946
558.322	31100
558.384	30524
558.446	34255
558.508	39202
558.570	46384
558.632	60790
558.694	86223
558.756	97267
558.818	232997
558.880	789012
558.942	388303
559.003	214515
559.065	155421
559.127	47690
559.189	44927
559.251	46920
559.312	59363
559.374	121065
559.436	485574
559.498	396477
559.559	61300
559.621	45405
559.683	47052
559.744	65802
559.806	194927
559.868	458023
559.929	124868
559.991	46028
560.052	57911
560.114	178930
560.176	170665
560.237	88922
560.299	211570
560.360	68009
560.422	19619
560.483	16746
560.545	14064
560.606	13730
560.667	12241
560.729	12081
560.790	11932
560.852	11643
560.913	11739
560.974	10476
561.036	11235
561.097	11087
561.158	11074
561.220	12416
561.281	12042
561.342	11422
561.403	12710
561.465	14373
561.526	27241
561.587	47130
561.648	17180
561.709	11547
561.771	10447
561.832	10243
561.893	10343
561.954	10076
562.015	10101
562.076	9846
562.137	9500
562.198	10023
562.259	11308
562.320	10011
562.381	10772
562.442	15797
562.503	14910
562.564	9610
562.625	9223
562.686	9903
562.747	11786
562.808	12022
562.869	9023
562.930	10003
562.991	10459
563.051	9543
563.112	9571
563.173	9318
563.234	8678
563.294	9050
563.355	9070
563.416	9816
563.477	8490
563.537	8887
563.598	9194
563.659	9032
563.720	8385
563.780	9816
563.841	9283
563.901	9661
563.962	8264
564.023	8552
564.083	8558
564.144	8154
564.204	8832
564.265	8368
564.325	8913
564.386	11257
564.446	13814
564.507	9090
564.567	8569
564.628	8710
564.688	8264
564.749	7643
564.809	8808
564.869	10738
564.930	7832
564.990	8595
565.050	8092
565.111	8089
565.171	7679
565.231	7451
565.292	9006
565.352	7530
565.412	8023
565.472	8477
565.532	9642
565.593	8069
565.653	7943
565.713	9026
565.773	10686
565.833	9462
565.893	14860
565.953	9113
566.013	8436
566.074	7521
566.134	10076
566.194	11753
566.254	14825
566.314	10630
566.374	8504
566.434	8706
566.494	9160
566.554	7670
566.614	8715
566.673	8264
566.733	8596
566.793	8810
566.853	9538
566.913	9571
566.973	9880
567.033	9965
567.092	11413
567.152	10328
567.212	9658
567.272	8942
567.331	9452
567.391	9046
567.451	10669
567.511	11050
567.570	11684
567.630	9809
567.690	9135
567.749	8906
567.809	8224
567.868	9713
567.928	9321
567.988	10945
568.047	11220
568.107	11456
568.166	13584
568.226	18148
568.285	26144
568.345	22892
568.404	17644
568.464	14225
568.523	13527
568.582	13532
568.642	15426
568.701	17773
568.761	22859
568.820	37011
568.879	40450
568.939	27903
568.998	20041
569.057	15419
569.116	12655
569.176	11945
569.235	10715
569.294	10168
569.353	9551
569.413	10560
569.472	9081
569.531	8763
569.590	8580
569.649	8361
569.708	8208
569.767	9476
569.827	12285
569.886	13031
569.945	8831
570.004	8853
570.063	8321
570.122	8976
570.181	8605
570.240	9377
570.299	10090
570.358	13322
570.417	9404
570.475	8135
570.534	9120
570.593	9364
570.652	9646
570.711	11042
570.770	9017
570.829	8695
570.887	9332
570.946	11095
571.005	8825
571.064	8339
571.122	11262
571.181	10776
571.240	8697
571.299	8223
571.357	7718
571.416	8420
571.475	7942
571.533	8747
571.592	7878
571.650	8828
571.709	8537
571.768	8254
571.826	8710
571.885	7859
571.943	7753
572.002	7135
572.060	7663
572.119	6936
572.177	8198
572.236	7589
572.294	7578
572.352	7756
572.411	8381
572.469	7602
572.528	6972
572.586	7558
572.644	8994
572.703	14520
572.761	10929
572.819	6944
572.877	7738
572.936	7229
572.994	6944
573.052	6997
573.110	8332
573.169	8121
573.227	6995
573.285	6682
573.343	6228
573.401	7418
573.459	7631
573.517	6999
573.576	6928
573.634	6101
573.692	8030
573.750	8455
573.808	6302
573.866	7260
573.924	7742
573.982	7995
574.040	6223
574.098	6207
574.155	6742
574.213	6641
574.271	6930
574.329	7612
574.387	7125
574.445	5396
574.503	6532
574.560	6333
574.618	6323
574.676	7304
574.734	6033
574.792	6382
574.849	6622
574.907	6753
574.965	6083
575.022	4534
575.080	5569
575.138	6247
575.195	5773
575.253	5664
575.311	6545
575.368	5458
575.426	5553
575.483	5307
575.541	5549
575.598	5355
575.656	5470
575.713	6691
575.771	5862
575.828	6277
575.886	5525
575.943	5879
576.001	5460
576.058	4908
576.115	6676
576.173	6011
576.230	7141
576.287	8731
576.345	8168
576.402	5771
576.459	6751
576.517	5368
576.574	6328
576.631	6802
576.688	5275
576.746	5241
576.803	5353
576.860	5057
576.917	6241
576.974	5387
577.031	5655
577.089	5308
577.146	5414
577.203	5622
577.260	6663
577.317	5976
577.374	5591
577.431	5896
577.488	6025
577.545	5342
577.602	5523
577.659	6313
577.716	5862
577.773	4987
577.830	4881
577.886	4918
577.943	5239
578.000	4998
578.057	5783
578.114	5871
578.171	5430
578.227	5719
578.284	5290
578.341	5026
578.398	5475
578.454	7034
578.511	5799
578.568	6173
578.625	6329
578.681	5476
578.738	5295
578.794	5376
578.851	5277
578.908	5657
578.964	5920
579.021	7375
579.077	5396
579.134	5455
579.190	5868
579.247	5574
579.303	5531
579.360	4631
579.416	5396
579.473	4855
579.529	4733
579.586	6051
579.642	6134
579.698	5405
579.755	5433
579.811	5645
579.867	5473
579.924	5402
579.980	4806
580.036	5318
580.093	6113
580.149	6179
580.205	5736
580.261	6375
580.317	5597
580.374	6094
580.430	6247
580.486	7025
580.542	5570
580.598	5424
580.619	5894
580.654	6711
580.692	6463
580.710	6338
580.765	6511
580.767	6516
580.823	6098
580.838	6157
580.879	6294
580.911	6636
580.935	6902
580.984	6176
580.991	6072
581.047	6183
581.057	6272
581.103	6713
581.130	6510
581.159	6260
581.203	6620
581.215	6724
581.270	6128
581.276	6087
581.326	5690
581.349	5817
581.382	5959
581.422	6284
581.438	6424
581.494	6308
581.494	6314
581.550	6838
581.567	7032
581.606	7331
581.640	7311
581.661	7345
581.713	7473
581.717	7469
581.773	6970
581.786	6951
581.829	7024
581.859	7283
581.885	7489
581.932	7186
581.940	7122
581.996	7536
582.004	7539
582.052	7451
582.077	7343
582.107	7283
582.150	7481
582.163	7509
582.219	7032
582.223	7109
582.274	8104
582.296	7958
582.330	7639
582.368	7658
582.386	7726
582.441	7686
582.441	7682
582.497	7577
582.514	7715
582.552	8151
582.587	7559
582.608	7252
582.659	7925
582.663	7956
582.719	8541
582.732	8544
582.774	8652
582.805	8720
582.830	8847
582.877	8954
582.885	8914
582.941	7817
582.950	7943
582.996	9018
583.023	9147
583.052	9095
583.095	9923
583.107	10181
583.162	9577
583.168	9632
583.218	9605
583.240	9118
583.273	8759
583.313	9536
583.328	9769
583.384	9400
583.385	9398
583.439	9284
583.458	9023
583.494	8649
583.531	8795
583.549	8892
583.603	9102
583.605	9104
583.660	9540
583.676	9338
583.715	8902
583.748	9325
583.770	9638
583.820	9750
583.825	9740
583.881	9566
583.893	9454
583.936	9307
583.965	9518
583.991	9641
584.038	9926
584.046	9984
584.101	9644
584.110	9782
584.156	10822
584.183	10487
584.211	9786
584.255	9791
584.266	9909
584.321	10834
584.328	10802
584.376	10404
584.400	10717
584.431	11179
584.472	11304
584.486	11397
584.541	12357
584.545	12367
584.596	12553
584.617	12429
584.651	12128
584.689	12052
584.706	12172
584.761	12971
584.762	12962
584.816	12741
584.834	12980
584.871	13764
584.906	14083
584.926	14121
584.978	14298
584.980	14346
585.035	15277
585.051	15652
585.090	16427
585.123	17422
585.145	18260
585.195	19360
585.200	19512
585.254	22175
585.267	22783
585.309	25083
585.340	26733
585.364	28226
585.412	31924
585.419	32558
585.473	37816
585.484	39012
585.528	46604
585.556	54020
585.583	72960
585.628	116111
585.637	135887
585.692	287670
585.700	320332
585.747	460259
585.772	434506
585.801	294830
585.845	99114
585.856	76674
585.910	38300
585.917	34498
585.965	29034
585.989	26610
586.019	24781
586.061	22750
586.074	22474
586.128	22173
586.133	22096
586.183	21994
586.205	21942
586.237	21424
586.277	20580
586.292	20686
586.346	21354
586.349	21335
586.401	20833
586.421	20856
586.455	21610
586.493	22250
586.509	22689
586.564	24126
586.565	24149
586.618	28881
586.637	29995
586.672	30290
586.709	29195
586.727	29115
586.781	30710
586.781	30759
586.835	26375
586.853	25252
586.889	24538
586.925	23884
586.944	23682
586.996	23448
586.998	23525
587.052	24276
587.068	24548
587.106	25111
587.140	25103
587.161	25129
587.212	25732
587.215	25853
587.269	26704
587.284	26872
587.323	27199
587.356	27590
587.377	28138
587.427	29195
587.431	29335
587.485	30139
587.499	30185
587.539	30552
587.571	31321
587.593	32262
587.643	33651
587.648	33797
587.702	34185
587.715	34253
587.755	35819
587.786	37143
587.810	37857
587.858	38474
587.864	38777
587.917	41173
587.930	41592
587.971	43611
588.001	45164
588.025	46720
588.073	49097
588.079	49703
588.133	54967
588.145	55909
588.187	60533
588.217	63589
588.241	66832
588.288	73639
588.295	75120
588.348	86310
588.360	88469
588.402	98116
588.431	104746
588.456	112386
588.503	127688
588.510	130720
588.564	154013
588.575	158822
588.617	184000
588.646	200762
588.671	225209
588.718	274187
588.725	289831
588.778	414085
588.789	441721
588.832	693746
588.861	876577
588.886	1142982
588.932	1674678
588.939	1708385
588.993	1873986
589.004	1882888
589.047	1494929
589.075	1200271
589.100	946147
589.147	502906
589.154	482212
589.207	343254
589.218	315374
589.261	289713
589.290	274460
589.314	285785
589.361	309379
589.368	325420
589.421	460835
589.433	491676
589.475	811797
589.504	1048693
589.528	1281700
589.576	1732142
589.582	1703173
589.635	1293768
589.647	1190655
589.689	714296
589.718	399513
589.742	323961
589.790	187942
589.795	183052
589.849	137317
589.861	126880
589.902	111865
589.932	100525
589.955	94243
590.004	80017
590.009	79480
590.062	72085
590.075	70003
590.115	65800
590.146	62418
590.168	61209
590.218	57943
590.222	58021
590.275	56616
590.289	56089
590.328	55296
590.360	54153
590.381	53268
590.431	50645
590.435	50826
590.488	51151
590.503	51123
590.541	49973
590.574	48529
590.594	48736
590.645	48915
590.647	49031
590.700	47413
590.716	46759
590.753	47497
590.787	48103
590.806	48161
590.859	47556
590.859	47729
590.912	48142
590.930	48092
590.965	48663
591.001	48937
591.018	48959
591.071	48520
591.072	48340
591.124	47746
591.143	47295
591.177	47752
591.214	47951
591.230	48228
591.283	48574
591.285	48409
591.336	48915
591.356	48944
591.389	49099
591.427	48787
591.442	48400
591.495	46284
591.498	45959
591.547	46254
591.569	46244
591.600	46904
591.640	47174
591.653	47275
591.706	47062
591.711	46863
591.759	48169
591.782	48621
591.811	49694
591.853	50770
591.864	50856
591.917	50295
591.924	50016
591.969	49553
591.995	49046
592.022	50100
592.066	51334
592.075	51579
592.127	51887
592.137	51756
592.180	53457
592.208	54231
592.233	54395
592.279	54033
592.285	54225
592.338	54183
592.350	53959
592.390	53418
592.421	52680
592.443	53320
592.491	54072
592.495	54300
592.548	54636
592.562	54524
592.600	54923
592.633	54886
592.653	54964
592.704	54319
592.705	54653
592.775	55656
592.846	56455
592.916	58585
592.987	58173
593.058	57558
593.128	56170
593.199	57630
593.270	55762
593.341	57447
593.411	57344
593.482	59931
593.553	60484
593.623	60519
593.694	61470
593.764	63898
593.835	61465
593.906	62835
593.976	62553
594.047	64349
594.117	67205
594.188	68701
594.258	67071
594.329	66626
594.399	68492
594.470	70071
594.540	69959
594.611	72319
594.681	71385
594.751	71813
594.822	73940
594.892	77075
594.963	78468
595.033	81033
595.103	82335
595.174	82407
595.244	86123
595.314	90028
595.384	87268
595.455	88973
595.525	90091
595.595	95112
595.665	94738
595.736	90864
595.806	93678
595.876	94095
595.946	95531
596.016	99534
596.087	100953
596.157	102367
596.227	101882
596.297	107148
596.367	111573
596.437	119604
596.507	121053
596.577	121279
596.647	121640
596.717	125355
596.787	127982
596.857	129365
596.927	130463
596.997	129688
597.067	130919
597.137	133778
597.207	133711
597.277	135931
597.347	130816
597.417	126877
597.487	128065
597.557	130524
597.626	132934
597.696	136700
597.766	136296
597.836	131243
597.906	122670
597.975	118590
598.045	119307
598.115	123288
598.185	131630
598.254	146078
598.324	159765
598.394	165377
598.464	158630
598.533	156792
598.603	147584
598.672	142193
598.742	144247
598.812	144644
598.881	148522
598.951	148556
599.020	148688
599.090	154410
599.159	157515
599.229	153175
599.299	148384
599.368	152343
599.437	151534
599.507	141908
599.576	135056
599.646	134714
599.715	131632
599.785	132543
599.854	128279
599.924	129063
599.993	125184
600.062	128843
600.132	131207
600.201	139185
600.270	159711
600.340	170656
600.409	165887
600.478	164641
600.547	168466
600.617	159906
600.686	129303
600.755	116747
600.824	113374
600.894	110978
600.963	109005
601.032	109714
601.101	106209
601.170	102846
601.239	102018
601.308	103245
601.378	102951
601.447	102761
601.516	103937
601.585	107468
601.654	111276
601.723	108633
601.792	108632
601.861	113151
601.930	117730
601.999	123782
602.068	121170
602.137	126079
602.206	126158
602.275	125703
602.343	127926
602.412	129513
602.481	126044
602.550	127814
602.619	131257
602.688	132977
602.756	132540
602.825	134952
602.894	136959
602.963	138793
603.032	140924
603.100	140715
603.169	137757
603.238	144534
603.307	141184
603.375	141949
603.444	147749
603.513	146756
603.581	149897
603.650	154671
603.719	143218
603.787	143915
603.856	149513
603.924	155247
603.993	160707
604.061	163406
604.130	171704
604.198	175375
604.267	175520
604.335	180803
604.404	182788
604.472	185213
604.541	187004
604.609	189556
604.678	191634
604.746	190970
604.815	201341
604.883	200574
604.951	199661
605.020	202994
605.088	202422
605.156	203744
605.225	206436
605.293	208122
605.361	208390
605.429	209413
605.498	213692
605.566	218863
605.634	228231
605.702	236384
605.771	240842
605.839	244585
605.907	235475
605.975	231183
606.043	224671
606.111	222680
606.180	225829
606.248	221176
606.316	218009
606.384	221688
606.452	216967
606.520	219593
606.588	225272
606.656	222721
606.724	220372
606.792	207432
606.860	185342
606.928	169375
606.996	161988
607.064	158359
607.132	162376
607.200	172614
607.267	180265
607.335	180962
607.403	187015
607.471	182199
607.539	174382
607.607	177377
607.674	155208
607.742	153331
607.810	154115
607.878	155211
607.946	157325
608.013	163698
608.081	169040
608.149	169878
608.216	174235
608.284	180376
608.352	178689
608.419	180349
608.487	176204
608.555	171733
608.622	175351
608.690	185654
608.757	205998
608.825	214364
608.893	208243
608.960	203244
609.028	195494
609.095	186430
609.163	185445
609.230	168911
609.298	149086
609.365	157837
609.432	169962
609.500	186169
609.567	211569
609.635	244949
609.702	259791
609.769	250794
609.837	198987
609.904	163580
609.971	167912
610.039	183124
610.106	229708
610.173	407394
610.241	934623
610.308	643251
610.375	220593
610.442	179388
610.509	168470
610.577	169555
610.644	171345
610.711	176117
610.778	183726
610.845	186282
610.912	201333
610.980	211661
611.047	210600
611.114	207981
611.181	200174
611.248	197467
611.315	206598
611.382	212875
611.449	220476
611.516	226611
611.583	222692
611.650	224956
611.717	225617
611.784	231419
611.851	241017
611.918	254647
611.984	290755
612.051	383728
612.118	709025
612.185	1642377
612.252	1285347
612.319	373503
612.386	297450
612.452	273631
612.519	257100
612.586	253006
612.653	255045
612.719	264905
612.786	255957
612.853	236053
612.919	226421
612.986	233849
613.053	219349
613.120	207914
613.186	196732
613.253	200439
613.319	198005
613.386	199988
613.453	204860
613.519	210327
613.586	209206
613.652	220756
613.719	211415
613.785	212450
613.852	206555
613.918	204010
613.985	204597
614.051	214798
614.118	213394
614.184	205085
614.250	201703
614.317	208480
614.383	202906
614.449	208936
614.516	207170
614.582	208501
614.648	204293
614.715	203138
614.781	200273
614.847	196276
614.914	198199
614.980	192890
615.046	190830
615.112	197564
615.179	197656
615.245	200882
615.311	200261
615.377	207449
615.443	212289
615.509	205193
615.575	210842
615.642	210464
615.708	213767
615.774	225190
615.840	235901
615.906	252973
615.972	297192
616.038	432653
616.104	833595
616.170	1814930
616.236	1839816
616.302	511631
616.368	370479
616.434	274707
616.500	247098
616.565	268047
616.631	338418
616.697	284262
616.763	280405
616.829	396229
616.895	715599
616.961	729452
617.026	320341
617.092	219293
617.158	205102
617.224	204292
617.289	188829
617.355	179520
617.421	175356
617.487	175782
617.552	166282
617.618	163924
617.684	164493
617.749	166636
617.815	158271
617.880	155891
617.946	153271
618.012	157646
618.077	162835
618.143	155984
618.208	153616
618.274	165761
618.339	172437
618.405	140493
618.470	136410
618.536	138372
618.601	135420
618.667	127099
618.732	118500
618.798	117600
618.863	115542
618.928	114271
618.994	118486
619.059	120920
619.124	129843
619.190	122800
619.255	115015
619.320	112918
619.386	113117
619.451	114369
619.516	109784
619.581	110749
619.647	113948
619.712	116736
619.777	109283
619.842	111515
619.907	114033
619.972	115557
620.038	114333
620.103	109435
620.168	110362
620.233	111834
620.298	111445
620.363	112851
620.428	115318
620.493	118102
620.558	120926
620.623	122718
620.688	122133
620.753	120789
620.818	123195
620.883	124712
620.948	123880
621.013	122960
621.078	119561
621.143	120454
621.207	123610
621.272	121537
621.337	120633
621.402	118128
621.467	117488
621.532	116972
621.596	121361
621.661	113161
621.726	110612
621.791	112487
621.855	113966
621.920	113903
621.985	113695
622.049	116304
622.114	114909
622.179	117695
622.243	121649
622.308	125785
622.373	131363
622.437	131041
622.502	119715
622.566	119188
622.631	117664
622.695	120722
622.760	121047
622.824	120386
622.889	120149
622.953	125763
623.018	140677
623.082	147775
623.147	130586
623.211	125578
623.276	126415
623.340	121017
623.404	114964
623.469	114498
623.533	116376
623.597	114362
623.662	112333
623.726	105744
623.790	98210
623.854	94484
623.919	95882
623.983	98791
624.047	102193
624.111	100077
624.176	105561
624.240	112160
624.304	117257
624.368	105036
624.432	102183
624.496	106416
624.560	114433
624.625	119377
624.689	114002
624.753	118857
624.817	114200
624.881	110979
624.945	99277
625.009	94916
625.073	97965
625.137	104878
625.201	112844
625.265	114955
625.329	102660
625.393	103527
625.456	104957
625.520	107057
625.584	110312
625.648	114491
625.712	120152
625.776	133387
625.839	133227
625.903	101931
625.967	86223
626.031	96376
626.095	117268
626.158	106892
626.222	80817
626.286	74971
626.349	70410
626.413	66778
626.477	67678
626.540	68399
626.604	66752
626.668	66158
626.731	64646
626.795	66057
626.858	67060
626.922	64271
626.986	64619
627.049	63668
627.113	67481
627.176	65741
627.240	63056
627.303	63067
627.366	63708
627.430	67027
627.493	63913
627.557	62555
627.620	64703
627.684	66361
627.747	67442
627.810	63131
627.874	57511
627.937	53797
628.000	57512
628.064	57194
628.127	49433
628.190	48877
628.253	48792
628.317	48119
628.380	44496
628.443	44720
628.506	46398
628.569	42624
628.632	40680
628.696	40338
628.759	39419
628.822	38515
628.885	37538
628.948	37595
629.011	36842
629.074	37062
629.137	36301
629.200	36046
629.263	37458
629.326	34141
629.389	34893
629.452	35005
629.515	34676
629.578	34007
629.641	37066
629.704	35376
629.767	35333
629.830	34134
629.892	32217
629.955	32262
630.018	34706
630.081	35434
630.144	38645
630.207	34561
630.269	34492
630.332	32974
630.395	32237
630.458	32006
630.520	30744
630.583	32352
630.646	30546
630.708	30892
630.771	30741
630.834	34047
630.896	32591
630.959	32786
631.021	30913
631.084	31556
631.146	31756
631.209	33992
631.272	30875
631.334	32225
631.397	32692
631.459	33021
631.522	33911
631.584	35195
631.646	36934
631.709	39545
631.771	41882
631.834	38218
631.896	34410
631.958	32981
632.021	33244
632.083	31358
632.145	31187
632.208	32005
632.270	31475
632.332	31735
632.395	30202
632.457	31071
632.519	30366
632.581	31753
632.643	29161
632.706	30535
632.768	28790
632.830	29628
632.892	30630
632.954	30835
633.016	31137
633.078	30328
633.141	28791
633.203	30540
633.265	30489
633.327	30949
633.389	29976
633.451	32156
633.513	34206
633.575	33041
633.637	32371
633.698	32496
633.760	31977
633.822	33722
633.884	34341
633.946	33453
634.008	32862
634.070	34621
634.132	36647
634.193	39439
634.255	41351
634.317	43395
634.379	42417
634.441	38782
634.502	35762
634.564	34043
634.626	31009
634.687	29754
634.749	28774
634.811	29505
634.873	27975
634.934	29651
634.996	28913
635.057	28352
635.119	28600
635.181	29177
635.242	30407
635.304	28110
635.365	30894
635.427	29492
635.488	29330
635.550	29173
635.611	28624
635.673	27416
635.734	30742
635.796	31897
635.857	35647
635.918	36722
635.980	38651
636.041	41520
636.102	44759
636.164	44752
636.225	42967
636.286	36853
636.348	34768
636.409	30895
636.470	29549
636.531	28792
636.593	27935
636.654	27474
636.715	25545
636.776	26685
636.838	24768
636.899	25317
636.960	24240
637.021	23902
637.082	22999
637.143	25071
637.204	22379
637.265	23434
637.326	23848
637.387	23981
637.448	22453
637.509	24443
637.570	23795
637.631	23550
637.692	22098
637.753	22180
637.814	22504
637.875	21940
637.936	23042
637.997	22333
638.058	21361
638.119	22120
638.179	22048
638.240	20930
638.301	21847
638.362	21424
638.423	21040
638.483	20973
638.544	19809
638.605	20697
638.666	19265
638.726	20256
638.787	20169
638.848	19815
638.908	19718
638.969	19733
639.030	19391
639.090	19503
639.151	18258
639.211	21332
639.272	22910
639.332	30683
639.393	24819
639.453	21378
639.514	21229
639.574	20579
639.635	18287
639.695	19606
639.756	18022
639.816	19144
639.877	19859
639.937	24955
639.997	31672
640.058	20069
640.118	17844
640.178	18852
640.239	16814
640.299	18018
640.359	17862
640.420	19091
640.480	19777
640.540	24153
640.600	23689
640.661	21119
640.721	18971
640.781	22354
640.841	17750
640.901	19142
640.961	18597
641.021	19239
641.082	21525
641.142	24289
641.202	19871
641.262	16573
641.322	18024
641.382	16532
641.442	16639
641.502	16344
641.562	16539
641.622	17454
641.682	18028
641.742	20485
641.802	19289
641.861	17961
641.921	16646
641.981	18406
642.041	17348
642.101	20465
642.161	17999
642.221	15509
642.280	15591
642.340	16077
642.400	15533
642.460	16836
642.519	16554
642.579	16986
642.639	16501
642.698	15337
642.758	17644
642.818	17044
642.877	16055
642.937	17211
642.997	17532
643.056	23340
643.116	17661
643.175	17669
643.235	16023
643.294	18423
643.354	19521
643.414	20567
643.473	22983
643.532	28553
643.592	38428
643.651	58562
643.711	101340
643.770	197837
643.830	453783
643.889	1099453
643.948	368907
644.008	58853
644.067	34146
644.126	26687
644.186	21814
644.245	21039
644.304	17206
644.363	19433
644.423	16026
644.482	16811
644.541	17911
644.600	18246
644.659	22322
644.719	29340
644.778	40918
644.837	68696
644.896	137135
644.955	356495
645.014	156487
645.073	29641
645.132	20459
645.191	20181
645.250	17506
645.309	20334
645.368	20587
645.427	27294
645.486	39909
645.545	81085
645.604	29887
645.663	16939
645.722	16757
645.781	19423
645.840	20862
645.898	26062
645.957	35727
646.016	54895
646.075	97906
646.134	191990
646.192	476593
646.251	880155
646.310	175039
646.369	40452
646.427	30438
646.486	25014
646.545	19529
646.603	18695
646.662	15592
646.721	16288
646.779	15957
646.838	15698
646.896	19939
646.955	27930
647.014	43174
647.072	78086
647.131	221657
647.189	144937
647.248	21484
647.306	16585
647.365	14492
647.423	12723
647.481	13728
647.540	12415
647.598	13165
647.657	12523
647.715	12933
647.773	12529
647.832	12159
647.890	10629
647.948	10582
648.007	11981
648.065	10300
648.123	10514
648.181	12389
648.240	10641
648.298	8954
648.356	10909
648.414	10431
648.472	11067
648.531	10732
648.589	10574
648.647	10259
648.705	10409
648.763	10553
648.821	11421
648.879	11552
648.937	14081
648.995	15604
649.053	19620
649.111	29726
649.169	48336
649.227	82833
649.285	167964
649.343	514603
649.401	340462
649.459	53756
649.516	33617
649.574	16484
649.632	18660
649.690	18558
649.748	21637
649.806	30059
649.863	55183
649.921	150446
649.979	138041
650.037	20645
650.094	11524
650.152	11053
650.210	9580
650.268	9091
650.325	9416
650.383	8725
650.440	7820
650.498	9387
650.556	9000
650.613	7927
650.671	9247
650.728	8540
650.786	9398
650.843	11040
650.901	9400
650.958	8329
651.016	8759
651.073	7443
651.131	7029
651.188	6719
651.246	8132
651.303	6786
651.360	8520
651.418	7144
651.475	8593
651.532	6617
651.590	8095
651.647	5863
651.704	6871
651.762	7239
651.819	8037
651.876	7389
651.933	7250
651.990	7432
652.048	6669
652.105	6191
652.162	7932
652.219	5453
652.276	7573
652.333	6725
652.390	6322
652.448	6986
652.505	7715
652.562	6807
652.619	6531
652.676	5958
652.733	8415
652.790	6701
652.847	6247
652.904	7478
652.961	6550
653.017	6158
653.074	7194
653.131	7842
653.188	6113
653.245	5535
653.302	7370
653.359	6269
653.415	6394
653.472	5764
653.529	7176
653.586	5193
653.642	6941
653.699	6651
653.756	6486
653.813	6777
653.869	7711
653.926	5773
653.983	6144
654.039	6242
654.096	7197
654.152	7923
654.209	5307
654.266	7127
654.322	5230
654.379	6448
654.435	6361
654.492	6297
654.548	8220
654.605	9394
654.661	8729
654.717	6904
654.774	6405
654.830	6136
654.887	5911
654.943	6179
655.000	6235
655.056	6294
655.112	6084
655.168	5301
655.225	7303
655.281	6477
655.337	6844
655.394	8307
655.450	6769
655.506	6616
655.562	6867
655.618	8405
655.675	5566
655.731	5607
655.787	5138
655.843	6391
655.899	5772
655.955	6190
656.011	6505
656.067	4934
656.123	5869
656.179	5288
656.235	7018
656.291	5157
656.347	7399
656.403	5904
656.459	6011
656.515	5935
656.571	6423
656.627	7012
656.683	6178
656.739	5658
656.795	6584
656.850	6886
656.906	7574
656.962	7092
657.018	6231
657.074	5723
657.129	9383
657.185	12100
657.241	26106
657.297	19100
657.352	6651
657.408	6135
657.464	7056
657.519	7062
657.575	5261
657.630	4642
657.686	5618
657.742	4930
657.797	5979
657.853	4569
657.908	6483
657.964	4945
658.019	5498
658.075	5592
658.130	6134
658.186	3972
658.241	5313
658.297	4155
658.352	5139
658.407	5681
658.463	4205
658.518	5379
658.573	5983
658.629	3545
658.684	6024
658.739	5659
658.795	5400
658.850	5496
658.905	4742
658.960	4739
659.016	4725
659.071	5257
659.126	5865
659.181	5892
659.236	8773
659.291	9491
659.346	6385
659.401	6112
659.457	5667
659.512	4919
659.567	6189
659.622	5002
659.677	4558
659.732	4642
659.787	5246
659.842	5028
659.897	5789
659.952	5206
660.007	4939
660.061	4802
660.116	4445
660.171	4071
660.226	4749
660.281	4891
660.336	4088
660.391	4735
660.445	4378
660.500	4874
660.555	4537
660.610	4453
660.664	5442
660.719	3858
660.774	5743
660.828	5435
660.883	5975
660.938	5529
660.992	4890
661.047	4470
661.101	4883
661.156	4118
661.211	4989
661.265	4617
661.320	4991
661.374	5180
661.429	5175
661.483	4884
661.538	5415
661.592	4498
661.647	4783
661.701	4678
661.755	4940
661.810	4421
661.864	4764
661.919	4745
661.973	5230
662.027	4825
662.081	4575
662.136	4434
662.190	5115
662.244	5291
662.299	4864
662.353	4420
662.407	4795
662.461	4270
662.515	5899
662.569	3709
662.624	5282
662.678	4085
662.732	4941
662.786	4173
662.840	5209
662.894	5351
662.948	4356
663.002	4530
663.056	4638
663.110	4029
663.164	4683
663.218	5057
663.272	5480
663.326	5316
663.380	4976
663.434	4304
663.488	4562
663.542	4571
663.595	4022
663.649	4504
663.703	5067
663.757	4864
663.811	4138
663.864	4024
663.918	5462
663.972	3625
664.026	4208
664.079	4116
664.133	4957
664.187	4939
664.240	5053
664.294	4043
664.348	5089
664.401	4215
664.455	4965
664.508	2609
664.562	4415
664.615	4194
664.669	4352
664.722	4917
664.776	4612
664.829	4692
664.883	3736
664.936	3668
664.990	4650
665.043	4983
665.097	4962
665.150	5253
665.203	4682
665.257	4182
665.310	5250
665.363	4893
665.417	4935
665.470	4442
665.523	6044
665.576	4756
665.630	5018
665.683	4596
665.736	4508
665.789	4751
665.842	4417
665.895	3954
665.949	5010
666.002	4048
666.055	4181
666.108	4662
666.161	5090
666.214	4921
666.267	5556
666.320	4695
666.373	5941
666.426	4972
666.479	4369
666.532	5757
666.585	5527
666.638	5614
666.691	4871
666.744	5259
666.796	4514
666.849	5540
666.902	4844
666.955	3961
667.008	5209
667.060	3892
667.113	4225
667.166	5319
667.219	4801
667.271	4346
667.324	5076
667.377	4220
667.430	5142
667.482	4301
667.535	4792
667.587	5416
667.640	4540
667.693	5572
667.745	7269
667.798	9451
667.850	5190
667.903	4442
667.955	5208
668.008	4739
668.060	5741
668.113	3841
668.165	5691
668.218	4612
668.270	5766
668.322	4436
668.375	4629
668.427	4849
668.479	4763
668.532	4937
668.584	4926
668.636	5099
668.689	5840
668.741	4506
668.793	4741
668.845	3844
668.898	5375
668.950	4215
669.002	5150
669.054	3507
669.106	4429
669.158	4793
669.211	5199
669.263	4141
669.315	4642
669.367	4359
669.419	3921
669.471	4953
669.523	4409
669.575	5093
669.627	4435
669.679	4724
669.731	5079
669.783	4158
669.835	4849
669.886	4190
669.938	5958
669.990	4212
670.042	3927
670.094	4540
670.146	5048
670.197	4560
670.249	5266
670.301	5307
670.353	7354
670.404	8802
670.456	10877
670.508	15368
670.560	24428
670.611	37471
670.663	63674
670.715	135744
670.766	271052
670.818	100119
670.869	16198
670.921	9159
670.972	7333
671.024	6577
671.075	6700
671.127	5115
671.178	4903
671.230	5684
671.281	6218
671.333	5643
671.384	5834
671.436	7727
671.487	10126
671.538	13402
671.590	20844
671.641	30708
671.692	54324
671.744	112236
671.795	81656
671.846	23086
671.897	12061
671.949	8061
672.000	7570
672.051	5827
672.102	5774
672.153	4041
672.204	5181
672.256	5124
672.307	4776
672.358	4846
672.409	4675
672.460	3442
672.511	4250
672.562	3559
672.613	3029
672.664	4676
672.715	4023
672.766	3878
672.817	3868
672.868	3412
672.919	3968
672.970	3794
673.021	4685
673.071	2863
673.122	3370
673.173	2974
673.224	3911
673.275	3667
673.326	4270
673.376	4008
673.427	3021
673.478	3367
673.528	4395
673.579	3486
673.630	3160
673.680	4294
673.731	4157
673.782	2924
673.832	4056
673.883	3589
673.934	3838
673.984	3169
674.035	3778
674.085	4122
674.136	3229
674.186	3277
674.237	4802
674.287	4353
674.338	4322
674.388	3287
674.438	4000
674.489	3965
674.539	4474
674.589	4063
674.640	4013
674.690	3729
674.740	3771
674.791	3945
674.841	4411
674.891	3146
674.942	3904
674.992	2702
675.042	2852
675.092	3109
675.142	3411
675.193	2584
675.243	3204
675.293	3535
675.343	3364
675.393	3482
675.443	3421
675.493	2953
675.543	2411
675.593	2729
675.643	2765
675.693	3613
675.743	3092
675.793	2749
675.843	2616
675.893	2502
675.943	3830
675.993	2801
676.043	2845
676.093	3101
676.142	2512
676.192	3305
676.242	3067
676.292	3326
676.341	2945
676.391	2932
676.441	1932
676.491	2750
676.540	2698
676.590	2635
676.640	2609
676.689	2288
676.739	2676
676.789	2422
676.838	2279
676.888	2422
676.937	2435
676.987	2422
677.037	2329
677.086	1709
677.136	3787
677.185	1777
677.235	2627
677.284	2726
677.333	2500
677.383	1996
677.432	2742
677.482	2847
677.531	2492
677.580	2713
677.630	2236
677.679	2667
677.728	2491
677.778	2914
677.827	2501
677.876	2627
677.925	3161
677.975	2732
678.024	3247
678.073	3419
678.122	3077
678.171	2718
678.220	2991
678.269	2808
678.319	3242
678.368	3439
678.417	2949
678.466	3023
678.515	3004
678.564	2889
678.613	2934
678.662	2073
678.711	3043
678.760	2999
678.809	2802
678.857	2572
678.906	3472
678.955	2048
679.004	2425
679.053	1373
679.102	2598
679.151	1602
679.199	2849
679.248	2349
679.297	3162
679.346	1505
679.394	2004
679.443	2798
679.492	1931
679.540	2259
679.589	2445
679.638	2278
679.686	2239
679.735	2545
679.784	3492
679.832	3375
679.881	3051
679.929	1927
679.978	2373
680.026	2594
680.075	2323
680.123	1961
680.172	2598
680.220	2287
680.268	2636
680.317	1359
680.365	2178
680.414	1224
680.462	2795
680.510	1388
680.559	2156
680.607	1867
680.655	2261
680.703	1439
680.752	2372
680.800	3070
680.848	2386
680.896	1254
680.945	2464
680.993	2341
681.041	2402
681.089	1811
681.137	2554
681.185	1624
681.233	2458
681.258	2296
681.281	2125
681.329	2989
681.377	1747
681.380	1812
681.425	2653
681.473	2385
681.502	2602
681.521	2719
681.569	2432
681.617	2184
681.624	2131
681.665	1653
681.713	3063
681.745	2429
681.761	2101
681.809	2495
681.857	2984
681.867	2952
681.904	2741
681.952	2556
681.989	3040
682.000	3168
682.048	2047
682.096	3017
682.111	2745
682.143	2096
682.191	2673
682.233	3029
682.239	3067
682.286	3074
682.334	2391
682.354	2680
682.382	3038
682.430	3007
682.476	3476
682.477	3468
682.525	2074
682.572	2562
682.598	2570
682.620	2562
682.667	2983
682.715	3193
682.720	3180
682.763	2921
682.810	2697
682.841	3613
682.857	4047
682.905	2673
682.952	3616
682.963	3548
683.000	3228
683.047	3791
683.085	3306
683.095	3162
683.142	3120
683.190	3147
683.206	3144
683.237	3080
683.284	3304
683.328	3635
683.332	3647
683.379	3465
683.426	3737
683.449	3554
683.473	3388
683.521	3207
683.568	3592
683.571	3637
683.615	3999
683.662	4409
683.693	3824
683.709	3482
683.757	3792
683.804	4011
683.814	4003
683.851	3874
683.898	4017
683.936	3460
683.945	3330
683.992	4444
684.039	4103
684.057	4219
684.086	4373
684.133	3939
684.179	4405
684.180	4400
684.227	4437
684.274	4913
684.300	4964
684.321	5041
684.368	4781
684.415	4808
684.422	4760
684.462	4367
684.509	4187
684.543	4287
684.556	4326
684.603	4533
684.649	4604
684.665	4344
684.696	3757
684.743	4599
684.786	3966
684.790	3908
684.837	5224
684.883	4440
684.908	4782
684.930	5093
684.977	4908
685.023	5160
685.029	5095
685.070	4376
685.117	4726
685.150	4696
685.164	4724
685.210	4773
685.257	5358
685.272	5549
685.303	5894
685.350	4741
685.393	5373
685.396	5429
685.443	5601
685.490	6441
685.514	6185
685.536	5754
685.583	6610
685.629	4848
685.636	4920
685.675	5518
685.722	5315
685.757	5333
685.768	5293
685.815	5657
685.861	5567
685.878	5624
685.908	5832
685.954	5732
686.000	5878
686.000	5873
686.047	6439
686.093	5957
686.121	6111
686.139	6262
686.185	5436
686.232	6358
686.242	6251
686.278	5636
686.324	5741
686.363	5581
686.370	5586
686.416	5398
686.463	5848
686.484	6153
686.509	6447
686.555	5393
686.601	5620
686.606	5594
686.647	5458
686.693	5583
686.727	5630
686.739	5612
686.785	5856
686.831	5675
686.848	5909
686.877	6314
686.923	5819
686.969	6232
686.969	6233
687.015	5477
687.061	6096
687.090	5808
687.107	5653
687.153	6167
687.199	6425
687.211	6347
687.245	6150
687.291	5670
687.332	6488
687.336	6572
687.382	6134
687.428	6827
687.453	6722
687.474	6495
687.520	6792
687.565	6055
687.574	5983
687.611	5974
687.657	6215
687.695	6360
687.702	6384
687.748	6931
687.794	7508
687.816	7025
687.839	6410
687.885	6868
687.931	6491
687.937	6427
687.976	6344
688.022	6797
688.058	7091
688.067	7161
688.113	6832
688.158	7585
688.179	7396
688.204	7090
688.249	7200
688.295	6761
688.300	6830
688.340	7346
688.386	6903
688.421	6895
688.431	6944
688.477	6771
688.522	7689
688.542	7712
688.567	7664
688.613	7555
688.658	7264
688.663	7294
688.703	7571
688.749	7094
688.784	7771
688.794	7969
688.839	6937
688.884	7951
688.905	7754
688.930	7552
688.975	7285
689.020	7227
689.026	7280
689.065	7710
689.110	7344
689.146	7582
689.155	7629
689.201	7737
689.246	7606
689.267	7470
689.291	7353
689.336	8037
689.381	7547
689.388	7495
689.426	7366
689.471	7557
689.509	7681
689.516	7721
689.561	8018
689.606	8159
689.630	8061
689.651	7793
689.696	7741
689.741	7518
689.750	7489
689.785	7751
689.830	7260
689.871	7672
689.875	7706
689.920	7735
689.965	7934
689.992	7582
690.010	7439
690.054	8260
690.099	8234
690.112	8262
690.144	8213
690.189	7870
690.233	7855
690.233	7866
690.278	7826
690.323	8095
690.354	8213
690.367	8187
690.412	8392
690.457	8072
690.474	7945
690.501	7799
690.546	7947
690.590	8058
690.595	7992
690.635	7695
690.680	8025
690.716	8184
690.724	8188
690.769	7924
690.813	7482
690.836	7478
690.857	7665
690.902	7832
690.946	8351
690.957	8315
690.991	8267
691.035	8302
691.077	8733
691.080	8770
691.124	9120
691.168	9138
691.198	9400
691.213	9426
691.257	9042
691.301	9127
691.318	8967
691.346	8812
691.390	8922
691.434	8651
691.439	8633
691.478	8914
691.522	9312
691.559	9631
691.567	9652
691.611	9469
691.655	9272
691.680	9265
691.699	9256
691.743	9425
691.787	8753
691.800	8761
691.831	9058
691.875	9019
691.919	9417
691.921	9404
691.964	9493
692.008	9561
692.041	9522
692.052	9499
692.096	9549
692.139	9357
692.162	9451
692.183	9548
692.227	9427
692.271	9438
692.282	9302
692.315	9257
692.359	9920
692.402	10120
692.403	10137
692.447	9800
692.490	9551
692.523	9551
692.534	9613
692.578	9439
692.622	9370
692.643	9245
692.666	9198
692.709	9343
692.753	9290
692.763	9330
692.797	9485
692.840	9403
692.884	9306
692.884	9327
692.928	9697
692.971	10267
693.004	10003
693.015	9836
693.059	10226
693.102	9791
693.124	9884
693.146	10137
693.189	10208
693.233	10379
693.245	10309
693.276	10053
693.320	10427
693.363	9964
693.365	9951
693.407	10335
693.450	10333
693.485	10541
693.493	10578
693.537	10357
693.580	10128
693.605	9934
693.624	9890
693.667	10177
693.710	9789
693.725	9909
693.753	10543
693.797	10979
693.840	11666
693.845	11713
693.883	11645
693.926	11482
693.966	11129
693.970	11093
694.013	10955
694.056	10677
694.086	10299
694.099	10345
694.142	10252
694.185	10670
694.206	10546
694.229	10306
694.272	10643
694.315	10370
694.326	10347
694.358	11017
694.401	11667
694.444	12474
694.446	12491
694.487	12593
694.530	12455
694.566	12261
694.573	12188
694.616	11665
694.659	11244
694.686	10986
694.702	10997
694.745	10465
694.787	10601
694.806	10380
694.830	10325
694.873	10654
694.916	10498
694.926	10531
694.959	10879
695.002	11087
695.044	11524
695.046	11509
695.087	11494
695.130	11491
695.166	11473
695.172	11517
695.215	11349
695.258	11547
695.286	11568
695.301	11629
695.343	11660
695.386	12065
695.406	11934
695.428	11678
695.471	11581
695.514	11298
695.526	11221
695.556	11742
695.599	12424
695.641	13104
695.646	13145
695.684	12738
695.726	12169
695.766	11604
695.769	11622
695.811	11672
695.854	11555
695.886	11607
695.896	11711
695.938	11678
695.981	11756
696.005	11888
696.023	12181
696.065	12702
696.108	13266
696.125	13432
696.150	13339
696.192	13187
696.235	13012
696.245	12947
696.277	13178
696.319	13391
696.361	13469
696.365	13468
696.404	13572
696.446	13418
696.485	13317
696.488	13373
696.530	13532
696.572	14042
696.604	14060
696.614	13955
696.656	13675
696.698	13290
696.724	13042
696.740	13251
696.783	13560
696.825	14124
696.844	14277
696.867	14198
696.909	14040
696.951	13748
696.964	13672
696.992	13990
697.034	14355
697.076	14702
697.083	14708
697.118	14562
697.160	14469
697.202	14358
697.203	14320
697.244	14665
697.286	14835
697.323	15012
697.327	15027
697.369	14766
697.411	14553
697.442	14288
697.453	14328
697.494	14541
697.536	14536
697.562	14535
697.578	14639
697.620	14860
697.661	15083
697.682	15110
697.703	15457
697.744	16261
697.786	16906
697.801	17128
697.828	17389
697.869	17602
697.911	17847
697.921	17879
697.952	17289
697.994	16472
698.035	15581
698.040	15436
698.077	15348
698.118	15167
698.160	15067
698.160	15028
698.201	15470
698.243	15986
698.279	16315
698.284	16324
698.325	16096
698.367	15821
698.399	15556
698.408	15710
698.449	16224
698.491	16809
698.518	17088
698.532	17182
698.573	17399
698.614	17626
698.638	17671
698.656	17542
698.697	17193
698.738	16830
698.757	16616
698.779	16628
698.820	16572
698.862	16509
698.877	16449
698.903	16749
698.944	17148
698.985	17559
698.996	17628
699.026	17339
699.067	16878
699.116	16288
699.235	16100
699.354	16539
699.474	16061
699.593	15773
699.713	16227
699.832	16763
699.951	17955
700.070	16784
700.190	16022
700.309	16195
700.428	15766
700.547	15264
700.667	15385
700.786	16342
700.905	15388
701.024	15461
701.143	15296
701.262	15010
701.381	15792
701.500	15080
701.619	17056
701.738	16498
701.857	15420
701.976	14354
702.095	15169
702.214	15841
702.333	16432
702.452	15560
702.571	16156
702.690	15741
702.809	14901
702.928	13764
703.047	15124
703.165	13582
703.284	14100
703.403	14994
703.522	14780
703.640	14404
703.759	15394
703.878	15622
703.997	14081
704.115	14464
704.234	13412
704.353	14516
704.471	13788
704.590	13776
704.708	14493
704.827	13293
704.946	12668
705.064	13631
705.183	13217
705.301	13763
705.420	15611
705.538	14800
705.656	13641
705.775	12395
705.893	13244
706.012	14184
706.130	14068
706.249	13552
706.367	13956
706.485	13320
706.604	14205
706.722	13900
706.840	15898
706.958	14673
707.077	14224
707.195	12990
707.313	13593
707.431	12349
707.549	13422
707.668	12706
707.786	13614
707.904	12589
708.022	12998
708.140	11785
708.258	13468
708.376	13626
708.494	12682
708.612	12791
708.730	14345
708.848	14634
708.966	14624
709.084	15256
709.202	14853
709.320	13682
709.438	13376
709.556	14062
709.674	13094
709.791	14002
709.909	12916
710.027	12691
710.145	13146
710.263	12231
710.380	13241
710.498	12583
710.616	12510
710.733	12527
710.851	12769
710.969	12742
711.086	12605
711.204	12601
711.322	12963
711.439	12396
711.557	12057
711.674	12649
711.792	12713
711.909	12330
712.027	11450
712.144	11477
712.262	12562
712.379	12832
712.497	13812
712.614	14365
712.732	13894
712.849	13007
712.966	14616
713.084	16025
713.201	13623
713.318	13954
713.436	13920
713.553	13046
713.670	13522
713.787	14180
713.905	13103
714.022	13309
714.139	13726
714.256	16924
714.373	22103
714.490	39177
714.608	94683
714.725	417796
714.842	570986
714.959	47258
715.076	19967
715.193	16509
715.310	15458
715.427	13063
715.544	13389
715.661	13417
715.778	12922
715.895	12154
716.011	13035
716.128	12233
716.245	12136
716.362	13498
716.479	15113
716.596	12227
716.713	11244
716.829	11107
716.946	10516
717.063	10945
717.180	11497
717.296	10609
717.413	11403
717.530	10853
717.646	11539
717.763	10195
717.880	10532
717.996	10118
718.113	10718
718.229	10739
718.346	9993
718.462	9331
718.579	13498
718.695	20209
718.812	16384
718.928	12033
719.045	10174
719.161	9835
719.277	10400
719.394	9916
719.510	10427
719.626	10851
719.743	13342
719.859	18949
719.975	34126
720.092	125904
720.208	355462
720.324	53906
720.440	14883
720.557	13609
720.673	16923
720.789	17257
720.905	19191
721.021	12705
721.137	9959
721.253	9090
721.369	9903
721.486	9783
721.602	10737
721.718	9639
721.834	9583
721.950	9458
722.066	8882
722.181	9137
722.297	9824
722.413	9340
722.529	8359
722.645	8838
722.761	8327
722.877	8788
722.993	8629
723.108	10845
723.224	10049
723.340	8650
723.456	8506
723.571	9204
723.687	8488
723.803	7771
723.918	9654
724.034	7850
724.150	8643
724.265	8516
724.381	10060
724.497	11471
724.612	8975
724.728	8186
724.843	7756
724.959	8442
725.074	11016
725.190	11778
725.305	8147
725.421	7775
725.536	7741
725.651	7726
725.767	7545
725.882	8405
725.997	8161
726.113	8161
726.228	7244
726.343	7117
726.459	7050
726.574	7558
726.689	8110
726.804	7838
726.920	7766
727.035	7368
727.150	7749
727.265	7326
727.380	7747
727.495	7627
727.610	6494
727.725	7108
727.841	6947
727.956	8155
728.071	7193
728.186	6713
728.301	6718
728.416	7850
728.531	7751
728.645	7136
728.760	7969
728.875	6684
728.990	8509
729.105	7008
729.220	7979
729.335	7682
729.449	7546
729.564	5974
729.679	7207
729.794	7016
729.908	7269
730.023	7064
730.138	6644
730.253	7133
730.367	6520
730.482	6031
730.596	6607
730.711	7292
730.826	8511
730.940	7381
731.055	7022
731.169	7700
731.284	7155
731.398	7179
731.513	8079
731.627	7907
731.742	9089
731.856	9925
731.970	8878
732.085	11509
732.199	15009
732.313	23386
732.428	58157
732.542	189633
732.656	147186
732.771	23868
732.885	14414
732.999	11457
733.113	12830
733.227	11786
733.342	11218
733.456	11442
733.570	10074
733.684	10403
733.798	10592
733.912	10647
734.026	10043
734.140	9978
734.254	10726
734.368	10752
734.482	12603
734.596	10284
734.710	9320
734.824	9530
734.938	10158
735.052	9508
735.166	10372
735.280	9205
735.393	10001
735.507	9267
735.621	10120
735.735	11026
735.849	9017
735.962	8638
736.076	9380
736.190	9001
736.303	9098
736.417	10569
736.531	8420
736.644	9170
736.758	9045
736.872	7721
736.985	7805
737.099	8940
737.212	9284
737.326	8297
737.439	8282
737.553	8014
737.666	8358
737.780	7237
737.893	8429
738.007	8517
738.120	8783
738.233	7683
738.347	8960
738.460	7446
738.573	9582
738.687	8038
738.800	8384
738.913	9981
739.026	8179
739.140	8106
739.253	8114
739.366	8247
739.479	7627
739.592	7929
739.705	7401
739.818	8242
739.932	8010
740.045	8008
740.158	8317
740.271	7843
740.384	7693
740.497	7599
740.610	7684
740.723	6996
740.836	7699
740.949	7977
741.062	9787
741.174	8404
741.287	7508
741.400	7147
741.513	7273
741.626	8010
741.739	6637
741.851	7630
741.964	7929
742.077	6789
742.189	6732
742.302	8341
742.415	7837
742.527	6777
742.640	6523
742.753	6457
742.865	7025
742.978	7290
743.090	6815
743.203	7095
743.316	6312
743.428	6567
743.541	7007
743.653	6135
743.766	6891
743.878	6838
743.990	6139
744.103	6980
744.215	6714
744.327	6285
744.440	8655
744.552	10640
744.664	7766
744.777	6748
744.889	6032
745.001	6199
745.113	7888
745.226	5782
745.338	6758
745.450	6989
745.562	6134
745.674	5910
745.786	7162
745.898	5750
746.010	5340
746.122	5897
746.234	7128
746.347	6773
746.459	6736
746.570	5503
746.682	6204
746.794	6306
746.906	5215
747.018	6176
747.130	6357
747.242	5451
747.354	5980
747.466	6595
747.577	6320
747.689	5764
747.801	6029
747.913	5571
748.024	5202
748.136	5882
748.248	5217
748.359	4960
748.471	6338
748.583	5639
748.694	5866
748.806	5499
748.918	5911
749.029	5431
749.141	5763
749.252	6418
749.364	6252
749.475	10550
749.587	7405
749.698	5116
749.809	5174
749.921	5276
750.032	5633
750.144	5142
750.255	5704
750.366	4241
750.478	4900
750.589	5599
750.700	4722
750.811	6332
750.923	7150
751.034	10106
751.145	13218
751.256	5299
751.367	4560
751.479	4377
751.590	5028
751.701	4687
751.812	4309
751.923	4615
752.034	6165
752.145	5010
752.256	4480
752.367	3931
752.478	4841
752.589	4910
752.700	5554
752.811	4664
752.922	4326
753.032	5081
753.143	6503
753.254	4204
753.365	4939
753.476	5324
753.586	3966
753.697	4951
753.808	5130
753.919	3911
754.029	4557
754.140	3799
754.251	4950
754.361	3917
754.472	4594
754.582	4511
754.693	5129
754.804	5208
754.914	5129
755.025	4136
755.135	4343
755.246	4423
755.356	4090
755.466	4089
755.577	4053
755.687	4502
755.798	4254
755.908	4653
756.018	4256
756.129	4378
756.239	3940
756.349	4871
756.460	4256
756.570	4883
756.680	4465
756.790	4480
756.900	5597
757.011	5331
757.121	4222
757.231	3946
757.341	4428
757.451	3271
757.561	3523
757.671	4010
757.781	4452
757.891	5020
758.001	3572
758.111	4150
758.221	5309
758.331	4994
758.441	5966
758.551	5718
758.661	6705
758.771	5359
758.880	4652
758.990	4621
759.100	3916
759.210	4710
759.320	4454
759.429	4468
759.539	4500
759.649	4389
759.758	5545
759.868	5773
759.978	5913
760.087	5140
760.197	5885
760.307	5473
760.416	5236
760.526	5140
760.635	5321
760.745	5476
760.854	6478
760.964	6997
761.073	6523
761.182	5947
761.292	5256
761.401	5186
761.511	4267
761.620	3988
761.729	3727
761.839	4562
761.948	4032
762.057	4589
762.166	4673
762.276	3697
762.385	4088
762.494	4159
762.603	4754
762.712	4912
762.822	3872
762.931	3941
763.040	3394
763.149	3828
763.258	3626
763.367	3650
763.476	3755
763.585	3977
763.694	3623
763.803	4529
763.912	4340
764.021	3738
764.130	4099
764.238	3653
764.347	4580
764.456	4498
764.565	5017
764.674	3321
764.783	3899
764.891	3714
765.000	4007
765.109	4624
765.217	4673
765.326	4871
765.435	4900
765.543	5254
765.652	5845
765.761	5450
765.869	8047
765.978	11395
766.086	19703
766.195	39536
766.303	109211
766.412	402393
766.520	344794
766.629	50699
766.737	17314
766.846	11075
766.954	8036
767.062	8437
767.171	6393
767.279	5905
767.387	4580
767.496	4741
767.604	4333
767.712	4560
767.820	4152
767.928	5007
768.037	3964
768.145	4492
768.253	4439
768.361	3624
768.469	3749
768.577	3841
768.685	4516
768.793	3934
768.901	4256
769.009	4578
769.117	4559
769.225	5113
769.333	6545
769.441	9379
769.549	17254
769.657	39621
769.765	142811
769.873	359830
769.981	90408
770.088	13904
770.196	9125
770.304	7426
770.412	6822
770.519	5150
770.627	5496
770.735	3992
770.842	5017
770.950	4988
771.058	5086
771.165	4543
771.273	5331
771.380	5082
771.488	6781
771.595	7755
771.703	6629
771.810	6318
771.918	6937
772.025	7390
772.133	8094
772.240	7280
772.348	9471
772.455	7505
772.562	6377
772.670	6894
772.777	7782
772.884	7359
772.991	6824
773.099	8178
773.206	5775
773.313	6364
773.420	6884
773.528	7684
773.635	6423
773.742	6962
773.849	7094
773.956	6550
774.063	6607
774.170	6971
774.277	7054
774.384	6233
774.491	6246
774.598	6913
774.705	7217
774.812	7883
774.919	6781
775.026	6193
775.133	6479
775.239	5804
775.346	5948
775.453	5682
775.560	6278
775.667	5876
775.773	5378
775.880	6027
775.987	6631
776.093	5862
776.200	5784
776.307	4859
776.413	5559
776.520	5405
776.627	5756
776.733	5170
776.840	4697
776.946	6875
777.053	5386
777.159	5173
777.266	4772
777.372	5140
777.478	6382
777.585	5983
777.691	4875
777.798	6015
777.904	6096
778.010	6354
778.117	6160
778.223	4931
778.329	5709
778.435	4630
778.542	5339
778.648	4438
778.754	3837
778.860	5293
778.966	4961
779.072	4663
779.178	4940
779.284	5227
779.391	4534
779.497	4368
779.603	5939
779.708	4410
779.815	5593
779.920	7081
780.026	9219
780.132	5771
780.238	4649
780.344	4363
780.450	5387
780.556	3813
780.661	4409
780.767	5356
780.873	3824
780.979	4651
781.085	4665
781.190	4068
781.296	4495
781.402	4530
781.507	4307
781.613	4146
781.719	3945
781.824	5046
781.930	4130
782.035	4118
782.141	4585
782.246	3394
782.352	3521
782.457	5016
782.563	3588
782.668	4452
782.773	3448
782.879	3396
782.984	4520
783.090	4313
783.195	5663
783.300	5646
783.405	4159
783.511	3628
783.616	4772
783.721	4335
783.826	4171
783.932	3315
784.037	4009
784.142	3881
784.247	2772
784.352	4061
784.457	3763
784.562	3644
784.667	3541
784.772	2603
784.877	3096
784.982	3255
785.087	3654
785.192	3118
785.297	3562
785.402	3639
785.507	4107
785.611	3652
785.716	3202
785.821	3503
785.926	3400
786.031	3084
786.135	3707
786.240	2795
786.345	2496
786.450	3214
786.554	3483
786.659	3404
786.763	2792
786.868	2928
786.973	4098
787.077	2362
787.182	2742
787.286	2718
787.391	3457
787.495	2886
787.600	2265
787.704	2713
787.809	3089
787.913	2594
788.017	3555
788.122	3150
788.226	3598
788.330	2650
788.435	2764
788.539	3239
788.643	2734
788.747	2351
788.852	3256
788.956	2688
789.060	3168
789.164	3135
789.268	2344
789.372	3556
789.476	3256
789.580	2832
789.684	2493
789.788	2876
789.892	2497
789.996	2392
790.100	2387
790.204	2629
790.308	3636
790.412	2867
790.516	2476
790.620	2551
790.724	2834
790.828	2075
790.931	2740
791.035	3715
791.139	2987
791.242	2060
791.346	3779
791.450	3075
791.554	2104
791.657	1292
791.761	2739
791.864	3334
791.968	3223
792.072	3234
792.175	2611
792.279	2611
792.382	2963
792.486	2342
792.589	3010
792.693	2210
792.796	2147
792.899	3181
793.003	2615
793.106	1777
793.209	2377
793.313	2909
793.416	1722
793.519	2874
793.623	3618
793.726	4858
793.829	3422
793.932	2563
794.035	1928
794.138	3528
794.242	3569
794.345	2079
794.448	2921
794.551	3760
794.654	6959
794.757	4521
794.860	2905
794.963	2387
795.066	1977
795.169	2737
795.272	2497
795.375	3440
795.477	2156
795.580	2540
795.683	1417
795.786	2395
795.889	1431
795.991	2058
796.094	2446
796.197	1573
796.300	3084
796.402	1968
796.505	1750
796.608	1585
796.710	2433
796.813	2901
796.915	2068
797.018	1644
797.120	2839
797.223	2444
797.326	2862
797.428	1378
797.530	1598
797.633	1719
797.735	2539
797.838	1825
797.940	2291
798.042	2261
798.145	2221
798.247	2061
798.349	1671
798.452	2474
798.554	1748
798.656	1404
798.758	3287
798.860	2515
798.962	2271
799.065	1451
799.167	1187
799.269	2533
799.371	3106
799.473	2842
799.575	2208
799.677	2107
799.779	3426
799.881	3151
799.983	3381
800.085	2349
800.187	2000
800.289	1842
800.390	2064
800.492	2094
800.594	2008
800.696	1425
800.798	1605
800.899	1919
801.001	1819
801.103	1569
801.205	1935
801.306	908
801.408	942
801.509	1668
801.611	1873
801.713	2067
801.814	1097
801.916	1329
802.017	1658
802.119	819
802.220	1854
802.322	135
802.423	2895
802.525	681
802.626	553
802.727	1576
802.829	2702
802.930	-47
803.031	2955
803.133	1243
803.234	1266
803.335	1348
803.436	626
803.538	2175
803.639	1433
803.740	1809
803.841	1589
803.942	1487
804.043	1953
804.144	1710
804.245	669
804.346	708
804.447	1023
804.548	1699
804.649	4376
804.750	1429
804.851	1550
804.952	967
805.053	993
805.154	752
805.255	965
805.355	1351
805.456	425
805.557	1105
805.658	449
805.758	1983
805.859	2015
805.960	1815
806.061	1416
806.161	1670
806.262	1458
806.362	647
806.463	546
806.564	2329
806.664	1217
806.765	1572
806.865	1272
806.966	724
807.066	1367
807.166	1545
807.267	1544
807.367	1116
807.468	2402
807.568	684
807.668	1347
807.769	1172
807.869	1340
807.969	1246
808.069	974
808.170	548
808.270	1419
808.370	2039
808.470	1563
808.570	1381
808.670	1032
808.770	1305
808.870	674
808.970	1502
809.070	705
809.170	581
809.271	1345
809.370	339
809.470	2224
809.570	595
809.670	821
809.770	944
809.870	1479
809.970	906
810.070	1152
810.169	1187
810.269	432
810.369	1564
810.469	897
810.568	893
810.668	1
810.768	924
810.867	1093
810.967	498
811.066	1447
811.166	368
811.265	1700
811.365	1065
811.464	865
811.564	1182
811.663	2017
811.763	688
811.862	1692
811.962	1252
812.061	818
812.160	869
812.260	554
812.359	1296
812.458	720
812.557	612
812.657	1446
812.756	1749
812.855	1715
812.954	425
813.053	58
813.153	417
813.252	375
813.351	1219
813.450	1448
813.549	262
813.648	559
813.747	118
813.846	1266
813.945	853
814.044	814
814.143	707
814.242	666
814.341	19
814.439	836
814.538	1346
814.637	1129
814.736	1098
814.835	1130
814.933	763
815.032	1731
815.131	2603
815.229	2641
815.328	4746
815.427	3050
815.525	2671
815.624	3221
815.722	2771
815.821	3410
815.919	3524
816.018	3790
816.116	3290
816.215	3266
816.313	3495
816.412	3919
816.510	3707
816.609	4663
816.707	5424
816.805	4260
816.904	4126
817.002	3710
817.100	4666
817.198	5437
817.296	3997
817.395	4682
817.493	4787
817.591	4327
817.689	4748
817.787	5167
817.885	8395
817.983	11225
818.081	23309
818.179	54431
818.277	142872
818.375	138966
818.473	31557
818.571	12813
818.669	9197
818.767	7866
818.865	7713
818.963	9007
819.061	12163
819.158	20178
819.256	44990
819.354	106581
819.452	261923
819.549	184618
819.647	41844
819.745	15428
819.842	9924
819.940	8176
820.038	6330
820.135	5233
820.233	5470
820.330	3730
820.428	4099
820.525	4475
820.623	2816
820.720	3379
820.818	3969
820.915	3649
821.012	2836
821.110	2458
821.207	3117
821.304	2967
821.402	2761
821.499	2872
821.596	3617
821.693	2860
821.791	4233
821.888	3965
821.985	6420
822.082	5060
822.179	3328
822.276	2891
822.373	2482
822.470	2658
822.567	3766
822.664	1917
822.761	1968
822.858	2288
822.955	1930
823.052	2359
823.149	2857
823.246	2313
823.343	1842
823.440	2083
823.536	1907
823.633	3035
823.730	1340
823.827	2727
823.923	1875
824.020	2964
824.117	2420
824.213	1251
824.310	1907
824.407	1347
824.503	2266
824.600	2316
824.696	1003
824.793	2683
824.889	2518
824.986	2278
825.082	1099
825.179	1941
825.275	1795
825.371	1693
825.468	1717
825.564	484
825.660	1960
825.757	2431
825.853	2051
825.949	1108
826.045	1374
826.142	2022
826.238	1649
826.334	2222
826.430	1509
826.526	1535
826.622	993
826.718	1699
826.814	1704
826.910	2443
827.006	622
827.102	1391
827.198	1820
827.294	1559
827.390	2153
827.486	1396
827.582	462
827.678	1285
827.774	2313
827.869	1086
827.965	2127
828.061	744
828.157	693
828.252	1665
828.348	947
828.444	1364
828.539	691
828.635	2222
828.731	1789
828.826	1336
828.922	1863
829.017	1992
829.113	1471
829.208	791
829.304	1489
829.399	2471
829.495	1158
829.590	1534
829.685	563
829.781	2288
829.876	1103
829.971	848
830.066	1192
830.162	1129
830.257	2073
830.352	1672
830.447	2027
830.543	909
830.638	206
830.733	2427
830.828	1001
830.923	2231
831.018	1409
831.113	1097
831.208	165
831.303	426
831.398	743
831.493	1408
831.588	1741
831.683	483
831.778	1076
831.873	1036
831.967	1707
832.062	1257
832.157	86
832.252	1534
832.346	1155
832.441	1938
832.536	2446
832.631	4542
832.725	5636
832.820	1106
832.914	590
833.009	837
833.104	1198
833.198	2274
833.293	560
833.387	1491
833.482	644
833.576	551
833.670	1293
833.765	1122
833.859	1114
833.954	1413
834.048	1612
834.142	1143
834.237	416
834.331	937
834.425	1042
834.519	-62
834.613	1118
834.708	-227
834.802	874
834.896	986
834.990	1032
835.084	1699
835.178	310
835.272	750
835.366	791
835.460	2029
835.554	970
835.648	253
835.742	74
835.836	710
835.930	-239
836.024	1268
836.117	954
836.211	817
836.305	657
836.399	969
836.493	185
836.586	890
836.680	301
836.774	509
836.867	992
836.961	-358
837.055	-39
837.148	361
837.242	1136
837.335	198
837.429	340
837.522	-179
837.616	1222
837.709	1478
837.803	303
837.896	564
837.989	304
838.083	720
838.176	388
838.269	124
838.363	1173
838.456	471
838.549	1536
838.642	2113
838.735	5546
838.829	3394
838.922	76
839.015	511
839.108	-74
839.201	475
839.294	1428
839.387	675
839.480	309
839.573	649
839.666	178
839.759	818
839.852	-950
839.945	-38
840.038	558
840.131	483
840.223	300
840.316	836
840.409	639
840.502	497
840.594	958
840.687	-246
840.780	697
840.873	-662
840.965	561
841.058	257
841.150	1140
841.243	-757
841.336	-169
841.428	607
841.521	400
841.613	387
841.706	1111
841.798	513
841.890	899
841.983	116
842.075	332
842.167	1161
842.260	136
842.352	1694
842.444	628
842.537	871
842.629	1590
842.721	509
842.813	-184
842.905	-260
842.997	1077
843.090	212
843.182	780
843.274	-42
843.366	2194
843.458	4205
843.550	3795
843.642	726
843.734	464
843.826	555
843.918	898
844.009	195
844.101	579
844.193	340
844.285	466
844.377	822
844.469	725
844.560	-545
844.652	-146
844.744	-191
844.835	267
844.927	896
845.019	442
845.110	-108
845.202	368
845.293	75
845.385	-534
845.476	-33
845.568	685
845.659	-174
845.751	1005
845.842	-344
845.934	308
846.025	627
846.116	556
846.208	-202
846.299	67
846.390	-301
846.482	147
846.573	835
846.664	1190
846.755	1384
846.846	918
846.937	-528
847.029	195
847.120	105
847.211	-644
847.302	955
847.393	190
847.484	713
847.575	-390
847.666	-16
847.757	-680
847.847	-811
847.938	570
848.029	528
848.120	-292
848.211	708
848.302	-680
848.392	-303
848.483	809
848.574	-416
848.664	-333
848.755	667
848.846	449
848.936	386
849.027	397
849.118	-93
849.208	152
849.299	1380
849.389	2641
849.480	5061
849.570	11617
849.661	20728
849.751	45217
849.841	20407
849.932	2552
850.022	932
850.112	1477
850.203	588
850.293	-654
850.383	823
850.474	-797
850.564	166
850.654	-474
850.744	82
850.834	-521
850.924	353
851.014	1232
851.104	-432
851.194	518
851.284	1111
851.374	1094
851.464	519
851.554	215
851.644	-179
851.734	334
851.824	-170
851.914	-298
852.004	683
852.094	-96
852.183	-320
852.273	160
852.363	132
852.452	-243
852.542	-512
852.632	39
852.721	303
852.811	-441
852.901	901
852.990	-52
853.080	583
853.169	-81
853.259	443
853.348	708
853.438	879
853.527	1396
853.617	2423
853.706	6553
853.795	12055
853.885	27563
853.974	58003
854.063	101706
854.152	184896
854.242	93621
854.331	15380
854.420	4861
854.509	4006
854.598	2577
854.687	1400
854.777	1859
854.866	1304
854.955	567
855.044	456
855.133	684
855.222	619
855.311	-339
855.400	296
855.488	87
855.577	-205
855.666	528
855.755	165
855.844	148
855.933	-192
856.021	-29
856.110	155
856.199	134
856.288	-656
856.376	-819
856.465	-661
856.554	149
856.642	-1367
856.731	-57
856.819	-335
856.908	13
856.996	-211
857.085	-948
857.173	-118
857.262	-1031
857.350	22
857.438	-290
857.527	-366
857.615	-382
857.703	114
857.792	-577
857.880	-442
857.968	-388
858.056	-221
858.145	318
858.233	457
858.321	-400
858.409	645
858.497	-915
858.585	-240
858.673	-484
858.761	-186
858.849	-92
858.937	-452
859.025	-587
859.113	-179
859.201	-606
859.289	-572
859.377	-458
859.465	-741
859.552	-594
859.640	-748
859.728	449
859.816	-718
859.903	-394
859.991	-722
860.079	-116
860.166	-831
860.254	-387
860.342	-111
860.429	-684
860.517	-610
860.604	-477
860.692	-11
860.779	-928
860.867	166
860.954	-839
861.042	-65
861.129	98
861.216	393
861.304	-311
861.391	-327
861.478	180
861.565	402
861.653	210
861.740	-266
861.827	-1378
861.914	187
862.001	-914
862.089	57
862.176	361
862.263	-217
862.350	-223
862.437	-503
862.524	-326
862.611	-309
862.698	-252
862.785	399
862.871	-212
862.958	113
863.045	-318
863.132	484
863.219	-258
863.306	-331
863.392	441
863.479	-393
863.566	-257
863.652	-12
863.739	-418
863.826	289
863.912	-680
863.999	-237
864.086	-146
864.172	-21
864.259	64
864.345	-250
864.432	-147
864.518	144
864.604	253
864.691	607
864.777	919
864.863	1187
864.950	135
865.036	1010
865.122	1943
865.209	3431
865.295	2203
865.381	2387
865.467	2878
865.553	3899
865.639	4665
865.726	7748
865.812	16282
865.898	31465
865.984	48787
866.070	84309
866.156	116659
866.242	39410
866.328	8322
866.414	3164
866.499	3963
866.585	3434
866.671	2729
866.757	2482
866.843	2120
866.928	2291
867.014	1664
867.100	2600
867.186	1857
867.271	2580
867.357	2303
867.442	2076
867.528	1668
867.614	2138
867.699	1841
867.785	1488
867.870	923
867.956	1599
868.041	1878
868.127	1449
868.212	2149
868.297	1783
868.383	1959
868.468	2718
868.553	3173
868.639	4413
868.724	6930
868.809	8844
868.894	2474
868.979	1574
869.065	2332
869.150	882
869.235	769
869.320	853
869.405	1218
869.490	899
869.575	1839
869.660	1090
869.745	1113
869.830	1162
869.915	1012
870.000	1152
870.085	1046
870.169	1779
870.254	1526
870.339	669
870.424	720
870.509	812
870.593	1330
870.678	1665
870.763	1311
870.847	1002
870.932	1106
871.016	898
871.101	509
871.186	439
871.270	802
871.355	524
871.439	856
871.523	538
871.608	-190
871.692	733
871.777	582
871.861	1659
871.945	594
872.030	813
872.114	-172
872.198	1563
872.282	347
872.367	1240
872.451	513
872.535	1201
872.619	839
872.703	1032
872.787	861
872.871	1949
872.955	439
873.039	963
873.123	802
873.207	1887
873.291	97
873.375	38
873.459	476
873.543	909
873.627	-380
873.711	395
873.794	465
873.878	607
873.962	251
874.045	343
874.129	232
874.137	283
874.213	790
874.245	504
874.296	33
874.352	-146
874.380	-227
874.460	-194
874.464	-193
874.547	385
874.568	315
874.631	118
874.676	542
874.714	890
874.784	932
874.798	940
874.881	1465
874.892	1246
874.965	-222
874.999	101
875.048	486
875.107	58
875.131	-96
875.215	582
875.215	581
875.298	-181
875.323	26
875.381	558
875.430	543
875.465	498
875.538	928
875.548	993
875.631	182
875.646	151
875.714	-30
875.753	-120
875.798	-203
875.861	36
875.881	94
875.964	-216
875.968	-223
876.047	-268
876.076	70
876.130	728
876.183	1197
876.213	1411
876.291	1135
876.296	1126
876.379	835
876.398	578
876.462	-403
876.506	-376
876.545	-264
876.613	99
876.628	149
876.711	-136
876.721	-81
876.794	586
876.828	740
876.877	686
876.935	-49
876.960	-245
877.043	6
877.043	7
877.125	81
877.150	303
877.208	864
877.258	603
877.291	474
877.365	239
877.374	191
877.456	220
877.472	208
877.539	103
877.579	-193
877.622	-448
877.687	3
877.704	132
877.787	-229
877.794	-179
877.869	415
877.901	349
877.952	162
878.008	265
878.034	330
878.115	-234
878.117	-244
878.199	244
878.222	215
878.282	173
878.329	531
878.364	713
878.437	337
878.447	287
878.529	28
878.544	-74
878.611	-354
878.651	-21
878.694	295
878.758	102
878.776	22
878.858	770
878.865	712
878.941	102
878.972	80
879.023	56
879.078	25
879.105	21
879.185	1295
879.187	1318
879.269	105
879.292	116
879.351	182
879.399	96
879.433	66
879.506	489
879.516	557
879.598	464
879.613	439
879.680	82
879.720	279
879.762	652
879.827	656
879.844	630
879.926	567
879.933	567
880.007	423
880.040	563
880.089	929
880.147	1488
880.171	1642
880.253	2477
880.254	2489
880.335	4798
880.360	5102
880.417	5992
880.467	8962
880.499	10876
880.574	14371
880.580	14471
880.662	5164
880.680	4101
880.744	1119
880.787	707
880.825	570
880.893	487
880.907	468
880.989	338
881.000	335
881.070	340
881.106	444
881.152	633
881.213	-84
881.233	-319
881.315	484
881.319	497
881.396	863
881.426	706
881.478	85
881.532	138
881.559	294
881.639	197
881.641	199
881.722	625
881.745	540
881.803	305
881.852	379
881.885	261
881.958	305
881.966	338
882.047	310
882.064	336
882.129	576
882.171	729
882.210	805
882.277	1227
882.291	1353
882.372	1299
882.383	1326
882.454	599
882.489	-8
882.535	44
882.596	557
882.616	506
882.697	-4
882.702	-21
882.778	174
882.808	183
882.859	-115
882.914	-200
882.940	-127
883.020	-264
883.021	-261
883.102	291
883.127	389
883.183	387
883.233	441
883.264	502
883.339	86
883.345	39
883.426	122
883.445	79
883.507	80
883.551	33
883.587	131
883.657	196
883.668	162
883.749	515
883.763	432
883.830	59
883.869	169
883.910	255
883.975	-79
883.991	-121
884.072	234
884.081	214
884.152	359
884.187	529
884.233	458
884.292	602
884.314	560
884.394	-367
884.398	-397
884.475	-129
884.504	45
884.555	161
884.610	190
884.636	169
884.716	-15
884.716	-7
884.797	811
884.821	1122
884.877	805
884.927	62
884.958	-187
885.033	40
885.038	88
885.118	98
885.139	242
885.199	782
885.244	1168
885.279	1046
885.350	780
885.359	829
885.439	835
885.456	803
885.520	544
885.561	626
885.600	467
885.667	203
885.680	259
885.760	335
885.773	373
885.840	325
885.878	295
885.920	351
885.984	415
886.000	460
886.080	546
886.089	572
886.160	500
886.195	372
886.240	381
886.300	547
886.320	567
886.400	272
886.406	280
886.480	690
886.511	758
886.560	512
886.616	192
886.640	244
886.720	591
886.722	592
886.800	489
886.827	508
886.879	652
886.932	787
886.959	914
887.038	1011
887.039	1014
887.119	947
887.143	896
887.198	600
887.248	293
887.278	379
887.354	491
887.358	466
887.437	0
887.459	-144
887.517	186
887.564	524
887.596	539
887.669	402
887.676	402
887.755	485
887.774	486
887.835	327
887.880	330
887.914	511
887.985	543
887.994	516
888.073	594
888.090	538
888.153	446
888.195	441
888.232	653
888.300	1118
888.311	1046
888.391	407
888.405	287
888.470	344
888.510	396
888.549	461
888.615	573
888.628	587
888.708	631
888.720	632
888.787	289
888.825	102
888.866	207
888.930	301
888.945	324
889.024	564
889.035	584
889.103	777
889.140	877
889.182	461
889.245	-131
889.261	30
889.340	802
889.349	885
889.419	769
889.454	730
889.498	674
889.559	576
889.577	579
889.656	589
889.664	590
889.735	921
889.768	1073
889.814	599
889.873	-31
889.978	352
890.083	574
890.187	94
890.292	341
890.397	630
890.501	283
890.606	133
890.710	908
890.815	892
890.919	-115
891.024	537
891.128	297
891.233	1008
891.337	307
891.442	694
891.546	300
891.650	942
891.755	978
891.859	1545
891.963	907
892.068	908
892.172	57
892.276	1056
892.380	-44
892.484	878
892.589	594
892.693	-439
892.797	502
892.901	617
893.005	413
893.109	1274
893.213	339
893.317	184
893.421	1022
893.525	-226
893.629	685
893.733	806
893.837	253
893.941	450
894.045	857
894.148	118
894.252	510
894.356	1083
894.460	521
894.564	482
894.667	195
894.771	20
894.875	247
894.978	456
895.082	773
895.186	1396
895.289	589
895.393	271
895.496	679
895.600	-142
895.703	371
895.807	88
895.910	504
896.014	273
896.117	514
896.221	568
896.324	788
896.427	264
896.531	75
896.634	791
896.737	792
896.840	1191
896.944	689
897.047	808
897.150	-6
897.253	994
897.356	892
897.460	1074
897.563	330
897.666	487
897.769	1140
897.872	698
897.975	307
898.078	-208
898.181	201
898.284	403
898.387	611
898.490	773
898.593	648
898.695	617
898.798	24
898.901	702
899.004	295
899.107	993
899.209	981
899.312	61
899.415	-62
899.518	-176
899.620	569
899.723	693
899.826	325
899.928	1282
900.031	265
900.133	627
900.236	967
900.338	85
900.441	204
900.543	37
900.646	350
900.748	409
900.851	-112
900.953	-225
901.055	292
901.158	421
901.260	183
901.362	688
901.465	-164
901.567	651
901.669	498
901.771	598
901.873	81
901.976	-818
902.078	-24
902.180	570
902.282	615
902.384	145
902.486	1070
902.588	289
902.690	544
902.792	701
902.894	294
902.996	718
903.098	636
903.200	212
903.302	206
903.404	1194
903.505	-139
903.607	453
903.709	252
903.811	-607
903.913	661
904.014	291
904.116	335
904.218	959
904.319	749
904.421	946
904.523	242
904.624	480
904.726	949
904.827	879
904.929	-286
905.030	-376
905.132	156
905.233	-589
905.335	394
905.436	129
905.537	-273
905.639	1111
905.740	-30
905.841	574
905.943	209
906.044	321
906.145	375
906.247	364
906.348	1331
906.449	29
906.550	417
906.651	296
906.752	-98
906.854	744
906.955	150
907.056	498
907.157	719
907.258	-474
907.359	-56
907.460	78
907.561	137
907.662	-50
907.762	711
907.863	272
907.964	214
908.065	314
908.166	-241
908.267	54
908.367	120
908.468	814
908.569	319
908.670	243
908.770	986
908.871	486
908.971	550
909.072	-82
909.173	-839
909.273	375
909.374	246
909.474	667
909.575	577
909.675	160
909.776	740
909.876	1003
909.977	886
910.077	256
910.177	465
910.278	-402
910.378	632
910.478	-267
910.579	1089
910.679	1238
910.779	-264
910.879	-696
910.980	495
911.080	778
911.180	620
911.280	139
911.380	118
911.480	540
911.580	341
911.680	35
911.780	-87
911.880	1463
911.980	456
912.080	613
912.180	-335
912.280	-245
912.380	555
912.480	51
912.580	185
912.679	-149
912.779	352
912.879	45
912.979	724
913.078	-20
913.178	110
913.278	417
913.377	451
913.477	515
913.577	-7
913.676	499
913.776	513
913.875	354
913.975	216
914.074	611
914.174	516
914.273	463
914.373	453
914.472	-142
914.572	-525
914.671	-151
914.770	-235
914.870	-761
914.969	-636
915.068	-87
915.167	532
915.267	-81
915.366	-434
915.465	222
915.564	372
915.663	264
915.763	457
915.862	251
915.961	69
916.060	714
916.159	-34
916.258	-629
916.357	423
916.456	166
916.555	351
916.654	469
916.752	-337
916.851	213
916.950	476
917.049	205
917.148	212
917.247	699
917.345	16
917.444	450
917.543	196
917.642	123
917.740	114
917.839	-133
917.937	1066
918.036	738
918.135	162
918.233	88
918.332	-526
918.430	-633
918.529	-412
918.627	361
918.726	-215
918.824	63
918.923	-242
919.021	137
919.119	232
919.218	-205
919.316	-100
919.414	942
919.512	268
919.611	299
919.709	1074
919.807	1016
919.905	-317
920.003	120
920.102	1070
920.200	3
920.298	472
920.396	1
920.494	907
920.592	-110
920.690	743
920.788	488
920.886	843
920.984	506
921.082	-326
921.180	145
921.277	382
921.375	276
921.473	1216
921.571	313
921.669	484
921.766	818
921.864	611
921.962	745
922.060	229
922.157	329
922.255	1205
922.352	381
922.450	1129
922.548	856
922.645	-233
922.743	995
922.840	1253
922.938	1968
923.035	1906
923.133	1992
923.230	1679
923.327	2191
923.425	2681
923.522	2107
923.619	1832
923.717	2012
923.814	1915
923.911	1495
924.008	2197
924.106	1228
924.203	1710
924.300	1419
924.397	1427
924.494	2021
924.591	1611
924.688	1710
924.786	2367
924.883	1981
924.979	1834
925.077	2102
925.173	1272
925.270	1384
925.367	1692
925.464	1700
925.561	1844
925.658	1569
925.755	1882
925.852	2482
925.948	1661
926.045	1462
926.142	1570
926.239	1384
926.335	2016
926.432	2123
926.529	1990
926.625	2510
926.722	1025
926.818	1164
926.915	2115
927.011	2037
927.108	1221
927.204	1668
927.301	904
927.397	2245
927.494	1779
927.590	1705
927.687	1139
927.783	1996
927.879	2239
927.976	1327
928.072	1549
928.168	1697
928.264	1537
928.361	1496
928.457	1207
928.553	2222
928.649	1329
928.745	2191
928.841	1633
928.937	1249
929.033	1192
929.129	1485
929.225	2206
929.321	1934
929.417	1576
929.513	1375
929.609	1948
929.705	1824
929.801	2045
929.897	1558
929.993	849
930.089	379
930.184	1244
930.280	1517
930.376	1975
930.471	1306
930.567	817
930.663	1204
930.758	1068
930.854	1137
930.950	1570
931.045	633
931.141	1870
931.236	2189
931.332	978
931.427	725
931.523	1322
931.618	1824
931.714	763
931.809	521
931.905	1171
932.000	809
932.095	422
932.191	1511
932.286	1065
932.381	1297
932.476	725
932.572	1305
932.667	509
932.762	1028
932.857	2179
932.952	1641
933.047	865
933.142	1168
933.237	312
933.332	816
933.427	1200
933.522	1106
933.617	1378
933.712	601
933.807	1635
933.902	1326
933.997	1702
934.092	655
934.187	1426
934.282	579
934.376	1229
934.471	1190
934.566	777
934.661	1177
934.755	1235
934.850	1246
934.945	-197
935.039	1239
935.134	332
935.228	1208
935.323	1232
935.417	1392
935.512	299
935.606	745
935.701	1067
935.795	1344
935.890	394
935.984	1497
936.079	486
936.173	1521
936.267	-353
936.362	212
936.456	1377
936.550	1569
936.644	1423
936.738	229
936.833	598
936.927	12
937.021	1131
937.115	253
937.209	543
937.303	692
937.397	1114
937.491	175
937.585	1034
937.679	306
937.773	204
937.867	1324
937.961	1092
938.055	935
938.149	943
938.243	416
938.337	209
938.430	697
938.524	729
938.618	187
938.712	214
938.805	613
938.899	-380
938.993	826
939.086	623
939.180	-508
939.274	262
939.367	338
939.461	900
939.554	-797
939.648	-79
939.741	691
939.835	606
939.928	827
940.022	1609
940.115	1250
940.208	588
940.302	1109
940.395	1051
940.488	-191
940.582	750
940.675	177
940.768	394
940.861	825
940.954	814
941.048	-223
941.141	103
941.234	715
941.327	739
941.420	600
941.513	905
941.606	1190
941.699	302
941.792	766
941.885	786
941.978	1365
942.071	277
942.164	427
942.257	-606
942.349	587
942.442	858
942.535	-472
942.628	222
942.721	845
942.813	804
942.906	496
942.999	980
943.091	204
943.184	689
943.277	-464
943.369	177
943.462	350
943.554	719
943.647	-284
943.739	1031
943.832	192
943.924	-777
944.017	64
944.109	-748
944.201	574
944.294	752
944.386	-253
944.478	-366
944.571	553
944.663	-438
944.755	542
944.847	1431
944.940	505
945.032	-56
945.124	475
945.216	678
945.308	13
945.400	980
945.492	-72
945.584	476
945.676	614
945.768	88
945.860	634
945.952	62
946.044	852
946.136	151
946.228	278
946.320	-507
946.412	210
946.503	-85
946.595	754
946.687	-24
946.779	-289
946.870	49
946.962	540
947.054	257
947.145	453
947.237	56
947.329	-978
947.420	-202
947.512	475
947.603	-216
947.695	-123
947.786	169
947.878	69
947.969	351
948.061	-295
948.152	74
948.243	163
948.335	-76
948.426	-416
948.517	-470
948.609	-90
948.700	421
948.791	387
948.882	-218
948.973	559
949.065	45
949.156	605
949.247	-275
949.338	-76
949.429	288
949.520	-120
949.611	-649
949.702	1276
949.793	-119
949.884	-70
949.975	31
950.066	177
950.157	338
950.247	-181
950.338	-194
950.429	-395
950.520	74
950.611	149
950.701	-482
950.792	774
950.883	1025
950.973	357
951.064	-297
951.155	126
951.245	515
951.336	-56
951.427	36
951.517	1052
951.608	1002
951.698	-45
951.788	-626
951.879	-436
951.969	-732
952.060	-317
952.150	-169
952.240	113
952.331	-578
952.421	-196
952.511	-348
952.602	-70
952.692	44
952.782	-225
952.872	-503
952.962	666
953.052	-546
953.143	-730
953.233	469
953.323	122
953.413	-335
953.503	370
953.593	121
953.683	-274
953.773	-239
953.863	-341
953.953	372
954.042	-396
954.132	-630
954.222	494
954.312	-238
954.402	202
954.492	-174
954.581	-413
954.671	-677
954.761	-754
954.850	238
954.940	-401
955.030	-1026
955.119	-732
955.209	-562
955.298	-561
955.388	-364
955.477	-194
955.567	-568
955.656	374
955.746	126
955.835	-189
955.925	-815
956.014	166
956.103	-1188
956.193	69
956.282	-645
956.371	-1085
956.461	-647
956.550	974
956.639	-460
956.728	-741
956.817	114
956.906	-965
956.995	73
957.085	-619
957.174	34
957.263	-254
957.352	-165
957.441	-669
957.530	-50
957.619	-209
957.708	-523
957.796	-256
957.885	-880
957.974	-519
958.063	232
958.152	-551
958.241	530
958.329	80
958.418	533
958.507	-602
958.596	378
958.684	349
958.773	-523
958.861	258
958.950	-287
959.039	-512
959.127	364
959.216	-120
959.304	-1121
959.393	-196
959.481	-123
959.570	-119
959.658	-157
959.746	249
959.835	-496
959.923	-247
960.011	-1093
960.100	-204
960.188	-936
960.276	-205
960.365	-593
960.453	-365
960.541	-351
960.629	249
960.717	-960
960.805	-1115
960.893	-113
960.981	-1278
961.069	-135
961.158	-448
961.245	-1370
961.333	213
961.421	-530
961.509	225
961.597	-420
961.685	-43
961.773	-684
961.861	-701
961.949	-281
962.036	-825
962.124	-72
962.212	-621
962.299	-518
962.387	-524
962.475	-241
962.562	-1093
962.650	-696
962.738	121
962.825	-1209
962.913	-401
963.000	-527
963.088	202
963.175	-95
963.263	-669
963.350	-553
963.438	-638
963.525	-786
963.612	-674
963.700	-590
963.787	1600
963.874	355
963.962	-278
964.049	-1336
964.136	345
964.223	-506
964.310	-419
964.398	-453
964.485	-1486
964.572	-89
964.659	-345
964.746	-749
964.833	-850
964.920	-199
965.007	-240
965.094	-455
965.181	-903
965.268	280
965.355	-370
965.441	-328
965.528	-1164
965.615	-365
965.702	-83
965.789	-1378
965.875	-625
965.962	-883
966.049	-485
966.136	-597
966.222	284
966.309	413
966.395	-753
966.482	-105
966.569	-731
966.655	-674
966.742	-974
966.828	-543
966.915	-350
967.001	-404
967.087	-1021
967.174	-381
967.260	-492
967.347	-552
967.433	-239
967.519	940
967.605	-690
967.692	-709
967.778	-183
967.864	-591
967.950	-142
968.036	109
968.123	-382
968.209	61
968.295	-1311
968.381	684
968.467	-313
968.553	-1494
968.639	-90
968.725	-885
968.811	-295
968.897	-487
968.983	-371
969.069	-1156
969.154	-15
969.240	-482
969.326	-453
969.412	-1003
969.497	-789
969.583	-677
969.669	-428
969.755	-178
969.840	-712
969.926	-331
970.012	-346
970.097	660
970.183	-445
970.268	-571
970.354	-5
970.439	-1394
970.525	191
970.610	-1091
970.696	-804
970.781	-660
970.866	-1457
970.952	-106
971.037	-763
971.122	-1566
971.208	-612
971.293	637
971.378	-588
971.463	-1205
971.549	-992
971.634	-248
971.719	-870
971.804	-338
971.889	-145
971.974	-669
972.059	-499
972.144	-614
972.229	-580
972.314	-402
972.399	-605
972.484	-1265
972.569	-613
972.654	-680
972.739	95
972.824	-903
972.908	-990
972.993	-1066
973.078	-423
973.163	-797
973.247	-91
973.332	-1148
973.417	168
973.501	-1637
973.586	414
973.671	-1397
973.755	-642
973.840	-98
973.924	240
974.009	-824
974.093	-1286
974.178	216
974.262	-12
974.346	-912
974.431	-132
974.515	44
974.600	-579
974.684	-425
974.768	-721
974.852	128
974.937	-1133
975.021	-586
975.105	-786
975.189	-252
975.273	-790
975.358	-803
975.442	-1065
975.526	-498
975.610	-482
975.694	-359
975.778	-196
975.862	-1201
975.946	-1845
976.030	-85
976.114	-1225
976.198	-115
976.281	-127
976.365	-217
976.449	-1270
976.533	-734
976.617	-1334
976.700	-470
976.784	-971
976.868	-648
976.951	-817
977.035	-488
977.119	-593
977.202	-612
977.286	-228
977.369	-525
977.453	96
977.536	-351
977.620	-881
977.703	-400
977.787	-1291
977.870	210
977.953	231
978.037	-1225
978.120	199
978.203	-1097
978.287	-292
978.370	-956
978.453	-674
978.536	-849
978.620	26
978.703	-557
978.786	-484
978.869	-1386
978.952	-1616
979.035	-250
979.118	-65
979.201	-1151
979.284	-329
979.367	-654
979.450	-1009
979.533	-621
979.616	-1217
979.699	-548
979.782	-386
979.865	-319
979.948	-572
980.030	-691
980.113	-536
980.196	-1334
980.279	-318
980.361	-1132
980.444	-261
980.526	-664
980.609	-356
980.692	-941
980.774	136
980.857	-929
980.939	-86
981.022	-988
981.104	-1532
981.187	-864
981.269	-507
981.352	-973
981.434	-754
981.516	-988
981.599	736
981.681	-1241
981.763	-1139
981.846	-658
981.928	-1488
982.010	-977
982.092	-638
982.174	235
982.256	-1184
982.339	-151
982.421	-263
982.503	-825
982.585	-1455
982.667	-1012
982.749	-1316
982.831	-1053
982.913	-1024
982.995	-929
983.077	-1550
983.158	-320
983.240	-1555
983.322	-172
983.404	-704
983.486	-1156
983.568	-766
983.649	-315
983.731	818
983.813	-979
983.894	-625
983.976	-760
984.058	-698
984.139	0
984.221	-911
984.302	230
984.384	-639
984.465	-1400
984.547	-94
984.628	-1321
984.710	-71
984.791	-472
984.872	-350
984.954	-1413
985.035	-149
985.116	-1603
985.198	-797
985.279	356
985.360	-1171
985.441	-740
985.522	311
985.604	-906
985.685	-1861
985.766	185
985.847	-64
985.928	-1068
986.009	-254
986.090	-1023
986.171	96
986.252	-1000
986.333	-481
986.414	-559
986.495	-784
986.576	-1597
986.656	-572
986.737	-113
986.818	-142
986.899	-1334
986.980	-891
987.060	-196
987.141	-1133
987.222	-976
987.302	-698
987.383	20
987.464	-528
987.544	-189
987.625	-1067
987.705	-22
987.786	-380
987.866	-736
987.947	-1103
988.027	-995
988.108	-1147
988.188	-918
988.268	-643
988.349	261
988.429	-792
988.509	-986
988.589	-22
988.670	-1275
988.750	827
988.830	-351
988.910	-408
988.990	28
989.070	-1777
989.151	-622
989.231	-647
989.311	-338
989.391	-628
989.471	-1165
989.551	-570
989.631	-522
989.711	140
989.791	-990
989.870	-1482
989.950	44
990.030	-1295
990.110	-953
990.190	-621
990.269	-1382
990.349	-1350
990.429	-1086
990.509	-1068
990.588	-1876
990.668	-256
990.747	-530
990.827	-673
990.907	-903
990.986	-1022
991.066	-724
991.145	-1077
991.225	-141
991.304	-681
991.383	-413
991.463	-972
991.542	-1031
991.622	-1109
991.701	-1401
991.780	-968
991.859	-504
991.939	-1112
992.018	-820
992.097	-180
992.176	-590
992.256	-665
992.335	-1603
992.414	-261
992.493	-1301
992.572	-736
992.651	-688
992.730	-337
992.809	186
992.888	-1585
992.967	-894
993.046	-372
993.125	-1875
993.203	-1154
993.282	-999
993.361	-913
993.440	-978
993.519	-1460
993.597	-1032
993.676	-1958
993.755	-289
993.834	-885
993.912	-2147
993.991	-80
994.069	-552
994.148	-974
994.226	-1709
994.305	-1602
994.384	-1000
994.462	-259
994.540	-1745
994.619	-1286
994.697	-768
994.776	-1433
994.854	-289
994.932	-865
995.011	-818
995.089	-1139
995.167	-961
995.245	-880
995.324	-1992
995.402	-1059
995.480	-1192
995.558	-1148
995.636	-1502
995.714	-908
995.792	-246
995.870	-1482
995.948	-1218
996.026	-1507
996.104	-935
996.182	277
996.260	-1888
996.338	-927
996.416	-1416
996.494	-691
996.572	-176
996.649	-1346
996.727	-1118
996.805	-529
996.883	-217
996.960	-943
997.038	-884
997.116	-759
997.193	-1801
997.271	-363
997.348	-1280
997.426	-1249
997.504	-1259
997.581	-213
997.658	-1429
997.736	-1840
997.813	-1868
997.891	-254
997.968	-1166
998.046	-1685
998.123	-1844
998.200	-1486
998.277	-2032
998.355	-1107
998.432	-2214
998.509	-1130
998.586	-894
998.663	-1118
998.741	-866
998.818	-965
998.895	-1681
998.972	-1760
999.049	-1430
999.126	-783
999.203	-989
999.280	-1360
999.357	-1279
999.434	-1962
999.511	-918
999.587	-810
999.664	-1395
999.741	-1562
999.818	-1251
999.895	-2465
999.971	-1842
1000.048	-1518
1000.125	-601
1000.202	-1139
1000.278	-1380
1000.355	-1093
1000.431	-1421
1000.508	-1986
1000.584	-1124
1000.661	-1123
1000.738	-1800
1000.814	-259
1000.890	-1464
1000.967	-1433
1001.043	-1087
1001.120	-2200
1001.196	-1523
1001.272	-1170
1001.349	-1118
1001.425	-617
1001.501	-964
1001.577	-1797
1001.654	-821
1001.730	-2130
1001.806	-1495
1001.882	-2498
1001.958	-821
1002.034	-741
1002.110	-1259
1002.186	-1713
1002.262	-1316
1002.338	-1157
1002.414	-1351
1002.490	-1470
1002.566	-2048
1002.642	-1362
1002.718	-1357
1002.794	-1143
1002.870	-1361
1002.945	-682
1003.021	-1451
1003.097	-1835
1003.173	-963
1003.248	-1284
1003.324	-1565
1003.400	-1037
1003.475	-2039
1003.551	-916
1003.626	-1142
1003.702	-919
1003.777	-456
1003.853	-1233
1003.928	-1392
1004.004	-1375
1004.079	-1173
1004.155	-1287
1004.230	-1950
1004.305	-314
1004.381	-1286
1004.456	-1308
1004.531	-1848
1004.607	-1382
1004.682	-1597
1004.757	-1105
1004.832	-1666
1004.907	-438
1004.982	-1745
1005.057	-225
1005.133	-1718
1005.208	-1134
1005.283	-1468
1005.358	-1213
1005.433	-1241
1005.508	-1290
1005.583	-2526
1005.657	-848
1005.732	-123
1005.807	-1690
1005.882	-1456
1005.957	-976
1006.032	-1866
1006.106	-563
1006.181	-2073
1006.256	-1201
1006.331	-2280
1006.405	-1408
1006.480	-1225
1006.554	-2126
1006.629	-1305
1006.704	-1494
1006.778	-1039
1006.853	-778
1006.927	-2100
1007.002	-1222
1007.076	-1704
1007.150	-2247
1007.225	-920
1007.299	-1456
1007.373	-1502
1007.448	-1097
1007.522	25
1007.596	-812
1007.671	-1079
1007.745	-904
1007.819	-2402
1007.893	-2176
1007.967	-1286
1008.041	-2090
1008.115	-1155
1008.190	-2073
1008.264	-1366
1008.338	-2032
1008.412	-1344
1008.486	-1742
1008.560	-1875
1008.633	-1836
1008.707	-1925
1008.781	-384
1008.855	-1487
1008.929	-1029
1009.003	-1588
1009.076	-1112
1009.150	-1792
1009.224	-973
1009.298	-553
1009.371	-1734
1009.445	-1133
1009.519	-1496
1009.592	-2175
1009.666	-1549
1009.739	-1124
1009.813	-2254
1009.886	-1121
1009.960	-2316
1010.033	-1076
1010.107	-1365
1010.180	-1836
1010.253	-1283
1010.327	-2060
1010.400	-1454
1010.473	-1742
1010.547	-773
1010.620	-1673
1010.693	-890
1010.766	-2400
1010.840	-1318
1010.913	-1368
1010.986	-2373
1011.059	-953
1011.132	-1904
1011.205	-778
1011.278	-1297
1011.351	-1823
1011.424	-1402
1011.497	-1539
1011.570	-1793
1011.643	-839
1011.716	-1397
1011.789	-1177
1011.862	-1374
1011.934	-1328
1012.007	-2465
1012.080	-1528
1012.153	-1200
1012.225	-1190
1012.298	-1763
1012.371	-1216
1012.443	-1476
1012.516	-1545
1012.588	-724
1012.661	-1648
1012.733	-1835
1012.806	-1246
1012.879	-1809
1012.951	-2254
1013.023	-1977
1013.096	-1783
1013.168	-1899
1013.241	-916
1013.313	-1241
1013.385	-2427
1013.458	-1772
1013.530	-888
1013.602	-1915
1013.674	-603
1013.746	-1651
1013.819	-974
1013.891	-1210
1013.963	-1923
1014.035	-1619
1014.107	-1505
1014.179	-1279
1014.251	-1805
1014.323	-1337
1014.395	-1651
1014.467	-776
1014.539	-1486
1014.611	-2514
1014.683	-1857
1014.754	-1024
1014.826	-1784
1014.898	-1841
1014.970	-1975
1015.042	-697
1015.113	-1460
1015.185	-1277
1015.257	-2014
1015.328	-1316
1015.400	-1904
1015.471	-1518
1015.543	-2045
1015.615	-1192
1015.686	-928
1015.757	-1605
1015.829	-771
1015.901	-1389
1015.972	-1645
1016.043	-1756
1016.115	-1430
1016.186	-1390
1016.257	-1976
1016.328	-1365
1016.400	-871
1016.471	-1533
1016.542	-1422
1016.613	-1204
1016.685	-1434
1016.756	-1407
1016.827	-1354
1016.898	-1027
1016.969	-880
1017.040	-1669
1017.111	-1220
1017.182	-2107
1017.253	-2375
1017.324	-1025
1017.395	-1554
1017.466	-1822
1017.537	-2377
1017.608	-1548
1017.678	-1148
1017.749	-722
1017.820	-1349
1017.891	-1796
1017.961	-1848
1018.032	-1594
1018.103	-940
1018.173	-1508
1018.244	-1966
1018.315	-1448
1018.385	-1375
1018.456	-1542
1018.526	-1920
1018.597	-2368
1018.667	-1648
1018.738	-1376
1018.808	-1801
1018.878	-1858
1018.949	-1890
1019.019	-1614
1019.089	-1913
1019.160	-1553
1019.230	-2365
1019.300	-1856
1019.371	-2344
1019.441	-1183
1019.511	-1881
1019.581	-1942
1019.651	-747
1019.721	-1131
1019.791	-2267
1019.861	-1573
1019.931	-1466
1020.001	-1647
1020.071	-1577
1020.141	-2202
1020.211	-2123
1020.281	-1637
1020.351	-1880
1020.421	-1015
1020.491	-2191
1020.560	-2894
1020.630	-1246
1020.700	-1788
1020.770	-1924
1020.839	-2318
1020.909	-2024
1020.979	-1815
1021.048	-1372
1021.118	-1811
1021.187	-1395
1021.257	-1405
1021.326	-1958
1021.396	-1605
1021.465	-1624
1021.535	-1961
1021.604	-2379
1021.674	-2107
1021.743	-1633
1021.812	-3237
1021.882	-1759
1021.951	-1221
1022.020	-1861
1022.089	-1501
1022.159	-3006
1022.228	-2194
1022.297	-1939
1022.366	-2025
1022.435	-2141
1022.504	-2264
1022.573	-2155
1022.642	-2114
1022.711	-2217
1022.781	-1628
1022.849	-1748
1022.918	-2625
1022.987	-1472
1023.056	-1292
1023.125	-2177
1023.194	-1286
1023.263	-1127
1023.331	-1631
1023.400	-1549
1023.469	-1947
1023.538	-1535
1023.606	-2503
1023.675	-1304
1023.744	-1786
1023.812	-2535
1023.881	-2050
1023.949	-1804
1024.018	-2980
1024.086	-2221
1024.155	-1894
1024.223	-2310
1024.292	-2002
1024.360	-1841
1024.429	-1491
1024.497	-1931
1024.565	-1711
1024.634	-2413
1024.702	-1095
1024.770	-2118
1024.838	-2329
1024.907	-1262
1024.975	-2303
1025.043	-1759
1025.111	-2259
1025.179	-702
1025.247	-1594
1025.315	-2045
1025.383	-1667
1025.451	-1233
1025.519	-1768
1025.587	-1598
1025.655	-1131
1025.723	-2117
1025.791	-2494
1025.859	-1920
1025.927	-1328
1025.995	-1810
1026.062	-1573
1026.130	-1837
1026.198	-2631
1026.266	-1970
1026.333	-1253
1026.401	-778
1026.469	-2536
1026.536	-1545
1026.604	-1928
1026.671	-1874
1026.739	-1804
1026.806	-2629
1026.874	-2138
1026.941	-1772
1027.009	-2280
1027.076	-2770
1027.144	-1093
1027.211	-1526
1027.278	-2051
1027.345	-1386
1027.413	-2042
1027.480	-1785
1027.547	-2140
1027.614	-1582
1027.682	-1598
1027.749	-2208
1027.816	-1675
1027.883	-1280
1027.950	-1545
1028.017	-1731
1028.084	-1787
1028.151	-2315
1028.218	-1382
1028.285	-2014
1028.352	-1825
1028.419	-2549
1028.486	-1600
1028.553	-2285
1028.619	-1364
1028.686	-2295
1028.753	-2356
1028.820	-922
1028.886	-1899
1028.953	-1211
1029.020	-2293
1029.086	-1953
1029.153	-2366
1029.220	-2749
1029.286	-1838
1029.353	-1637
1029.419	-2092
1029.486	-1837
1029.552	-1434
1029.619	-1677
1029.685	-1748
1029.751	-1968
1029.818	-1595
1029.884	-2164
1029.951	-1787
1030.017	-1819
1030.083	-1762
1030.149	-2628
1030.216	-1798
1030.282	-2453
1030.348	-2719
1030.414	-2680
1030.480	-1944
1030.546	-1677
1030.612	-1438
1030.678	-2395
1030.744	-1794
1030.810	-1570
1030.876	-1670
1030.942	-1912
1031.008	-2060
1031.074	-2584
1031.140	-1550
1031.206	-2451
1031.272	-2729
1031.337	-1645
1031.403	-1596
1031.469	-1695
1031.534	-2139
1031.600	-2384
1031.666	-2146
1031.731	-2060
1031.797	-1802
1031.863	-1325
1031.928	-1926
1031.994	-2397
1032.059	-2103
1032.125	-1690
1032.190	-2034
1032.256	-2569
1032.321	-1950
1032.386	-2039
1032.452	-1651
1032.517	-1477
1032.582	-2155
1032.647	-2104
1032.713	-2604
1032.778	-1834
1032.843	-2470
1032.908	-2397
1032.974	-2117
1033.039	-1885
1033.104	-2090
1033.169	-2542
1033.234	-1757
1033.299	-994
1033.364	-1829
1033.429	-1972
1033.494	-1349
1033.559	-2021
1033.624	-2272
1033.688	-1865
1033.753	-1721
1033.818	-2298
1033.883	-2011
1033.948	-2012
1034.013	-1465
1034.077	-1070
1034.142	-1270
1034.207	-1264
1034.271	-1839
1034.336	-1086
1034.400	-1542
1034.465	-1436
1034.530	-820
1034.594	-2162
1034.658	-1279
1034.723	-2077
1034.787	-2194
1034.852	-1784
1034.916	-1038
1034.981	-1757
1035.045	-1301
1035.109	-2383
1035.173	-1289
1035.238	-2699
1035.302	-1215
1035.366	-1800
1035.430	-1850
1035.495	-2028
1035.559	-1387
1035.623	-1800
1035.687	-2100
1035.751	-2013
1035.815	-2287
1035.879	-1826
1035.943	-2207
1036.007	-2483
1036.071	-2852
1036.135	-1744
1036.198	-1585
1036.262	-1420
1036.326	-1382
1036.390	-1424
1036.454	-596
1036.517	-1532
1036.581	-2079
1036.645	-1087
1036.709	-1501
1036.772	-1442
1036.836	-1750
1036.900	-2238
1036.963	-2094
1037.026	-2257
1037.090	-2163
1037.154	-2215
1037.217	-1878
1037.280	-2293
1037.344	-939
1037.407	-1723
1037.471	-1491
1037.534	-1838
1037.597	-1407
1037.661	-1343
1037.724	-1819
1037.787	-2072
1037.850	-1171
1037.913	-2241
1037.977	-1836
1038.040	-2238
1038.103	-1354
1038.166	-1800
1038.229	-1338
1038.292	-2730
1038.355	-1867
1038.418	-1712
1038.481	-1366
1038.544	-1512
1038.607	-1820
1038.670	-1869
1038.732	-1499
1038.795	-2406
1038.858	-1759
1038.921	-1684
1038.984	-1395
1039.046	-1933
1039.109	-2112
1039.172	-2126
1039.234	-2129
1039.297	-2311
1039.360	-2243
1039.422	-2170
1039.485	-2084
1039.547	-1499
1039.610	-2161
1039.672	-1891
1039.734	-2396
1039.797	-1587
1039.859	-1623
1039.922	-1720
1039.984	-1031
1040.046	-2110
1040.109	-2424
1040.171	-2189
1040.233	-2133
1040.295	-2370
1040.358	-1820
1040.420	-2385
1040.482	-1731
1040.544	-1732
1040.606	-1547
1040.668	-1848
1040.730	-1670
1040.792	-2108
1040.854	-2340
1040.916	-1869
1040.978	-2308
1041.040	-1690
1041.102	-1906
1041.164	-1319
1041.225	-1935
1041.287	-1987
1041.349	-1845
1041.411	-2020
1041.472	-2263
1041.534	-1355
1041.596	-1916
1041.657	-1755
1041.719	-1166
1041.781	-2161
1041.842	-1792
1041.904	-1111
1041.965	-2147
1042.027	-1970
1042.088	-1587
1042.150	-2434
1042.211	-1925
1042.272	-1734
1042.334	-2585
1042.395	-1847
1042.456	-884
1042.518	-1120
1042.579	-1134
1042.640	-1518
1042.701	-1589
1042.763	-1936
1042.824	-1903
1042.885	-1647
1042.946	-2425
1043.007	-1539
1043.068	-1670
1043.129	-2452
1043.190	-2410
1043.251	-2126
1043.312	-793
1043.373	-1685
1043.434	-2251
1043.495	-1838
1043.556	-1958
1043.616	-1476
1043.677	-1778
1043.738	-2313
1043.799	-1277
1043.859	-664
1043.920	-1970
1043.981	-2119
1044.041	-1164
1044.102	-1283
1044.162	-1840
1044.223	-1757
1044.284	-2270
1044.344	-1285
1044.405	-2012
1044.465	-1908
1044.525	-1302
1044.586	-2471
1044.646	-1204
1044.707	-1740
1044.767	-1772
1044.827	-1682
1044.887	-1852
1044.948	-1492
1045.008	-1809
1045.068	-2128
1045.128	-1360
1045.188	-1827
1045.249	-854
1045.309	-1259
1045.369	-1391
1045.429	-2040
1045.489	-1514
1045.549	-1722
1045.609	-1652
1045.669	-2240
1045.729	-1960
1045.789	-2025
1045.848	-1572
1045.908	-550
1045.968	-833
1046.028	-1777
1046.088	-1308
1046.147	-747
1046.207	-1081
1046.267	-1301
1046.326	-858
1046.386	-1295
1046.446	-1227
1046.505	-519
1046.565	-475
1046.624	-752
1046.684	-465
1046.743	-1559
1046.803	-436
1046.862	-186
1046.922	0
