'Start Wavelength	183.907
'End Wavelength	1046.922
'Gate Delay	5.000
'Gate Width (ms)	1.050
'Laser Output Level	0.000
'X Position	0.000
'Y Position	0.000
'Z Position	0.000
'Grid Point Number	1.000
'Shot Number	100.000
183.907	485.000
183.977	833.000
184.047	8
184.116	132
184.186	-360
184.256	8
184.325	-269
184.395	-737
184.465	668
184.534	-95
184.604	-359
184.674	-93
184.743	-187
184.813	170
184.883	-214
184.952	90
185.022	223
185.092	-215
185.161	290
185.231	388
185.301	299
185.370	489
185.440	-8
185.509	-4
185.579	152
185.649	395
185.718	813
185.788	100
185.857	-273
185.927	23
185.996	-152
186.066	308
186.136	352
186.205	221
186.275	702
186.344	-335
186.414	507
186.483	-529
186.553	791
186.622	189
186.692	826
186.761	-5
186.831	-470
186.900	-73
186.970	786
187.039	679
187.109	773
187.178	-177
187.248	223
187.317	794
187.387	254
187.456	-96
187.526	-534
187.595	11
187.664	-351
187.734	-323
187.803	506
187.873	175
187.942	184
188.012	285
188.081	596
188.150	-124
188.220	369
188.289	-196
188.358	415
188.428	-643
188.497	567
188.567	-475
188.636	-440
188.705	-257
188.775	386
188.844	-967
188.913	-113
188.983	-381
189.052	-188
189.121	-703
189.191	9
189.260	-223
189.329	-167
189.399	-442
189.468	261
189.537	-587
189.606	141
189.676	544
189.745	176
189.814	1128
189.883	-529
189.953	-22
190.022	69
190.091	-216
190.161	-361
190.230	330
190.299	-71
190.368	19
190.437	64
190.507	-467
190.576	527
190.645	-602
190.714	-678
190.783	-815
190.853	436
190.922	87
190.991	496
191.060	1066
191.129	-889
191.198	189
191.268	193
191.337	603
191.406	51
191.475	-6
191.544	685
191.613	63
191.682	-521
191.752	-5
191.821	165
191.890	-822
191.959	220
192.028	330
192.097	372
192.166	36
192.235	-1083
192.304	778
192.373	-90
192.442	-335
192.511	-179
192.580	-354
192.650	204
192.719	-689
192.788	511
192.857	-74
192.926	-500
192.995	207
193.064	-340
193.133	-686
193.202	-319
193.271	32
193.340	-12
193.409	-17
193.478	569
193.547	-909
193.615	-676
193.684	414
193.753	-191
193.822	208
193.891	-674
193.960	128
194.029	229
194.098	666
194.167	-427
194.236	102
194.305	111
194.374	-106
194.443	233
194.512	-230
194.580	830
194.649	560
194.718	340
194.787	-40
194.856	-468
194.925	-102
194.994	-69
195.062	-153
195.131	77
195.200	473
195.269	-42
195.338	72
195.407	278
195.475	279
195.544	113
195.613	50
195.682	261
195.751	391
195.819	97
195.888	-181
195.957	625
196.026	99
196.094	948
196.163	305
196.232	618
196.301	-88
196.369	284
196.438	2
196.507	-343
196.576	-531
196.644	-279
196.713	-286
196.782	323
196.850	-61
196.919	-319
196.988	-17
197.056	-865
197.125	336
197.194	96
197.262	142
197.331	-343
197.400	224
197.468	132
197.537	-896
197.606	-539
197.674	206
197.743	115
197.812	-236
197.880	625
197.949	-518
198.017	403
198.086	-721
198.155	59
198.223	143
198.292	142
198.360	98
198.429	167
198.497	-118
198.566	-580
198.635	603
198.703	403
198.772	687
198.840	811
198.909	128
198.977	-558
199.046	-337
199.114	165
199.183	110
199.251	-119
199.320	-869
199.388	-343
199.457	-309
199.525	187
199.594	-160
199.662	-761
199.731	-314
199.799	-131
199.867	-733
199.936	-344
200.004	544
200.073	276
200.141	472
200.210	-325
200.278	151
200.346	30
200.415	-497
200.483	-69
200.552	538
200.620	-329
200.688	-186
200.757	950
200.825	-238
200.893	457
200.962	116
201.030	204
201.098	-645
201.167	422
201.235	235
201.303	-389
201.372	428
201.440	-284
201.508	-357
201.577	141
201.645	-458
201.713	-27
201.781	-385
201.850	958
201.918	-340
201.986	-42
202.055	700
202.123	-42
202.191	465
202.259	74
202.327	21
202.396	-175
202.464	-126
202.532	-124
202.600	352
202.669	-246
202.737	-997
202.805	-76
202.873	-352
202.941	177
203.009	-422
203.078	-713
203.146	-530
203.214	-420
203.282	-1164
203.350	874
203.418	-153
203.487	1033
203.555	-460
203.623	-6
203.691	-149
203.759	24
203.827	-199
203.895	128
203.963	-46
204.031	-329
204.099	655
204.168	-1064
204.236	377
204.304	-428
204.372	-92
204.440	-116
204.508	74
204.576	-731
204.644	-151
204.712	-772
204.780	-183
204.848	368
204.916	-429
204.984	127
205.052	248
205.120	-105
205.188	-178
205.256	-458
205.324	-389
205.392	-865
205.460	-382
205.528	-1360
205.596	-287
205.664	-130
205.732	-346
205.799	-207
205.867	810
205.935	-199
206.003	-108
206.071	227
206.139	-667
206.207	94
206.275	30
206.343	-569
206.411	-265
206.478	-82
206.546	-472
206.614	382
206.682	-235
206.750	-1376
206.818	0
206.885	747
206.953	-1154
207.021	517
207.089	-696
207.157	-668
207.225	-702
207.292	-454
207.360	-932
207.428	-1035
207.496	-937
207.563	-315
207.631	-198
207.699	-126
207.767	-221
207.834	-516
207.902	751
207.970	252
208.038	49
208.105	449
208.173	-185
208.241	-128
208.309	586
208.376	-176
208.444	-452
208.512	-179
208.579	-901
208.647	408
208.715	-141
208.782	-86
208.850	512
208.918	173
208.985	-135
209.053	-455
209.120	19
209.188	-767
209.256	-2
209.323	-498
209.391	-153
209.459	577
209.526	87
209.594	12
209.661	-505
209.729	-77
209.796	-51
209.864	271
209.932	-1006
209.999	839
210.067	-27
210.134	-474
210.202	-808
210.269	1135
210.337	746
210.404	-56
210.472	-967
210.539	-563
210.607	-834
210.674	-230
210.742	-167
210.809	-645
210.877	134
210.944	599
211.012	-177
211.079	947
211.146	-348
211.214	-386
211.281	-157
211.349	248
211.416	-381
211.484	10
211.551	60
211.618	366
211.686	-249
211.753	-544
211.821	150
211.888	558
211.955	74
212.023	63
212.090	-500
212.157	-151
212.225	-1016
212.292	-157
212.359	590
212.427	1072
212.494	264
212.561	389
212.629	149
212.696	33
212.763	-188
212.831	-586
212.898	445
212.965	-701
213.032	-112
213.100	43
213.167	-575
213.234	344
213.301	-514
213.369	-265
213.436	-696
213.503	-1125
213.570	-252
213.638	31
213.705	-363
213.772	-849
213.839	-91
213.906	644
213.973	171
214.041	-383
214.108	-49
214.175	227
214.242	147
214.309	-229
214.376	-98
214.444	-301
214.511	260
214.578	-412
214.645	802
214.712	562
214.779	-331
214.846	-968
214.913	212
214.980	447
215.048	685
215.115	-569
215.182	212
215.249	-11
215.316	294
215.383	1223
215.450	364
215.517	122
215.584	-501
215.651	-90
215.718	360
215.785	684
215.852	-539
215.919	704
215.986	-175
216.053	24
216.120	219
216.187	218
216.254	293
216.321	288
216.388	114
216.455	-140
216.522	83
216.589	189
216.656	457
216.722	826
216.789	301
216.856	49
216.923	-693
216.990	762
217.057	264
217.124	238
217.191	-950
217.258	987
217.324	257
217.391	196
217.458	405
217.525	-125
217.592	195
217.659	-555
217.725	421
217.792	-123
217.859	702
217.926	-607
217.993	145
218.059	-477
218.126	165
218.193	101
218.260	-452
218.327	-576
218.393	149
218.460	-173
218.527	-343
218.594	147
218.660	596
218.727	1069
218.794	-225
218.860	96
218.927	-920
218.994	252
219.061	-1291
219.127	-82
219.194	696
219.261	140
219.327	-295
219.394	172
219.461	-892
219.527	31
219.594	414
219.661	-516
219.727	-733
219.794	-319
219.860	-1036
219.927	-415
219.994	389
220.060	366
220.127	679
220.193	-238
220.260	-1124
220.326	-56
220.393	-289
220.460	133
220.526	-75
220.593	-244
220.659	712
220.726	7
220.792	1015
220.859	782
220.925	-118
220.992	948
221.058	1326
221.125	1702
221.191	134
221.258	-847
221.324	-64
221.391	478
221.457	-570
221.524	6
221.590	328
221.657	331
221.723	306
221.789	-125
221.856	421
221.922	-33
221.989	867
222.055	-441
222.121	-863
222.188	1488
222.254	-273
222.321	248
222.387	-959
222.453	-17
222.520	-120
222.586	-648
222.652	-560
222.719	-261
222.785	348
222.851	-664
222.918	329
222.984	-558
223.050	580
223.116	-1209
223.183	1138
223.249	-223
223.315	-800
223.382	-137
223.448	46
223.514	-868
223.580	-686
223.647	-969
223.713	-586
223.779	-131
223.845	-1111
223.911	574
223.978	-680
224.044	595
224.110	-457
224.176	-233
224.242	-30
224.309	-1156
224.375	128
224.441	-302
224.507	-556
224.573	-360
224.639	-292
224.705	-503
224.772	621
224.838	-55
224.904	167
224.970	-428
225.036	-111
225.102	-799
225.168	158
225.234	-85
225.300	-258
225.366	56
225.432	-61
225.499	242
225.565	-165
225.631	-569
225.697	-153
225.763	-357
225.829	-683
225.895	-116
225.961	340
226.027	734
226.093	20
226.159	763
226.225	-53
226.291	1037
226.357	918
226.423	1775
226.489	880
226.554	352
226.620	724
226.686	606
226.752	1601
226.818	764
226.884	3114
226.950	3098
227.016	297
227.082	1134
227.148	167
227.214	344
227.279	1064
227.345	515
227.411	595
227.477	93
227.543	924
227.609	1701
227.674	1891
227.740	323
227.806	569
227.872	92
227.938	833
228.003	2046
228.069	-95
228.135	72
228.201	-229
228.267	-710
228.332	278
228.398	-647
228.464	381
228.530	-824
228.595	-227
228.661	-931
228.727	192
228.792	1874
228.858	-107
228.924	-1523
228.990	881
229.055	-336
229.121	838
229.187	187
229.252	-258
229.318	-185
229.384	-64
229.449	733
229.515	-1279
229.581	-1055
229.646	1139
229.712	-95
229.777	756
229.843	1938
229.909	715
229.974	1942
230.040	984
230.105	252
230.171	-172
230.236	989
230.302	1416
230.368	757
230.433	-507
230.499	923
230.564	1537
230.630	-258
230.695	28
230.761	689
230.826	-1565
230.892	1333
230.957	-702
231.023	-551
231.088	-122
231.154	-638
231.219	1025
231.284	755
231.350	1294
231.415	-690
231.481	90
231.546	-269
231.612	-188
231.677	-735
231.742	-612
231.808	895
231.873	-746
231.939	-1237
232.004	1256
232.069	429
232.135	-235
232.200	-868
232.265	293
232.331	-203
232.396	-439
232.461	-276
232.527	-715
232.592	-770
232.657	-654
232.723	527
232.788	238
232.853	825
232.918	379
232.984	-943
233.049	-470
233.114	-333
233.179	345
233.245	1201
233.310	969
233.375	-751
233.440	455
233.506	-253
233.571	-298
233.636	746
233.701	-524
233.766	446
233.832	1035
233.897	213
233.962	-546
234.027	2067
234.092	78
234.157	322
234.222	638
234.288	361
234.353	2376
234.418	2825
234.483	1977
234.548	1110
234.613	106
234.678	-39
234.743	16
234.808	3166
234.873	-148
234.938	1188
235.004	-169
235.069	307
235.134	-179
235.199	-358
235.264	95
235.329	-1707
235.394	222
235.459	742
235.524	-9
235.589	562
235.654	-975
235.719	-609
235.784	660
235.849	-835
235.913	540
235.978	1408
236.043	1677
236.108	354
236.173	-530
236.238	1106
236.303	75
236.368	42
236.433	1243
236.498	481
236.563	799
236.627	615
236.692	3478
236.757	2700
236.822	1316
236.887	913
236.952	1386
237.017	-924
237.081	1315
237.146	-66
237.211	848
237.276	3682
237.341	7547
237.405	3442
237.470	1412
237.535	844
237.600	496
237.664	1129
237.729	-491
237.794	-144
237.859	1337
237.923	48
237.988	283
238.053	1294
238.118	983
238.182	2077
238.247	4199
238.312	1079
238.376	1692
238.441	-408
238.506	1390
238.570	-774
238.635	1462
238.700	169
238.764	469
238.829	976
238.893	1042
238.958	1127
239.023	584
239.087	143
239.152	513
239.216	-722
239.281	542
239.346	-3
239.410	-79
239.475	-469
239.539	3145
239.604	1512
239.668	775
239.733	-682
239.797	-275
239.862	2003
239.926	2035
239.991	1462
240.055	514
240.120	217
240.184	601
240.249	26
240.313	167
240.378	190
240.442	1576
240.507	3799
240.571	804
240.635	1032
240.700	1509
240.764	756
240.829	-113
240.893	-967
240.957	284
241.022	2529
241.086	3410
241.151	1471
241.215	139
241.279	608
241.344	927
241.408	877
241.472	-135
241.537	1944
241.601	999
241.665	-162
241.730	58
241.794	1179
241.858	146
241.922	-168
241.987	486
242.051	-118
242.115	34
242.179	298
242.244	-403
242.308	730
242.372	528
242.436	1244
242.501	351
242.565	-527
242.629	152
242.693	188
242.757	0
242.822	-22
242.886	701
242.950	857
243.014	-386
243.078	1315
243.142	790
243.206	-252
243.271	876
243.335	1196
243.399	1453
243.463	1546
243.527	5176
243.591	1800
243.655	103
243.719	-60
243.783	716
243.847	841
243.911	1799
243.975	3081
244.040	1038
244.104	2351
244.168	1653
244.232	1066
244.296	1797
244.360	1491
244.424	304
244.488	544
244.552	1077
244.615	-510
244.679	265
244.743	484
244.807	455
244.871	398
244.935	1116
244.999	-279
245.063	-27
245.127	1180
245.191	1002
245.255	462
245.319	1545
245.383	503
245.446	1559
245.510	66
245.574	1232
245.638	1722
245.702	-512
245.766	3030
245.829	1814
245.893	163
245.957	0
246.021	1134
246.085	437
246.149	799
246.212	4253
246.276	5285
246.340	2308
246.404	1756
246.467	1855
246.531	1050
246.595	2891
246.659	2871
246.722	747
246.786	3123
246.850	1591
246.913	2585
246.977	507
247.041	373
247.104	998
247.168	1040
247.232	2748
247.295	7191
247.359	4202
247.423	1608
247.486	3534
247.550	3135
247.614	1649
247.677	2818
247.741	987
247.804	1133
247.868	1996
247.932	2952
247.995	8177
248.059	3180
248.122	395
248.186	2490
248.249	4062
248.313	11066
248.376	13280
248.440	7896
248.503	2013
248.567	4371
248.630	3017
248.694	5009
248.757	7004
248.821	11712
248.884	9863
248.948	7075
249.011	11421
249.075	14852
249.138	14400
249.202	6778
249.265	2684
249.328	3787
249.392	1620
249.455	3296
249.519	1343
249.582	1887
249.645	4382
249.709	2015
249.772	822
249.835	944
249.899	715
249.962	1295
250.025	421
250.089	3848
250.152	7753
250.215	3383
250.279	1614
250.342	2747
250.405	2093
250.468	1129
250.532	1419
250.595	3983
250.658	5796
250.721	10355
250.785	4054
250.848	4086
250.911	1120
250.974	2055
251.038	2392
251.101	7762
251.164	2983
251.227	3974
251.290	2556
251.354	3045
251.417	8717
251.480	8631
251.543	4668
251.606	15004
251.669	11652
251.732	6026
251.795	7566
251.859	7699
251.922	11688
251.985	8124
252.048	4423
252.111	4566
252.174	2757
252.237	7382
252.300	14795
252.363	12425
252.426	18534
252.489	8988
252.552	6688
252.615	3368
252.678	4850
252.741	10360
252.804	9437
252.867	16297
252.930	14197
252.993	10449
253.056	6873
253.119	5140
253.182	3418
253.245	3739
253.308	3652
253.371	3886
253.434	4434
253.497	5328
253.559	9083
253.622	6205
253.685	7507
253.748	8822
253.811	3326
253.874	4965
253.937	3515
254.000	3226
254.062	5678
254.125	9022
254.188	9995
254.251	7033
254.314	2571
254.376	6404
254.439	6874
254.502	7277
254.565	4783
254.628	11398
254.690	7622
254.753	4068
254.816	4057
254.878	3586
254.941	5745
255.004	6697
255.067	2749
255.129	2765
255.192	1459
255.255	738
255.317	2409
255.380	1920
255.443	1363
255.505	1221
255.568	107
255.631	777
255.693	1081
255.756	779
255.819	2265
255.881	732
255.944	101
256.006	1116
256.069	167
256.132	121
256.194	1757
256.257	3458
256.319	1659
256.382	2264
256.444	2573
256.507	1808
256.569	286
256.632	99
256.694	808
256.757	3329
256.819	6141
256.882	2468
256.944	1477
257.007	2562
257.069	1638
257.132	470
257.194	656
257.257	1015
257.319	-80
257.381	203
257.444	1971
257.506	7724
257.569	10595
257.631	8177
257.693	3946
257.756	1967
257.818	1693
257.880	667
257.943	976
258.005	476
258.067	966
258.130	811
258.192	1898
258.254	3812
258.317	1702
258.379	1645
258.441	3412
258.503	3387
258.566	3780
258.628	6415
258.690	636
258.753	1887
258.815	4408
258.877	1568
258.939	636
259.001	796
259.064	1398
259.126	796
259.188	860
259.250	1301
259.312	2139
259.375	5659
259.437	3833
259.499	1673
259.561	970
259.623	1538
259.685	2179
259.747	1109
259.809	3972
259.872	7193
259.934	9819
259.996	13849
260.058	4351
260.120	1369
260.182	779
260.244	224
260.306	121
260.368	672
260.430	640
260.492	4994
260.554	8840
260.616	4821
260.678	5273
260.740	6989
260.802	1382
260.864	1964
260.926	545
260.988	2043
261.050	1606
261.112	7303
261.174	13916
261.236	6096
261.298	2336
261.359	2739
261.421	5908
261.483	1954
261.545	2296
261.607	31
261.669	766
261.731	2085
261.793	5956
261.854	1809
261.916	2414
261.978	3199
262.040	3397
262.102	1657
262.164	1715
262.225	1341
262.287	1730
262.349	2793
262.411	3014
262.472	1088
262.534	705
262.596	5162
262.658	1949
262.719	527
262.781	1402
262.843	3912
262.904	2137
262.966	1589
263.028	1340
263.090	5529
263.151	15861
263.213	8797
263.275	8615
263.336	3557
263.398	2018
263.459	189
263.521	958
263.583	3812
263.644	3055
263.706	942
263.767	-51
263.829	706
263.891	-320
263.952	180
264.014	-375
264.075	3066
264.137	9972
264.198	4291
264.260	-16
264.321	501
264.383	3276
264.444	12866
264.506	3658
264.567	1207
264.629	4878
264.690	9990
264.752	3085
264.813	1850
264.875	823
264.936	2620
264.998	534
265.059	52
265.120	73
265.182	389
265.243	2140
265.305	2191
265.366	747
265.427	978
265.489	1012
265.550	-1342
265.611	740
265.673	1075
265.734	1875
265.795	664
265.857	-685
265.918	-651
265.979	1408
266.040	4494
266.102	4904
266.163	2334
266.224	4333
266.286	1937
266.347	-54
266.408	1031
266.469	1097
266.530	1039
266.592	-510
266.653	2584
266.714	5320
266.775	1928
266.836	649
266.898	-83
266.959	2954
267.020	1823
267.081	1317
267.142	466
267.203	-86
267.264	-1482
267.326	1174
267.387	-315
267.448	-507
267.509	416
267.570	457
267.631	29
267.692	-714
267.753	178
267.814	-264
267.875	1811
267.936	4049
267.997	4051
268.058	3677
268.119	1198
268.180	1007
268.241	561
268.302	-406
268.363	-60
268.424	530
268.485	1510
268.546	1521
268.607	497
268.668	270
268.729	-193
268.790	679
268.851	1386
268.912	3644
268.972	4802
269.033	2998
269.094	75
269.155	873
269.216	713
269.277	379
269.338	199
269.398	556
269.459	481
269.520	1982
269.581	3346
269.642	3792
269.702	1683
269.763	871
269.824	1044
269.885	1111
269.945	3479
270.006	180
270.067	522
270.128	104
270.188	270
270.249	-29
270.310	-153
270.370	138
270.431	549
270.492	-97
270.553	411
270.613	2968
270.674	5802
270.734	1979
270.795	808
270.856	1631
270.916	1554
270.977	1309
271.038	1467
271.098	1917
271.159	1566
271.219	2760
271.280	462
271.340	426
271.401	185
271.462	2919
271.522	3168
271.583	1443
271.643	1027
271.704	848
271.764	1796
271.825	4138
271.885	13635
271.946	18413
272.006	6637
272.066	8144
272.127	14018
272.187	4831
272.248	2377
272.308	1901
272.369	8676
272.429	5263
272.489	4353
272.550	6011
272.610	4593
272.671	3390
272.731	3425
272.791	5681
272.852	3022
272.912	3340
272.972	1560
273.033	1266
273.093	1647
273.153	3709
273.214	2327
273.274	1359
273.334	9235
273.394	14137
273.455	6027
273.515	5632
273.575	13039
273.635	6191
273.696	6987
273.756	12464
273.816	5828
273.876	3117
273.936	4632
273.997	11179
274.057	2802
274.117	1948
274.177	3508
274.237	16957
274.297	15473
274.358	8686
274.418	10581
274.478	8823
274.538	3807
274.598	1366
274.658	6778
274.718	9988
274.778	4562
274.838	1631
274.898	4700
274.958	12756
275.018	11897
275.078	9381
275.138	4847
275.198	2576
275.258	1898
275.318	2095
275.378	4123
275.438	5604
275.498	3051
275.558	4419
275.618	12483
275.678	8584
275.738	8060
275.798	7810
275.858	4261
275.918	1299
275.978	2059
276.038	2413
276.098	1296
276.157	2445
276.217	10200
276.277	4948
276.337	4336
276.397	715
276.457	2801
276.517	1205
276.576	1245
276.636	166
276.696	2489
276.756	5366
276.815	4912
276.875	1564
276.935	1467
276.995	2029
277.055	1093
277.114	247
277.174	1241
277.234	7501
277.293	3297
277.353	2258
277.413	1291
277.472	844
277.532	1273
277.592	964
277.651	3147
277.711	5809
277.771	1289
277.830	9165
277.890	7892
277.950	4263
278.009	12710
278.069	4489
278.128	4126
278.188	6815
278.248	2975
278.307	5225
278.367	4781
278.426	1122
278.486	362
278.545	-80
278.605	162
278.664	657
278.724	1094
278.783	3619
278.843	11079
278.902	2889
278.962	1179
279.021	2752
279.081	1651
279.140	1890
279.199	1289
279.259	1114
279.318	1531
279.378	935
279.437	2803
279.496	13439
279.556	27508
279.615	21405
279.675	6218
279.734	3957
279.793	7245
279.853	13225
279.912	4306
279.971	2555
280.031	2302
280.090	4877
280.149	9866
280.208	5559
280.268	22398
280.327	22643
280.386	4968
280.445	6181
280.505	6307
280.564	3031
280.623	2973
280.682	2850
280.742	5351
280.801	2116
280.860	1243
280.919	1540
280.978	1367
281.037	193
281.097	762
281.156	1019
281.215	455
281.274	860
281.333	7313
281.392	5183
281.451	353
281.510	237
281.569	627
281.628	825
281.688	1467
281.747	851
281.806	1840
281.865	349
281.924	-290
281.983	641
282.042	306
282.101	-423
282.160	-103
282.219	603
282.278	889
282.337	4252
282.396	3488
282.454	130
282.513	1718
282.572	8172
282.631	5370
282.690	500
282.749	489
282.808	2168
282.867	1268
282.926	1148
282.985	1066
283.043	218
283.102	191
283.161	1160
283.220	3223
283.279	8069
283.338	1975
283.396	509
283.455	1160
283.514	1491
283.573	3710
283.631	2113
283.690	1343
283.749	381
283.808	3670
283.866	4606
283.925	320
283.984	802
284.043	2609
284.101	1952
284.160	1258
284.219	3049
284.277	1824
284.336	2240
284.395	10731
284.453	8560
284.512	2421
284.570	4014
284.629	3041
284.688	1442
284.746	1901
284.805	1620
284.863	2453
284.922	3345
284.981	3158
285.039	5339
285.098	8977
285.156	23477
285.215	55305
285.273	55010
285.332	27419
285.390	14834
285.449	8682
285.507	6122
285.566	3496
285.624	2970
285.683	2538
285.741	1306
285.799	2865
285.858	1555
285.916	1177
285.975	1123
286.033	923
286.091	779
286.150	95
286.208	1206
286.267	2004
286.325	836
286.383	3750
286.442	3097
286.500	816
286.558	1005
286.616	362
286.675	1975
286.733	1668
286.791	821
286.850	1980
286.908	2262
286.966	4812
287.024	1922
287.083	329
287.141	875
287.199	573
287.257	2420
287.315	1966
287.374	700
287.432	4578
287.490	2939
287.548	851
287.606	913
287.664	736
287.723	2675
287.781	3912
287.839	799
287.897	1335
287.955	495
288.013	657
288.071	2719
288.129	10241
288.187	34866
288.245	13659
288.303	4182
288.361	2031
288.419	2927
288.477	2459
288.535	937
288.593	1065
288.651	1497
288.709	694
288.767	-219
288.825	1063
288.883	1153
288.941	1153
288.999	178
289.057	1347
289.115	377
289.173	898
289.231	1061
289.289	526
289.346	724
289.404	1646
289.462	2275
289.520	3326
289.578	1597
289.636	723
289.694	662
289.751	85
289.809	1476
289.867	-196
289.925	1664
289.983	2623
290.040	764
290.098	440
290.156	1421
290.214	1772
290.271	409
290.329	1300
290.387	-158
290.444	922
290.502	-6
290.560	1157
290.617	1800
290.675	1495
290.733	713
290.790	1414
290.848	805
290.906	1590
290.963	1004
291.021	1154
291.078	1531
291.136	1430
291.194	6251
291.251	15047
291.309	3974
291.366	1820
291.424	662
291.481	1270
291.539	301
291.596	807
291.654	410
291.711	509
291.769	720
291.826	3603
291.884	2244
291.941	897
291.999	904
292.056	1696
292.114	2064
292.171	1085
292.228	782
292.286	2267
292.343	3803
292.401	5332
292.458	2951
292.515	2264
292.573	2576
292.630	2617
292.687	2021
292.745	1820
292.802	2957
292.859	10103
292.917	11180
292.974	6778
293.031	2495
293.089	1295
293.146	1329
293.203	775
293.260	1079
293.318	2244
293.375	5769
293.432	2389
293.489	1534
293.546	1407
293.604	1550
293.661	5506
293.718	16274
293.775	12735
293.832	4866
293.889	2626
293.947	3277
294.004	2562
294.061	1878
294.118	5364
294.175	12292
294.232	17605
294.289	7570
294.346	2919
294.403	2463
294.460	2852
294.517	1514
294.574	1791
294.631	1608
294.688	2634
294.745	4930
294.802	19626
294.859	26075
294.916	10888
294.973	5707
295.030	5261
295.087	4782
295.144	3254
295.201	2208
295.258	1678
295.315	2684
295.372	6399
295.429	12370
295.486	6213
295.542	3964
295.599	11167
295.656	22022
295.713	15968
295.770	14077
295.827	5946
295.883	3456
295.940	3574
295.997	5787
296.054	6370
296.111	3699
296.167	2840
296.224	1697
296.281	2250
296.338	1848
296.394	2167
296.451	2621
296.508	6392
296.564	14272
296.621	12849
296.678	15764
296.734	24993
296.791	11887
296.848	6415
296.904	5683
296.961	12176
297.018	15180
297.074	13636
297.131	5458
297.187	3687
297.244	5721
297.301	11606
297.357	22139
297.414	10005
297.470	4295
297.527	3497
297.583	3036
297.640	3288
297.696	2733
297.753	2122
297.809	1589
297.866	1384
297.922	1470
297.979	1275
298.035	1526
298.092	3271
298.148	7636
298.204	8713
298.261	4957
298.317	9379
298.374	20312
298.430	12121
298.486	5553
298.543	3038
298.599	4188
298.656	3272
298.712	5509
298.768	9104
298.824	4903
298.881	2411
298.937	2060
298.993	1776
299.050	3447
299.106	2987
299.162	2014
299.218	3114
299.275	1606
299.331	2311
299.387	4567
299.443	13183
299.500	15478
299.556	7295
299.612	4279
299.668	3616
299.724	3462
299.780	4264
299.837	2977
299.893	4919
299.949	12135
300.005	14964
300.061	14137
300.117	23262
300.173	11586
300.229	5665
300.285	6978
300.341	8819
300.397	4832
300.453	3111
300.510	1977
300.566	1693
300.622	3465
300.678	6231
300.734	14129
300.790	13256
300.845	15392
300.901	9856
300.957	13525
301.013	11495
301.069	4411
301.125	4469
301.181	4737
301.237	2989
301.293	2268
301.349	2417
301.405	2340
301.461	2244
301.516	3174
301.572	2315
301.628	5979
301.684	6505
301.740	6322
301.796	9449
301.851	6732
301.907	11198
301.963	12878
302.019	15677
302.074	36009
302.130	39961
302.186	20287
302.242	9357
302.297	6093
302.353	6264
302.409	9232
302.464	9896
302.520	8609
302.576	16846
302.631	20095
302.687	13016
302.743	5957
302.798	3949
302.854	3001
302.910	3547
302.965	4415
303.021	7084
303.076	6543
303.132	8512
303.187	10765
303.243	6503
303.299	3725
303.354	2899
303.410	2764
303.465	1904
303.521	2900
303.576	2729
303.632	3377
303.687	5115
303.743	13239
303.798	12526
303.853	5685
303.909	3829
303.964	3735
304.020	4570
304.075	8511
304.130	7296
304.186	13512
304.241	14773
304.297	10938
304.352	5857
304.358	5692
304.407	4357
304.449	3987
304.463	3865
304.518	4116
304.539	4288
304.573	4527
304.629	3392
304.630	3443
304.684	5941
304.720	9332
304.739	10983
304.794	17031
304.811	15272
304.850	10925
304.902	5358
304.905	5008
304.960	3602
304.992	3319
305.015	3105
305.071	3439
305.083	3341
305.126	3001
305.173	2984
305.181	2983
305.236	2971
305.264	3171
305.292	3444
305.347	4501
305.354	4521
305.402	4459
305.445	3938
305.457	3829
305.512	5196
305.535	5192
305.567	5140
305.622	5239
305.626	5329
305.678	7757
305.716	12161
305.733	13665
305.788	17748
305.807	15995
305.843	12956
305.897	14967
305.898	14978
305.953	15463
305.988	11567
306.008	9526
306.063	6991
306.078	6471
306.118	5185
306.168	3178
306.173	3017
306.228	2892
306.259	2681
306.283	2563
306.338	3154
306.349	3081
306.393	2760
306.440	2851
306.448	2941
306.503	3731
306.530	4609
306.558	7124
306.613	15923
306.620	16998
306.668	20524
306.711	20271
306.723	19632
306.778	15051
306.801	11777
306.833	8404
306.888	5437
306.892	5245
306.943	3980
306.982	4190
306.997	4220
307.052	3764
307.072	3828
307.107	4898
307.162	7154
307.163	7187
307.217	11629
307.253	14232
307.272	14454
307.327	14119
307.343	12955
307.381	10171
307.434	7818
307.436	8040
307.491	15757
307.524	22377
307.546	22979
307.600	19415
307.614	17071
307.655	10648
307.704	5738
307.710	5676
307.765	7383
307.795	8918
307.819	11067
307.874	19402
307.885	19735
307.929	14205
307.975	7393
307.984	6961
308.038	6007
308.065	6318
308.093	9423
308.148	17280
308.156	19179
308.202	29528
308.246	37437
308.257	36887
308.312	21674
308.336	17199
308.366	15333
308.421	12751
308.426	12281
308.475	7594
308.517	5562
308.530	5327
308.585	4398
308.607	4137
308.639	4630
308.694	6223
308.697	6339
308.748	14358
308.787	22274
308.803	21773
308.857	15801
308.877	12734
308.912	10000
308.967	7895
308.967	7865
309.021	8725
309.058	9145
309.076	10816
309.130	17756
309.148	20464
309.185	32660
309.238	50812
309.239	50957
309.293	57578
309.328	54281
309.348	46831
309.402	21635
309.418	15562
309.457	11388
309.508	8134
309.511	8102
309.566	8120
309.598	8365
309.620	10349
309.674	16203
309.688	17914
309.729	16766
309.778	13320
309.783	13139
309.837	10602
309.868	9408
309.892	12687
309.946	21716
309.959	24299
310.001	32618
310.049	40324
310.055	38938
310.109	23496
310.139	14329
310.163	11739
310.218	8019
310.229	7330
310.272	6477
310.319	5798
310.326	5788
310.381	5813
310.409	5854
310.435	5875
310.489	5912
310.499	5930
310.543	6436
310.589	6901
310.598	7052
310.652	8008
310.679	8382
310.706	7522
310.760	5482
310.769	5188
310.814	4851
310.859	4432
310.868	4483
310.923	4813
310.948	4999
310.977	5739
311.031	7102
311.038	7302
311.085	7137
311.128	6667
311.139	6591
311.193	6174
311.218	6011
311.247	5888
311.301	5472
311.308	5432
311.356	5902
311.398	6211
311.410	6060
311.464	5333
311.488	4976
311.518	5143
311.572	5364
311.578	5398
311.626	7538
311.668	9354
311.680	9722
311.734	11229
311.758	11875
311.788	11356
311.842	10319
311.847	10189
311.896	13639
311.937	16623
311.950	16309
312.004	14745
312.027	13987
312.058	11588
312.112	7277
312.117	6837
312.165	6754
312.207	6669
312.297	12754
312.386	10321
312.476	7915
312.566	13930
312.656	7607
312.745	6384
312.835	7612
312.925	8560
313.015	8810
313.104	9579
313.194	5777
313.284	6049
313.374	7774
313.463	6963
313.553	5532
313.643	5041
313.732	5293
313.822	4780
313.912	5730
314.001	7708
314.091	10028
314.180	14757
314.270	10007
314.360	11996
314.449	9211
314.539	5816
314.628	6593
314.718	9147
314.808	11135
314.897	6375
314.987	5973
315.076	7269
315.166	9424
315.255	10397
315.345	9444
315.434	10266
315.524	9218
315.613	9723
315.703	10101
315.792	10962
315.881	15502
315.971	10657
316.060	17775
316.150	31029
316.239	30282
316.328	11534
316.418	5359
316.507	5377
316.597	8158
316.686	7202
316.775	12136
316.865	29122
316.954	7325
317.043	5308
317.133	5810
317.222	5766
317.311	5130
317.400	4322
317.490	7696
317.579	8665
317.668	4988
317.757	7720
317.847	11900
317.936	26710
318.025	20382
318.114	11467
318.203	9384
318.293	14805
318.382	27475
318.471	21103
318.560	26395
318.649	47387
318.738	12934
318.828	9546
318.917	10602
319.006	13040
319.095	29761
319.184	57285
319.273	33551
319.362	19724
319.451	8035
319.540	7049
319.629	14959
319.718	25078
319.807	13260
319.896	20690
319.985	67711
320.074	29701
320.163	12645
320.252	21411
320.341	18519
320.430	16795
320.519	16427
320.608	10072
320.697	9184
320.786	9089
320.875	9942
320.964	11588
321.053	17442
321.142	23485
321.230	26172
321.319	21665
321.408	49341
321.497	23778
321.586	19712
321.675	28607
321.764	27970
321.852	18579
321.941	29680
322.030	19319
322.119	21478
322.207	46034
322.296	45139
322.385	24400
322.474	19823
322.562	49905
322.651	32786
322.740	21434
322.829	32775
322.917	42348
323.006	20952
323.095	17205
323.183	14633
323.272	19757
323.361	27111
323.449	71472
323.538	27820
323.626	58178
323.715	35549
323.804	17601
323.892	56326
323.981	34985
324.069	12564
324.158	31724
324.246	30973
324.335	13318
324.424	18346
324.512	8910
324.601	11131
324.689	15413
324.778	26677
324.866	30178
324.954	10337
325.043	9188
325.131	18744
325.220	35677
325.308	38893
325.397	27075
325.485	16530
325.574	6405
325.662	6090
325.750	6273
325.839	7095
325.927	6176
326.015	9846
326.104	13858
326.192	20875
326.280	6092
326.369	7137
326.457	9413
326.545	15328
326.634	7283
326.722	5570
326.810	6175
326.898	6035
326.987	6343
327.075	14815
327.163	18204
327.251	9118
327.340	10269
327.428	14782
327.516	5452
327.604	5446
327.692	7185
327.781	9249
327.869	17254
327.957	9722
328.045	7267
328.133	5140
328.221	8232
328.309	6068
328.397	5548
328.485	7639
328.574	8744
328.662	25342
328.750	18539
328.838	9673
328.926	5823
329.014	4503
329.102	9009
329.190	24704
329.278	13946
329.366	4415
329.454	4842
329.542	6202
329.630	4663
329.718	5536
329.806	6844
329.893	7490
329.981	6330
330.069	4491
330.157	4952
330.245	7288
330.333	5782
330.421	4794
330.509	9330
330.597	32449
330.684	25378
330.772	12140
330.860	22211
330.948	28155
331.036	11480
331.123	4086
331.211	5397
331.299	9877
331.387	20688
331.475	36245
331.562	11898
331.650	6017
331.738	7254
331.825	13286
331.913	5730
332.001	5568
332.089	8794
332.176	19181
332.264	36879
332.352	29295
332.439	11478
332.527	8778
332.614	7760
332.702	10797
332.790	6014
332.877	17678
332.965	36032
333.052	7382
333.140	6898
333.228	14510
333.315	6090
333.403	8193
333.490	25533
333.578	18518
333.665	10549
333.753	6319
333.840	4653
333.928	8511
334.015	26356
334.103	27338
334.190	71617
334.278	23222
334.365	12327
334.452	8020
334.540	5847
334.627	8888
334.715	13442
334.802	20927
334.889	89469
334.977	76369
335.064	12918
335.151	7587
335.239	9194
335.326	12108
335.413	34169
335.501	44403
335.588	8926
335.675	6197
335.762	10833
335.850	22359
335.937	10453
336.024	22900
336.111	94060
336.199	43871
336.286	9653
336.373	5882
336.460	4319
336.547	5210
336.635	8276
336.722	6753
336.809	6387
336.896	9146
336.983	26329
337.070	59103
337.157	71863
337.245	59133
337.332	40448
337.419	7450
337.506	6608
337.593	9127
337.680	23658
337.767	66264
337.854	21738
337.941	30768
338.028	34679
338.115	11805
338.202	15941
338.289	20837
338.376	62004
338.463	23150
338.550	39942
338.637	39865
338.724	18869
338.811	30377
338.898	7050
338.984	5631
339.071	9371
339.158	7683
339.245	19163
339.332	13692
339.419	21271
339.506	20230
339.593	3132
339.679	4771
339.766	4553
339.853	7441
339.940	13581
340.027	6286
340.113	5969
340.200	7665
340.287	6141
340.374	7220
340.460	11893
340.547	5700
340.634	9529
340.720	27990
340.807	16213
340.894	4803
340.980	6002
341.067	4802
341.154	6618
341.240	7358
341.327	15930
341.414	5590
341.500	4778
341.587	5449
341.674	4911
341.760	11330
341.847	13306
341.933	4638
342.020	2382
342.106	3211
342.193	4399
342.279	9340
342.366	6376
342.452	12502
342.539	6471
342.625	13588
342.712	29715
342.798	12811
342.885	6464
342.971	1662
343.058	2743
343.144	2703
343.230	2922
343.317	2841
343.403	2588
343.490	2320
343.576	2007
343.662	3975
343.749	3241
343.835	4228
343.921	9364
344.008	35686
344.094	76771
344.180	19647
344.267	11109
344.353	26738
344.439	36081
344.525	16051
344.612	6075
344.698	4249
344.784	3214
344.870	3532
344.957	3184
345.043	7540
345.129	4942
345.215	10957
345.301	5841
345.387	3883
345.474	3038
345.560	3094
345.646	6029
345.732	5032
345.818	4461
345.904	4048
345.990	5011
346.076	6332
346.162	15441
346.249	5188
346.335	3326
346.421	3261
346.507	9677
346.593	30973
346.679	9687
346.765	5658
346.851	3655
346.937	3941
347.023	3846
347.108	5386
347.194	3055
347.280	3020
347.366	3827
347.452	9988
347.538	36148
347.624	31857
347.710	32613
347.796	7244
347.882	5225
347.967	4342
348.053	9939
348.139	5504
348.225	3900
348.311	2805
348.397	3221
348.482	4906
348.568	6866
348.654	2586
348.740	3342
348.825	3137
348.911	5998
348.997	18916
349.083	38092
349.168	8667
349.254	3873
349.340	3908
349.425	3418
349.511	6103
349.597	7021
349.682	9553
349.768	25108
349.854	12872
349.939	6275
350.025	2886
350.110	2730
350.196	1623
350.282	791
350.367	2421
350.453	8775
350.538	8822
350.624	6750
350.709	7538
350.795	3010
350.880	3075
350.966	4731
351.051	7286
351.137	6069
351.222	4011
351.308	10681
351.393	26461
351.479	6669
351.564	2484
351.649	4107
351.735	3270
351.820	2188
351.906	3261
351.991	4910
352.076	17513
352.162	24817
352.247	6070
352.332	4420
352.418	7358
352.503	9345
352.588	40816
352.673	34712
352.759	8422
352.844	3895
352.929	4933
353.014	6672
353.100	5075
353.185	7855
353.270	12183
353.355	13292
353.441	4516
353.526	5862
353.611	10942
353.696	12558
353.781	7727
353.866	3492
353.952	5286
354.037	10430
354.122	24855
354.207	21941
354.292	8018
354.377	3611
354.462	3431
354.547	4734
354.632	5610
354.717	9899
354.802	9044
354.887	3272
354.972	3343
355.057	1896
355.142	1582
355.227	3665
355.312	6852
355.397	14575
355.482	36303
355.567	16964
355.652	13692
355.737	13962
355.822	29665
355.907	22917
355.991	5368
356.076	2859
356.161	3025
356.246	3070
356.331	3257
356.416	6716
356.501	41718
356.585	42718
356.670	7631
356.755	7028
356.840	8709
356.924	34862
357.009	110013
357.094	44274
357.179	12729
357.263	8399
357.348	9595
357.433	9632
357.517	7672
357.602	6345
357.687	3922
357.771	6533
357.856	8093
357.941	7226
358.025	22855
358.110	93992
358.195	47179
358.279	9669
358.364	6843
358.448	25977
358.533	63092
358.617	46584
358.702	43412
358.787	17997
358.871	13008
358.956	9897
359.040	3272
359.125	1488
359.209	2082
359.294	3975
359.378	5556
359.462	7642
359.547	6553
359.631	5829
359.716	2941
359.800	5218
359.885	10887
359.969	4517
360.053	3874
360.138	2734
360.222	5582
360.306	11598
360.391	8686
360.475	11435
360.559	22276
360.644	27737
360.728	20045
360.812	24439
360.896	61396
360.981	38848
361.065	26766
361.149	6641
361.233	6715
361.318	5022
361.402	5853
361.486	5959
361.570	3454
361.654	5235
361.739	12839
361.823	41118
361.907	60281
361.991	11695
362.075	8924
362.159	20414
362.243	15085
362.327	11821
362.411	13579
362.495	9525
362.580	5703
362.664	3817
362.748	2494
362.832	3041
362.916	4226
363.000	16723
363.084	51716
363.168	72338
363.252	21147
363.336	11120
363.420	14185
363.503	51242
363.587	55885
363.671	11186
363.755	8499
363.839	13878
363.923	3715
364.007	11971
364.091	14551
364.175	17829
364.258	72546
364.342	39818
364.426	35439
364.510	21128
364.594	16448
364.677	18548
364.761	52610
364.845	37641
364.929	19488
365.013	16598
365.096	13013
365.180	15554
365.264	20112
365.347	75175
365.431	38990
365.515	14981
365.598	5598
365.682	5551
365.766	15786
365.849	20000
365.933	7882
366.017	13216
366.100	12350
366.184	3683
366.267	5123
366.351	3436
366.435	2435
366.518	2351
366.602	2639
366.685	3949
366.769	4521
366.852	13738
366.936	21829
367.019	9304
367.103	10179
367.186	23912
367.270	5459
367.353	1893
367.436	3976
367.520	1883
367.603	4644
367.687	6560
367.770	13790
367.853	8090
367.937	16485
368.020	28061
368.104	8298
368.187	10484
368.270	15373
368.353	13430
368.437	20122
368.520	54804
368.603	30767
368.687	25315
368.770	42247
368.853	12749
368.936	18754
369.020	22443
369.103	5974
369.186	4060
369.269	5495
369.352	9926
369.436	16178
369.519	9598
369.602	3698
369.685	6800
369.768	5566
369.851	5945
369.934	3483
370.018	5911
370.101	12643
370.184	12298
370.267	9667
370.350	14585
370.433	21106
370.516	31275
370.599	34654
370.682	14850
370.765	33428
370.848	32372
370.931	49748
371.014	25676
371.097	5565
371.180	3974
371.263	2453
371.346	1065
371.429	2949
371.511	3520
371.594	8825
371.677	17297
371.760	23764
371.843	11161
371.926	37007
372.009	79809
372.091	30675
372.174	22092
372.257	40259
372.340	17092
372.423	27662
372.505	37910
372.588	12808
372.671	18038
372.754	47269
372.836	24330
372.919	25930
373.002	52202
373.085	14910
373.167	10870
373.250	24134
373.332	42745
373.415	54551
373.498	109044
373.580	44085
373.663	50160
373.746	67021
373.828	20027
373.911	12861
373.993	11817
374.076	49795
374.159	47543
374.241	18135
374.324	46343
374.406	28923
374.489	31054
374.571	85340
374.654	35500
374.736	19427
374.819	57093
374.901	78527
374.983	77738
375.066	15729
375.148	9105
375.231	36118
375.313	76162
375.395	34977
375.478	7773
375.560	4666
375.643	6140
375.725	19478
375.807	69652
375.890	73231
375.972	46972
376.054	25583
376.136	47040
376.219	17983
376.301	20813
376.383	56940
376.465	22907
376.548	19208
376.630	19673
376.712	50686
376.794	23155
376.877	3735
376.959	3080
377.041	5237
377.123	18287
377.205	21295
377.287	3939
377.369	2869
377.452	2719
377.534	2866
377.616	3122
377.698	3226
377.780	1750
377.862	3082
377.944	4279
378.026	1892
378.108	1704
378.190	3277
378.272	2876
378.354	1624
378.436	2423
378.518	8422
378.600	36107
378.682	23405
378.764	32782
378.846	24621
378.928	11988
379.010	15344
379.091	7896
379.173	3933
379.255	1798
379.337	5136
379.419	15161
379.501	42726
379.583	19176
379.664	6543
379.746	13673
379.828	35673
379.910	42056
379.991	35057
380.073	6886
380.155	5249
380.237	4306
380.318	2915
380.400	3115
380.482	9487
380.564	13912
380.645	14349
380.727	13481
380.809	7969
380.890	4929
380.972	3416
381.053	3354
381.135	5123
381.217	11256
381.298	35329
381.380	18838
381.461	14865
381.543	51451
381.624	59846
381.706	13411
381.787	11703
381.869	9853
381.951	22016
382.032	80491
382.113	57400
382.195	17394
382.276	12012
382.358	17181
382.439	44011
382.521	46958
382.602	72590
382.684	35080
382.765	68106
382.846	60643
382.928	57405
383.009	28858
383.090	17912
383.172	69849
383.253	112666
383.334	49958
383.416	67755
383.497	31600
383.578	10349
383.659	20809
383.741	58080
383.822	161104
383.903	82216
383.984	42030
384.066	88814
384.147	55037
384.228	12284
384.309	11028
384.390	6842
384.471	5693
384.553	7389
384.634	12763
384.715	11572
384.796	5240
384.877	6548
384.958	26922
385.039	34835
385.120	14916
385.201	7049
385.282	13682
385.363	15902
385.444	8436
385.525	11943
385.606	36739
385.687	29288
385.768	14100
385.849	17017
385.930	42675
386.011	66417
386.092	19524
386.173	7152
386.254	8205
386.335	8364
386.416	7323
386.496	23030
386.577	37337
386.658	21412
386.739	13612
386.820	16760
386.901	13388
386.981	10054
387.062	4365
387.143	6763
387.224	32487
387.304	32846
387.385	16597
387.466	12179
387.547	19219
387.627	8237
387.708	12177
387.789	50430
387.869	57129
387.950	15406
388.031	3722
388.111	6693
388.192	29719
388.273	47426
388.353	21057
388.434	7154
388.514	10512
388.595	40050
388.676	56646
388.756	33027
388.837	35825
388.917	21056
388.998	5209
389.078	4936
389.159	3546
389.239	2415
389.320	8497
389.400	6263
389.480	15208
389.561	34148
389.641	14850
389.722	7448
389.802	14114
389.883	15967
389.963	35961
390.043	30123
390.124	16986
390.204	14884
390.284	38254
390.365	24738
390.445	36008
390.525	42530
390.605	26725
390.686	16307
390.766	7052
390.846	4570
390.927	1954
391.007	3201
391.087	6513
391.167	6316
391.247	4923
391.328	13006
391.408	22631
391.488	15221
391.568	2348
391.648	6000
391.728	9693
391.808	8124
391.888	7953
391.969	16378
392.049	27977
392.129	18935
392.209	16734
392.289	31651
392.369	20213
392.449	32598
392.529	17506
392.609	11052
392.689	10477
392.769	28934
392.849	24989
392.929	25435
393.009	57394
393.089	31060
393.169	20533
393.248	55441
393.328	214388
393.408	227788
393.488	61756
393.568	18891
393.648	9305
393.728	5656
393.807	4343
393.887	4347
393.967	3248
394.047	4935
394.127	4678
394.206	6855
394.286	13791
394.366	73040
394.446	77525
394.525	13635
394.605	4625
394.685	10047
394.764	38470
394.844	61286
394.924	37208
395.003	9968
395.083	5892
395.163	4416
395.242	3941
395.322	4348
395.402	2051
395.481	5505
395.561	20476
395.640	61585
395.720	39998
395.799	57845
395.879	39423
395.958	7986
396.038	18300
396.117	92847
396.197	103390
396.276	43861
396.356	24365
396.435	27825
396.515	12609
396.594	11694
396.673	20317
396.753	61767
396.832	198806
396.912	160151
396.991	43929
397.070	12451
397.150	5857
397.229	5463
397.308	5436
397.388	9967
397.467	5527
397.546	2464
397.625	1194
397.705	6357
397.784	6663
397.863	3195
397.942	2104
398.022	4006
398.101	18590
398.180	59926
398.259	38194
398.338	10300
398.417	5970
398.497	3985
398.576	6038
398.655	2091
398.734	2522
398.813	2838
398.892	16332
398.971	59279
399.050	27061
399.129	2989
399.208	1972
399.287	3121
399.366	1861
399.445	3303
399.524	2309
399.603	1964
399.682	7109
399.761	19420
399.840	61025
399.919	45393
399.998	6878
400.077	1863
400.156	1166
400.235	5974
400.313	3618
400.392	5672
400.471	20143
400.550	32521
400.629	9055
400.708	5796
400.786	7021
400.865	24126
400.944	26191
401.023	11231
401.102	1534
401.180	2492
401.259	3546
401.338	6464
401.416	7886
401.495	6186
401.574	6385
401.652	4263
401.731	7348
401.810	6721
401.888	2721
401.967	1221
402.046	1933
402.124	5733
402.203	8939
402.281	4386
402.360	6661
402.438	27810
402.517	19494
402.596	7116
402.674	8899
402.753	3817
402.831	2812
402.910	3074
402.988	13341
403.066	43501
403.145	23540
403.223	14067
403.302	32769
403.380	25014
403.459	27320
403.537	11921
403.615	5528
403.694	878
403.772	1414
403.850	607
403.929	964
404.007	1676
404.085	6706
404.164	6022
404.242	1876
404.320	2792
404.398	4651
404.477	11798
404.555	63532
404.633	51522
404.711	7646
404.789	2742
404.868	3128
404.946	1535
405.024	1396
405.102	1037
405.180	1241
405.258	201
405.336	2024
405.415	2351
405.493	10589
405.571	8150
405.649	1424
405.727	2025
405.805	6481
405.883	4765
405.961	7340
406.039	10479
406.117	2785
406.195	4289
406.273	15510
406.351	59686
406.429	39500
406.507	12007
406.585	4628
406.663	3892
406.740	4624
406.818	4610
406.896	2648
406.974	2970
407.052	4809
407.130	35919
407.208	48832
407.285	9005
407.363	1805
407.441	2943
407.519	2017
407.596	2136
407.674	5135
407.752	6723
407.830	21838
407.907	16670
407.985	4003
408.063	1808
408.141	1285
408.218	8642
408.296	7758
408.373	3009
408.451	3537
408.529	3487
408.606	498
408.684	251
408.762	-13
408.839	764
408.917	544
408.994	587
409.072	1188
409.149	782
409.227	2648
409.304	3146
409.382	1232
409.459	1853
409.537	3572
409.614	2872
409.692	1924
409.769	1325
409.846	4353
409.924	6338
410.001	4490
410.079	2239
410.156	2291
410.233	1264
410.311	385
410.388	773
410.465	3010
410.543	2823
410.620	1553
410.697	2885
410.775	3164
410.852	373
410.929	3431
411.006	4739
411.083	2724
411.161	8510
411.238	12288
411.315	8243
411.392	2441
411.469	4830
411.547	5769
411.624	1523
411.701	1935
411.778	2721
411.855	6209
411.932	3057
412.009	1722
412.086	1325
412.163	4354
412.240	5411
412.317	7340
412.394	6532
412.471	2221
412.548	1281
412.625	1622
412.702	4326
412.779	9579
412.856	5160
412.933	1367
413.010	1342
413.087	3999
413.164	20515
413.241	28094
413.318	6369
413.395	4845
413.471	7559
413.548	2904
413.625	2577
413.702	4935
413.779	4101
413.855	1011
413.932	116
414.009	-405
414.086	1293
414.162	488
414.239	4522
414.316	20036
414.393	40130
414.469	12988
414.546	1417
414.623	1297
414.699	1578
414.776	2849
414.853	1437
414.929	2144
415.006	2601
415.082	5166
415.159	3352
415.236	1689
415.312	2317
415.389	5366
415.465	7002
415.542	2826
415.618	1744
415.695	4248
415.771	2545
415.848	2894
415.924	3174
416.000	2755
416.077	1583
416.153	254
416.230	-520
416.306	345
416.383	2293
416.459	1632
416.535	341
416.612	576
416.688	1113
416.764	1203
416.841	565
416.917	1212
416.993	2210
417.069	3216
417.146	4406
417.222	3795
417.298	2445
417.374	1798
417.451	3646
417.527	3330
417.603	3241
417.679	2356
417.755	2214
417.831	824
417.908	90
417.984	532
418.060	1162
418.136	6544
418.212	7945
418.288	2031
418.364	1882
418.440	1568
418.516	5248
418.592	9611
418.668	14272
418.744	15991
418.820	10551
418.896	2897
418.972	286
419.048	1152
419.124	7994
419.200	4929
419.276	1348
419.352	66
419.428	515
419.504	2251
419.579	3009
419.655	1560
419.731	1273
419.807	10058
419.883	16850
419.959	10609
420.034	3751
420.110	6517
420.186	24830
420.262	19185
420.337	4199
420.413	2523
420.489	1601
420.565	1401
420.640	986
420.716	2137
420.792	48
420.867	1969
420.943	1409
421.019	4846
421.094	3501
421.170	1859
421.245	-56
421.321	1193
421.397	1799
421.472	1999
421.548	2699
421.623	4314
421.699	2932
421.774	3375
421.850	1724
421.925	5288
422.001	4241
422.076	2279
422.152	3285
422.227	6950
422.302	6236
422.378	8390
422.453	14816
422.529	31791
422.604	86489
422.679	141764
422.755	100649
422.830	35356
422.905	13911
422.981	6588
423.056	4583
423.131	3715
423.207	3339
423.282	4337
423.357	10310
423.432	6476
423.508	6781
423.583	16318
423.658	9119
423.733	4255
423.808	5890
423.883	4881
423.959	3384
424.034	2397
424.109	1337
424.184	97
424.259	782
424.334	348
424.409	329
424.484	805
424.559	1958
424.634	1413
424.709	3150
424.784	3678
424.859	3104
424.934	5154
425.009	19710
425.084	31605
425.159	10021
425.234	2180
425.309	114
425.384	1622
425.459	1355
425.534	2246
425.609	3740
425.683	1735
425.758	1253
425.833	2325
425.908	3308
425.983	11903
426.058	33481
426.132	14411
426.207	4575
426.282	10142
426.357	8418
426.431	1552
426.506	2210
426.581	3520
426.655	2685
426.730	1813
426.805	786
426.879	3056
426.954	3184
427.029	7091
427.103	27108
427.178	55294
427.253	23743
427.327	4184
427.402	6876
427.476	14549
427.551	5252
427.625	4692
427.700	4829
427.774	2209
427.849	4775
427.923	1615
427.998	1886
428.072	2613
428.147	8721
428.221	20692
428.296	42984
428.370	18245
428.444	5327
428.519	11431
428.593	24672
428.667	19513
428.742	25835
428.816	18990
428.890	39253
428.965	45264
429.039	22063
429.113	29034
429.188	8887
429.262	2206
429.336	5221
429.410	17397
429.485	11838
429.559	21100
429.633	14848
429.707	2896
429.781	9449
429.855	52552
429.930	68506
430.004	52688
430.078	81386
430.152	54847
430.226	45372
430.300	40878
430.374	6749
430.448	5304
430.522	21015
430.596	62921
430.670	32082
430.744	46579
430.818	65598
430.892	14469
430.966	3398
431.040	2828
431.114	849
431.188	1489
431.262	2040
431.336	2320
431.410	10482
431.484	30696
431.557	15555
431.631	1581
431.705	511
431.779	6459
431.853	31575
431.927	20014
432.000	2393
432.074	1704
432.148	4974
432.222	3248
432.295	1329
432.369	774
432.443	4380
432.516	25925
432.590	56480
432.664	21394
432.737	3831
432.811	365
432.885	-155
432.958	913
433.032	296
433.106	292
433.179	-44
433.253	-281
433.326	198
433.400	-294
433.473	731
433.547	-627
433.620	807
433.694	4063
433.767	4465
433.841	1497
433.914	990
433.988	-94
434.061	987
434.134	-52
434.208	69
434.281	-380
434.355	353
434.428	1333
434.501	638
434.575	720
434.648	1406
434.721	-163
434.795	-686
434.868	763
434.941	571
435.014	-680
435.088	-53
435.161	765
435.234	3244
435.307	4184
435.381	1375
435.454	1396
435.527	1514
435.600	1489
435.673	1181
435.746	252
435.819	-172
435.892	893
435.966	218
436.039	630
436.112	2157
436.185	609
436.258	-86
436.331	-713
436.404	117
436.477	-615
436.550	-247
436.623	402
436.696	275
436.769	1416
436.842	1083
436.915	1835
436.987	3075
437.060	1444
437.133	73
437.206	192
437.279	1160
437.352	176
437.425	-132
437.498	508
437.570	5427
437.643	4900
437.716	599
437.789	-25
437.861	4301
437.934	11602
438.007	4083
438.080	593
438.152	885
438.225	3413
438.298	25169
438.370	67061
438.443	30122
438.516	10148
438.588	1574
438.661	263
438.734	865
438.806	1513
438.879	3245
438.951	3347
439.024	6165
439.096	1434
439.169	1232
439.241	292
439.314	382
439.386	4300
439.459	7612
439.531	10057
439.604	2607
439.676	984
439.749	378
439.821	404
439.893	671
439.966	1124
440.038	1922
440.110	2549
440.183	904
440.255	249
440.327	2138
440.400	16127
440.472	54251
440.544	31310
440.617	5199
440.689	5259
440.761	7424
440.833	11973
440.905	6151
440.978	1008
441.050	-229
441.122	1233
441.194	434
441.266	402
441.338	568
441.411	3573
441.483	20622
441.555	28568
441.627	7029
441.699	8066
441.771	7573
441.843	2013
441.915	72
441.987	61
442.059	135
442.131	1812
442.203	5501
442.275	6712
442.347	4741
442.419	4416
442.491	15851
442.563	40324
442.635	23001
442.706	27486
442.778	18995
442.850	3083
442.922	682
442.994	3375
443.066	5361
443.137	3810
443.209	1733
443.281	2538
443.353	8266
443.425	24546
443.496	66395
443.568	62052
443.640	24671
443.711	6602
443.783	2191
443.855	2619
443.926	1322
443.998	3089
444.070	5620
444.141	3321
444.213	4992
444.285	7183
444.356	6264
444.428	5988
444.499	1515
444.571	1428
444.642	1309
444.714	1586
444.785	4407
444.857	8495
444.928	23357
445.000	11241
445.071	14988
445.143	16654
445.214	6180
445.285	12661
445.357	37090
445.428	54080
445.500	106667
445.571	77522
445.642	38414
445.714	27529
445.785	31972
445.856	7797
445.928	7016
445.999	5692
446.070	3293
446.141	4712
446.213	7420
446.284	4157
446.355	6294
446.426	3314
446.497	3180
446.569	7370
446.640	9958
446.711	5535
446.782	2864
446.853	5347
446.924	4945
446.995	2686
447.066	2985
447.138	8932
447.209	3869
447.280	248
447.351	315
447.422	1201
447.493	4898
447.564	3856
447.635	4373
447.706	1550
447.777	699
447.847	1440
447.918	1111
447.989	5088
448.060	6056
448.131	17052
448.202	12297
448.273	8167
448.344	3393
448.414	1927
448.485	1333
448.556	1482
448.627	1275
448.698	1491
448.768	1580
448.839	2105
448.910	7666
448.981	6784
449.051	2657
449.122	1397
449.193	985
449.263	2056
449.334	1002
449.405	2889
449.475	7634
449.546	5693
449.616	9667
449.687	6297
449.758	1512
449.828	1001
449.899	390
449.969	-8
450.040	1193
450.110	2775
450.181	3675
450.251	702
450.322	1501
450.392	2282
450.463	1776
450.533	852
450.604	1637
450.674	1329
450.744	1388
450.815	1691
450.885	1754
450.955	1372
451.026	1095
451.096	1861
451.166	3145
451.237	11373
451.307	26168
451.377	7534
451.447	1158
451.518	1610
451.588	1635
451.658	1857
451.728	5354
451.799	26663
451.869	25011
451.939	4979
452.009	2513
452.079	1123
452.149	2260
452.219	6395
452.289	30787
452.360	18594
452.430	4390
452.500	2802
452.570	3585
452.640	5781
452.710	20136
452.780	28390
452.850	16078
452.920	12707
452.990	4936
453.060	3302
453.129	5150
453.199	6987
453.269	23119
453.339	42086
453.409	61105
453.479	74577
453.549	108675
453.619	123958
453.688	41942
453.758	6900
453.828	2533
453.898	2700
453.968	1886
454.037	1105
454.087	1828
454.107	2107
454.168	2123
454.177	2109
454.247	1594
454.249	1588
454.316	1042
454.330	1669
454.386	3984
454.411	8914
454.456	16643
454.492	18429
454.525	20034
454.574	9759
454.595	5330
454.655	2372
454.665	1955
454.734	4044
454.736	4237
454.804	9419
454.817	13391
454.873	28244
454.898	28380
454.943	28034
454.979	18406
455.013	10053
455.060	5730
455.082	4282
455.141	6716
455.152	6855
455.221	21160
455.222	21417
455.291	31138
455.303	27022
455.360	9233
455.384	7758
455.430	6457
455.465	10127
455.499	12617
455.546	23173
455.569	27242
455.627	15768
455.638	13853
455.707	3816
455.708	3827
455.777	2167
455.789	2334
455.846	3241
455.869	2851
455.916	2045
455.950	2795
455.985	3375
456.031	3372
456.054	3273
456.112	2233
456.124	2150
456.193	2800
456.193	2774
456.262	3807
456.274	4200
456.332	5669
456.355	5945
456.401	5863
456.436	4392
456.470	3030
456.516	2462
456.540	2277
456.597	2224
456.609	2233
456.678	2480
456.678	2465
456.747	2015
456.759	2010
456.817	2205
456.840	2090
456.886	1681
456.920	2015
456.955	2473
457.001	2550
457.024	2725
457.082	4075
457.093	4313
457.162	6245
457.163	6281
457.232	7502
457.243	7033
457.301	4288
457.324	3576
457.370	2871
457.405	2672
457.439	2497
457.485	3051
457.508	3252
457.566	3330
457.577	3383
457.646	3642
457.647	3664
457.715	4993
457.727	5244
457.784	6634
457.808	7995
457.853	9753
457.889	10864
457.922	11249
457.969	7861
457.991	7248
458.050	8983
458.060	9190
458.129	15308
458.130	15426
458.198	16280
458.211	14628
458.267	8067
458.292	6421
458.336	4786
458.372	4366
458.405	4886
458.453	7134
458.474	8510
458.533	14841
458.543	15517
458.611	25923
458.614	25928
458.680	17649
458.694	14719
458.749	7466
458.775	6350
458.818	4832
458.855	4753
458.887	4932
458.936	4941
458.955	4836
459.016	4355
459.024	4388
459.093	5616
459.097	5651
459.162	5436
459.177	5603
459.230	6461
459.257	6855
459.299	7071
459.338	6942
459.368	6883
459.418	7442
459.437	7302
459.499	5871
459.505	5823
459.574	5369
459.579	5373
459.643	4834
459.659	4610
459.711	4834
459.740	5304
459.780	5598
459.820	5783
459.849	5898
459.900	6537
459.917	6593
459.981	6194
459.986	6162
460.054	5480
460.061	5445
460.123	5610
460.141	5789
460.191	6561
460.222	7085
460.260	7457
460.302	8574
460.328	8675
460.382	7033
460.397	6704
460.462	5539
460.465	5513
460.534	5949
460.543	5939
460.602	7053
460.623	7765
460.671	10034
460.703	12238
460.739	12184
460.783	10775
460.808	10154
460.864	7131
460.876	6772
460.944	6489
460.945	6486
461.013	6458
461.024	6558
461.081	6572
461.104	6709
461.150	6878
461.184	6622
461.218	6206
461.264	5632
461.286	5861
461.345	6980
461.355	6977
461.423	6568
461.425	6558
461.491	6981
461.505	7125
461.559	12540
461.585	15318
461.628	25490
461.665	35619
461.696	39225
461.745	48632
461.764	43572
461.825	13458
461.832	12544
461.901	8340
461.905	8304
461.969	8125
461.985	7893
462.037	7350
462.065	7160
462.105	8167
462.145	9492
462.173	13720
462.225	21594
462.241	23595
462.305	34736
462.310	33957
462.378	19304
462.385	17026
462.446	9550
462.465	8286
462.514	7859
462.545	7883
462.582	8008
462.625	7982
462.650	7803
462.705	7593
462.718	7982
462.785	10188
462.786	10273
462.854	15145
462.865	16036
462.922	20272
462.945	22071
462.990	16790
463.025	11288
463.058	10185
463.104	9179
463.126	8926
463.184	8887
463.194	8931
463.262	8869
463.264	8873
463.330	9307
463.344	9402
463.398	10759
463.424	11373
463.466	11247
463.504	11074
463.533	11312
463.583	11999
463.601	12376
463.663	12940
463.669	13184
463.737	16758
463.743	17064
463.805	25224
463.823	27544
463.873	41467
463.903	50744
463.940	54267
463.982	58961
464.008	48416
464.062	20526
464.076	18659
464.142	10524
464.144	10448
464.211	9483
464.221	9408
464.279	9906
464.301	10090
464.347	11054
464.381	11755
464.414	12854
464.461	14405
464.482	15160
464.540	17685
464.550	17020
464.617	11046
464.620	10828
464.685	11111
464.699	11259
464.753	11225
464.779	11232
464.820	11788
464.859	12172
464.888	13064
464.938	14627
464.956	15187
465.018	17424
465.023	17063
465.091	11577
465.098	10990
465.158	11009
465.177	11052
465.226	10773
465.257	10692
465.293	11762
465.336	12848
465.361	13530
465.416	15170
465.428	16678
465.495	24731
465.496	24893
465.563	44687
465.575	48188
465.631	59319
465.654	64270
465.698	40006
465.734	17930
465.765	14863
465.813	10948
465.833	10625
465.893	10461
465.900	10366
465.968	9408
465.972	9324
466.035	9369
466.052	9396
466.102	10043
466.131	10324
466.170	10190
466.210	10040
466.237	10379
466.290	11026
466.304	11115
466.369	11403
466.372	11457
466.439	12482
466.449	12614
466.506	13053
466.528	13205
466.573	20271
466.607	25464
466.641	39810
466.687	59827
466.708	66418
466.766	84935
466.775	78241
466.842	26057
466.845	23540
466.909	15924
466.925	14236
466.977	13618
467.004	13327
467.044	13959
467.083	14571
467.111	14690
467.163	14826
467.178	14953
467.242	15371
467.245	15410
467.312	15709
467.321	15724
467.379	17148
467.400	17618
467.446	19672
467.480	21096
467.559	19386
467.638	14333
467.717	15846
467.796	16162
467.875	19518
467.955	18887
468.034	28367
468.113	70866
468.192	102894
468.271	27791
468.350	14758
468.429	15148
468.508	16589
468.588	14962
468.667	15162
468.746	15716
468.825	16179
468.904	14760
468.983	19054
469.062	31966
469.141	40164
469.220	16150
469.299	15310
469.378	15785
469.456	14272
469.535	14049
469.614	15103
469.693	16128
469.772	23231
469.851	34629
469.930	23969
470.009	12521
470.088	12738
470.166	13099
470.245	14492
470.324	14223
470.403	14386
470.482	12806
470.560	12577
470.639	13969
470.718	16662
470.797	14536
470.875	17330
470.954	26557
471.033	30414
471.111	13362
471.190	12168
471.269	11098
471.347	12470
471.426	14289
471.505	16558
471.583	14927
471.662	13487
471.740	12183
471.819	13435
471.898	12765
471.976	13917
472.055	13174
472.133	16293
472.212	22687
472.290	25790
472.369	16136
472.447	13906
472.526	12068
472.604	13455
472.683	13092
472.761	14786
472.839	13031
472.918	13509
472.996	14167
473.075	17902
473.153	16918
473.231	13676
473.310	15496
473.388	17226
473.466	13616
473.545	14082
473.623	16457
473.701	17922
473.780	13762
473.858	11910
473.936	14395
474.014	14688
474.093	15358
474.171	25071
474.249	36169
474.327	25007
474.405	11913
474.484	12232
474.562	12859
474.640	12481
474.718	13322
474.796	13691
474.874	11976
474.952	11415
475.030	11591
475.108	11308
475.187	12545
475.265	13840
475.343	17630
475.421	20618
475.499	12613
475.577	14533
475.655	19706
475.733	42252
475.811	74165
475.889	68880
475.966	47724
476.044	15997
476.122	18951
476.200	22917
476.278	20115
476.356	18050
476.434	18667
476.512	21166
476.590	23768
476.667	23047
476.745	16617
476.823	18480
476.901	19201
476.979	19431
477.056	17201
477.134	18765
477.212	17510
477.290	17067
477.367	16101
477.445	16639
477.523	15567
477.601	16714
477.678	17437
477.756	21660
477.834	24580
477.911	17511
477.989	16311
478.066	18079
478.144	20851
478.222	20053
478.299	24123
478.377	22800
478.454	15042
478.532	15286
478.609	15845
478.687	17568
478.764	14466
478.842	16572
478.919	16324
478.997	16878
479.074	15115
479.152	19375
479.229	23567
479.307	17951
479.384	13507
479.461	14633
479.539	16835
479.616	20300
479.694	16820
479.771	18351
479.848	19463
479.926	25598
480.003	28219
480.080	15029
480.157	14182
480.235	15223
480.312	15040
480.389	20522
480.467	32611
480.544	39609
480.621	22805
480.698	20860
480.775	24018
480.853	25543
480.930	21014
481.007	20344
481.084	22335
481.161	23800
481.238	23303
481.315	18849
481.392	17962
481.470	19236
481.547	17574
481.624	17760
481.701	18625
481.778	20002
481.855	20871
481.932	30254
482.009	50634
482.086	37888
482.163	19137
482.240	22399
482.317	30542
482.393	26011
482.470	19168
482.547	19502
482.624	18171
482.701	18350
482.778	17609
482.855	15682
482.932	16086
483.009	15978
483.085	16973
483.162	19143
483.239	19534
483.316	16280
483.393	16694
483.469	16632
483.546	19258
483.623	22373
483.699	18201
483.776	18643
483.853	19696
483.930	25495
484.006	62759
484.083	105620
484.160	37308
484.236	26818
484.313	23615
484.389	22574
484.466	20582
484.543	19729
484.619	20569
484.696	23951
484.772	28282
484.849	32363
484.925	21713
485.002	22045
485.078	23286
485.155	24822
485.231	21355
485.308	21201
485.384	22646
485.461	29037
485.537	57182
485.614	73268
485.690	25711
485.766	22120
485.843	22054
485.919	29777
485.995	29738
486.072	19794
486.148	19801
486.224	19984
486.301	21414
486.377	26079
486.453	24466
486.530	22566
486.606	23473
486.682	25169
486.758	43784
486.835	55879
486.911	39569
486.987	70843
487.063	62839
487.139	62226
487.215	42146
487.292	22442
487.368	20199
487.444	22070
487.520	27143
487.596	22306
487.672	25361
487.748	50790
487.824	67879
487.900	30328
487.976	22253
488.052	24164
488.128	30779
488.204	25390
488.280	22255
488.356	26629
488.432	66285
488.508	106722
488.584	35245
488.660	20161
488.736	18543
488.812	20107
488.888	23228
488.964	28645
489.039	57506
489.115	89544
489.191	54942
489.267	21097
489.343	21132
489.418	17601
489.494	16854
489.570	16523
489.646	18918
489.722	19417
489.797	18584
489.873	33137
489.949	81658
490.024	71648
490.100	19648
490.176	17797
490.251	21699
490.327	26280
490.403	17742
490.478	15898
490.554	14546
490.629	15468
490.705	15576
490.781	17364
490.856	17266
490.932	20067
491.007	18129
491.083	18397
491.158	17566
491.234	25039
491.309	63758
491.385	69119
491.460	20974
491.536	20379
491.611	16970
491.686	19336
491.762	21532
491.837	41609
491.913	70742
491.988	96644
492.063	109982
492.139	48221
492.214	32057
492.289	15662
492.365	14627
492.440	18052
492.515	19153
492.590	20975
492.666	16396
492.741	23709
492.816	38682
492.891	21654
492.967	13346
493.042	13599
493.117	12148
493.192	12029
493.267	14808
493.342	16498
493.418	14620
493.493	12851
493.568	12863
493.643	14408
493.718	18152
493.793	31329
493.868	29506
493.943	18688
494.018	15311
494.093	15987
494.168	15766
494.243	12224
494.318	12347
494.393	12948
494.468	11616
494.543	12214
494.618	13734
494.693	14191
494.768	14291
494.842	14657
494.917	11952
494.992	12890
495.067	11940
495.142	12757
495.217	12716
495.292	14708
495.366	17638
495.441	24428
495.516	31505
495.591	35076
495.665	84473
495.740	186203
495.815	88515
495.890	28347
495.964	25719
496.039	27612
496.114	24073
496.188	24747
496.263	23927
496.338	25493
496.412	27086
496.487	31203
496.561	28446
496.636	29199
496.710	24968
496.785	28297
496.860	31937
496.934	26180
497.009	24242
497.083	22448
497.158	22884
497.232	28138
497.307	33124
497.381	26428
497.455	31572
497.530	43026
497.604	28171
497.679	28051
497.753	43277
497.827	54086
497.902	36724
497.976	41000
498.050	82076
498.125	307374
498.199	324568
498.273	56115
498.348	34706
498.422	29441
498.496	29487
498.570	28676
498.645	23672
498.719	25729
498.793	34549
498.867	54932
498.941	65701
499.016	135864
499.090	360697
499.164	149364
499.238	26238
499.312	24567
499.386	28060
499.460	28865
499.534	26780
499.609	32151
499.683	50333
499.757	47438
499.831	69587
499.905	258697
499.979	261355
500.053	65697
500.127	61223
500.201	37708
500.275	29938
500.349	28880
500.422	31788
500.496	39538
500.570	65241
500.644	153887
500.718	294152
500.792	85863
500.866	31113
500.940	42700
501.013	35405
501.087	32847
501.161	46734
501.235	63895
501.309	126645
501.382	304950
501.456	273207
501.530	75114
501.603	128492
501.677	60500
501.751	26889
501.825	31511
501.898	50598
501.972	146769
502.046	103279
502.119	32850
502.193	63560
502.266	157513
502.340	87627
502.413	74290
502.487	151873
502.561	98268
502.634	33287
502.708	23856
502.781	21453
502.855	21104
502.928	18467
503.002	19388
503.075	19063
503.149	22899
503.222	21937
503.295	24729
503.369	29844
503.442	34879
503.516	99561
503.589	264598
503.662	185701
503.736	60414
503.809	128182
503.882	108908
503.956	136846
504.029	132276
504.102	52343
504.175	54409
504.249	24708
504.322	27181
504.395	28624
504.468	21037
504.542	20982
504.615	17759
504.688	15820
504.761	16284
504.834	21616
504.907	21832
504.980	29990
505.053	23530
505.127	23461
505.200	29498
505.273	31433
505.346	22463
505.419	16529
505.492	17867
505.565	14925
505.638	15540
505.711	16360
505.784	16609
505.857	14341
505.930	17870
506.003	16020
506.076	19241
506.149	23820
506.221	30393
506.294	23432
506.367	53026
506.440	172878
506.513	101920
506.586	32225
506.659	21076
506.731	16372
506.804	18906
506.877	23216
506.950	22710
507.022	15396
507.095	21336
507.168	26835
507.241	16159
507.313	12720
507.386	15416
507.459	18272
507.531	13654
507.604	12716
507.677	14530
507.749	10721
507.822	15679
507.894	20556
507.967	21618
508.040	13216
508.112	13982
508.185	14094
508.257	13972
508.330	20297
508.402	15969
508.475	15187
508.547	16346
508.620	16363
508.692	30500
508.765	19330
508.837	13053
508.909	11971
508.982	14443
509.054	14046
509.127	12548
509.199	11391
509.271	12640
509.344	10268
509.416	12207
509.488	12357
509.560	13873
509.633	11802
509.705	14204
509.777	14191
509.849	18454
509.922	13300
509.994	11371
510.066	12236
510.138	11579
510.210	15233
510.283	14359
510.355	14029
510.427	13214
510.499	12670
510.571	12773
510.643	12484
510.715	21019
510.787	18039
510.859	15278
510.931	17519
511.003	21520
511.076	20754
511.148	12663
511.219	12938
511.291	24979
511.363	33983
511.435	13366
511.507	10323
511.579	11932
511.651	11475
511.723	11521
511.795	10497
511.867	12679
511.939	14973
512.010	38471
512.082	31440
512.154	12762
512.226	12421
512.298	13429
512.369	16685
512.441	16102
512.513	15059
512.585	12463
512.656	14825
512.728	17286
512.800	11467
512.871	11455
512.943	12035
513.015	9632
513.086	10665
513.158	12943
513.230	11256
513.301	16626
513.373	20144
513.444	13696
513.516	10771
513.588	11826
513.659	11566
513.731	14573
513.802	12923
513.874	24867
513.945	43122
514.016	17447
514.088	11095
514.159	11556
514.231	15830
514.302	18391
514.374	14457
514.445	15126
514.516	41752
514.588	32897
514.659	17131
514.730	40498
514.802	28855
514.873	10781
514.944	13194
515.016	13018
515.087	15374
515.158	25694
515.229	41177
515.301	13798
515.372	11242
515.443	10749
515.514	10718
515.585	9558
515.656	10423
515.728	11124
515.799	8816
515.870	11078
515.941	11454
516.012	10744
516.083	12038
516.154	12770
516.225	17998
516.296	16626
516.367	13717
516.438	15384
516.509	18671
516.580	24665
516.651	56530
516.722	182904
516.793	107754
516.864	37400
516.935	38685
517.006	38442
517.077	43019
517.148	76272
517.219	143019
517.289	219450
517.360	189547
517.431	85969
517.502	25761
517.573	26114
517.643	23501
517.714	24046
517.785	24529
517.856	25002
517.926	26532
517.997	27744
518.068	27556
518.138	33736
518.209	36299
518.280	87073
518.350	281176
518.421	119246
518.492	32090
518.562	28306
518.633	30154
518.703	25941
518.774	32388
518.845	54129
518.915	55262
518.986	32072
519.056	32430
519.127	46547
519.197	68887
519.268	179331
519.338	133478
519.408	39597
519.479	35331
519.549	29593
519.620	22453
519.690	19376
519.760	21070
519.831	20093
519.901	21045
519.971	17689
520.042	20920
520.112	25482
520.182	23935
520.253	25345
520.323	19961
520.393	20913
520.463	22042
520.534	20578
520.604	31594
520.674	25265
520.744	25530
520.814	32127
520.885	33462
520.955	56170
521.025	206929
521.095	95449
521.165	25339
521.235	22581
521.305	19254
521.375	18034
521.445	18812
521.515	21127
521.585	24730
521.655	24077
521.725	21079
521.795	21513
521.865	16902
521.935	30964
522.005	27574
522.075	18889
522.145	19090
522.215	22663
522.285	32273
522.355	41523
522.424	81798
522.494	71734
522.564	30207
522.634	38929
522.704	103776
522.774	47814
522.843	20208
522.913	18137
522.983	20306
523.053	16735
523.122	18691
523.192	21939
523.262	53297
523.331	56973
523.401	20362
523.471	14985
523.540	16990
523.610	13505
523.680	14889
523.749	15575
523.819	19659
523.888	22715
523.958	15520
524.027	18039
524.097	21567
524.166	18955
524.236	17165
524.305	21065
524.375	17430
524.444	16265
524.514	18817
524.583	18013
524.653	23645
524.722	27135
524.791	17403
524.861	17608
524.930	16326
524.999	17704
525.069	22192
525.138	22959
525.207	27409
525.277	19955
525.346	17471
525.415	18684
525.484	17134
525.554	21504
525.623	20885
525.692	18133
525.761	17737
525.830	17320
525.900	17664
525.969	23686
526.038	28133
526.107	33035
526.176	77853
526.245	67180
526.314	38371
526.383	54357
526.452	57220
526.522	90715
526.591	114621
526.660	62563
526.729	34154
526.797	33761
526.867	53789
526.935	210167
527.004	258002
527.073	131803
527.142	25216
527.211	19307
527.280	19176
527.349	20855
527.418	13706
527.487	16431
527.555	14356
527.624	13773
527.693	13086
527.762	15731
527.831	13683
527.899	15456
527.968	16417
528.037	15900
528.106	16455
528.174	25975
528.243	25614
528.312	32584
528.380	40717
528.449	18539
528.518	15032
528.586	13192
528.655	14048
528.723	14185
528.792	13024
528.861	16041
528.929	14770
528.998	14455
529.066	12328
529.135	13153
529.203	12788
529.272	12405
529.340	13515
529.409	15322
529.477	13543
529.545	18015
529.614	21224
529.682	20648
529.751	26909
529.819	23709
529.887	18309
529.956	14253
530.024	15345
530.092	13141
530.161	14282
530.229	19867
530.297	14991
530.365	13775
530.434	12294
530.502	12729
530.570	13618
530.638	11917
530.707	13694
530.775	17209
530.843	13419
530.911	13942
530.979	12743
531.047	14014
531.115	14957
531.183	14383
531.252	14309
531.320	14983
531.388	14362
531.456	14968
531.524	12043
531.592	14588
531.660	16612
531.728	14554
531.796	13425
531.864	14105
531.932	13618
532.000	13496
532.067	15178
532.135	14735
532.203	16564
532.271	15917
532.339	21873
532.407	47996
532.475	31553
532.542	19895
532.610	20414
532.678	24206
532.746	67324
532.814	177734
532.881	57986
532.949	19355
533.017	14773
533.084	15578
533.152	14149
533.220	14883
533.287	14230
533.355	13851
533.423	14149
533.490	13667
533.558	13874
533.625	14427
533.693	13783
533.761	15793
533.828	16603
533.896	13720
533.963	21481
534.031	25338
534.098	34921
534.166	21819
534.233	14696
534.300	14682
534.368	14601
534.435	13677
534.503	14376
534.570	13498
534.637	13405
534.705	14828
534.772	14915
534.840	17188
534.907	38615
534.974	49271
535.041	17542
535.109	21406
535.176	14669
535.243	13955
535.310	14257
535.378	13189
535.445	13841
535.512	12867
535.579	13840
535.646	14252
535.714	13511
535.781	15671
535.848	14485
535.915	16789
535.982	14881
536.049	15645
536.116	16049
536.183	15028
536.250	14620
536.317	15121
536.384	16956
536.451	21118
536.518	23213
536.585	17785
536.652	22189
536.719	25427
536.786	22174
536.853	19742
536.920	25335
536.987	37690
537.053	30902
537.120	95195
537.187	91907
537.254	19393
537.321	15440
537.388	17442
537.454	14711
537.521	15272
537.588	13175
537.654	16031
537.721	15486
537.788	16992
537.855	13575
537.921	15020
537.988	14769
538.055	15591
538.121	14236
538.188	16222
538.254	17950
538.321	32675
538.388	23943
538.454	17104
538.521	15709
538.587	14078
538.654	14896
538.720	15445
538.787	14566
538.853	16293
538.920	19419
538.986	20638
539.053	18578
539.119	18750
539.185	15841
539.252	19537
539.318	23865
539.385	20824
539.451	17216
539.517	18344
539.583	19931
539.650	36215
539.716	90282
539.782	33045
539.849	15578
539.915	17206
539.981	16011
540.047	18635
540.114	16779
540.180	19700
540.246	16619
540.312	20327
540.378	31861
540.444	35518
540.510	34708
540.576	92161
540.643	37902
540.709	16719
540.775	16380
540.841	17309
540.907	21442
540.973	28601
541.039	20722
541.105	23549
541.171	16427
541.237	16154
541.303	17772
541.369	18630
541.435	18815
541.500	29271
541.566	21508
541.632	16179
541.698	14893
541.764	17132
541.830	15072
541.896	14461
541.961	17338
542.027	15888
542.093	15411
542.159	16545
542.224	16366
542.290	19991
542.356	28390
542.421	36041
542.487	20234
542.553	17051
542.618	19963
542.684	18272
542.750	16934
542.815	21207
542.881	28264
542.947	80871
543.012	66063
543.078	18312
543.143	16259
543.209	18168
543.274	17516
543.340	19094
543.405	35285
543.471	55686
543.536	20891
543.602	17689
543.667	16255
543.732	17226
543.798	14902
543.863	16567
543.928	15476
543.994	14677
544.059	16035
544.124	15410
544.190	14744
544.255	15996
544.320	15407
544.386	15535
544.451	20085
544.516	23686
544.581	22749
544.646	50823
544.712	84881
544.777	26665
544.842	25968
544.907	28924
544.972	23844
545.037	24292
545.102	26192
545.168	27675
545.233	27866
545.298	28072
545.363	29233
545.428	31343
545.493	39185
545.558	77204
545.623	43832
545.688	27467
545.753	25256
545.818	25501
545.883	25480
545.947	24425
546.012	26831
546.077	30156
546.142	26846
546.207	24964
546.272	28188
546.337	29353
546.401	27290
546.466	26100
546.531	23985
546.596	26795
546.661	25601
546.725	27074
546.790	24475
546.855	28069
546.919	25656
546.984	28063
547.049	29756
547.113	35434
547.178	31921
547.243	33769
547.307	35338
547.372	39875
547.436	44613
547.501	35486
547.565	35372
547.630	37669
547.695	38067
547.759	45163
547.823	41017
547.888	34222
547.952	33723
548.017	34135
548.081	37668
548.146	48927
548.210	44977
548.274	36148
548.339	35141
548.403	35066
548.468	31182
548.532	32670
548.596	33285
548.660	34605
548.725	35677
548.789	42788
548.853	42791
548.917	37514
548.982	46034
549.046	48884
549.110	33034
549.174	33015
549.238	32951
549.303	33771
549.367	36249
549.431	35674
549.495	32651
549.559	34870
549.623	35895
549.687	42458
549.751	49535
549.815	46435
549.879	44123
549.943	41235
550.007	45462
550.071	47299
550.135	48088
550.199	44383
550.263	41531
550.327	43581
550.391	53923
550.455	45687
550.519	44865
550.582	46953
550.646	54252
550.710	57329
550.774	47335
550.838	48201
550.901	49931
550.965	52439
551.029	52912
551.093	58067
551.156	65606
551.220	101464
551.284	116462
551.347	68718
551.411	112570
551.475	132656
551.538	55816
551.602	50049
551.666	47321
551.729	43129
551.793	43195
551.856	43682
551.920	42723
551.983	43676
552.047	42792
552.110	43130
552.174	41859
552.237	43355
552.301	42261
552.364	42156
552.428	40894
552.491	41052
552.554	41056
552.618	42598
552.681	43468
552.745	42756
552.808	47201
552.871	50704
552.934	43661
552.998	42511
553.061	44578
553.124	43657
553.187	41321
553.251	42175
553.314	45223
553.377	41601
553.440	45173
553.503	47331
553.567	45418
553.630	43007
553.693	42642
553.756	46597
553.819	42954
553.882	43983
553.945	42989
554.008	42502
554.071	41093
554.134	42856
554.197	42292
554.260	40454
554.323	43350
554.386	42908
554.449	42969
554.512	42836
554.575	41119
554.638	43305
554.701	40983
554.764	41292
554.827	40827
554.889	39064
554.952	37476
555.015	38168
555.078	38630
555.141	39841
555.203	37900
555.266	38185
555.329	38955
555.391	37550
555.454	37767
555.517	37635
555.580	37147
555.642	34161
555.705	34463
555.768	35252
555.830	34506
555.893	33642
555.955	33640
556.018	34152
556.080	33640
556.143	33189
556.206	33641
556.268	36271
556.330	36347
556.393	33999
556.455	34709
556.518	45143
556.580	46351
556.643	30949
556.705	31839
556.767	29614
556.830	31603
556.892	32528
556.955	40628
557.017	35942
557.079	31973
557.142	29947
557.204	31860
557.266	46643
557.328	44321
557.391	30090
557.453	28631
557.515	29115
557.577	33160
557.639	33863
557.701	28051
557.764	27964
557.826	29109
557.888	31428
557.950	29821
558.012	30644
558.074	32099
558.136	44971
558.198	79835
558.260	45653
558.322	31313
558.384	31959
558.446	34820
558.508	35415
558.570	42895
558.632	53528
558.694	71789
558.756	60616
558.818	120905
558.880	268516
558.942	103363
559.003	85462
559.065	52221
559.127	34368
559.189	33993
559.251	37627
559.312	39588
559.374	67963
559.436	184772
559.498	107172
559.559	37170
559.621	36416
559.683	39561
559.744	58594
559.806	122090
559.868	159520
559.929	54293
559.991	44788
560.052	48939
560.114	87617
560.176	66654
560.237	59057
560.299	83602
560.360	39939
560.422	32918
560.483	34019
560.545	33196
560.606	31786
560.667	32877
560.729	31694
560.790	30330
560.852	32412
560.913	31436
560.974	30630
561.036	30600
561.097	31076
561.158	31329
561.220	31583
561.281	32124
561.342	31862
561.403	34038
561.465	36664
561.526	58497
561.587	73476
561.648	36466
561.709	32523
561.771	31390
561.832	32303
561.893	31136
561.954	31616
562.015	29771
562.076	31028
562.137	31701
562.198	30601
562.259	31209
562.320	31444
562.381	30923
562.442	38612
562.503	34006
562.564	30841
562.625	29167
562.686	30845
562.747	31844
562.808	31698
562.869	33298
562.930	41378
562.991	39887
563.051	38446
563.112	34615
563.173	34291
563.234	31856
563.294	31364
563.355	31547
563.416	33352
563.477	30976
563.537	32398
563.598	33250
563.659	33977
563.720	32267
563.780	33675
563.841	33869
563.901	33306
563.962	31874
564.023	33785
564.083	32598
564.144	32725
564.204	33016
564.265	34004
564.325	36812
564.386	58242
564.446	56252
564.507	33380
564.567	31093
564.628	31597
564.688	30103
564.749	32504
564.809	34487
564.869	40485
564.930	32511
564.990	31521
565.050	29436
565.111	30343
565.171	27977
565.231	28633
565.292	29270
565.352	29222
565.412	29789
565.472	29929
565.532	30852
565.593	29890
565.653	29498
565.713	30092
565.773	30543
565.833	34490
565.893	38156
565.953	30447
566.013	30132
566.074	33393
566.134	39497
566.194	56592
566.254	55746
566.314	41008
566.374	32374
566.434	32360
566.494	31681
566.554	31203
566.614	29774
566.673	31915
566.733	31471
566.793	33197
566.853	33605
566.913	32147
566.973	33154
567.033	35176
567.092	33670
567.152	33184
567.212	33531
567.272	32752
567.331	35139
567.391	33001
567.451	33765
567.511	42428
567.570	43326
567.630	32439
567.690	30565
567.749	30186
567.809	29776
567.868	30953
567.928	31799
567.988	35448
568.047	31683
568.107	30435
568.166	31645
568.226	31824
568.285	34952
568.345	32855
568.404	31716
568.464	29684
568.523	29782
568.582	31460
568.642	31642
568.701	32846
568.761	34826
568.820	40107
568.879	40024
568.939	42066
568.998	34424
569.057	29776
569.116	30112
569.176	28412
569.235	28586
569.294	27760
569.353	27743
569.413	29710
569.472	32934
569.531	29297
569.590	28826
569.649	28598
569.708	27679
569.767	29206
569.827	33364
569.886	31506
569.945	28327
570.004	29586
570.063	30029
570.122	31707
570.181	32509
570.240	35470
570.299	34984
570.358	34372
570.417	29759
570.475	29038
570.534	29891
570.593	30556
570.652	30088
570.711	30822
570.770	28507
570.829	31534
570.887	29571
570.946	31130
571.005	27957
571.064	28440
571.122	29317
571.181	32029
571.240	29992
571.299	28670
571.357	30634
571.416	32070
571.475	32660
571.533	35419
571.592	30134
571.650	31583
571.709	27900
571.768	29206
571.826	28576
571.885	28905
571.943	27483
572.002	29487
572.060	29936
572.119	27746
572.177	26250
572.236	26855
572.294	26232
572.352	27023
572.411	26290
572.469	26998
572.528	26429
572.586	27863
572.644	28732
572.703	33904
572.761	29687
572.819	27567
572.877	26333
572.936	25983
572.994	26092
573.052	26734
573.110	26396
573.169	25973
573.227	24696
573.285	26739
573.343	25486
573.401	25649
573.459	25612
573.517	26217
573.576	25371
573.634	26649
573.692	27422
573.750	26770
573.808	25845
573.866	28081
573.924	33167
573.982	32701
574.040	27443
574.098	25965
574.155	24036
574.213	25706
574.271	24656
574.329	25495
574.387	25366
574.445	24031
574.503	24081
574.560	23889
574.618	22668
574.676	23411
574.734	22624
574.792	24467
574.849	22911
574.907	22437
574.965	22388
575.022	22173
575.080	22643
575.138	23159
575.195	23150
575.253	23872
575.311	24893
575.368	23072
575.426	23170
575.483	24555
575.541	22856
575.598	23711
575.656	25355
575.713	24445
575.771	23741
575.828	23595
575.886	24880
575.943	26110
576.001	26016
576.058	27537
576.115	27207
576.173	30697
576.230	34012
576.287	33992
576.345	30039
576.402	26539
576.459	26264
576.517	27769
576.574	29407
576.631	31698
576.688	27985
576.746	27372
576.803	26729
576.860	27161
576.917	26463
576.974	27331
577.031	25685
577.089	26916
577.146	26858
577.203	25811
577.260	27468
577.317	28469
577.374	31358
577.431	30411
577.488	27742
577.545	26179
577.602	24949
577.659	26045
577.716	24833
577.773	25344
577.830	25009
577.886	24764
577.943	24943
578.000	24585
578.057	25658
578.114	25530
578.171	23922
578.227	24284
578.284	24221
578.341	26079
578.398	25410
578.454	27052
578.511	28669
578.568	32345
578.625	28790
578.681	25687
578.738	23676
578.794	24983
578.851	24787
578.908	25565
578.964	27197
579.021	28489
579.077	25681
579.134	25293
579.190	25012
579.247	25782
579.303	24255
579.360	23853
579.416	23338
579.473	24872
579.529	22680
579.586	24807
579.642	23385
579.698	25073
579.755	25635
579.811	23915
579.867	24229
579.924	23622
579.980	23950
580.036	24075
580.093	24329
580.149	24215
580.205	25383
580.261	24758
580.317	24825
580.374	27810
580.430	29738
580.486	29319
580.542	25465
580.598	25171
580.619	25197
580.654	25273
580.692	25428
580.710	25554
580.765	25426
580.767	25453
580.823	26655
580.838	26455
580.879	26008
580.911	25352
580.935	24924
580.984	25350
580.991	25444
581.047	25672
581.057	25746
581.103	26227
581.130	26783
581.159	27387
581.203	26488
581.215	26295
581.270	27186
581.276	27075
581.326	26244
581.349	26950
581.382	28059
581.422	27423
581.438	27186
581.494	29386
581.494	29343
581.550	27193
581.567	27592
581.606	28556
581.640	28360
581.661	28235
581.713	27256
581.717	27206
581.773	26945
581.786	27030
581.829	27360
581.859	27673
581.885	28028
581.932	27708
581.940	27640
581.996	28541
582.004	28616
582.052	29038
582.077	27576
582.107	26006
582.150	27508
582.163	28001
582.219	27279
582.223	27295
582.274	27550
582.296	27734
582.330	28041
582.368	28353
582.386	28526
582.441	26953
582.441	26959
582.497	26932
582.514	26581
582.552	25981
582.587	26303
582.608	26497
582.659	26766
582.663	26793
582.719	26658
582.732	26455
582.774	25806
582.805	26818
582.830	27663
582.877	26060
582.885	25818
582.941	26567
582.950	26497
582.996	25954
583.023	26729
583.052	27799
583.095	26434
583.107	26004
583.162	26371
583.168	26450
583.218	27142
583.240	26713
583.273	26121
583.313	25853
583.328	25868
583.384	26522
583.385	26517
583.439	25820
583.458	25721
583.494	25464
583.531	25099
583.549	25134
583.603	26546
583.605	26573
583.660	25703
583.676	25442
583.715	25078
583.748	25471
583.770	25646
583.820	26633
583.825	26710
583.881	26291
583.893	26227
583.936	26060
583.965	25694
583.991	25430
584.038	25966
584.046	26042
584.101	25272
584.110	25275
584.156	25370
584.183	25299
584.211	25054
584.255	25119
584.266	25152
584.321	23807
584.328	23910
584.376	24995
584.400	25105
584.431	25034
584.472	25737
584.486	25966
584.541	25181
584.545	25155
584.596	24682
584.617	24776
584.651	25427
584.689	26963
584.706	27304
584.761	26771
584.762	26780
584.816	27313
584.834	27287
584.871	27412
584.906	28017
584.926	28118
584.978	27111
584.980	27085
585.035	28209
585.051	28608
585.090	29895
585.123	30769
585.145	30953
585.195	30832
585.200	30852
585.254	32023
585.267	32222
585.309	32869
585.340	34035
585.364	34938
585.412	36244
585.419	36473
585.473	38029
585.484	38900
585.528	43634
585.556	47708
585.583	55667
585.628	75578
585.637	82432
585.692	145083
585.700	156866
585.747	197648
585.772	166335
585.801	109256
585.845	50088
585.856	42543
585.910	35273
585.917	34563
585.965	33114
585.989	32590
586.019	31901
586.061	31303
586.074	31238
586.128	31949
586.133	32068
586.183	33628
586.205	34356
586.237	35098
586.277	35434
586.292	35351
586.346	34597
586.349	34586
586.401	34445
586.421	34562
586.455	35514
586.493	37515
586.509	40170
586.564	51123
586.565	51593
586.618	74821
586.637	76304
586.672	63562
586.709	45747
586.727	40343
586.781	37241
586.781	37223
586.835	34100
586.853	33951
586.889	33744
586.925	32429
586.944	32158
586.996	33747
586.998	33770
587.052	33259
587.068	33881
587.106	35046
587.140	34678
587.161	34608
587.212	34878
587.215	34877
587.269	35963
587.284	36111
587.323	35841
587.356	35645
587.377	35759
587.427	36450
587.431	36455
587.485	36113
587.499	36138
587.539	36635
587.571	36871
587.593	36912
587.643	37377
587.648	37399
587.702	37934
587.715	38187
587.755	39137
587.786	39354
587.810	38793
587.858	37170
587.864	37173
587.917	39030
587.930	39375
587.971	41277
588.001	42657
588.025	42325
588.073	41198
588.079	41158
588.133	41145
588.145	41381
588.187	42732
588.217	43350
588.241	44152
588.288	47089
588.295	47365
588.348	49620
588.360	50295
588.402	53127
588.431	55056
588.456	56632
588.503	61330
588.510	62062
588.564	68264
588.575	70088
588.617	76686
588.646	81359
588.671	86299
588.718	99303
588.725	102514
588.778	133360
588.789	142426
588.832	211137
588.861	267280
588.886	353610
588.932	538617
588.939	552091
588.993	607438
589.004	603699
589.047	399962
589.075	260544
589.100	200957
589.147	121058
589.154	116022
589.207	94559
589.218	91698
589.261	88224
589.290	87359
589.314	89881
589.361	99732
589.368	103224
589.421	139304
589.433	149758
589.475	243989
589.504	322241
589.528	399881
589.576	543717
589.582	529206
589.635	318786
589.647	272401
589.689	157279
589.718	94248
589.742	81500
589.790	65902
589.795	65637
589.849	67152
589.861	68602
589.902	73438
589.932	74492
589.955	66274
590.004	48188
590.009	47678
590.062	45037
590.075	44549
590.115	43310
590.146	42533
590.168	42339
590.218	42293
590.222	42310
590.275	42594
590.289	42823
590.328	43257
590.360	43332
590.381	42919
590.431	42235
590.435	42238
590.488	42548
590.503	42747
590.541	42743
590.574	42637
590.594	42240
590.645	41206
590.647	41183
590.700	41308
590.716	41307
590.753	40597
590.787	40151
590.806	40383
590.859	41231
590.859	41203
590.912	40577
590.930	40469
590.965	40976
591.001	41545
591.018	41618
591.071	42033
591.072	42056
591.124	41457
591.143	41337
591.177	42016
591.214	42710
591.230	42996
591.283	44329
591.285	44391
591.336	45092
591.356	45394
591.389	44706
591.427	43712
591.442	43233
591.495	41621
591.498	41525
591.547	41465
591.569	41558
591.600	41502
591.640	41246
591.653	41429
591.706	42484
591.711	42613
591.759	44999
591.782	46313
591.811	47947
591.853	50308
591.864	49378
591.917	44343
591.924	43637
591.969	43351
591.995	43367
592.022	44552
592.066	46435
592.075	47008
592.127	50666
592.137	51387
592.180	55543
592.208	58033
592.233	54023
592.279	46320
592.285	45993
592.338	43580
592.350	43050
592.390	42555
592.421	42256
592.443	42498
592.491	43085
592.495	43065
592.548	43036
592.562	43045
592.600	42865
592.633	42765
592.653	42629
592.704	42113
592.705	42350
592.775	42245
592.846	43108
592.916	42726
592.987	46201
593.058	44427
593.128	42497
593.199	42893
593.270	41046
593.341	40590
593.411	42151
593.482	41448
593.553	41922
593.623	41520
593.694	42881
593.764	45193
593.835	43175
593.906	40831
593.976	42389
594.047	45467
594.117	52261
594.188	51073
594.258	41652
594.329	41981
594.399	41724
594.470	40979
594.540	40792
594.611	42798
594.681	42631
594.751	42093
594.822	45517
594.892	46490
594.963	47874
595.033	47651
595.103	48318
595.174	51418
595.244	67993
595.314	78242
595.384	49901
595.455	48573
595.525	49908
595.595	49037
595.665	49974
595.736	49691
595.806	49461
595.876	48345
595.946	49071
596.016	46832
596.087	50055
596.157	50625
596.227	50706
596.297	52162
596.367	53529
596.437	59254
596.507	70621
596.577	80249
596.647	56384
596.717	54569
596.787	54176
596.857	53607
596.927	55441
596.997	53291
597.067	53356
597.137	56273
597.207	56015
597.277	56416
597.347	56110
597.417	54448
597.487	54860
597.557	55482
597.626	57752
597.696	59241
597.766	67402
597.836	78784
597.906	58814
597.975	52039
598.045	52409
598.115	52005
598.185	53826
598.254	58115
598.324	61503
598.394	59060
598.464	59694
598.533	57610
598.603	54029
598.672	56395
598.742	56270
598.812	54795
598.881	56343
598.951	54434
599.020	54528
599.090	55513
599.159	55744
599.229	55004
599.299	52620
599.368	55075
599.437	52093
599.507	52038
599.576	53387
599.646	51474
599.715	52301
599.785	53083
599.854	53558
599.924	57649
599.993	54467
600.062	52426
600.132	52589
600.201	53264
600.270	58420
600.340	58455
600.409	57382
600.478	56611
600.547	58191
600.617	56965
600.686	50684
600.755	48303
600.824	48729
600.894	47032
600.963	45915
601.032	44263
601.101	45470
601.170	43956
601.239	43765
601.308	45931
601.378	44742
601.447	44087
601.516	42824
601.585	43921
601.654	47792
601.723	45378
601.792	44358
601.861	45113
601.930	47654
601.999	48088
602.068	44690
602.137	47604
602.206	47411
602.275	46945
602.343	50062
602.412	49505
602.481	45656
602.550	45519
602.619	45872
602.688	47480
602.756	47234
602.825	46460
602.894	46726
602.963	47231
603.032	47595
603.100	47588
603.169	47935
603.238	48267
603.307	47287
603.375	47320
603.444	48250
603.513	48957
603.581	47815
603.650	48321
603.719	48213
603.787	48320
603.856	50310
603.924	50709
603.993	50223
604.061	50880
604.130	52461
604.198	53593
604.267	54969
604.335	53435
604.404	52436
604.472	53540
604.541	54543
604.609	54245
604.678	53928
604.746	54765
604.815	55291
604.883	56964
604.951	56317
605.020	56109
605.088	57919
605.156	58352
605.225	58722
605.293	58556
605.361	60177
605.429	58557
605.498	60159
605.566	61507
605.634	64260
605.702	64771
605.771	66485
605.839	65715
605.907	64527
605.975	63218
606.043	62964
606.111	63632
606.180	61892
606.248	61253
606.316	61864
606.384	64693
606.452	71470
606.520	70867
606.588	65587
606.656	63592
606.724	62063
606.792	60202
606.860	55029
606.928	49788
606.996	49897
607.064	49543
607.132	50945
607.200	52063
607.267	54210
607.335	53862
607.403	54680
607.471	54322
607.539	53789
607.607	52980
607.674	49340
607.742	49824
607.810	50262
607.878	48958
607.946	49361
608.013	49944
608.081	53774
608.149	51645
608.216	53458
608.284	55060
608.352	53835
608.419	56936
608.487	67919
608.555	55833
608.622	52065
608.690	56039
608.757	59043
608.825	60328
608.893	59977
608.960	61001
609.028	64559
609.095	69855
609.163	57206
609.230	52852
609.298	49398
609.365	49099
609.432	52143
609.500	55367
609.567	62990
609.635	67995
609.702	69886
609.769	69829
609.837	61170
609.904	52961
609.971	51489
610.039	57889
610.106	74101
610.173	134683
610.241	289138
610.308	149772
610.375	65856
610.442	54605
610.509	50753
610.577	51729
610.644	52003
610.711	52208
610.778	54947
610.845	56136
610.912	58773
610.980	60374
611.047	59547
611.114	60477
611.181	57655
611.248	56214
611.315	59519
611.382	59564
611.449	60954
611.516	62890
611.583	62622
611.650	62001
611.717	63401
611.784	64892
611.851	67999
611.918	74282
611.984	83277
612.051	120960
612.118	240120
612.185	570572
612.252	304712
612.319	88564
612.386	77723
612.452	72924
612.519	74373
612.586	86739
612.653	74839
612.719	70444
612.786	67128
612.853	63030
612.919	63046
612.986	64056
613.053	60504
613.120	57170
613.186	55585
613.253	57559
613.319	56168
613.386	57746
613.453	58365
613.519	62304
613.586	65318
613.652	74882
613.719	68826
613.785	64487
613.852	59667
613.918	56051
613.985	57437
614.051	58911
614.118	59639
614.184	57594
614.250	55421
614.317	56506
614.383	57728
614.449	58159
614.516	58374
614.582	60057
614.648	56135
614.715	56158
614.781	56418
614.847	59234
614.914	60548
614.980	57829
615.046	56916
615.112	56398
615.179	56770
615.245	57272
615.311	56749
615.377	58154
615.443	59520
615.509	59247
615.575	61932
615.642	60276
615.708	64514
615.774	69270
615.840	74154
615.906	80407
615.972	95066
616.038	140534
616.104	296176
616.170	685889
616.236	501555
616.302	130666
616.368	104932
616.434	80234
616.500	79830
616.565	85261
616.631	102307
616.697	83837
616.763	87573
616.829	129793
616.895	219906
616.961	186645
617.026	86148
617.092	68701
617.158	66631
617.224	64115
617.289	64084
617.355	63178
617.421	64108
617.487	64429
617.552	61069
617.618	59694
617.684	58655
617.749	61431
617.815	56193
617.880	55442
617.946	56608
618.012	58364
618.077	59635
618.143	55772
618.208	57058
618.274	61213
618.339	62513
618.405	55871
618.470	57465
618.536	57906
618.601	63814
618.667	59176
618.732	55551
618.798	54744
618.863	54571
618.928	52838
618.994	56957
619.059	59759
619.124	68764
619.190	58143
619.255	54529
619.320	56252
619.386	54901
619.451	52486
619.516	52829
619.581	53071
619.647	53798
619.712	54179
619.777	53637
619.842	54834
619.907	54778
619.972	55284
620.038	55293
620.103	53372
620.168	51665
620.233	52919
620.298	52425
620.363	51940
620.428	53825
620.493	54519
620.558	53996
620.623	52815
620.688	53640
620.753	53203
620.818	54220
620.883	53372
620.948	54397
621.013	54121
621.078	55434
621.143	54991
621.207	58598
621.272	58357
621.337	59459
621.402	63748
621.467	75843
621.532	75743
621.596	65005
621.661	61247
621.726	59849
621.791	60214
621.855	61920
621.920	63619
621.985	66194
622.049	70649
622.114	67761
622.179	63500
622.243	69463
622.308	67547
622.373	70384
622.437	66468
622.502	65728
622.566	64745
622.631	65235
622.695	65440
622.760	65196
622.824	64019
622.889	64902
622.953	66419
623.018	79025
623.082	75833
623.147	65936
623.211	62778
623.276	64797
623.340	60825
623.404	61234
623.469	59866
623.533	60890
623.597	57881
623.662	60460
623.726	56959
623.790	55500
623.854	57030
623.919	57191
623.983	57008
624.047	57883
624.111	56983
624.176	57601
624.240	60061
624.304	62736
624.368	57502
624.432	57454
624.496	58506
624.560	59659
624.625	61774
624.689	58152
624.753	57282
624.817	56344
624.881	55542
624.945	53663
625.009	52536
625.073	53842
625.137	55676
625.201	62379
625.265	60501
625.329	53986
625.393	56007
625.456	54937
625.520	57159
625.584	60781
625.648	67987
625.712	94701
625.776	175180
625.839	182583
625.903	80981
625.967	58883
626.031	87035
626.095	116674
626.158	58110
626.222	45204
626.286	44469
626.349	44219
626.413	42399
626.477	45950
626.540	41708
626.604	43163
626.668	42814
626.731	42570
626.795	44915
626.858	45214
626.922	41796
626.986	42022
627.049	40263
627.113	41804
627.176	40250
627.240	40402
627.303	39739
627.366	39959
627.430	40363
627.493	41219
627.557	41900
627.620	42367
627.684	41690
627.747	41561
627.810	38822
627.874	39145
627.937	36142
628.000	39976
628.064	39621
628.127	33676
628.190	36661
628.253	36498
628.317	34227
628.380	34411
628.443	35114
628.506	35854
628.569	33337
628.632	31727
628.696	33038
628.759	32503
628.822	31338
628.885	30564
628.948	31490
629.011	31854
629.074	30676
629.137	30379
629.200	30818
629.263	33535
629.326	27934
629.389	29748
629.452	30885
629.515	31848
629.578	29768
629.641	31961
629.704	31342
629.767	30500
629.830	29289
629.892	28963
629.955	28179
630.018	31615
630.081	29765
630.144	33512
630.207	30390
630.269	32856
630.332	32632
630.395	28830
630.458	27289
630.520	27147
630.583	27271
630.646	26959
630.708	25604
630.771	26262
630.834	26687
630.896	26344
630.959	26027
631.021	25222
631.084	27425
631.146	28602
631.209	30873
631.272	26013
631.334	25284
631.397	25386
631.459	24247
631.522	26215
631.584	25264
631.646	26611
631.709	27391
631.771	32500
631.834	27474
631.896	26865
631.958	23250
632.021	25822
632.083	24716
632.145	26679
632.208	23925
632.270	24788
632.332	22680
632.395	23829
632.457	24990
632.519	24161
632.581	23718
632.643	22856
632.706	23577
632.768	22417
632.830	23489
632.892	22893
632.954	23099
633.016	25124
633.078	22439
633.141	22344
633.203	22076
633.265	25078
633.327	22077
633.389	21712
633.451	24958
633.513	27201
633.575	27446
633.637	26554
633.698	23070
633.760	23572
633.822	23331
633.884	22259
633.946	22202
634.008	23476
634.070	22829
634.132	23273
634.193	24262
634.255	24402
634.317	24859
634.379	25355
634.441	23839
634.502	23529
634.564	21737
634.626	20027
634.687	20710
634.749	22430
634.811	20413
634.873	18798
634.934	19827
634.996	21960
635.057	20424
635.119	20308
635.181	20684
635.242	22303
635.304	18015
635.365	22635
635.427	20335
635.488	20811
635.550	18785
635.611	20333
635.673	19427
635.734	24009
635.796	21852
635.857	22686
635.918	21603
635.980	24756
636.041	23624
636.102	25573
636.164	24387
636.225	25028
636.286	20962
636.348	22301
636.409	19971
636.470	20033
636.531	20511
636.593	23633
636.654	21500
636.715	18699
636.776	17755
636.838	17332
636.899	18313
636.960	18554
637.021	17199
637.082	17438
637.143	17988
637.204	16695
637.265	17129
637.326	17762
637.387	16641
637.448	15764
637.509	17918
637.570	17636
637.631	17978
637.692	15328
637.753	14994
637.814	16905
637.875	16489
637.936	17468
637.997	15916
638.058	16836
638.119	18027
638.179	17356
638.240	15659
638.301	16813
638.362	16212
638.423	16757
638.483	16383
638.544	14718
638.605	15844
638.666	14816
638.726	16875
638.787	16829
638.848	15929
638.908	16499
638.969	15965
639.030	15950
639.090	13953
639.151	15481
639.211	16968
639.272	20010
639.332	25674
639.393	17443
639.453	15524
639.514	16070
639.574	15474
639.635	14098
639.695	15677
639.756	14390
639.816	15629
639.877	16590
639.937	23668
639.997	26757
640.058	14252
640.118	13341
640.178	14518
640.239	13858
640.299	13933
640.359	13591
640.420	14751
640.480	15302
640.540	15761
640.600	15011
640.661	14892
640.721	14925
640.781	16713
640.841	12510
640.901	14948
640.961	14936
641.021	15290
641.082	15548
641.142	19086
641.202	15561
641.262	11771
641.322	14208
641.382	12577
641.442	14763
641.502	13994
641.562	14072
641.622	13011
641.682	13817
641.742	13930
641.802	14255
641.861	15353
641.921	14792
641.981	15505
642.041	16678
642.101	18185
642.161	11994
642.221	13180
642.280	13515
642.340	13697
642.400	11844
642.460	13597
642.519	13907
642.579	12914
642.639	14906
642.698	11399
642.758	14632
642.818	13647
642.877	13047
642.937	13879
642.997	16005
643.056	18391
643.116	11972
643.175	15131
643.235	13342
643.294	13111
643.354	14393
643.414	14454
643.473	15575
643.532	16239
643.592	19496
643.651	28804
643.711	46814
643.770	87109
643.830	208830
643.889	400075
643.948	80899
644.008	22209
644.067	16542
644.126	14684
644.186	14744
644.245	12502
644.304	11412
644.363	14111
644.423	11739
644.482	13071
644.541	12329
644.600	10422
644.659	13874
644.719	15143
644.778	21262
644.837	29999
644.896	56248
644.955	115222
645.014	36353
645.073	15192
645.132	13894
645.191	13152
645.250	11362
645.309	14412
645.368	13475
645.427	15550
645.486	19763
645.545	27987
645.604	13250
645.663	11836
645.722	10917
645.781	12748
645.840	13696
645.898	15544
645.957	20005
646.016	24325
646.075	43414
646.134	79394
646.192	217029
646.251	278579
646.310	38370
646.369	17135
646.427	15428
646.486	13364
646.545	12888
646.603	11617
646.662	11951
646.721	11393
646.779	9821
646.838	10593
646.896	13438
646.955	14812
647.014	20890
647.072	31431
647.131	76946
647.189	32860
647.248	11341
647.306	10848
647.365	10922
647.423	8484
647.481	11714
647.540	8590
647.598	10086
647.657	9103
647.715	10817
647.773	8831
647.832	10641
647.890	8262
647.948	10499
648.007	10932
648.065	8906
648.123	9759
648.181	10865
648.240	9504
648.298	8495
648.356	10436
648.414	10262
648.472	10691
648.531	10728
648.589	10303
648.647	9248
648.705	9710
648.763	9602
648.821	9965
648.879	9724
648.937	9780
648.995	11703
649.053	12826
649.111	16892
649.169	22734
649.227	38038
649.285	71938
649.343	192314
649.401	80319
649.459	31165
649.516	18779
649.574	11106
649.632	13004
649.690	13162
649.748	14027
649.806	15078
649.863	24350
649.921	55933
649.979	33081
650.037	11065
650.094	7998
650.152	9508
650.210	8019
650.268	9806
650.325	9553
650.383	7848
650.440	7268
650.498	9054
650.556	8549
650.613	7202
650.671	8298
650.728	9077
650.786	10034
650.843	9877
650.901	7268
650.958	8639
651.016	7762
651.073	8316
651.131	7049
651.188	8348
651.246	8934
651.303	7851
651.360	9074
651.418	7477
651.475	8545
651.532	7240
651.590	7762
651.647	7847
651.704	8163
651.762	7927
651.819	7850
651.876	7418
651.933	6843
651.990	8618
652.048	6139
652.105	7003
652.162	8274
652.219	6649
652.276	7372
652.333	7868
652.390	6069
652.448	7706
652.505	7229
652.562	7212
652.619	6517
652.676	7631
652.733	7563
652.790	6580
652.847	5506
652.904	8300
652.961	5900
653.017	6521
653.074	7002
653.131	6675
653.188	6027
653.245	6262
653.302	6896
653.359	6402
653.415	6597
653.472	5896
653.529	7012
653.586	5690
653.642	6229
653.699	6700
653.756	5876
653.813	7119
653.869	6642
653.926	5044
653.983	5962
654.039	7383
654.096	6072
654.152	8213
654.209	6077
654.266	7525
654.322	6377
654.379	9197
654.435	9433
654.492	9410
654.548	12252
654.605	16379
654.661	9704
654.717	7846
654.774	7515
654.830	7219
654.887	6974
654.943	8142
655.000	7275
655.056	7928
655.112	8439
655.168	7454
655.225	7348
655.281	9205
655.337	11761
655.394	18649
655.450	12769
655.506	11329
655.562	17549
655.618	14290
655.675	6557
655.731	6693
655.787	7046
655.843	7924
655.899	6001
655.955	7540
656.011	6513
656.067	5273
656.123	6529
656.179	7537
656.235	8297
656.291	6204
656.347	8736
656.403	6803
656.459	6885
656.515	9174
656.571	8748
656.627	7589
656.683	7733
656.739	7932
656.795	6691
656.850	7545
656.906	9795
656.962	8086
657.018	5961
657.074	7519
657.129	8041
657.185	9354
657.241	11384
657.297	8854
657.352	7154
657.408	6476
657.464	8727
657.519	7975
657.575	5466
657.630	7118
657.686	7048
657.742	7086
657.797	6908
657.853	7630
657.908	7330
657.964	5830
658.019	7389
658.075	8154
658.130	6718
658.186	5743
658.241	6581
658.297	6216
658.352	6360
658.407	6567
658.463	6196
658.518	7437
658.573	6337
658.629	5350
658.684	6692
658.739	6901
658.795	4651
658.850	6981
658.905	6432
658.960	6984
659.016	5603
659.071	7018
659.126	6931
659.181	7472
659.236	10852
659.291	11246
659.346	7841
659.401	8706
659.457	6342
659.512	6542
659.567	8614
659.622	7360
659.677	7051
659.732	6705
659.787	6859
659.842	8050
659.897	10530
659.952	7750
660.007	6280
660.061	7097
660.116	6206
660.171	5851
660.226	6681
660.281	6316
660.336	5904
660.391	7679
660.445	6319
660.500	7407
660.555	7062
660.610	6426
660.664	6943
660.719	6725
660.774	6837
660.828	6700
660.883	7186
660.938	7465
660.992	6062
661.047	6903
661.101	5320
661.156	6287
661.211	4987
661.265	6937
661.320	7289
661.374	5811
661.429	7091
661.483	7450
661.538	6254
661.592	6434
661.647	6138
661.701	6575
661.755	6298
661.810	8395
661.864	6943
661.919	6905
661.973	8010
662.027	6937
662.081	5974
662.136	6698
662.190	7731
662.244	8125
662.299	7102
662.353	6851
662.407	6603
662.461	8333
662.515	7151
662.569	8362
662.624	7695
662.678	7391
662.732	6580
662.786	7965
662.840	7055
662.894	7889
662.948	6211
663.002	6501
663.056	7167
663.110	6269
663.164	6704
663.218	6514
663.272	6998
663.326	7052
663.380	6729
663.434	6891
663.488	6933
663.542	7920
663.595	7611
663.649	7365
663.703	7633
663.757	7219
663.811	6781
663.864	7562
663.918	7427
663.972	7230
664.026	6795
664.079	6635
664.133	7019
664.187	6562
664.240	5943
664.294	7532
664.348	7602
664.401	7173
664.455	6832
664.508	6742
664.562	6534
664.615	6823
664.669	6388
664.722	6559
664.776	6999
664.829	7466
664.883	7388
664.936	7660
664.990	7435
665.043	8897
665.097	9187
665.150	9621
665.203	8228
665.257	7370
665.310	7472
665.363	8571
665.417	7987
665.470	8443
665.523	8193
665.576	8578
665.630	7187
665.683	8226
665.736	7368
665.789	9011
665.842	7475
665.895	8233
665.949	7219
666.002	7964
666.055	7690
666.108	9283
666.161	7928
666.214	8597
666.267	9034
666.320	8558
666.373	7550
666.426	7923
666.479	7536
666.532	8637
666.585	9812
666.638	10107
666.691	8739
666.744	9137
666.796	8851
666.849	8299
666.902	8151
666.955	7308
667.008	7684
667.060	7023
667.113	6657
667.166	6705
667.219	7256
667.271	7978
667.324	7153
667.377	7299
667.430	7324
667.482	7718
667.535	8406
667.587	8231
667.640	8089
667.693	9171
667.745	12130
667.798	11531
667.850	8297
667.903	8297
667.955	7251
668.008	8610
668.060	10063
668.113	9963
668.165	9172
668.218	10068
668.270	9618
668.322	10107
668.375	8854
668.427	9277
668.479	8645
668.532	9095
668.584	8747
668.636	8333
668.689	9064
668.741	8563
668.793	8422
668.845	8011
668.898	9224
668.950	8584
669.002	8673
669.054	8967
669.106	8837
669.158	9533
669.211	7957
669.263	8294
669.315	8925
669.367	7717
669.419	8604
669.471	9491
669.523	8165
669.575	9691
669.627	8515
669.679	8481
669.731	8339
669.783	7982
669.835	8386
669.886	8572
669.938	7752
669.990	8059
670.042	7058
670.094	8396
670.146	7335
670.197	8787
670.249	7938
670.301	8668
670.353	9043
670.404	10895
670.456	11267
670.508	15224
670.560	20553
670.611	29670
670.663	47541
670.715	112319
670.766	152819
670.818	40136
670.869	12853
670.921	10379
670.972	9352
671.024	9117
671.075	8907
671.127	9015
671.178	8157
671.230	8362
671.281	7937
671.333	8437
671.384	9731
671.436	9857
671.487	11293
671.538	13063
671.590	14274
671.641	18643
671.692	25909
671.744	42951
671.795	25442
671.846	13364
671.897	10650
671.949	10281
672.000	9689
672.051	9528
672.102	10439
672.153	8422
672.204	9501
672.256	9529
672.307	8821
672.358	9741
672.409	9683
672.460	8942
672.511	8384
672.562	9946
672.613	8399
672.664	8912
672.715	8986
672.766	9264
672.817	8395
672.868	8479
672.919	8356
672.970	8233
673.021	8626
673.071	6915
673.122	8438
673.173	9322
673.224	8553
673.275	8239
673.326	8236
673.376	7402
673.427	7488
673.478	8104
673.528	7663
673.579	8751
673.630	7568
673.680	8575
673.731	7030
673.782	7192
673.832	8201
673.883	8507
673.934	8256
673.984	7469
674.035	8313
674.085	8292
674.136	9108
674.186	10105
674.237	9954
674.287	14656
674.338	9021
674.388	8069
674.438	7425
674.489	8667
674.539	8286
674.589	8414
674.640	8402
674.690	8871
674.740	9099
674.791	9148
674.841	8382
674.891	9008
674.942	8501
674.992	7699
675.042	6839
675.092	7022
675.142	8817
675.193	6738
675.243	6688
675.293	7772
675.343	7891
675.393	8498
675.443	8327
675.493	8355
675.543	6844
675.593	8920
675.643	8164
675.693	7997
675.743	8012
675.793	7461
675.843	7024
675.893	8378
675.943	7676
675.993	7525
676.043	7730
676.093	7311
676.142	7448
676.192	7863
676.242	6703
676.292	6995
676.341	7107
676.391	8359
676.441	6560
676.491	6456
676.540	6184
676.590	7486
676.640	7193
676.689	7333
676.739	6038
676.789	6599
676.838	5759
676.888	7205
676.937	6806
676.987	6702
677.037	6552
677.086	6467
677.136	7703
677.185	6401
677.235	5104
677.284	6005
677.333	6529
677.383	5831
677.432	6217
677.482	6334
677.531	5784
677.580	6029
677.630	5648
677.679	6124
677.728	6378
677.778	6621
677.827	5363
677.876	6372
677.925	5711
677.975	6233
678.024	5644
678.073	7085
678.122	7240
678.171	7363
678.220	6918
678.269	8357
678.319	7902
678.368	6976
678.417	7643
678.466	7891
678.515	7445
678.564	8477
678.613	7082
678.662	7038
678.711	6619
678.760	7114
678.809	6806
678.857	7753
678.906	7374
678.955	7404
679.004	6335
679.053	7082
679.102	5781
679.151	7548
679.199	6072
679.248	5787
679.297	6344
679.346	7275
679.394	5918
679.443	6572
679.492	6771
679.540	6475
679.589	7388
679.638	6672
679.686	6454
679.735	5623
679.784	6511
679.832	7780
679.881	6449
679.929	6680
679.978	5651
680.026	5996
680.075	6739
680.123	5376
680.172	5374
680.220	5621
680.268	6429
680.317	5480
680.365	5849
680.414	6039
680.462	5206
680.510	7568
680.559	5837
680.607	5535
680.655	5753
680.703	6539
680.752	5732
680.800	5337
680.848	5242
680.896	5000
680.945	5977
680.993	5267
681.041	6430
681.089	5925
681.137	5490
681.185	5795
681.233	5399
681.258	5551
681.281	5608
681.329	4837
681.377	5499
681.380	5622
681.425	6214
681.473	7739
681.502	7288
681.521	6812
681.569	8063
681.617	6725
681.624	6819
681.665	6750
681.713	7579
681.745	7843
681.761	7843
681.809	7290
681.857	8593
681.867	8466
681.904	7691
681.952	9077
681.989	8470
682.000	8181
682.048	9059
682.096	7795
682.111	8318
682.143	9143
682.191	8309
682.233	9874
682.239	10019
682.286	8956
682.334	9699
682.354	9416
682.382	8886
682.430	9973
682.476	9211
682.477	9116
682.525	9755
682.572	9788
682.598	9867
682.620	9843
682.667	9954
682.715	10877
682.720	10985
682.763	11169
682.810	11340
682.841	11213
682.857	11047
682.905	11590
682.952	11822
682.963	11825
683.000	11584
683.047	11730
683.085	12234
683.095	12250
683.142	12121
683.190	12263
683.206	12401
683.237	12526
683.284	13098
683.328	12035
683.332	11882
683.379	12616
683.426	12967
683.449	13192
683.473	13270
683.521	12997
683.568	13554
683.571	13573
683.615	13084
683.662	13530
683.693	13983
683.709	14104
683.757	13775
683.804	14734
683.814	14662
683.851	14208
683.898	14163
683.936	14528
683.945	14570
683.992	14724
684.039	15459
684.057	15392
684.086	15081
684.133	15767
684.179	15383
684.180	15318
684.227	16064
684.274	15568
684.300	15997
684.321	16178
684.368	14746
684.415	16357
684.422	16402
684.462	16542
684.509	16062
684.543	16437
684.556	16511
684.603	17295
684.649	16778
684.665	16928
684.696	17172
684.743	17745
684.786	17180
684.790	17099
684.837	18103
684.883	18945
684.908	19236
684.930	19477
684.977	20688
685.023	20273
685.029	20355
685.070	19958
685.117	19495
685.150	19966
685.164	20404
685.210	20880
685.257	22512
685.272	22630
685.303	22037
685.350	21430
685.393	21111
685.396	21097
685.443	20970
685.490	22406
685.514	22499
685.536	22354
685.583	21951
685.629	21793
685.636	21756
685.675	21456
685.722	22369
685.757	22608
685.768	22681
685.815	22830
685.861	23243
685.878	23151
685.908	22869
685.954	22771
686.000	23972
686.000	23980
686.047	24417
686.093	26167
686.121	26424
686.139	26157
686.185	25057
686.232	25316
686.242	25187
686.278	24656
686.324	24140
686.363	23444
686.370	23337
686.416	23536
686.463	23866
686.484	23842
686.509	23857
686.555	23785
686.601	23658
686.606	23717
686.647	24358
686.693	24258
686.727	25151
686.739	25389
686.785	24377
686.831	24809
686.848	24624
686.877	24175
686.923	24129
686.969	23600
686.969	23596
687.015	24750
687.061	25582
687.090	26122
687.107	26154
687.153	25550
687.199	25492
687.211	25166
687.245	24523
687.291	25820
687.332	25969
687.336	25999
687.382	26525
687.428	26050
687.453	26135
687.474	25961
687.520	25540
687.565	25811
687.574	25556
687.611	24971
687.657	25605
687.695	25987
687.702	26084
687.748	26455
687.794	26606
687.816	26664
687.839	26426
687.885	26760
687.931	26522
687.937	26467
687.976	26813
688.022	27239
688.058	27535
688.067	27582
688.113	27369
688.158	27301
688.179	27811
688.204	28302
688.249	27579
688.295	28106
688.300	28060
688.340	28469
688.386	29550
688.421	29770
688.431	29621
688.477	28985
688.522	28379
688.542	28539
688.567	29029
688.613	28703
688.658	28500
688.663	28513
688.703	28960
688.749	29452
688.784	29286
688.794	29240
688.839	29427
688.884	29953
688.905	29685
688.930	29246
688.975	29279
689.020	29564
689.026	29435
689.065	29379
689.110	30377
689.146	30419
689.155	30282
689.201	29475
689.246	29365
689.267	29213
689.291	29633
689.336	30315
689.381	30920
689.388	30924
689.426	30432
689.471	30622
689.509	29811
689.516	29722
689.561	29371
689.606	29464
689.630	29594
689.651	29974
689.696	29840
689.741	31023
689.750	30974
689.785	30692
689.830	30677
689.871	30254
689.875	30221
689.920	30004
689.965	29845
689.992	29338
690.010	29373
690.054	30059
690.099	30069
690.112	30301
690.144	30475
690.189	29998
690.233	29275
690.233	29312
690.278	29790
690.323	29578
690.354	29615
690.367	29838
690.412	30184
690.457	30773
690.474	30771
690.501	30383
690.546	29993
690.590	29750
690.595	29631
690.635	29768
690.680	30313
690.716	30628
690.724	30673
690.769	30825
690.813	31299
690.836	30841
690.857	30634
690.902	31249
690.946	31905
690.957	31845
690.991	31945
691.035	32187
691.077	32642
691.080	32722
691.124	33439
691.168	33952
691.198	34197
691.213	34163
691.257	33988
691.301	33279
691.318	33325
691.346	33420
691.390	32384
691.434	31790
691.439	31706
691.478	32376
691.522	33367
691.559	33316
691.567	33340
691.611	34380
691.655	34152
691.680	34412
691.699	34552
691.743	34559
691.787	34407
691.800	34306
691.831	34962
691.875	36053
691.919	37006
691.921	36967
691.964	36859
692.008	37160
692.041	36686
692.052	36626
692.096	36928
692.139	36898
692.162	36635
692.183	36374
692.227	36244
692.271	36294
692.282	36106
692.315	36298
692.359	36456
692.402	37125
692.403	37194
692.447	36679
692.490	36699
692.523	36379
692.534	36463
692.578	36977
692.622	36848
692.643	37004
692.666	37014
692.709	36647
692.753	36307
692.763	36140
692.797	36068
692.840	36268
692.884	35939
692.884	36013
692.928	36682
692.971	37371
693.004	37804
693.015	37753
693.059	37253
693.102	37116
693.124	36614
693.146	36764
693.189	37583
693.233	37948
693.245	38041
693.276	37894
693.320	37098
693.363	36665
693.365	36579
693.407	36905
693.450	37156
693.485	36976
693.493	36991
693.537	37175
693.580	36875
693.605	37007
693.624	37455
693.667	37657
693.710	37994
693.725	38138
693.753	38609
693.797	38992
693.840	39674
693.845	39625
693.883	38785
693.926	37833
693.966	36950
693.970	37005
694.013	36691
694.056	36327
694.086	36086
694.099	36468
694.142	37641
694.185	38737
694.206	38989
694.229	38801
694.272	38406
694.315	38435
694.326	38247
694.358	38694
694.401	39370
694.444	39784
694.446	39731
694.487	40088
694.530	40291
694.566	40711
694.573	40651
694.616	38904
694.659	37779
694.686	36648
694.702	36503
694.745	36242
694.787	35931
694.806	35727
694.830	36302
694.873	37323
694.916	38147
694.926	38200
694.959	37957
695.002	37894
695.044	37647
695.046	37557
695.087	38389
695.130	39033
695.166	39499
695.172	39606
695.215	39861
695.258	39991
695.286	39890
695.301	39826
695.343	39602
695.386	39319
695.406	39041
695.428	39047
695.471	39060
695.514	38901
695.526	38790
695.556	39360
695.599	40189
695.641	40736
695.646	40699
695.684	40691
695.726	40731
695.766	40817
695.769	40924
695.811	40707
695.854	40742
695.886	40623
695.896	40577
695.938	39900
695.981	39372
696.005	38870
696.023	39337
696.065	40316
696.108	41574
696.125	41906
696.150	41991
696.192	41852
696.235	41734
696.245	41615
696.277	40982
696.319	39952
696.361	39049
696.365	38866
696.404	39499
696.446	40280
696.485	40662
696.488	40760
696.530	40894
696.572	40967
696.604	40966
696.614	41043
696.656	40714
696.698	40624
696.724	40424
696.740	40539
696.783	40605
696.825	40678
696.844	40586
696.867	40875
696.909	41285
696.951	41566
696.964	41563
696.992	41398
697.034	40957
697.076	40670
697.083	40503
697.118	40829
697.160	41134
697.202	41481
697.203	41382
697.244	41105
697.286	40914
697.323	40460
697.327	40522
697.369	40217
697.411	39992
697.442	39646
697.453	39979
697.494	40969
697.536	41993
697.562	42495
697.578	42497
697.620	42165
697.661	41833
697.682	41627
697.703	42142
697.744	42830
697.786	43603
697.801	43762
697.828	43807
697.869	43588
697.911	43467
697.921	43347
697.952	43445
697.994	43278
698.035	43128
698.040	43004
698.077	42444
698.118	41603
698.160	40813
698.160	40701
698.201	40880
698.243	40890
698.279	40882
698.284	40995
698.325	40968
698.367	41006
698.399	40884
698.408	40973
698.449	40903
698.491	40823
698.518	40664
698.532	40990
698.573	41660
698.614	42344
698.638	42601
698.656	42840
698.697	43161
698.738	43460
698.757	43505
698.779	43783
698.820	44042
698.862	44322
698.877	44307
698.903	44541
698.944	44730
698.985	44904
698.996	44837
699.026	44676
699.067	44283
699.116	43699
699.235	42897
699.354	42223
699.474	43334
699.593	44349
699.713	41583
699.832	42993
699.951	42927
700.070	42233
700.190	40141
700.309	41168
700.428	41190
700.547	40452
700.667	41213
700.786	41670
700.905	37868
701.024	41743
701.143	39186
701.262	37755
701.381	39118
701.500	40270
701.619	40080
701.738	38114
701.857	36985
701.976	38421
702.095	36215
702.214	39468
702.333	39166
702.452	38661
702.571	36924
702.690	37860
702.809	36272
702.928	35051
703.047	36393
703.165	36793
703.284	35679
703.403	35288
703.522	36580
703.640	36576
703.759	40274
703.878	41607
703.997	34455
704.115	34688
704.234	33561
704.353	33764
704.471	33247
704.590	34039
704.708	33309
704.827	33085
704.946	33275
705.064	33854
705.183	34918
705.301	41502
705.420	60291
705.538	50825
705.656	43415
705.775	41359
705.893	44772
706.012	46219
706.130	45787
706.249	45071
706.367	45014
706.485	45929
706.604	44253
706.722	45064
706.840	46978
706.958	44075
707.077	43051
707.195	41898
707.313	41285
707.431	40900
707.549	40836
707.668	40947
707.786	40983
707.904	39267
708.022	39157
708.140	39633
708.258	38347
708.376	39806
708.494	40657
708.612	45178
708.730	64310
708.848	57347
708.966	52253
709.084	48766
709.202	48582
709.320	49892
709.438	51557
709.556	49846
709.674	49733
709.791	48786
709.909	47962
710.027	47113
710.145	46606
710.263	48488
710.380	46485
710.498	45685
710.616	46304
710.733	45734
710.851	45556
710.969	46151
711.086	45058
711.204	42959
711.322	44308
711.439	44948
711.557	43033
711.674	43652
711.792	41495
711.909	42511
712.027	41199
712.144	41130
712.262	42163
712.379	48307
712.497	67440
712.614	66018
712.732	55180
712.849	52000
712.966	53530
713.084	59457
713.201	57062
713.318	55805
713.436	53213
713.553	53925
713.670	54224
713.787	55341
713.905	54333
714.022	51314
714.139	51404
714.256	53442
714.373	56383
714.490	64172
714.608	102689
714.725	303719
714.842	258316
714.959	57394
715.076	50314
715.193	47635
715.310	46243
715.427	46264
715.544	44934
715.661	45525
715.778	46150
715.895	51535
716.011	48746
716.128	45991
716.245	46921
716.362	47576
716.479	48400
716.596	43326
716.713	44115
716.829	43713
716.946	43571
717.063	41270
717.180	41531
717.296	41384
717.413	41680
717.530	41465
717.646	40841
717.763	39723
717.880	38759
717.996	39906
718.113	39517
718.229	39152
718.346	36942
718.462	37917
718.579	42631
718.695	51727
718.812	43808
718.928	42358
719.045	36963
719.161	35137
719.277	34757
719.394	35367
719.510	36977
719.626	37629
719.743	45284
719.859	42223
719.975	51428
720.092	112092
720.208	192775
720.324	49509
720.440	37638
720.557	41783
720.673	47140
720.789	55831
720.905	82228
721.021	43888
721.137	35161
721.253	35047
721.369	36413
721.486	36883
721.602	42232
721.718	34197
721.834	32353
721.950	33756
722.066	32084
722.181	31588
722.297	32091
722.413	30588
722.529	31353
722.645	30262
722.761	30216
722.877	30873
722.993	29186
723.108	32964
723.224	29327
723.340	30395
723.456	28221
723.571	30036
723.687	27108
723.803	29833
723.918	27423
724.034	28944
724.150	28863
724.265	30302
724.381	44134
724.497	42658
724.612	27943
724.728	25949
724.843	26767
724.959	29910
725.074	40747
725.190	41053
725.305	27952
725.421	27228
725.536	24678
725.651	26234
725.767	25818
725.882	25485
725.997	24413
726.113	25577
726.228	24607
726.343	25598
726.459	22805
726.574	25056
726.689	23486
726.804	23551
726.920	24788
727.035	23963
727.150	24503
727.265	23025
727.380	23781
727.495	23741
727.610	22396
727.725	22328
727.841	22940
727.956	22371
728.071	24715
728.186	22454
728.301	21436
728.416	23379
728.531	22119
728.645	21235
728.760	22966
728.875	20939
728.990	21988
729.105	22355
729.220	22734
729.335	21004
729.449	21982
729.564	20061
729.679	20264
729.794	21169
729.908	22308
730.023	21188
730.138	18201
730.253	20395
730.367	19855
730.482	19815
730.596	18609
730.711	21202
730.826	19873
730.940	18990
731.055	20699
731.169	19523
731.284	18619
731.398	19514
731.513	20783
731.627	20249
731.742	21397
731.856	21548
731.970	19105
732.085	20279
732.199	22092
732.313	25383
732.428	45817
732.542	120468
732.656	66982
732.771	22897
732.885	21025
732.999	19594
733.113	20582
733.227	20653
733.342	18900
733.456	19513
733.570	18347
733.684	18478
733.798	19423
733.912	18845
734.026	17856
734.140	17962
734.254	20055
734.368	26327
734.482	27500
734.596	17464
734.710	17412
734.824	17894
734.938	17292
735.052	18206
735.166	19011
735.280	18930
735.393	17355
735.507	17542
735.621	21843
735.735	26972
735.849	17344
735.962	17043
736.076	17118
736.190	16580
736.303	20984
736.417	22656
736.531	16172
736.644	16633
736.758	15116
736.872	15569
736.985	16060
737.099	15287
737.212	15105
737.326	15772
737.439	15494
737.553	14862
737.666	15451
737.780	15054
737.893	14843
738.007	14925
738.120	15679
738.233	15011
738.347	14668
738.460	15152
738.573	15876
738.687	16190
738.800	15497
738.913	17916
739.026	14994
739.140	15173
739.253	13972
739.366	15353
739.479	13967
739.592	14043
739.705	14078
739.818	14924
739.932	13989
740.045	14151
740.158	14433
740.271	14580
740.384	14337
740.497	13570
740.610	13719
740.723	13092
740.836	13735
740.949	14189
741.062	16613
741.174	14808
741.287	13053
741.400	12828
741.513	12422
741.626	13372
741.739	13040
741.851	13591
741.964	13766
742.077	13635
742.189	12917
742.302	13493
742.415	12432
742.527	13263
742.640	13067
742.753	12859
742.865	12506
742.978	12953
743.090	13751
743.203	13481
743.316	12869
743.428	12372
743.541	12745
743.653	12525
743.766	13016
743.878	13203
743.990	14370
744.103	13597
744.215	12230
744.327	12869
744.440	13756
744.552	17273
744.664	12304
744.777	12075
744.889	11201
745.001	12870
745.113	12542
745.226	11007
745.338	11359
745.450	11210
745.562	11806
745.674	11839
745.786	10950
745.898	11523
746.010	11478
746.122	10912
746.234	11056
746.347	11812
746.459	12079
746.570	10609
746.682	11267
746.794	11447
746.906	11267
747.018	12183
747.130	11635
747.242	10415
747.354	11130
747.466	12184
747.577	10283
747.689	11410
747.801	10765
747.913	10634
748.024	10477
748.136	10688
748.248	10686
748.359	10363
748.471	10677
748.583	10694
748.694	10235
748.806	11762
748.918	12273
749.029	11417
749.141	11509
749.252	11528
749.364	12012
749.475	18454
749.587	12780
749.698	10736
749.809	10515
749.921	9975
750.032	10220
750.144	9424
750.255	9735
750.366	10607
750.478	9881
750.589	10667
750.700	10052
750.811	11602
750.923	12595
751.034	18330
751.145	16160
751.256	10377
751.367	9355
751.479	9916
751.590	9513
751.701	10087
751.812	8555
751.923	9459
752.034	9618
752.145	10018
752.256	8833
752.367	9501
752.478	9282
752.589	10037
752.700	9878
752.811	9783
752.922	9135
753.032	10006
753.143	10325
753.254	9055
753.365	10732
753.476	8924
753.586	9220
753.697	8626
753.808	8703
753.919	8918
754.029	8506
754.140	9014
754.251	9773
754.361	8904
754.472	8697
754.582	8865
754.693	8406
754.804	9265
754.914	8662
755.025	8918
755.135	8921
755.246	8901
755.356	7952
755.466	9210
755.577	9078
755.687	9644
755.798	9244
755.908	8905
756.018	8357
756.129	8436
756.239	7737
756.349	8768
756.460	8214
756.570	9503
756.680	9521
756.790	9832
756.900	9865
757.011	8358
757.121	9486
757.231	8390
757.341	8165
757.451	9102
757.561	8096
757.671	8653
757.781	8092
757.891	8841
758.001	8585
758.111	7590
758.221	9032
758.331	10217
758.441	9021
758.551	10956
758.661	10676
758.771	8911
758.880	9072
758.990	10068
759.100	9175
759.210	8520
759.320	9418
759.429	9577
759.539	9302
759.649	9471
759.758	9613
759.868	9488
759.978	9528
760.087	10158
760.197	9578
760.307	8927
760.416	9272
760.526	8510
760.635	9599
760.745	9248
760.854	9859
760.964	9682
761.073	9381
761.182	9838
761.292	8802
761.401	9960
761.511	8552
761.620	8674
761.729	9450
761.839	9766
761.948	9240
762.057	8151
762.166	8102
762.276	7530
762.385	8763
762.494	8975
762.603	8510
762.712	9779
762.822	9734
762.931	8964
763.040	8468
763.149	8746
763.258	8183
763.367	9419
763.476	9265
763.585	8699
763.694	9432
763.803	8531
763.912	9330
764.021	8830
764.130	8832
764.238	9178
764.347	9418
764.456	9491
764.565	8666
764.674	7844
764.783	8452
764.891	8641
765.000	9220
765.109	9946
765.217	8109
765.326	10378
765.435	10613
765.543	9768
765.652	9613
765.761	10273
765.869	12453
765.978	13502
766.086	18351
766.195	28384
766.303	70729
766.412	226736
766.520	179421
766.629	35408
766.737	17734
766.846	14167
766.954	11722
767.062	12182
767.171	11535
767.279	11433
767.387	9868
767.496	9926
767.604	10200
767.712	9392
767.820	10011
767.928	11703
768.037	9683
768.145	10598
768.253	9313
768.361	9177
768.469	11048
768.577	9075
768.685	10415
768.793	10109
768.901	9701
769.009	9825
769.117	10106
769.225	10094
769.333	12464
769.441	12898
769.549	16566
769.657	29107
769.765	89994
769.873	197941
769.981	51209
770.088	15428
770.196	12417
770.304	11151
770.412	10841
770.519	11563
770.627	10132
770.735	10524
770.842	10692
770.950	10860
771.058	9854
771.165	9867
771.273	10312
771.380	10042
771.488	10459
771.595	10787
771.703	9619
771.810	11572
771.918	10214
772.025	10325
772.133	9920
772.240	10191
772.348	11346
772.455	10568
772.562	10972
772.670	9762
772.777	10599
772.884	10442
772.991	9939
773.099	10299
773.206	9267
773.313	10250
773.420	10250
773.528	9309
773.635	8760
773.742	10008
773.849	10300
773.956	9155
774.063	9383
774.170	9251
774.277	11037
774.384	9712
774.491	10438
774.598	9613
774.705	10391
774.812	11596
774.919	11593
775.026	10548
775.133	10265
775.239	9694
775.346	9963
775.453	9850
775.560	9835
775.667	10319
775.773	9423
775.880	10076
775.987	10006
776.093	9758
776.200	10331
776.307	9823
776.413	10281
776.520	9967
776.627	9482
776.733	9955
776.840	8513
776.946	11314
777.053	9389
777.159	9132
777.266	7742
777.372	10735
777.478	9741
777.585	10141
777.691	9283
777.798	9777
777.904	9741
778.010	11218
778.117	10343
778.223	9859
778.329	9275
778.435	9439
778.542	9555
778.648	9305
778.754	8455
778.860	9318
778.966	10063
779.072	9158
779.178	8584
779.284	7972
779.391	7834
779.497	8065
779.603	10016
779.708	7604
779.815	8785
779.920	10633
780.026	13170
780.132	8190
780.238	8654
780.344	9049
780.450	8980
780.556	8614
780.661	7953
780.767	9180
780.873	7684
780.979	8870
781.085	8342
781.190	7681
781.296	7892
781.402	8259
781.507	6754
781.613	7909
781.719	7804
781.824	8461
781.930	8618
782.035	7618
782.141	8490
782.246	7351
782.352	7782
782.457	7929
782.563	8053
782.668	8757
782.773	8826
782.879	7442
782.984	9582
783.090	9526
783.195	11046
783.300	8915
783.405	9186
783.511	8179
783.616	8290
783.721	8419
783.826	7709
783.932	8051
784.037	7291
784.142	8223
784.247	7283
784.352	7910
784.457	7795
784.562	7405
784.667	8276
784.772	7209
784.877	7070
784.982	7659
785.087	7249
785.192	8503
785.297	6569
785.402	7596
785.507	6848
785.611	7699
785.716	7506
785.821	8663
785.926	7335
786.031	7235
786.135	7336
786.240	7145
786.345	5900
786.450	7434
786.554	7068
786.659	7799
786.763	5200
786.868	6826
786.973	8158
787.077	6126
787.182	6831
787.286	7557
787.391	6890
787.495	6063
787.600	6974
787.704	5991
787.809	7207
787.913	6488
788.017	7232
788.122	6687
788.226	6754
788.330	5859
788.435	6935
788.539	6890
788.643	6027
788.747	6372
788.852	6617
788.956	5559
789.060	7110
789.164	7172
789.268	5643
789.372	6996
789.476	6447
789.580	6111
789.684	5338
789.788	6810
789.892	5849
789.996	6591
790.100	6200
790.204	5904
790.308	6811
790.412	6012
790.516	6470
790.620	6107
790.724	7102
790.828	6690
790.931	5652
791.035	7513
791.139	6007
791.242	6336
791.346	6888
791.450	6465
791.554	5472
791.657	4704
791.761	6589
791.864	7064
791.968	5986
792.072	7159
792.175	6508
792.279	5881
792.382	5782
792.486	5767
792.589	6284
792.693	6608
792.796	5522
792.899	6118
793.003	6360
793.106	4928
793.209	5793
793.313	7333
793.416	4147
793.519	7620
793.623	8393
793.726	8644
793.829	6192
793.932	5702
794.035	5496
794.138	5968
794.242	6172
794.345	5894
794.448	7224
794.551	7683
794.654	7705
794.757	8637
794.860	8273
794.963	6048
795.066	5093
795.169	6654
795.272	4576
795.375	6030
795.477	4883
795.580	5731
795.683	4023
795.786	5221
795.889	4484
795.991	5785
796.094	6368
796.197	3819
796.300	6364
796.402	5600
796.505	4518
796.608	4748
796.710	5134
796.813	4897
796.915	4635
797.018	4901
797.120	6362
797.223	4027
797.326	6524
797.428	5209
797.530	4720
797.633	4907
797.735	6333
797.838	8053
797.940	7695
798.042	5242
798.145	4013
798.247	6142
798.349	4419
798.452	5451
798.554	4775
798.656	4824
798.758	6383
798.860	5600
798.962	5522
799.065	4805
799.167	3643
799.269	5763
799.371	5473
799.473	6462
799.575	5365
799.677	5055
799.779	7571
799.881	6369
799.983	5996
800.085	5185
800.187	4620
800.289	4235
800.390	4968
800.492	4577
800.594	5793
800.696	4452
800.798	4677
800.899	4035
801.001	5364
801.103	4203
801.205	4864
801.306	4586
801.408	3091
801.509	4337
801.611	4590
801.713	4431
801.814	3736
801.916	4672
802.017	4017
802.119	3986
802.220	5063
802.322	2922
802.423	6737
802.525	3583
802.626	4273
802.727	4361
802.829	5256
802.930	3282
803.031	6534
803.133	3882
803.234	4248
803.335	4396
803.436	3281
803.538	4630
803.639	3802
803.740	4911
803.841	3904
803.942	4070
804.043	4483
804.144	3630
804.245	4364
804.346	3604
804.447	4049
804.548	5969
804.649	6605
804.750	4516
804.851	3479
804.952	4050
805.053	4439
805.154	2825
805.255	4433
805.355	3958
805.456	3276
805.557	3706
805.658	1749
805.758	4388
805.859	4222
805.960	4740
806.061	3300
806.161	3700
806.262	2908
806.362	3556
806.463	3178
806.564	4703
806.664	4729
806.765	5147
806.865	4241
806.966	3905
807.066	3560
807.166	4781
807.267	4447
807.367	3406
807.468	4499
807.568	2817
807.668	5089
807.769	3787
807.869	3605
807.969	2990
808.069	4432
808.170	4461
808.270	3486
808.370	4632
808.470	4916
808.570	3298
808.670	3378
808.770	3653
808.870	3399
808.970	4075
809.070	3532
809.170	3164
809.271	3621
809.370	3886
809.470	3542
809.570	3280
809.670	3186
809.770	3146
809.870	3327
809.970	3704
810.070	3842
810.169	3011
810.269	2089
810.369	4278
810.469	3012
810.568	3358
810.668	2659
810.768	3206
810.867	3718
810.967	3365
811.066	2561
811.166	2623
811.265	3335
811.365	2503
811.464	3130
811.564	3438
811.663	3304
811.763	1761
811.862	3940
811.962	3462
812.061	2827
812.160	3116
812.260	3732
812.359	2678
812.458	2777
812.557	5706
812.657	5965
812.756	4071
812.855	2829
812.954	2636
813.053	3550
813.153	3460
813.252	1671
813.351	3181
813.450	3116
813.549	3738
813.648	3239
813.747	3025
813.846	3989
813.945	2313
814.044	2610
814.143	3218
814.242	3208
814.341	2388
814.439	3776
814.538	3753
814.637	2845
814.736	3156
814.835	3815
814.933	2348
815.032	3431
815.131	3447
815.229	3903
815.328	4331
815.427	3877
815.525	4373
815.624	4040
815.722	2903
815.821	3234
815.919	3383
816.018	3311
816.116	4014
816.215	3411
816.313	4175
816.412	4007
816.510	4250
816.609	5860
816.707	3973
816.805	3317
816.904	4104
817.002	4688
817.100	4501
817.198	4585
817.296	3568
817.395	3477
817.493	4602
817.591	3518
817.689	5296
817.787	4113
817.885	5674
817.983	7665
818.081	13647
818.179	31472
818.277	85820
818.375	53010
818.473	11250
818.571	5869
818.669	5781
818.767	5357
818.865	5880
818.963	5813
819.061	8002
819.158	11553
819.256	25698
819.354	58985
819.452	139480
819.549	61888
819.647	13695
819.745	7172
819.842	6709
819.940	5855
820.038	4910
820.135	4005
820.233	5168
820.330	3610
820.428	3261
820.525	4161
820.623	4012
820.720	4079
820.818	4375
820.915	4163
821.012	3751
821.110	2302
821.207	3775
821.304	2395
821.402	3127
821.499	4417
821.596	4001
821.693	4348
821.791	4756
821.888	4170
821.985	9243
822.082	5610
822.179	4470
822.276	3304
822.373	3619
822.470	2894
822.567	3420
822.664	2803
822.761	4744
822.858	3510
822.955	3334
823.052	3795
823.149	3186
823.246	3269
823.343	2900
823.440	3488
823.536	3507
823.633	2460
823.730	3172
823.827	3329
823.923	2871
824.020	3841
824.117	3333
824.213	1820
824.310	3698
824.407	2989
824.503	3545
824.600	3408
824.696	3494
824.793	4266
824.889	3088
824.986	2994
825.082	3091
825.179	3497
825.275	3098
825.371	2611
825.468	3233
825.564	1780
825.660	3396
825.757	3220
825.853	3674
825.949	2744
826.045	2945
826.142	2587
826.238	2640
826.334	2829
826.430	2479
826.526	3880
826.622	2557
826.718	3920
826.814	2663
826.910	3501
827.006	2056
827.102	1976
827.198	3283
827.294	2273
827.390	3116
827.486	3140
827.582	1980
827.678	2432
827.774	3445
827.869	1747
827.965	3964
828.061	2572
828.157	2259
828.252	3301
828.348	1998
828.444	3808
828.539	3548
828.635	2198
828.731	4834
828.826	2133
828.922	3519
829.017	2858
829.113	3556
829.208	2273
829.304	2526
829.399	4021
829.495	2494
829.590	2489
829.685	2111
829.781	2700
829.876	3023
829.971	2607
830.066	2520
830.162	2121
830.257	2864
830.352	2067
830.447	3586
830.543	2761
830.638	1943
830.733	3704
830.828	3172
830.923	3361
831.018	3017
831.113	2880
831.208	2787
831.303	3084
831.398	2288
831.493	1323
831.588	3249
831.683	2477
831.778	2894
831.873	2172
831.967	3416
832.062	2674
832.157	2190
832.252	4006
832.346	3537
832.441	3333
832.536	5477
832.631	9441
832.725	7694
832.820	2520
832.914	2833
833.009	2034
833.104	3577
833.198	3858
833.293	2292
833.387	2763
833.482	3494
833.576	2114
833.670	2597
833.765	2091
833.859	2821
833.954	2779
834.048	2371
834.142	2874
834.237	2012
834.331	2602
834.425	2023
834.519	1455
834.613	3097
834.708	2128
834.802	2505
834.896	1337
834.990	2898
835.084	2476
835.178	2349
835.272	2107
835.366	1816
835.460	3538
835.554	2738
835.648	3134
835.742	2962
835.836	2515
835.930	3199
836.024	2998
836.117	3164
836.211	2377
836.305	3825
836.399	3847
836.493	2513
836.586	3787
836.680	1413
836.774	1365
836.867	2894
836.961	1362
837.055	2452
837.148	1867
837.242	2512
837.335	2215
837.429	3122
837.522	2405
837.616	2885
837.709	5198
837.803	3464
837.896	3281
837.989	2941
838.083	3802
838.176	6559
838.269	4832
838.363	3083
838.456	2009
838.549	4244
838.642	6326
838.735	10574
838.829	4948
838.922	2817
839.015	3187
839.108	1589
839.201	2797
839.294	2910
839.387	3155
839.480	2453
839.573	4211
839.666	4230
839.759	2960
839.852	1397
839.945	2674
840.038	2173
840.131	2138
840.223	1976
840.316	2255
840.409	2031
840.502	1636
840.594	2788
840.687	1537
840.780	1955
840.873	2010
840.965	1841
841.058	3291
841.150	6025
841.243	3794
841.336	2059
841.428	2224
841.521	2208
841.613	2109
841.706	2025
841.798	1857
841.890	2850
841.983	1456
842.075	3505
842.167	2831
842.260	2132
842.352	3172
842.444	3563
842.537	6132
842.629	7831
842.721	3408
842.813	2221
842.905	1038
842.997	2252
843.090	3002
843.182	4575
843.274	6031
843.366	13996
843.458	22447
843.550	13252
843.642	2840
843.734	3031
843.826	3019
843.918	3455
844.009	2369
844.101	1436
844.193	2711
844.285	2020
844.377	2145
844.469	3338
844.560	2192
844.652	2579
844.744	3159
844.835	2625
844.927	2579
845.019	2828
845.110	3323
845.202	2777
845.293	2551
845.385	1832
845.476	3128
845.568	2693
845.659	2568
845.751	2610
845.842	1533
845.934	2157
846.025	2622
846.116	2171
846.208	1292
846.299	2299
846.390	1671
846.482	2745
846.573	3078
846.664	3750
846.755	4503
846.846	4289
846.937	1812
847.029	1437
847.120	2056
847.211	2688
847.302	2583
847.393	1671
847.484	3169
847.575	2276
847.666	1428
847.757	2610
847.847	2124
847.938	2721
848.029	2060
848.120	2042
848.211	2305
848.302	2681
848.392	1658
848.483	2541
848.574	773
848.664	1547
848.755	1656
848.846	2265
848.936	1712
849.027	1754
849.118	2891
849.208	1474
849.299	2572
849.389	3113
849.480	4397
849.570	8119
849.661	13267
849.751	21251
849.841	7826
849.932	2601
850.022	1796
850.112	2254
850.203	1998
850.293	2201
850.383	1956
850.474	1920
850.564	2490
850.654	2637
850.744	2153
850.834	2650
850.924	1603
851.014	1816
851.104	2316
851.194	2644
851.284	3336
851.374	3352
851.464	1919
851.554	1609
851.644	2316
851.734	3208
851.824	2459
851.914	2142
852.004	2111
852.094	1862
852.183	2245
852.273	1599
852.363	1496
852.452	1898
852.542	1819
852.632	2345
852.721	2141
852.811	1862
852.901	2046
852.990	1943
853.080	1860
853.169	1867
853.259	1976
853.348	1064
853.438	2073
853.527	2761
853.617	2984
853.706	5557
853.795	7476
853.885	16990
853.974	31143
854.063	57447
854.152	85271
854.242	27720
854.331	6364
854.420	3325
854.509	3278
854.598	2871
854.687	3067
854.777	2769
854.866	2401
854.955	2614
855.044	2216
855.133	1575
855.222	1917
855.311	2042
855.400	1368
855.488	2513
855.577	1210
855.666	1978
855.755	2773
855.844	2260
855.933	1600
856.021	2499
856.110	2845
856.199	2315
856.288	1139
856.376	1412
856.465	1754
856.554	2449
856.642	1696
856.731	1621
856.819	2158
856.908	1943
856.996	2223
857.085	1776
857.173	1587
857.262	2064
857.350	1823
857.438	1554
857.527	2110
857.615	2576
857.703	2834
857.792	2028
857.880	1610
857.968	1496
858.056	1571
858.145	2319
858.233	1552
858.321	1313
858.409	2461
858.497	1804
858.585	1494
858.673	3159
858.761	1539
858.849	1559
858.937	1466
859.025	1758
859.113	2100
859.201	1169
859.289	2363
859.377	1557
859.465	1688
859.552	1981
859.640	1368
859.728	2316
859.816	1998
859.903	1454
859.991	845
860.079	1213
860.166	1992
860.254	1830
860.342	1772
860.429	1170
860.517	1305
860.604	1986
860.692	2503
860.779	1203
860.867	1549
860.954	1705
861.042	2511
861.129	1957
861.216	1981
861.304	1323
861.391	865
861.478	1544
861.565	1473
861.653	1976
861.740	1017
861.827	1340
861.914	2051
862.001	1677
862.089	1184
862.176	1245
862.263	1393
862.350	2116
862.437	1299
862.524	1360
862.611	1131
862.698	1598
862.785	1563
862.871	1976
862.958	1386
863.045	1838
863.132	2354
863.219	714
863.306	736
863.392	2423
863.479	1898
863.566	1469
863.652	1757
863.739	1791
863.826	1575
863.912	1562
863.999	1338
864.086	1028
864.172	972
864.259	1462
864.345	1678
864.432	1489
864.518	1503
864.604	1225
864.691	1585
864.777	1467
864.863	2078
864.950	2359
865.036	1662
865.122	3584
865.209	3448
865.295	3045
865.381	3136
865.467	2891
865.553	3438
865.639	3627
865.726	5768
865.812	10183
865.898	18457
865.984	26617
866.070	49892
866.156	49086
866.242	12216
866.328	4095
866.414	2987
866.499	3355
866.585	2252
866.671	2348
866.757	2629
866.843	2002
866.928	2781
867.014	2286
867.100	2641
867.186	2945
867.271	3586
867.357	3775
867.442	3709
867.528	3065
867.614	1429
867.699	1703
867.785	2876
867.870	2185
867.956	2819
868.041	2933
868.127	3475
868.212	2349
868.297	2947
868.383	2823
868.468	3935
868.553	5181
868.639	6356
868.724	11548
868.809	10325
868.894	3355
868.979	1281
869.065	2274
869.150	1784
869.235	1710
869.320	1994
869.405	1693
869.490	1772
869.575	2100
869.660	2037
869.745	2810
869.830	1850
869.915	1215
870.000	1590
870.085	1836
870.169	2252
870.254	1814
870.339	1556
870.424	1368
870.509	1825
870.593	2215
870.678	2042
870.763	1539
870.847	1371
870.932	1801
871.016	1745
871.101	1703
871.186	1294
871.270	1819
871.355	1198
871.439	1694
871.523	1958
871.608	2202
871.692	1176
871.777	2418
871.861	1954
871.945	1454
872.030	1885
872.114	1910
872.198	1366
872.282	1608
872.367	1201
872.451	1239
872.535	1768
872.619	1336
872.703	786
872.787	1565
872.871	1284
872.955	1612
873.039	889
873.123	1602
873.207	2241
873.291	1212
873.375	2023
873.459	2324
873.543	1060
873.627	1110
873.711	1252
873.794	1496
873.878	1487
873.962	1254
874.045	1310
874.129	1507
874.137	1414
874.213	479
874.245	673
874.296	986
874.352	1427
874.380	1646
874.460	883
874.464	852
874.547	1220
874.568	1437
874.631	2061
874.676	1654
874.714	1323
874.784	1314
874.798	1313
874.881	1451
874.892	1352
874.965	666
874.999	719
875.048	784
875.107	1365
875.131	1599
875.215	773
875.215	773
875.298	1236
875.323	1381
875.381	1701
875.430	1644
875.465	1600
875.538	1550
875.548	1545
875.631	947
875.646	899
875.714	711
875.753	648
875.798	536
875.861	1020
875.881	1179
875.964	1309
875.968	1326
876.047	1616
876.076	1521
876.130	1317
876.183	1001
876.213	843
876.291	2357
876.296	2458
876.379	1303
876.398	1245
876.462	1090
876.506	866
876.545	616
876.613	908
876.628	967
876.711	1274
876.721	1229
876.794	1053
876.828	873
876.877	593
876.935	568
876.960	537
877.043	1128
877.043	1129
877.125	1328
877.150	1290
877.208	1269
877.258	1306
877.291	1295
877.365	1108
877.374	1081
877.456	873
877.472	891
877.539	969
877.579	979
877.622	1075
877.687	1069
877.704	1040
877.787	1052
877.794	1023
877.869	696
877.901	1058
877.952	1668
878.008	1070
878.034	788
878.115	865
878.117	867
878.199	416
878.222	706
878.282	1347
878.329	1176
878.364	1136
878.437	1014
878.447	995
878.529	620
878.544	650
878.611	806
878.651	1044
878.694	1281
878.758	1170
878.776	1077
878.858	513
878.865	511
878.941	884
878.972	1042
879.023	927
879.078	654
879.105	787
879.185	853
879.187	849
879.269	1115
879.292	1097
879.351	842
879.399	706
879.433	681
879.506	577
879.516	607
879.598	597
879.613	663
879.680	589
879.720	616
879.762	779
879.827	573
879.844	472
879.926	888
879.933	887
880.007	813
880.040	707
880.089	814
880.147	1380
880.171	1516
880.253	2846
880.254	2849
880.335	2729
880.360	3056
880.417	4039
880.467	5410
880.499	6234
880.574	6621
880.580	6607
880.662	2401
880.680	2109
880.744	892
880.787	523
880.825	495
880.893	734
880.907	755
880.989	567
881.000	669
881.070	1295
881.106	1110
881.152	982
881.213	898
881.233	771
881.315	414
881.319	422
881.396	1109
881.426	1223
881.478	816
881.532	515
881.559	716
881.639	649
881.641	636
881.722	989
881.745	963
881.803	1223
881.852	1214
881.885	874
881.958	848
881.966	911
882.047	1223
882.064	1235
882.129	1503
882.171	1945
882.210	2205
882.277	3414
882.291	3588
882.372	1535
882.383	1453
882.454	966
882.489	760
882.535	752
882.596	939
882.616	939
882.697	590
882.702	594
882.778	1065
882.808	1331
882.859	1449
882.914	1113
882.940	942
883.020	616
883.021	616
883.102	722
883.127	775
883.183	931
883.233	728
883.264	568
883.339	689
883.345	709
883.426	654
883.445	710
883.507	802
883.551	661
883.587	543
883.657	838
883.668	898
883.749	727
883.763	723
883.830	500
883.869	317
883.910	306
883.975	811
883.991	906
884.072	556
884.081	563
884.152	799
884.187	831
884.233	589
884.292	422
884.314	578
884.394	966
884.398	993
884.475	582
884.504	438
884.555	686
884.610	897
884.636	915
884.716	1139
884.716	1139
884.797	1148
884.821	1091
884.877	1020
884.927	1097
884.958	1045
885.033	791
885.038	752
885.118	403
885.139	245
885.199	298
885.244	444
885.279	748
885.350	1295
885.359	1271
885.439	809
885.456	713
885.520	822
885.561	1134
885.600	1197
885.667	1045
885.680	1011
885.760	723
885.773	747
885.840	1091
885.878	965
885.920	827
885.984	840
886.000	836
886.080	965
886.089	947
886.160	773
886.195	799
886.240	1118
886.300	1367
886.320	1327
886.400	1404
886.406	1407
886.480	1129
886.511	924
886.560	1069
886.616	1233
886.640	1133
886.720	819
886.722	809
886.800	548
886.827	568
886.879	625
886.932	452
886.959	810
887.038	2041
887.039	2037
887.119	1212
887.143	947
887.198	1025
887.248	1234
887.278	1183
887.354	805
887.358	833
887.437	1499
887.459	1688
887.517	1394
887.564	1139
887.596	1233
887.669	1353
887.676	1334
887.755	1055
887.774	997
887.835	1321
887.880	1629
887.914	1620
887.985	1465
887.994	1431
888.073	1053
888.090	1000
888.153	1259
888.195	1404
888.232	1269
888.300	1068
888.311	1080
888.391	1030
888.405	1036
888.470	1184
888.510	1292
888.549	1198
888.615	1015
888.628	1166
888.708	1988
888.720	2127
888.787	1764
888.825	1552
888.866	1551
888.930	1521
888.945	1449
889.024	1044
889.035	1003
889.103	911
889.140	807
889.182	726
889.245	652
889.261	628
889.340	502
889.349	493
889.419	568
889.454	589
889.498	643
889.559	740
889.577	810
889.656	1135
889.664	1169
889.735	829
889.768	671
889.814	896
889.873	1196
889.978	515
890.083	1773
890.187	778
890.292	452
890.397	1300
890.501	930
890.606	1084
890.710	1308
890.815	1515
890.919	1527
891.024	943
891.128	1285
891.233	1316
891.337	1645
891.442	925
891.546	1300
891.650	736
891.755	983
891.859	2389
891.963	1245
892.068	1672
892.172	1174
892.276	808
892.380	1014
892.484	972
892.589	1071
892.693	1661
892.797	1822
892.901	998
893.005	1058
893.109	1085
893.213	761
893.317	2029
893.421	1820
893.525	813
893.629	504
893.733	1474
893.837	1520
893.941	201
894.045	2138
894.148	119
894.252	1041
894.356	1103
894.460	1781
894.564	1085
894.667	1510
894.771	770
894.875	1309
894.978	1083
895.082	1272
895.186	1387
895.289	1737
895.393	1059
895.496	1585
895.600	1127
895.703	725
895.807	836
895.910	901
896.014	264
896.117	1317
896.221	1371
896.324	1198
896.427	961
896.531	1322
896.634	929
896.737	1340
896.840	1340
896.944	977
897.047	949
897.150	1412
897.253	507
897.356	730
897.460	628
897.563	1006
897.666	969
897.769	892
897.872	1110
897.975	948
898.078	867
898.181	896
898.284	937
898.387	915
898.490	1144
898.593	1682
898.695	726
898.798	469
898.901	1693
899.004	1515
899.107	408
899.209	914
899.312	1569
899.415	1212
899.518	1736
899.620	347
899.723	534
899.826	821
899.928	1037
900.031	838
900.133	1182
900.236	-69
900.338	379
900.441	952
900.543	751
900.646	1000
900.748	300
900.851	937
900.953	751
901.055	687
901.158	1213
901.260	973
901.362	1169
901.465	-109
901.567	678
901.669	914
901.771	958
901.873	862
901.976	978
902.078	959
902.180	738
902.282	1362
902.384	727
902.486	732
902.588	1145
902.690	824
902.792	736
902.894	1305
902.996	892
903.098	530
903.200	1005
903.302	1309
903.404	514
903.505	1574
903.607	920
903.709	1382
903.811	1113
903.913	517
904.014	395
904.116	298
904.218	592
904.319	979
904.421	1000
904.523	822
904.624	890
904.726	904
904.827	837
904.929	777
905.030	-268
905.132	992
905.233	1080
905.335	982
905.436	688
905.537	861
905.639	592
905.740	853
905.841	1129
905.943	1372
906.044	663
906.145	179
906.247	407
906.348	1073
906.449	993
906.550	342
906.651	602
906.752	1364
906.854	-305
906.955	562
907.056	741
907.157	1529
907.258	1094
907.359	799
907.460	279
907.561	538
907.662	498
907.762	831
907.863	462
907.964	389
908.065	836
908.166	776
908.267	1094
908.367	348
908.468	269
908.569	894
908.670	768
908.770	1099
908.871	1489
908.971	1027
909.072	1489
909.173	272
909.273	301
909.374	98
909.474	436
909.575	1192
909.675	946
909.776	854
909.876	605
909.977	330
910.077	1208
910.177	635
910.278	677
910.378	50
910.478	369
910.579	996
910.679	165
910.779	666
910.879	508
910.980	372
911.080	405
911.180	373
911.280	506
911.380	-199
911.480	542
911.580	847
911.680	696
911.780	99
911.880	700
911.980	-366
912.080	607
912.180	440
912.280	1552
912.380	828
912.480	1167
912.580	1324
912.679	-450
912.779	293
912.879	269
912.979	-155
913.078	38
913.178	537
913.278	511
913.377	-159
913.477	738
913.577	574
913.676	1565
913.776	-51
913.875	439
913.975	705
914.074	203
914.174	-22
914.273	-546
914.373	996
914.472	94
914.572	843
914.671	369
914.770	52
914.870	116
914.969	276
915.068	267
915.167	655
915.267	913
915.366	564
915.465	890
915.564	-223
915.663	665
915.763	-159
915.862	534
915.961	389
916.060	419
916.159	538
916.258	44
916.357	1189
916.456	813
916.555	1061
916.654	270
916.752	491
916.851	-109
916.950	716
917.049	347
917.148	179
917.247	163
917.345	-795
917.444	333
917.543	273
917.642	149
917.740	-110
917.839	439
917.937	201
918.036	547
918.135	-114
918.233	-60
918.332	-370
918.430	317
918.529	72
918.627	95
918.726	-285
918.824	1035
918.923	802
919.021	-10
919.119	468
919.218	-160
919.316	-254
919.414	67
919.512	88
919.611	74
919.709	268
919.807	626
919.905	277
920.003	426
920.102	-150
920.200	631
920.298	645
920.396	451
920.494	765
920.592	-161
920.690	872
920.788	1317
920.886	776
920.984	77
921.082	461
921.180	1043
921.277	621
921.375	-380
921.473	176
921.571	1013
921.669	-216
921.766	296
921.864	659
921.962	282
922.060	283
922.157	-146
922.255	270
922.352	1522
922.450	1015
922.548	463
922.645	828
922.743	932
922.840	739
922.938	466
923.035	1223
923.133	555
923.230	824
923.327	449
923.425	1458
923.522	1805
923.619	1095
923.717	1418
923.814	638
923.911	458
924.008	1406
924.106	760
924.203	285
924.300	1125
924.397	234
924.494	1177
924.591	843
924.688	577
924.786	934
924.883	279
924.979	318
925.077	1338
925.173	473
925.270	736
925.367	690
925.464	1066
925.561	11
925.658	989
925.755	1718
925.852	236
925.948	1069
926.045	1023
926.142	692
926.239	100
926.335	947
926.432	713
926.529	376
926.625	1354
926.722	380
926.818	261
926.915	811
927.011	796
927.108	1039
927.204	452
927.301	-218
927.397	1292
927.494	1322
927.590	153
927.687	417
927.783	1119
927.879	764
927.976	-23
928.072	878
928.168	1081
928.264	626
928.361	1141
928.457	874
928.553	1281
928.649	722
928.745	359
928.841	723
928.937	1035
929.033	-63
929.129	88
929.225	840
929.321	1337
929.417	694
929.513	-407
929.609	606
929.705	659
929.801	257
929.897	287
929.993	1329
930.089	286
930.184	1177
930.280	1429
930.376	481
930.471	509
930.567	111
930.663	1185
930.758	125
930.854	253
930.950	544
931.045	531
931.141	80
931.236	1149
931.332	191
931.427	-72
931.523	484
931.618	1553
931.714	-127
931.809	935
931.905	722
932.000	-359
932.095	484
932.191	855
932.286	546
932.381	288
932.476	-133
932.572	232
932.667	306
932.762	1320
932.857	1202
932.952	1226
933.047	501
933.142	214
933.237	-313
933.332	955
933.427	286
933.522	234
933.617	595
933.712	4
933.807	229
933.902	207
933.997	-9
934.092	798
934.187	-217
934.282	695
934.376	77
934.471	92
934.566	292
934.661	-682
934.755	-94
934.850	-53
934.945	558
935.039	-224
935.134	145
935.228	-52
935.323	801
935.417	750
935.512	212
935.606	-649
935.701	334
935.795	156
935.890	239
935.984	-66
936.079	485
936.173	13
936.267	-438
936.362	324
936.456	639
936.550	503
936.644	41
936.738	503
936.833	748
936.927	-573
937.021	432
937.115	662
937.209	-1010
937.303	788
937.397	-375
937.491	757
937.585	272
937.679	-54
937.773	344
937.867	138
937.961	274
938.055	520
938.149	475
938.243	162
938.337	-152
938.430	319
938.524	610
938.618	401
938.712	249
938.805	-282
938.899	-173
938.993	168
939.086	-349
939.180	-286
939.274	-679
939.367	432
939.461	147
939.554	55
939.648	178
939.741	-169
939.835	-491
939.928	1234
940.022	354
940.115	588
940.208	261
940.302	516
940.395	798
940.488	336
940.582	126
940.675	-387
940.768	-246
940.861	-20
940.954	430
941.048	-151
941.141	-383
941.234	9
941.327	-151
941.420	379
941.513	-717
941.606	146
941.699	616
941.792	770
941.885	-288
941.978	602
942.071	-413
942.164	-841
942.257	-25
942.349	170
942.442	-222
942.535	-671
942.628	38
942.721	-823
942.813	-654
942.906	236
942.999	211
943.091	-297
943.184	455
943.277	-59
943.369	-122
943.462	-216
943.554	-478
943.647	-493
943.739	-355
943.832	-123
943.924	-326
944.017	-192
944.109	-1083
944.201	-335
944.294	359
944.386	-589
944.478	-89
944.571	-614
944.663	-440
944.755	561
944.847	143
944.940	-470
945.032	-1310
945.124	-219
945.216	1181
945.308	-790
945.400	157
945.492	197
945.584	-215
945.676	-231
945.768	-885
945.860	293
945.952	263
946.044	533
946.136	-512
946.228	217
946.320	235
946.412	-758
946.503	44
946.595	379
946.687	-611
946.779	-386
946.870	-113
946.962	2
947.054	383
947.145	680
947.237	139
947.329	-444
947.420	-438
947.512	-478
947.603	-713
947.695	-288
947.786	-892
947.878	-384
947.969	8
948.061	-360
948.152	-13
948.243	-32
948.335	-432
948.426	-166
948.517	-649
948.609	-174
948.700	-227
948.791	-892
948.882	-824
948.973	-563
949.065	-541
949.156	-545
949.247	-1143
949.338	-7
949.429	-1032
949.520	-415
949.611	-63
949.702	-186
949.793	-544
949.884	69
949.975	-686
950.066	-154
950.157	-615
950.247	164
950.338	-818
950.429	-1021
950.520	167
950.611	-1060
950.701	-981
950.792	529
950.883	682
950.973	296
951.064	-797
951.155	-661
951.245	-174
951.336	-476
951.427	-1239
951.517	490
951.608	170
951.698	-630
951.788	-551
951.879	-178
951.969	-24
952.060	-60
952.150	-434
952.240	308
952.331	-1868
952.421	314
952.511	-845
952.602	-770
952.692	-896
952.782	-1250
952.872	-302
952.962	-599
953.052	-258
953.143	-1069
953.233	-252
953.323	193
953.413	-1054
953.503	-98
953.593	-636
953.683	-835
953.773	-1305
953.863	-500
953.953	-1724
954.042	-919
954.132	-1410
954.222	422
954.312	-30
954.402	-550
954.492	661
954.581	942
954.671	-868
954.761	-1535
954.850	654
954.940	-447
955.030	-520
955.119	-1061
955.209	-643
955.298	-1229
955.388	-709
955.477	-60
955.567	-1145
955.656	99
955.746	-1437
955.835	-892
955.925	-1275
956.014	-536
956.103	-602
956.193	-1030
956.282	-595
956.371	-1096
956.461	-693
956.550	-616
956.639	-1002
956.728	-296
956.817	-1438
956.906	-1159
956.995	441
957.085	-1437
957.174	-704
957.263	-455
957.352	-946
957.441	-501
957.530	-554
957.619	-832
957.708	-815
957.796	-417
957.885	-600
957.974	-933
958.063	-96
958.152	-1777
958.241	-739
958.329	-1118
958.418	-643
958.507	-1395
958.596	2
958.684	-773
958.773	-220
958.861	-845
958.950	-319
959.039	-317
959.127	-723
959.216	-434
959.304	-1485
959.393	-1353
959.481	-239
959.570	-358
959.658	-1102
959.746	-249
959.835	718
959.923	856
960.011	-681
960.100	-111
960.188	-1186
960.276	-1430
960.365	-1108
960.453	-1006
960.541	-838
960.629	-742
960.717	-915
960.805	-1399
960.893	-876
960.981	-749
961.069	-24
961.158	-1125
961.245	318
961.333	-398
961.421	-1251
961.509	-917
961.597	-39
961.685	-100
961.773	-1176
961.861	-704
961.949	-668
962.036	-1305
962.124	20
962.212	-681
962.299	-677
962.387	-904
962.475	-348
962.562	-624
962.650	317
962.738	-397
962.825	-466
962.913	-1130
963.000	-917
963.088	-793
963.175	-1535
963.263	-354
963.350	-1464
963.438	-747
963.525	-273
963.612	1517
963.700	3945
963.787	11899
963.874	5230
963.962	-177
964.049	-414
964.136	-831
964.223	-816
964.310	-1166
964.398	-625
964.485	-805
964.572	499
964.659	635
964.746	1060
964.833	49
964.920	-996
965.007	-385
965.094	-405
965.181	-307
965.268	-323
965.355	-522
965.441	-1543
965.528	-919
965.615	-542
965.702	-786
965.789	-563
965.875	-724
965.962	-1085
966.049	-1379
966.136	-259
966.222	-846
966.309	-772
966.395	-625
966.482	-769
966.569	-1344
966.655	-1155
966.742	-1270
966.828	-623
966.915	-85
967.001	-882
967.087	-1031
967.174	-464
967.260	443
967.347	1074
967.433	2380
967.519	7876
967.605	901
967.692	-730
967.778	-878
967.864	-949
967.950	-418
968.036	-1479
968.123	-503
968.209	-1331
968.295	-930
968.381	461
968.467	-694
968.553	-1590
968.639	23
968.725	-1027
968.811	534
968.897	664
968.983	-870
969.069	-1441
969.154	-155
969.240	375
969.326	-1816
969.412	-785
969.497	-441
969.583	-846
969.669	-164
969.755	-262
969.840	-1086
969.926	-699
970.012	-800
970.097	-173
970.183	-1025
970.268	304
970.354	845
970.439	1178
970.525	5818
970.610	749
970.696	90
970.781	-343
970.866	-1131
970.952	-803
971.037	-1215
971.122	-191
971.208	-313
971.293	-1032
971.378	-1558
971.463	-154
971.549	-175
971.634	-795
971.719	-60
971.804	-725
971.889	108
971.974	-527
972.059	-1036
972.144	-1056
972.229	-1056
972.314	-1117
972.399	-808
972.484	-1208
972.569	-726
972.654	-81
972.739	3020
972.824	1589
972.908	-502
972.993	-708
973.078	-876
973.163	-565
973.247	25
973.332	-1631
973.417	495
973.501	-1657
973.586	-140
973.671	-932
973.755	-931
973.840	-755
973.924	-151
974.009	-862
974.093	-607
974.178	321
974.262	1740
974.346	1210
974.431	-229
974.515	-1109
974.600	-986
974.684	-67
974.768	-313
974.852	-608
974.937	-1795
975.021	-867
975.105	-991
975.189	-2001
975.273	-400
975.358	-1220
975.442	-1197
975.526	97
975.610	-688
975.694	-1739
975.778	155
975.862	-361
975.946	-2584
976.030	188
976.114	-1124
976.198	-665
976.281	-566
976.365	205
976.449	-736
976.533	-810
976.617	-1302
976.700	-220
976.784	-668
976.868	-1204
976.951	1657
977.035	-206
977.119	-211
977.202	-1033
977.286	-62
977.369	-813
977.453	-374
977.536	-450
977.620	-1318
977.703	-745
977.787	-1395
977.870	-507
977.953	-11
978.037	-1289
978.120	356
978.203	821
978.287	2019
978.370	-176
978.453	-639
978.536	-226
978.620	458
978.703	758
978.786	111
978.869	-1240
978.952	-1487
979.035	248
979.118	-556
979.201	-1406
979.284	-931
979.367	-836
979.450	-401
979.533	-1583
979.616	-871
979.699	-1223
979.782	-498
979.865	-620
979.948	-2023
980.030	-1052
980.113	-220
980.196	-1836
980.279	-998
980.361	-957
980.444	-1664
980.526	-573
980.609	-943
980.692	-996
980.774	-629
980.857	-1907
980.939	86
981.022	-1251
981.104	-865
981.187	-1318
981.269	73
981.352	-734
981.434	-1219
981.516	-1108
981.599	743
981.681	-975
981.763	-658
981.846	-644
981.928	-788
982.010	-1177
982.092	-2356
982.174	-603
982.256	-870
982.339	-1117
982.421	-778
982.503	-560
982.585	-1420
982.667	-1810
982.749	-970
982.831	-518
982.913	-1886
982.995	148
983.077	-698
983.158	751
983.240	-1529
983.322	-1039
983.404	-335
983.486	-2194
983.568	-1048
983.649	-893
983.731	-751
983.813	-1033
983.894	-328
983.976	-1547
984.058	-1465
984.139	-725
984.221	-1365
984.302	-646
984.384	-1021
984.465	-1388
984.547	-1052
984.628	-1380
984.710	-100
984.791	-1136
984.872	-1244
984.954	-905
985.035	-711
985.116	-1191
985.198	-1334
985.279	-465
985.360	-1837
985.441	-1620
985.522	-853
985.604	-675
985.685	-2465
985.766	-298
985.847	474
985.928	-1645
986.009	-900
986.090	-1213
986.171	-574
986.252	-1655
986.333	-840
986.414	-1303
986.495	-1384
986.576	-894
986.656	-624
986.737	-979
986.818	-705
986.899	-1525
986.980	-551
987.060	-126
987.141	-1530
987.222	-1178
987.302	-466
987.383	-576
987.464	-475
987.544	-925
987.625	-1375
987.705	-414
987.786	-326
987.866	-1229
987.947	-1379
988.027	-1423
988.108	-1719
988.188	-425
988.268	-805
988.349	-994
988.429	-1365
988.509	-185
988.589	-1221
988.670	-3067
988.750	-548
988.830	-939
988.910	-667
988.990	-1439
989.070	-1828
989.151	-1294
989.231	-2657
989.311	-219
989.391	-1563
989.471	-1551
989.551	-741
989.631	-2002
989.711	-283
989.791	-2015
989.870	-1976
989.950	186
990.030	-1674
990.110	-997
990.190	-1242
990.269	-1420
990.349	-823
990.429	-1226
990.509	-717
990.588	-1200
990.668	-1130
990.747	-971
990.827	-1155
990.907	-1555
990.986	-1040
991.066	-1455
991.145	-1689
991.225	-758
991.304	-1998
991.383	-1211
991.463	-1986
991.542	-452
991.622	-1562
991.701	-1427
991.780	-1577
991.859	-1031
991.939	-1790
992.018	-1820
992.097	-1434
992.176	-1408
992.256	-1487
992.335	-1193
992.414	-1650
992.493	-1614
992.572	-1853
992.651	-977
992.730	-1847
992.809	-1280
992.888	-1808
992.967	-1140
993.046	-559
993.125	-2070
993.203	-2070
993.282	-1604
993.361	-1351
993.440	-1493
993.519	-1673
993.597	-1829
993.676	-1937
993.755	-899
993.834	-853
993.912	-1416
993.991	-241
994.069	-1531
994.148	-1230
994.226	-1823
994.305	-1788
994.384	-2125
994.462	-341
994.540	-1653
994.619	-1087
994.697	-801
994.776	-2023
994.854	-1538
994.932	-1524
995.011	-1199
995.089	-1695
995.167	-1801
995.245	-1221
995.324	-1836
995.402	-558
995.480	-2244
995.558	-1652
995.636	-2451
995.714	-2086
995.792	-414
995.870	-1334
995.948	-2050
996.026	-1173
996.104	-2709
996.182	-1288
996.260	-1791
996.338	-454
996.416	-2460
996.494	-1728
996.572	-847
996.649	-1245
996.727	-2654
996.805	-1031
996.883	-1039
996.960	-1570
997.038	-1103
997.116	-759
997.193	-2075
997.271	-1552
997.348	-1627
997.426	-1534
997.504	-1806
997.581	-1179
997.658	-1232
997.736	-2385
997.813	-1819
997.891	-818
997.968	-1606
998.046	-1353
998.123	-1626
998.200	-729
998.277	-2317
998.355	-1275
998.432	-2578
998.509	-1644
998.586	-1108
998.663	-1126
998.741	-1800
998.818	-1426
998.895	-1559
998.972	-1219
999.049	-1580
999.126	-2393
999.203	-1080
999.280	-1294
999.357	-2420
999.434	-1809
999.511	-1936
999.587	-1696
999.664	-2329
999.741	-1244
999.818	-1478
999.895	-2737
999.971	-1632
1000.048	-1297
1000.125	-1231
1000.202	-2189
1000.278	-2021
1000.355	-1060
1000.431	-1624
1000.508	-1560
1000.584	-857
1000.661	-695
1000.738	-1406
1000.814	-1656
1000.890	-1185
1000.967	-2324
1001.043	-1499
1001.120	-2463
1001.196	-1842
1001.272	-1572
1001.349	-942
1001.425	-940
1001.501	-1616
1001.577	-2246
1001.654	-1142
1001.730	-1563
1001.806	-1518
1001.882	-1937
1001.958	-1570
1002.034	-1533
1002.110	-1579
1002.186	-2843
1002.262	-1857
1002.338	-2139
1002.414	-1932
1002.490	-1175
1002.566	-1694
1002.642	-2380
1002.718	-793
1002.794	-1202
1002.870	-1506
1002.945	-1989
1003.021	-1367
1003.097	-1696
1003.173	-980
1003.248	-1452
1003.324	-1416
1003.400	-1047
1003.475	-1928
1003.551	-1343
1003.626	-1215
1003.702	-2309
1003.777	-2010
1003.853	-2485
1003.928	-1912
1004.004	-1356
1004.079	-1295
1004.155	-1656
1004.230	-3015
1004.305	-822
1004.381	-1776
1004.456	-1498
1004.531	-1538
1004.607	-1720
1004.682	-1787
1004.757	-1544
1004.832	-2151
1004.907	-1519
1004.982	-1154
1005.057	-1009
1005.133	-1842
1005.208	-2013
1005.283	-1474
1005.358	-625
1005.433	-1489
1005.508	-1180
1005.583	-1803
1005.657	-1584
1005.732	-1770
1005.807	-1296
1005.882	-1535
1005.957	-1503
1006.032	-1522
1006.106	-1149
1006.181	-1638
1006.256	-1816
1006.331	-2217
1006.405	-1816
1006.480	-1933
1006.554	-1582
1006.629	-1848
1006.704	-2368
1006.778	-919
1006.853	-1607
1006.927	-1683
1007.002	-1985
1007.076	-926
1007.150	-2250
1007.225	-892
1007.299	-1305
1007.373	-1520
1007.448	-1165
1007.522	-971
1007.596	-1673
1007.671	-1922
1007.745	-1364
1007.819	-2349
1007.893	-2152
1007.967	-578
1008.041	-2280
1008.115	-465
1008.190	-3019
1008.264	-1378
1008.338	-2475
1008.412	-1875
1008.486	-2011
1008.560	-2141
1008.633	-2522
1008.707	-1331
1008.781	-1389
1008.855	-1421
1008.929	-1633
1009.003	-2228
1009.076	-2273
1009.150	-1126
1009.224	-1143
1009.298	-1811
1009.371	-2839
1009.445	-640
1009.519	-2098
1009.592	-2428
1009.666	-1379
1009.739	-1813
1009.813	-3107
1009.886	-260
1009.960	-2690
1010.033	-1152
1010.107	-979
1010.180	-2408
1010.253	-1355
1010.327	-2500
1010.400	-1474
1010.473	-2113
1010.547	-754
1010.620	-1791
1010.693	-1962
1010.766	-1687
1010.840	-539
1010.913	-1056
1010.986	-1663
1011.059	-1267
1011.132	-1451
1011.205	-1109
1011.278	-1435
1011.351	-1613
1011.424	-1777
1011.497	-2005
1011.570	-1723
1011.643	-1901
1011.716	-2031
1011.789	-1586
1011.862	-1591
1011.934	-955
1012.007	-2582
1012.080	-1498
1012.153	-2360
1012.225	-787
1012.298	-1825
1012.371	-943
1012.443	-842
1012.516	-2994
1012.588	-1298
1012.661	-956
1012.733	-1879
1012.806	-1472
1012.879	-2216
1012.951	-1832
1013.023	-706
1013.096	-1910
1013.168	-1568
1013.241	-1496
1013.313	-1122
1013.385	-3035
1013.458	-2114
1013.530	-912
1013.602	-2476
1013.674	-769
1013.746	-2003
1013.819	-1763
1013.891	-789
1013.963	-2481
1014.035	-817
1014.107	-1811
1014.179	-823
1014.251	-2506
1014.323	-1629
1014.395	-1868
1014.467	-2208
1014.539	-927
1014.611	-1534
1014.683	-1190
1014.754	-1772
1014.826	-2144
1014.898	-1370
1014.970	-2851
1015.042	-1684
1015.113	-1160
1015.185	-1527
1015.257	-2071
1015.328	-1641
1015.400	-2209
1015.471	-1890
1015.543	-1318
1015.615	-1064
1015.686	-2232
1015.757	-1542
1015.829	-1963
1015.901	-1814
1015.972	-981
1016.043	-1732
1016.115	-1492
1016.186	-1112
1016.257	-2276
1016.328	-1337
1016.400	-1282
1016.471	-2504
1016.542	-1555
1016.613	-1522
1016.685	-1192
1016.756	-1340
1016.827	-2169
1016.898	-1957
1016.969	-1244
1017.040	-1795
1017.111	-1671
1017.182	-1931
1017.253	-1842
1017.324	-1526
1017.395	-1909
1017.466	-1970
1017.537	-1655
1017.608	-1525
1017.678	-1434
1017.749	-1487
1017.820	-1408
1017.891	-2013
1017.961	-2024
1018.032	-2008
1018.103	-1702
1018.173	-2064
1018.244	-1742
1018.315	-2681
1018.385	-1983
1018.456	-1817
1018.526	-1848
1018.597	-1980
1018.667	-1512
1018.738	-2073
1018.808	-1177
1018.878	-1307
1018.949	-1188
1019.019	-1354
1019.089	-2123
1019.160	-2406
1019.230	-2136
1019.300	-2278
1019.371	-1969
1019.441	-1327
1019.511	-1339
1019.581	-1346
1019.651	-655
1019.721	-1492
1019.791	-1838
1019.861	-1149
1019.931	-1621
1020.001	-2273
1020.071	-1943
1020.141	-1991
1020.211	-951
1020.281	-1411
1020.351	-2179
1020.421	-1707
1020.491	-1237
1020.560	-859
1020.630	-1446
1020.700	-1598
1020.770	-2656
1020.839	-1411
1020.909	-1933
1020.979	-1821
1021.048	-1699
1021.118	-1355
1021.187	-1398
1021.257	-2017
1021.326	-2160
1021.396	-1288
1021.465	-783
1021.535	-1837
1021.604	-2844
1021.674	-1772
1021.743	-2052
1021.812	-1666
1021.882	-2314
1021.951	-2062
1022.020	-1248
1022.089	-1658
1022.159	-1493
1022.228	-1401
1022.297	-2035
1022.366	-2043
1022.435	-1743
1022.504	-1095
1022.573	-2352
1022.642	-1528
1022.711	-1963
1022.781	-1338
1022.849	-1499
1022.918	-2502
1022.987	-2118
1023.056	-2089
1023.125	-1732
1023.194	-1741
1023.263	-2181
1023.331	-1532
1023.400	-2680
1023.469	-2092
1023.538	-1294
1023.606	-2334
1023.675	-1467
1023.744	-2433
1023.812	-1879
1023.881	-1840
1023.949	-1650
1024.018	-1544
1024.086	-2191
1024.155	-2397
1024.223	-1888
1024.292	-2366
1024.360	-1441
1024.429	-1919
1024.497	-2614
1024.565	-1110
1024.634	-1286
1024.702	-1855
1024.770	-2528
1024.838	-2348
1024.907	-2197
1024.975	-1859
1025.043	-990
1025.111	-2042
1025.179	-1573
1025.247	-2479
1025.315	-2271
1025.383	-1641
1025.451	-2287
1025.519	-1933
1025.587	-2495
1025.655	-1939
1025.723	-2210
1025.791	-2395
1025.859	-1638
1025.927	-1597
1025.995	-2720
1026.062	-1499
1026.130	-2681
1026.198	-1955
1026.266	-1078
1026.333	-1190
1026.401	-1718
1026.469	-1559
1026.536	-1774
1026.604	-1807
1026.671	-2494
1026.739	-2941
1026.806	-2137
1026.874	-1610
1026.941	-1766
1027.009	-2092
1027.076	-1998
1027.144	-852
1027.211	-2745
1027.278	-1682
1027.345	-1951
1027.413	-2395
1027.480	-1935
1027.547	-2657
1027.614	-2512
1027.682	-1217
1027.749	-1955
1027.816	-2337
1027.883	-2049
1027.950	-1585
1028.017	-1676
1028.084	-1385
1028.151	-2203
1028.218	-2617
1028.285	-1826
1028.352	-2624
1028.419	-2921
1028.486	-2919
1028.553	-1074
1028.619	-2198
1028.686	-2021
1028.753	-2106
1028.820	-1913
1028.886	-2486
1028.953	-1947
1029.020	-2528
1029.086	-1583
1029.153	-2268
1029.220	-1672
1029.286	-2541
1029.353	-1588
1029.419	-2392
1029.486	-1805
1029.552	-2466
1029.619	-2592
1029.685	-2171
1029.751	-2093
1029.818	-1595
1029.884	-2050
1029.951	-1419
1030.017	-2394
1030.083	-2239
1030.149	-2858
1030.216	-2198
1030.282	-1803
1030.348	-2451
1030.414	-2623
1030.480	-2191
1030.546	-2663
1030.612	-2519
1030.678	-2286
1030.744	-1744
1030.810	-1852
1030.876	-2970
1030.942	-2056
1031.008	-1484
1031.074	-2288
1031.140	-2460
1031.206	-1907
1031.272	-1903
1031.337	-1801
1031.403	-1830
1031.469	-2249
1031.534	-1567
1031.600	-2223
1031.666	-2170
1031.731	-2900
1031.797	-1673
1031.863	-2519
1031.928	-2220
1031.994	-2382
1032.059	-1976
1032.125	-2461
1032.190	-1947
1032.256	-2301
1032.321	-2542
1032.386	-1886
1032.452	-1228
1032.517	-1760
1032.582	-2234
1032.647	-2335
1032.713	-2455
1032.778	-1675
1032.843	-1773
1032.908	-2228
1032.974	-2070
1033.039	-1875
1033.104	-1083
1033.169	-2413
1033.234	-1836
1033.299	-1767
1033.364	-2094
1033.429	-2199
1033.494	-1377
1033.559	-2239
1033.624	-2135
1033.688	-1999
1033.753	-2939
1033.818	-1705
1033.883	-1455
1033.948	-1864
1034.013	-2306
1034.077	-1733
1034.142	-1845
1034.207	-1769
1034.271	-1856
1034.336	-1731
1034.400	-1887
1034.465	-2072
1034.530	-1291
1034.594	-2691
1034.658	-1997
1034.723	-1820
1034.787	-1679
1034.852	-1637
1034.916	-2792
1034.981	-1837
1035.045	-1942
1035.109	-2472
1035.173	-2666
1035.238	-2808
1035.302	-3048
1035.366	-1911
1035.430	-2395
1035.495	-3160
1035.559	-2441
1035.623	-2077
1035.687	-2061
1035.751	-1438
1035.815	-2530
1035.879	-1776
1035.943	-888
1036.007	-2800
1036.071	-1719
1036.135	-2099
1036.198	-1622
1036.262	-1812
1036.326	-1448
1036.390	-1432
1036.454	-2803
1036.517	-2350
1036.581	-2043
1036.645	-1890
1036.709	-2270
1036.772	-2837
1036.836	-2053
1036.900	-1644
1036.963	-2400
1037.026	-2528
1037.090	-1967
1037.154	-2257
1037.217	-2353
1037.280	-2453
1037.344	-2022
1037.407	-2554
1037.471	-2389
1037.534	-2309
1037.597	-2344
1037.661	-2339
1037.724	-2267
1037.787	-1970
1037.850	-2577
1037.913	-2424
1037.977	-1959
1038.040	-2949
1038.103	-2076
1038.166	-2276
1038.229	-2703
1038.292	-2432
1038.355	-2253
1038.418	-1783
1038.481	-1517
1038.544	-1317
1038.607	-2543
1038.670	-2486
1038.732	-1537
1038.795	-2213
1038.858	-2970
1038.921	-2503
1038.984	-1906
1039.046	-2876
1039.109	-2588
1039.172	-2098
1039.234	-2974
1039.297	-1831
1039.360	-1795
1039.422	-3042
1039.485	-2192
1039.547	-2365
1039.610	-1558
1039.672	-2172
1039.734	-2797
1039.797	-1612
1039.859	-2405
1039.922	-2034
1039.984	-2256
1040.046	-2339
1040.109	-1550
1040.171	-2744
1040.233	-1808
1040.295	-2346
1040.358	-2671
1040.420	-2242
1040.482	-2573
1040.544	-2028
1040.606	-2488
1040.668	-1973
1040.730	-2317
1040.792	-2356
1040.854	-2423
1040.916	-2848
1040.978	-2064
1041.040	-1150
1041.102	-1410
1041.164	-2380
1041.225	-2623
1041.287	-2599
1041.349	-2478
1041.411	-2022
1041.472	-2138
1041.534	-1692
1041.596	-2055
1041.657	-1612
1041.719	-2229
1041.781	-1856
1041.842	-1907
1041.904	-2175
1041.965	-2302
1042.027	-2326
1042.088	-2049
1042.150	-2552
1042.211	-1860
1042.272	-1489
1042.334	-2182
1042.395	-2739
1042.456	-2368
1042.518	-1574
1042.579	-1781
1042.640	-1915
1042.701	-2336
1042.763	-2191
1042.824	-2641
1042.885	-1960
1042.946	-2649
1043.007	-1818
1043.068	-2331
1043.129	-2003
1043.190	-2293
1043.251	-2084
1043.312	-2512
1043.373	-1773
1043.434	-2086
1043.495	-2160
1043.556	-2188
1043.616	-1954
1043.677	-2374
1043.738	-2109
1043.799	-2325
1043.859	-1788
1043.920	-2066
1043.981	-1697
1044.041	-1640
1044.102	-1868
1044.162	-2946
1044.223	-2508
1044.284	-1584
1044.344	-1905
1044.405	-2201
1044.465	-1486
1044.525	-2479
1044.586	-2087
1044.646	-1721
1044.707	-1766
1044.767	-1934
1044.827	-1708
1044.887	-2101
1044.948	-1856
1045.008	-2172
1045.068	-2563
1045.128	-2095
1045.188	-1836
1045.249	-1079
1045.309	-1884
1045.369	-2060
1045.429	-2356
1045.489	-1999
1045.549	-1440
1045.609	-1522
1045.669	-2017
1045.729	-1987
1045.789	-2544
1045.848	-2256
1045.908	-1156
1045.968	-1375
1046.028	-1351
1046.088	-1165
1046.147	-1553
1046.207	-1827
1046.267	-1694
1046.326	-1556
1046.386	-822
1046.446	-1069
1046.505	-1494
1046.565	-1706
1046.624	-1105
1046.684	-544
1046.743	-919
1046.803	-831
1046.862	-512
1046.922	0
