'Start Wavelength	183.907
'End Wavelength	1046.922
'Gate Delay	5.000
'Gate Width (ms)	1.050
'Laser Output Level	0.000
'X Position	0.000
'Y Position	0.000
'Z Position	0.000
'Grid Point Number	1.000
'Shot Number	100.000
183.907	656.000
183.977	-225.000
184.047	56
184.116	593
184.186	359
184.256	-19
184.325	195
184.395	156
184.465	426
184.534	304
184.604	83
184.674	-384
184.743	-60
184.813	569
184.883	331
184.952	-62
185.022	336
185.092	151
185.161	-36
185.231	487
185.301	31
185.370	436
185.440	49
185.509	-536
185.579	-109
185.649	226
185.718	509
185.788	310
185.857	-829
185.927	112
185.996	164
186.066	-130
186.136	-76
186.205	375
186.275	-291
186.344	485
186.414	696
186.483	73
186.553	4
186.622	1271
186.692	761
186.761	100
186.831	-79
186.900	-751
186.970	-11
187.039	862
187.109	1244
187.178	508
187.248	662
187.317	1034
187.387	-302
187.456	452
187.526	533
187.595	890
187.664	67
187.734	362
187.803	354
187.873	506
187.942	244
188.012	61
188.081	-78
188.150	-520
188.220	-271
188.289	775
188.358	733
188.428	827
188.497	-158
188.567	194
188.636	-362
188.705	562
188.775	261
188.844	-127
188.913	603
188.983	445
189.052	186
189.121	643
189.191	616
189.260	1026
189.329	331
189.399	110
189.468	21
189.537	288
189.606	-207
189.676	1437
189.745	269
189.814	582
189.883	94
189.953	103
190.022	566
190.091	1158
190.161	1838
190.230	715
190.299	470
190.368	246
190.437	450
190.507	535
190.576	428
190.645	379
190.714	552
190.783	-25
190.853	513
190.922	487
190.991	470
191.060	1152
191.129	482
191.198	927
191.268	248
191.337	478
191.406	924
191.475	545
191.544	-215
191.613	1275
191.682	596
191.752	710
191.821	461
191.890	743
191.959	-172
192.028	-448
192.097	845
192.166	1084
192.235	676
192.304	894
192.373	-89
192.442	-264
192.511	-142
192.580	48
192.650	368
192.719	354
192.788	785
192.857	-175
192.926	-262
192.995	562
193.064	968
193.133	530
193.202	654
193.271	638
193.340	411
193.409	634
193.478	1071
193.547	1282
193.615	465
193.684	1527
193.753	497
193.822	1274
193.891	520
193.960	905
194.029	649
194.098	528
194.167	-481
194.236	283
194.305	200
194.374	1036
194.443	875
194.512	900
194.580	-276
194.649	1277
194.718	333
194.787	1279
194.856	118
194.925	721
194.994	196
195.062	644
195.131	828
195.200	1749
195.269	1480
195.338	1184
195.407	1124
195.475	-73
195.544	1102
195.613	1377
195.682	619
195.751	1437
195.819	1993
195.888	1212
195.957	2457
196.026	2585
196.094	1035
196.163	1167
196.232	2048
196.301	952
196.369	1390
196.438	1095
196.507	808
196.576	567
196.644	-126
196.713	486
196.782	-213
196.850	557
196.919	216
196.988	1054
197.056	39
197.125	818
197.194	1155
197.262	570
197.331	663
197.400	256
197.468	351
197.537	501
197.606	398
197.674	981
197.743	2326
197.812	2
197.880	1998
197.949	1366
198.017	1667
198.086	1882
198.155	314
198.223	1119
198.292	2311
198.360	892
198.429	729
198.497	146
198.566	923
198.635	2393
198.703	794
198.772	376
198.840	1370
198.909	3172
198.977	1066
199.046	717
199.114	1529
199.183	653
199.251	20
199.320	321
199.388	540
199.457	611
199.525	860
199.594	821
199.662	1597
199.731	909
199.799	494
199.867	737
199.936	541
200.004	734
200.073	1056
200.141	195
200.210	41
200.278	-308
200.346	1212
200.415	1167
200.483	737
200.552	-10
200.620	560
200.688	372
200.757	336
200.825	1001
200.893	576
200.962	486
201.030	410
201.098	644
201.167	727
201.235	200
201.303	776
201.372	299
201.440	547
201.508	627
201.577	602
201.645	565
201.713	1052
201.781	-475
201.850	1524
201.918	1195
201.986	396
202.055	1277
202.123	858
202.191	482
202.259	457
202.327	100
202.396	699
202.464	563
202.532	390
202.600	3441
202.669	1658
202.737	835
202.805	261
202.873	341
202.941	296
203.009	858
203.078	370
203.146	417
203.214	596
203.282	498
203.350	1282
203.418	78
203.487	828
203.555	640
203.623	532
203.691	965
203.759	-103
203.827	701
203.895	626
203.963	1011
204.031	653
204.099	783
204.168	1042
204.236	1260
204.304	643
204.372	1184
204.440	818
204.508	-74
204.576	-264
204.644	1240
204.712	333
204.780	621
204.848	768
204.916	379
204.984	857
205.052	685
205.120	873
205.188	916
205.256	108
205.324	942
205.392	816
205.460	681
205.528	59
205.596	546
205.664	14
205.732	330
205.799	1613
205.867	4711
205.935	-135
206.003	1194
206.071	723
206.139	833
206.207	376
206.275	1248
206.343	377
206.411	489
206.478	111
206.546	472
206.614	841
206.682	220
206.750	672
206.818	914
206.885	1325
206.953	-264
207.021	878
207.089	241
207.157	-108
207.225	1126
207.292	430
207.360	-128
207.428	74
207.496	304
207.563	581
207.631	1333
207.699	-299
207.767	318
207.834	553
207.902	1146
207.970	358
208.038	-144
208.105	475
208.173	284
208.241	771
208.309	1044
208.376	910
208.444	3353
208.512	1219
208.579	-107
208.647	491
208.715	1467
208.782	400
208.850	765
208.918	669
208.985	385
209.053	740
209.120	822
209.188	564
209.256	990
209.323	869
209.391	1142
209.459	2191
209.526	610
209.594	52
209.661	221
209.729	432
209.796	1686
209.864	861
209.932	21
209.999	1506
210.067	934
210.134	1497
210.202	1167
210.269	2604
210.337	1469
210.404	643
210.472	502
210.539	848
210.607	976
210.674	1366
210.742	1645
210.809	882
210.877	2033
210.944	2014
211.012	1204
211.079	2639
211.146	1253
211.214	1593
211.281	2165
211.349	1905
211.416	1202
211.484	941
211.551	840
211.618	155
211.686	776
211.753	-149
211.821	1351
211.888	1063
211.955	1269
212.023	610
212.090	518
212.157	595
212.225	1042
212.292	2245
212.359	5138
212.427	14346
212.494	5655
212.561	2069
212.629	1364
212.696	864
212.763	1239
212.831	465
212.898	806
212.965	457
213.032	1438
213.100	1958
213.167	1124
213.234	2512
213.301	953
213.369	456
213.436	519
213.503	1166
213.570	804
213.638	1261
213.705	541
213.772	-44
213.839	2716
213.906	2667
213.973	2477
214.041	496
214.108	1591
214.175	2086
214.242	1151
214.309	1766
214.376	2127
214.444	1093
214.511	2314
214.578	1317
214.645	1052
214.712	1447
214.779	2366
214.846	407
214.913	1466
214.980	2464
215.048	1547
215.115	3127
215.182	3090
215.249	2309
215.316	846
215.383	1171
215.450	2440
215.517	2347
215.584	1883
215.651	1520
215.718	1384
215.785	2854
215.852	2636
215.919	3763
215.986	3403
216.053	1845
216.120	744
216.187	2806
216.254	2844
216.321	2104
216.388	2220
216.455	1745
216.522	2291
216.589	4476
216.656	6359
216.722	6373
216.789	2774
216.856	2638
216.923	2172
216.990	2012
217.057	1783
217.124	3653
217.191	1970
217.258	2904
217.324	2753
217.391	3292
217.458	2426
217.525	1668
217.592	1970
217.659	86
217.725	1864
217.792	4145
217.859	4961
217.926	1152
217.993	478
218.059	1393
218.126	1361
218.193	755
218.260	827
218.327	932
218.393	1116
218.460	599
218.527	276
218.594	974
218.660	4669
218.727	5198
218.794	997
218.860	1923
218.927	1243
218.994	718
219.061	1889
219.127	1875
219.194	4025
219.261	1650
219.327	638
219.394	1351
219.461	-46
219.527	371
219.594	3158
219.661	2272
219.727	547
219.794	758
219.860	190
219.927	1319
219.994	2949
220.060	5581
220.127	3249
220.193	1329
220.260	1116
220.326	1343
220.393	2516
220.460	3462
220.526	1869
220.593	1481
220.659	2166
220.726	1626
220.792	6996
220.859	4927
220.925	5825
220.992	7068
221.058	8830
221.125	10577
221.191	8131
221.258	2415
221.324	1935
221.391	1697
221.457	1074
221.524	1102
221.590	3125
221.657	8703
221.723	6132
221.789	5477
221.856	4734
221.922	1517
221.989	2363
222.055	1064
222.121	1093
222.188	3614
222.254	1564
222.321	1460
222.387	938
222.453	555
222.520	2068
222.586	815
222.652	1676
222.719	1644
222.785	2537
222.851	593
222.918	1572
222.984	2638
223.050	4261
223.116	1854
223.183	1475
223.249	153
223.315	-54
223.382	1576
223.448	1103
223.514	377
223.580	291
223.647	-410
223.713	-259
223.779	-382
223.845	835
223.911	2342
223.978	561
224.044	1002
224.110	40
224.176	1035
224.242	623
224.309	-250
224.375	691
224.441	734
224.507	89
224.573	113
224.639	1344
224.705	-251
224.772	949
224.838	278
224.904	2191
224.970	432
225.036	1414
225.102	1234
225.168	2471
225.234	814
225.300	1402
225.366	1202
225.432	692
225.499	1696
225.565	1327
225.631	595
225.697	846
225.763	1247
225.829	2125
225.895	1450
225.961	4366
226.027	3721
226.093	2911
226.159	3251
226.225	3425
226.291	6725
226.357	14035
226.423	8410
226.489	5799
226.554	2974
226.620	2514
226.686	4233
226.752	9071
226.818	8246
226.884	17303
226.950	16393
227.016	4884
227.082	4498
227.148	3447
227.214	5365
227.279	5917
227.345	5885
227.411	3588
227.477	2383
227.543	4764
227.609	5820
227.674	6193
227.740	3539
227.806	2525
227.872	1814
227.938	1793
228.003	7874
228.069	3299
228.135	1065
228.201	1126
228.267	1323
228.332	3599
228.398	4047
228.464	2597
228.530	322
228.595	873
228.661	1216
228.727	4522
228.792	4625
228.858	1454
228.924	985
228.990	3762
229.055	2325
229.121	3839
229.187	1600
229.252	2148
229.318	1614
229.384	3429
229.449	4564
229.515	738
229.581	233
229.646	2529
229.712	2565
229.777	6249
229.843	8304
229.909	5893
229.974	6784
230.040	5259
230.105	2658
230.171	3421
230.236	4495
230.302	7513
230.368	5330
230.433	2472
230.499	2492
230.564	6099
230.630	2351
230.695	1404
230.761	1352
230.826	316
230.892	4959
230.957	2025
231.023	737
231.088	654
231.154	854
231.219	989
231.284	2734
231.350	3759
231.415	-10
231.481	1594
231.546	574
231.612	822
231.677	449
231.742	-320
231.808	2718
231.873	536
231.939	-1046
232.004	4558
232.069	4766
232.135	1793
232.200	574
232.265	1456
232.331	430
232.396	674
232.461	532
232.527	-106
232.592	232
232.657	1739
232.723	4713
232.788	4948
232.853	2724
232.918	1671
232.984	380
233.049	851
233.114	4804
233.179	4805
233.245	7343
233.310	10250
233.375	1671
233.440	2725
233.506	1159
233.571	1104
233.636	1511
233.701	1141
233.766	6182
233.832	9963
233.897	3179
233.962	3937
234.027	5197
234.092	4034
234.157	3616
234.222	3581
234.288	5728
234.353	20809
234.418	20817
234.483	10982
234.548	7088
234.613	4492
234.678	4481
234.743	4813
234.808	21901
234.873	14111
234.938	5268
235.004	3750
235.069	3139
235.134	2419
235.199	3161
235.264	2269
235.329	713
235.394	2880
235.459	5209
235.524	4126
235.589	3372
235.654	1675
235.719	1029
235.784	2254
235.849	2845
235.913	11299
235.978	12994
236.043	16000
236.108	4722
236.173	4324
236.238	5966
236.303	2933
236.368	2504
236.433	5954
236.498	13563
236.563	5568
236.627	7182
236.692	24043
236.757	18867
236.822	9538
236.887	10685
236.952	6468
237.017	3281
237.081	6487
237.146	6280
237.211	9113
237.276	20339
237.341	45437
237.405	25209
237.470	10810
237.535	11232
237.600	5083
237.664	4617
237.729	2372
237.794	4357
237.859	7425
237.923	9047
237.988	6425
238.053	9555
238.118	10209
238.182	24338
238.247	26519
238.312	14699
238.376	10018
238.441	7190
238.506	7209
238.570	2751
238.635	3537
238.700	2263
238.764	2350
238.829	10817
238.893	14958
238.958	5974
239.023	5241
239.087	2996
239.152	4559
239.216	1867
239.281	2247
239.346	2302
239.410	2351
239.475	4003
239.539	25249
239.604	22522
239.668	6539
239.733	4273
239.797	3671
239.862	8620
239.926	20015
239.991	8704
240.055	4030
240.120	2805
240.184	4012
240.249	4019
240.313	2598
240.378	3579
240.442	16223
240.507	27649
240.571	8932
240.635	12387
240.700	16746
240.764	5696
240.829	4399
240.893	2279
240.957	3910
241.022	13304
241.086	28675
241.151	15333
241.215	5250
241.279	7314
241.344	14713
241.408	7246
241.472	3329
241.537	4867
241.601	2727
241.665	2022
241.730	2646
241.794	5484
241.858	3931
241.922	3368
241.987	3826
242.051	2373
242.115	3008
242.179	3723
242.244	2439
242.308	2854
242.372	4155
242.436	7546
242.501	4705
242.565	2240
242.629	2143
242.693	2658
242.757	2155
242.822	4035
242.886	3984
242.950	4051
243.014	3350
243.078	5150
243.142	5366
243.206	3370
243.271	5372
243.335	4251
243.399	5199
243.463	13243
243.527	40547
243.591	15056
243.655	7551
243.719	3697
243.783	5523
243.847	7428
243.911	9604
243.975	17078
244.040	13996
244.104	7218
244.168	5322
244.232	8849
244.296	12027
244.360	8887
244.424	6698
244.488	6399
244.552	5784
244.615	3453
244.679	4201
244.743	5392
244.807	6160
244.871	3970
244.935	4175
244.999	2068
245.063	4037
245.127	6293
245.191	6036
245.255	5754
245.319	7242
245.383	7476
245.446	4731
245.510	3201
245.574	6471
245.638	5582
245.702	4220
245.766	13406
245.829	8430
245.893	6279
245.957	4036
246.021	6238
246.085	6417
246.149	9195
246.212	19010
246.276	29120
246.340	14648
246.404	10255
246.467	9520
246.531	14371
246.595	9455
246.659	9116
246.722	7956
246.786	12037
246.850	10366
246.913	13858
246.977	6540
247.041	5908
247.104	8894
247.168	6640
247.232	18051
247.295	37496
247.359	20893
247.423	8417
247.486	17041
247.550	11582
247.614	8471
247.677	12692
247.741	8540
247.804	5920
247.868	7873
247.932	16296
247.995	38099
248.059	14929
248.122	6188
248.186	9697
248.249	16071
248.313	54343
248.376	62206
248.440	40837
248.503	16077
248.567	13379
248.630	18640
248.694	25099
248.757	30390
248.821	61445
248.884	40994
248.948	33868
249.011	49787
249.075	71512
249.138	65131
249.202	27400
249.265	18084
249.328	23649
249.392	15356
249.455	11691
249.519	8237
249.582	11247
249.645	19033
249.709	14332
249.772	7970
249.835	8379
249.899	11215
249.962	8222
250.025	7760
250.089	21857
250.152	34458
250.215	16940
250.279	11740
250.342	11181
250.405	10587
250.468	8823
250.532	11388
250.595	15726
250.658	40333
250.721	73281
250.785	27643
250.848	17236
250.911	10507
250.974	10106
251.038	12981
251.101	34284
251.164	19170
251.227	18205
251.290	14880
251.354	15847
251.417	57270
251.480	59049
251.543	32429
251.606	104815
251.669	79176
251.732	32464
251.795	42094
251.859	39186
251.922	72264
251.985	45940
252.048	21127
252.111	18062
252.174	15844
252.237	31370
252.300	70283
252.363	61406
252.426	105994
252.489	52836
252.552	39169
252.615	27315
252.678	22355
252.741	50944
252.804	52470
252.867	98240
252.930	76585
252.993	51492
253.056	31312
253.119	28854
253.182	19512
253.245	20159
253.308	19665
253.371	25525
253.434	27190
253.497	27387
253.559	41139
253.622	32050
253.685	40516
253.748	44373
253.811	20085
253.874	26052
253.937	25256
254.000	16420
254.062	26952
254.125	43074
254.188	40660
254.251	35158
254.314	17684
254.376	29963
254.439	34887
254.502	33134
254.565	29269
254.628	50690
254.690	35796
254.753	21044
254.816	17212
254.878	18117
254.941	29347
255.004	31905
255.067	16122
255.129	17001
255.192	9142
255.255	8263
255.317	11122
255.380	7586
255.443	5799
255.505	6963
255.568	7491
255.631	8511
255.693	8563
255.756	6390
255.819	6256
255.881	5195
255.944	4743
256.006	4928
256.069	5319
256.132	4158
256.194	8527
256.257	28078
256.319	20076
256.382	19188
256.444	8386
256.507	6297
256.569	4152
256.632	4768
256.694	10682
256.757	13875
256.819	36287
256.882	14814
256.944	9122
257.007	10167
257.069	13527
257.132	10404
257.194	6092
257.257	6817
257.319	6460
257.381	4781
257.444	11431
257.506	41344
257.569	56868
257.631	53328
257.693	27011
257.756	12246
257.818	14005
257.880	7886
257.943	6929
258.005	6133
258.067	7324
258.130	7248
258.192	9356
258.254	24255
258.317	14164
258.379	8229
258.441	20186
258.503	20027
258.566	25222
258.628	39909
258.690	9281
258.753	9330
258.815	20723
258.877	11495
258.939	5096
259.001	5046
259.064	5944
259.126	9045
259.188	14218
259.250	8252
259.312	11560
259.375	38685
259.437	25653
259.499	8302
259.561	7542
259.623	8838
259.685	10603
259.747	7702
259.809	25548
259.872	53606
259.934	70934
259.996	77928
260.058	23389
260.120	9427
260.182	7041
260.244	5923
260.306	4711
260.368	6280
260.430	6424
260.492	19070
260.554	40787
260.616	29533
260.678	36504
260.740	56750
260.802	15424
260.864	13103
260.926	9874
260.988	9950
261.050	9808
261.112	27605
261.174	66639
261.236	46890
261.298	15409
261.359	24205
261.421	38424
261.483	11154
261.545	8714
261.607	4995
261.669	6299
261.731	14348
261.793	41276
261.854	18486
261.916	11070
261.978	12828
262.040	16755
262.102	9512
262.164	16880
262.225	14550
262.287	6953
262.349	18823
262.411	15566
262.472	7096
262.534	14864
262.596	39183
262.658	12759
262.719	7233
262.781	9655
262.843	35676
262.904	17010
262.966	9708
263.028	11376
263.090	42965
263.151	113714
263.213	48098
263.275	33715
263.336	12595
263.398	8714
263.459	6219
263.521	7359
263.583	17576
263.644	13678
263.706	6496
263.767	4419
263.829	4386
263.891	3874
263.952	3578
264.014	3796
264.075	11974
264.137	35357
264.198	15792
264.260	6206
264.321	5662
264.383	16797
264.444	48732
264.506	15497
264.567	9267
264.629	17061
264.690	41476
264.752	15375
264.813	8827
264.875	6413
264.936	8325
264.998	6848
265.059	3830
265.120	3460
265.182	5977
265.243	15609
265.305	15124
265.366	5143
265.427	5245
265.489	5298
265.550	2917
265.611	6367
265.673	7482
265.734	6712
265.795	4253
265.857	2528
265.918	2431
265.979	5346
266.040	26036
266.102	23405
266.163	11453
266.224	16110
266.286	8049
266.347	4610
266.408	4810
266.469	7098
266.530	4856
266.592	3120
266.653	11719
266.714	22893
266.775	7331
266.836	3941
266.898	3613
266.959	13387
267.020	10315
267.081	4534
267.142	2995
267.203	3183
267.264	2528
267.326	3876
267.387	2293
267.448	2681
267.509	2802
267.570	3313
267.631	2947
267.692	1874
267.753	1915
267.814	2394
267.875	8225
267.936	23871
267.997	17098
268.058	13912
268.119	6352
268.180	6997
268.241	5045
268.302	4417
268.363	3415
268.424	6312
268.485	6731
268.546	5283
268.607	2311
268.668	2250
268.729	2827
268.790	4824
268.851	6901
268.912	20161
268.972	22569
269.033	12739
269.094	5211
269.155	3974
269.216	2978
269.277	5523
269.338	4131
269.398	3912
269.459	5930
269.520	9084
269.581	13280
269.642	16772
269.702	10245
269.763	6728
269.824	5415
269.885	6973
269.945	13024
270.006	4910
270.067	2985
270.128	3560
270.188	2888
270.249	3709
270.310	4052
270.370	3777
270.431	4347
270.492	3050
270.553	4840
270.613	13637
270.674	26196
270.734	12907
270.795	6418
270.856	9754
270.916	9619
270.977	4487
271.038	7738
271.098	8379
271.159	12612
271.219	13603
271.280	5729
271.340	4788
271.401	6561
271.462	24313
271.522	12363
271.583	6675
271.643	7375
271.704	5928
271.764	7919
271.825	17809
271.885	57236
271.946	80517
272.006	28257
272.066	33788
272.127	61140
272.187	19725
272.248	11571
272.308	11752
272.369	37355
272.429	25065
272.489	21666
272.550	27202
272.610	21143
272.671	18507
272.731	17841
272.791	34613
272.852	16592
272.912	14133
272.972	7283
273.033	7156
273.093	15195
273.153	16613
273.214	10849
273.274	10123
273.334	36587
273.394	66477
273.455	28294
273.515	26401
273.575	59180
273.635	25431
273.696	30877
273.756	61005
273.816	24717
273.876	13218
273.936	31839
273.997	69544
274.057	20708
274.117	13235
274.177	18962
274.237	74647
274.297	71953
274.358	55633
274.418	49075
274.478	40881
274.538	17770
274.598	15381
274.658	52149
274.718	73237
274.778	29146
274.838	14561
274.898	32232
274.958	102682
275.018	70291
275.078	45326
275.138	21553
275.198	12476
275.258	9329
275.318	12498
275.378	23675
275.438	24715
275.498	15665
275.558	37202
275.618	80415
275.678	46822
275.738	31245
275.798	30813
275.858	21328
275.918	8631
275.978	10629
276.038	9662
276.098	7052
276.157	15869
276.217	46406
276.277	23377
276.337	18145
276.397	10191
276.457	12572
276.517	10446
276.576	6180
276.636	5490
276.696	11506
276.756	27471
276.815	22262
276.875	9724
276.935	12045
276.995	10886
277.055	6372
277.114	6621
277.174	9699
277.234	33653
277.293	16831
277.353	10051
277.413	7194
277.472	7919
277.532	8603
277.592	7760
277.651	14593
277.711	25362
277.771	12188
277.830	38322
277.890	34042
277.950	20505
278.009	54995
278.069	23006
278.128	18705
278.188	27273
278.248	14961
278.307	24651
278.367	19427
278.426	9391
278.486	6494
278.545	5518
278.605	5487
278.664	5585
278.724	6540
278.783	18697
278.843	55727
278.902	17657
278.962	10051
279.021	13180
279.081	12357
279.140	12842
279.199	10223
279.259	8608
279.318	7464
279.378	9901
279.437	18559
279.496	75079
279.556	186216
279.615	157493
279.675	40513
279.734	25321
279.793	43694
279.853	73596
279.912	27413
279.971	14550
280.031	13721
280.090	24517
280.149	49251
280.208	33382
280.268	137461
280.327	151026
280.386	37385
280.445	30336
280.505	34434
280.564	18192
280.623	17475
280.682	18865
280.742	30760
280.801	10502
280.860	8358
280.919	9193
280.978	8417
281.037	8130
281.097	7332
281.156	5416
281.215	5211
281.274	9013
281.333	34728
281.392	30205
281.451	7314
281.510	6444
281.569	5799
281.628	5084
281.688	4108
281.747	6944
281.806	9769
281.865	5716
281.924	4296
281.983	5852
282.042	3637
282.101	4784
282.160	4588
282.219	4436
282.278	5648
282.337	21489
282.396	16492
282.454	6466
282.513	8904
282.572	34064
282.631	22525
282.690	7097
282.749	6396
282.808	10093
282.867	10181
282.926	8577
282.985	4267
283.043	3944
283.102	3970
283.161	6979
283.220	19765
283.279	42192
283.338	12588
283.396	7301
283.455	6237
283.514	7458
283.573	13607
283.631	9984
283.690	6829
283.749	6325
283.808	13794
283.866	18821
283.925	6174
283.984	4514
284.043	8371
284.101	10749
284.160	7699
284.219	19300
284.277	10817
284.336	11814
284.395	43560
284.453	37669
284.512	10764
284.570	17093
284.629	13466
284.688	8625
284.746	8764
284.805	8857
284.863	10111
284.922	13090
284.981	12072
285.039	15889
285.098	29561
285.156	78505
285.215	236948
285.273	234511
285.332	91341
285.390	46390
285.449	31270
285.507	20144
285.566	15077
285.624	12126
285.683	9505
285.741	7729
285.799	7451
285.858	9232
285.916	8700
285.975	5742
286.033	5160
286.091	4852
286.150	4507
286.208	6079
286.267	11638
286.325	8493
286.383	14888
286.442	11900
286.500	5462
286.558	4181
286.616	4071
286.675	7917
286.733	7820
286.791	7040
286.850	9086
286.908	13851
286.966	20914
287.024	9273
287.083	6000
287.141	4292
287.199	4896
287.257	10344
287.315	7233
287.374	7623
287.432	19204
287.490	14376
287.548	8075
287.606	6055
287.664	5934
287.723	11929
287.781	22334
287.839	8026
287.897	6666
287.955	8032
288.013	9538
288.071	21096
288.129	69648
288.187	229574
288.245	102783
288.303	30198
288.361	19580
288.419	24605
288.477	18498
288.535	10137
288.593	6942
288.651	7862
288.709	5385
288.767	5068
288.825	6619
288.883	6148
288.941	6853
288.999	6405
289.057	5172
289.115	8395
289.173	7716
289.231	7555
289.289	8331
289.346	7669
289.404	7417
289.462	14093
289.520	15690
289.578	7323
289.636	5381
289.694	3971
289.751	3999
289.809	3892
289.867	4482
289.925	7405
289.983	10433
290.040	5291
290.098	4718
290.156	6616
290.214	9520
290.271	5433
290.329	4995
290.387	3973
290.444	3858
290.502	2808
290.560	5749
290.617	8364
290.675	6247
290.733	5551
290.790	7566
290.848	5549
290.906	8473
290.963	8020
291.021	7149
291.078	7286
291.136	7848
291.194	24221
291.251	57670
291.309	18232
291.366	8208
291.424	7140
291.481	8408
291.539	6976
291.596	4436
291.654	4052
291.711	4290
291.769	6602
291.826	15511
291.884	11549
291.941	5660
291.999	5055
292.056	8191
292.114	9175
292.171	5655
292.228	6121
292.286	9871
292.343	19666
292.401	25277
292.458	17209
292.515	11805
292.573	12349
292.630	11068
292.687	13395
292.745	10187
292.802	14025
292.859	39155
292.917	49751
292.974	32129
293.031	11149
293.089	9258
293.146	7146
293.203	7501
293.260	7431
293.318	12443
293.375	24032
293.432	13311
293.489	7875
293.546	6763
293.604	11634
293.661	25871
293.718	69883
293.775	49272
293.832	22145
293.889	15138
293.947	18791
294.004	14311
294.061	13458
294.118	22811
294.175	48173
294.232	65255
294.289	27843
294.346	14462
294.403	11268
294.460	12789
294.517	12024
294.574	8924
294.631	7958
294.688	11387
294.745	25545
294.802	81250
294.859	100668
294.916	46761
294.973	29581
295.030	23295
295.087	18319
295.144	12354
295.201	11436
295.258	9547
295.315	11029
295.372	29559
295.429	57701
295.486	29648
295.542	19733
295.599	41004
295.656	79034
295.713	55237
295.770	58133
295.827	26519
295.883	15102
295.940	15782
295.997	25730
296.054	25015
296.111	13566
296.167	10253
296.224	8022
296.281	7592
296.338	7907
296.394	8100
296.451	11034
296.508	27075
296.564	56620
296.621	46798
296.678	61187
296.734	98268
296.791	44189
296.848	24046
296.904	22827
296.961	45135
297.018	63856
297.074	55948
297.131	23132
297.187	15926
297.244	22862
297.301	51766
297.357	100309
297.414	41128
297.470	18578
297.527	15025
297.583	11597
297.640	13727
297.696	10887
297.753	9209
297.809	8539
297.866	6957
297.922	6489
297.979	6469
298.035	9274
298.092	13868
298.148	33186
298.204	37591
298.261	20763
298.317	32756
298.374	80152
298.430	51131
298.486	27725
298.543	21411
298.599	16868
298.656	15169
298.712	22575
298.768	41165
298.824	26948
298.881	12296
298.937	9687
298.993	9955
299.050	15233
299.106	14345
299.162	10843
299.218	11325
299.275	8660
299.331	11016
299.387	19084
299.443	57632
299.500	66662
299.556	26603
299.612	15940
299.668	14411
299.724	13330
299.780	12600
299.837	11602
299.893	17531
299.949	48837
300.005	63702
300.061	55074
300.117	92680
300.173	51261
300.229	24398
300.285	27996
300.341	33781
300.397	18449
300.453	12599
300.510	10466
300.566	10958
300.622	11652
300.678	22445
300.734	48263
300.790	52858
300.845	64945
300.901	41388
300.957	51330
301.013	45775
301.069	20762
301.125	15214
301.181	17464
301.237	13779
301.293	10610
301.349	8212
301.405	8056
301.461	9241
301.516	9421
301.572	12629
301.628	23242
301.684	23370
301.740	29934
301.796	42362
301.851	30480
301.907	44802
301.963	50812
302.019	65507
302.074	164927
302.130	174882
302.186	84479
302.242	35775
302.297	25341
302.353	23795
302.409	39074
302.464	38388
302.520	32459
302.576	66025
302.631	80302
302.687	51018
302.743	24290
302.798	14756
302.854	12666
302.910	13734
302.965	17952
303.021	31099
303.076	29097
303.132	32847
303.187	40785
303.243	22314
303.299	12992
303.354	10859
303.410	10013
303.465	9677
303.521	9806
303.576	10929
303.632	12486
303.687	20576
303.743	52649
303.798	52544
303.853	23407
303.909	15102
303.964	14100
304.020	19577
304.075	30757
304.130	27569
304.186	46751
304.241	50924
304.297	41620
304.352	24584
304.358	23701
304.407	16531
304.449	15700
304.463	15422
304.518	17498
304.539	16696
304.573	15414
304.629	16303
304.630	16476
304.684	24924
304.720	38822
304.739	45560
304.794	71300
304.811	62789
304.850	41717
304.902	22043
304.905	20812
304.960	15898
304.992	14084
305.015	12915
305.071	11943
305.083	11947
305.126	11865
305.173	10485
305.181	10307
305.236	9685
305.264	10373
305.292	11228
305.347	15615
305.354	15767
305.402	15992
305.445	14995
305.457	14916
305.512	18483
305.535	19817
305.567	21512
305.622	22744
305.626	23300
305.678	38126
305.716	60140
305.733	67305
305.788	84931
305.807	77688
305.843	64653
305.897	69290
305.898	69284
305.953	72342
305.988	53319
306.008	43095
306.063	30164
306.078	27680
306.118	21940
306.168	16200
306.173	15835
306.228	13207
306.259	12824
306.283	12835
306.338	13314
306.349	13532
306.393	13770
306.440	13534
306.448	13920
306.503	18613
306.530	22705
306.558	38914
306.613	89237
306.620	96451
306.668	114428
306.711	103858
306.723	98722
306.778	71260
306.801	54915
306.833	39248
306.888	23176
306.892	22386
306.943	18016
306.982	16824
306.997	17061
307.052	19323
307.072	20641
307.107	28466
307.162	44573
307.163	44761
307.217	71793
307.253	87152
307.272	87005
307.327	82831
307.343	74862
307.381	57188
307.434	42210
307.436	43487
307.491	84516
307.524	120009
307.546	120919
307.600	95070
307.614	82643
307.655	52736
307.704	28766
307.710	28927
307.765	41122
307.795	52020
307.819	64892
307.874	108478
307.885	111027
307.929	79541
307.975	37683
307.984	34832
308.038	29592
308.065	29913
308.093	42764
308.148	75626
308.156	83726
308.202	130991
308.246	168105
308.257	166017
308.312	100731
308.336	79516
308.366	68522
308.421	57281
308.426	55465
308.475	36688
308.517	25174
308.530	23735
308.585	21277
308.607	20512
308.639	23994
308.694	32166
308.697	32802
308.748	83103
308.787	130607
308.803	126927
308.857	94418
308.877	76723
308.912	61291
308.967	48349
308.967	48097
309.021	42377
309.058	39526
309.076	46465
309.130	73106
309.148	83847
309.185	135453
309.238	217148
309.239	217768
309.293	245468
309.328	226891
309.348	194631
309.402	91123
309.418	66172
309.457	47876
309.508	31656
309.511	31297
309.566	30040
309.598	29889
309.620	34684
309.674	49288
309.688	53471
309.729	53268
309.778	47240
309.783	46697
309.837	39835
309.868	36743
309.892	53327
309.946	96509
309.959	108200
310.001	146330
310.049	185056
310.055	178897
310.109	107613
310.139	66931
310.163	57381
310.218	43323
310.229	40797
310.272	39044
310.319	37679
310.326	38377
310.381	43548
310.409	46145
310.435	46404
310.489	46237
310.499	46204
310.543	51114
310.589	55749
310.598	56036
310.652	57854
310.679	57484
310.706	48842
310.760	30862
310.769	28073
310.814	23171
310.859	18475
310.868	19259
310.923	23753
310.948	26027
310.977	31902
311.031	42996
311.038	44475
311.085	42318
311.128	39164
311.139	38763
311.193	35997
311.218	34808
311.247	31865
311.301	26003
311.308	25194
311.356	30570
311.398	35665
311.410	34613
311.464	28796
311.488	26012
311.518	25560
311.572	24698
311.578	24559
311.626	36383
311.668	46764
311.680	51134
311.734	69884
311.758	78042
311.788	75401
311.842	69775
311.847	68949
311.896	83968
311.937	96744
311.950	95703
312.004	89698
312.027	86571
312.058	69386
312.112	38368
312.117	35171
312.165	34791
312.207	34308
312.297	69878
312.386	58850
312.476	42247
312.566	76303
312.656	38247
312.745	32167
312.835	41680
312.925	47925
313.015	47073
313.104	63625
313.194	26964
313.284	29084
313.374	33944
313.463	32729
313.553	28280
313.643	25934
313.732	20937
313.822	24305
313.912	32647
314.001	38032
314.091	51419
314.180	88466
314.270	54127
314.360	80959
314.449	53449
314.539	31885
314.628	29197
314.718	48120
314.808	77131
314.897	29540
314.987	24500
315.076	34893
315.166	61055
315.255	74447
315.345	54799
315.434	77787
315.524	60584
315.613	64378
315.703	55006
315.792	52915
315.881	63371
315.971	49703
316.060	111966
316.150	233755
316.239	223223
316.328	75858
316.418	28669
316.507	29370
316.597	38138
316.686	37807
316.775	74672
316.865	196327
316.954	40162
317.043	22774
317.133	27889
317.222	25353
317.311	25322
317.400	23436
317.490	34641
317.579	40981
317.668	26565
317.757	37495
317.847	52853
317.936	104713
318.025	94997
318.114	51326
318.203	46314
318.293	69104
318.382	128596
318.471	93343
318.560	118906
318.649	222092
318.738	64522
318.828	53519
318.917	59319
319.006	78014
319.095	210596
319.184	281247
319.273	176040
319.362	101241
319.451	46798
319.540	43513
319.629	82289
319.718	138702
319.807	69840
319.896	107962
319.985	334224
320.074	156013
320.163	75339
320.252	161813
320.341	111054
320.430	89597
320.519	91480
320.608	61144
320.697	55291
320.786	50361
320.875	54507
320.964	69022
321.053	102397
321.142	138672
321.230	151074
321.319	129271
321.408	273089
321.497	140687
321.586	119542
321.675	191928
321.764	193025
321.852	142983
321.941	175766
322.030	111411
322.119	136061
322.207	274671
322.296	285079
322.385	173306
322.474	133317
322.562	285222
322.651	199386
322.740	141823
322.829	239737
322.917	333293
323.006	152282
323.095	112939
323.183	117008
323.272	146760
323.361	174567
323.449	441251
323.538	190117
323.626	381709
323.715	231698
323.804	118099
323.892	357982
323.981	249324
324.069	79634
324.158	199603
324.246	191550
324.335	74051
324.424	101624
324.512	40311
324.601	56076
324.689	105386
324.778	204585
324.866	231091
324.954	66049
325.043	54104
325.131	127927
325.220	237302
325.308	263478
325.397	188857
325.485	112539
325.574	34832
325.662	30899
325.750	35338
325.839	32323
325.927	32148
326.015	56665
326.104	111139
326.192	170126
326.280	39517
326.369	43127
326.457	46271
326.545	77161
326.634	37810
326.722	25824
326.810	28141
326.898	25783
326.987	34873
327.075	87328
327.163	150775
327.251	83320
327.340	74002
327.428	112069
327.516	34606
327.604	38856
327.692	58203
327.781	77831
327.869	156827
327.957	76409
328.045	50260
328.133	30158
328.221	76290
328.309	42462
328.397	27995
328.485	37514
328.574	47071
328.662	136959
328.750	149934
328.838	88603
328.926	35379
329.014	27117
329.102	43942
329.190	128143
329.278	77690
329.366	22716
329.454	27908
329.542	31412
329.630	26074
329.718	26817
329.806	35195
329.893	39772
329.981	39977
330.069	17241
330.157	25023
330.245	40458
330.333	29335
330.421	24730
330.509	46967
330.597	172692
330.684	147072
330.772	77394
330.860	152334
330.948	177011
331.036	65465
331.123	23772
331.211	32465
331.299	56726
331.387	112393
331.475	216328
331.562	85994
331.650	34599
331.738	56925
331.825	105912
331.913	34180
332.001	28390
332.089	58515
332.176	159247
332.264	249716
332.352	204007
332.439	71251
332.527	54769
332.614	54964
332.702	91047
332.790	41942
332.877	113363
332.965	239023
333.052	48246
333.140	53236
333.228	114291
333.315	35367
333.403	47191
333.490	176116
333.578	124224
333.665	36121
333.753	35650
333.840	31797
333.928	50417
334.015	190553
334.103	175411
334.190	391540
334.278	129764
334.365	89300
334.452	48049
334.540	33107
334.627	67810
334.715	102345
334.802	131867
334.889	582816
334.977	476890
335.064	74827
335.151	43234
335.239	50417
335.326	63103
335.413	151623
335.501	205547
335.588	46490
335.675	37260
335.762	57371
335.850	113758
335.937	53605
336.024	122370
336.111	507679
336.199	233495
336.286	50049
336.373	27463
336.460	22543
336.547	28070
336.635	50116
336.722	37042
336.809	38034
336.896	50301
336.983	124216
337.070	271720
337.157	347115
337.245	368646
337.332	257973
337.419	57278
337.506	37953
337.593	45339
337.680	101212
337.767	284814
337.854	108811
337.941	159831
338.028	230753
338.115	78588
338.202	95089
338.289	132906
338.376	373898
338.463	132833
338.550	187349
338.637	181873
338.724	114210
338.811	198041
338.898	50480
338.984	34690
339.071	57170
339.158	42592
339.245	109133
339.332	74651
339.419	140729
339.506	134732
339.593	23616
339.679	23007
339.766	22650
339.853	42241
339.940	67863
340.027	31191
340.113	26846
340.200	45465
340.287	40434
340.374	41550
340.460	60237
340.547	31227
340.634	45197
340.720	140684
340.807	77631
340.894	21478
340.980	35181
341.067	25016
341.154	30737
341.240	35865
341.327	74869
341.414	22629
341.500	19207
341.587	28550
341.674	27746
341.760	57013
341.847	67702
341.933	23635
342.020	12269
342.106	14080
342.193	24329
342.279	47422
342.366	32030
342.452	56905
342.539	35477
342.625	68437
342.712	146098
342.798	67545
342.885	34959
342.971	15685
343.058	14627
343.144	15680
343.230	15459
343.317	14364
343.403	13228
343.490	13783
343.576	15267
343.662	17378
343.749	21784
343.835	28723
343.921	47582
344.008	162222
344.094	342236
344.180	98295
344.267	54710
344.353	139812
344.439	230303
344.525	98161
344.612	30281
344.698	28040
344.784	23968
344.870	15581
344.957	18330
345.043	35139
345.129	27628
345.215	60669
345.301	34176
345.387	20720
345.474	18889
345.560	27286
345.646	55755
345.732	32682
345.818	26424
345.904	23540
345.990	35339
346.076	49255
346.162	125450
346.249	34298
346.335	18968
346.421	18833
346.507	47975
346.593	145065
346.679	50769
346.765	31538
346.851	23170
346.937	24749
347.023	17865
347.108	23211
347.194	19923
347.280	19260
347.366	22708
347.452	48124
347.538	172165
347.624	152747
347.710	198122
347.796	56499
347.882	30393
347.967	25825
348.053	60766
348.139	37495
348.225	21487
348.311	19809
348.397	16515
348.482	26321
348.568	35472
348.654	13365
348.740	12523
348.825	14762
348.911	33503
348.997	98965
349.083	206076
349.168	64793
349.254	18801
349.340	21227
349.425	16953
349.511	31525
349.597	41164
349.682	52406
349.768	120766
349.854	63145
349.939	33141
350.025	23878
350.110	16558
350.196	12553
350.282	12056
350.367	20410
350.453	88157
350.538	87364
350.624	41386
350.709	40264
350.795	22134
350.880	20296
350.966	26106
351.051	78696
351.137	65282
351.222	22843
351.308	44540
351.393	113728
351.479	29247
351.564	13671
351.649	22177
351.735	16819
351.820	13623
351.906	17956
351.991	39663
352.076	89232
352.162	111146
352.247	31196
352.332	23946
352.418	38714
352.503	46332
352.588	183959
352.673	173872
352.759	46916
352.844	25030
352.929	28436
353.014	40208
353.100	26929
353.185	51168
353.270	76224
353.355	72450
353.441	27627
353.526	54023
353.611	75354
353.696	75334
353.781	41725
353.866	21636
353.952	22461
354.037	62794
354.122	140671
354.207	128136
354.292	49492
354.377	22770
354.462	19105
354.547	31044
354.632	32326
354.717	59807
354.802	62006
354.887	22280
354.972	15307
355.057	12524
355.142	12964
355.227	21155
355.312	40535
355.397	89337
355.482	207804
355.567	103955
355.652	80504
355.737	71502
355.822	129527
355.907	106517
355.991	25477
356.076	17451
356.161	19892
356.246	14869
356.331	16211
356.416	36994
356.501	187972
356.585	199826
356.670	42210
356.755	29888
356.840	46552
356.924	177742
357.009	517048
357.094	215602
357.179	72551
357.263	49769
357.348	60597
357.433	69126
357.517	46785
357.602	33180
357.687	24372
357.771	32591
357.856	33389
357.941	34656
358.025	111635
358.110	428682
358.195	221794
358.279	51750
358.364	38699
358.448	128699
358.533	291250
358.617	219766
358.702	206002
358.787	90654
358.871	64898
358.956	53830
359.040	18289
359.125	13187
359.209	14591
359.294	16703
359.378	21722
359.462	48687
359.547	45458
359.631	52744
359.716	21557
359.800	26432
359.885	59116
359.969	29575
360.053	15640
360.138	17277
360.222	32299
360.306	65179
360.391	49828
360.475	55125
360.559	112693
360.644	132440
360.728	100386
360.812	113458
360.896	278937
360.981	195783
361.065	136457
361.149	36302
361.233	39299
361.318	32436
361.402	37489
361.486	28976
361.570	20450
361.654	30336
361.739	71036
361.823	207538
361.907	272460
361.991	61775
362.075	48644
362.159	116271
362.243	76665
362.327	60298
362.411	52432
362.495	63790
362.580	33571
362.664	20187
362.748	16017
362.832	14055
362.916	19027
363.000	49079
363.084	184406
363.168	321257
363.252	102447
363.336	56275
363.420	76686
363.503	225137
363.587	245128
363.671	57326
363.755	50392
363.839	68091
363.923	28010
364.007	62129
364.091	91872
364.175	110130
364.258	295557
364.342	160485
364.426	82277
364.510	65189
364.594	77615
364.677	79594
364.761	236780
364.845	168350
364.929	95385
365.013	86194
365.096	67790
365.180	81453
365.264	91661
365.347	312868
365.431	177169
365.515	73788
365.598	31147
365.682	25417
365.766	73264
365.849	93205
365.933	51545
366.017	76614
366.100	61628
366.184	32799
366.267	34555
366.351	19164
366.435	16310
366.518	13069
366.602	13017
366.685	18497
366.769	27175
366.852	64628
366.936	107652
367.019	49822
367.103	51027
367.186	102684
367.270	27192
367.353	14515
367.436	16871
367.520	15886
367.603	25030
367.687	41158
367.770	75304
367.853	37524
367.937	80813
368.020	127618
368.104	47937
368.187	58578
368.270	77253
368.353	68468
368.437	125289
368.520	332695
368.603	186244
368.687	123225
368.770	190985
368.853	64847
368.936	96819
369.020	109468
369.103	35982
369.186	25416
369.269	28151
369.352	56410
369.436	99263
369.519	57955
369.602	27074
369.685	29426
369.768	38257
369.851	31652
369.934	20855
370.018	36505
370.101	76479
370.184	62049
370.267	52433
370.350	75658
370.433	114884
370.516	147466
370.599	160418
370.682	84601
370.765	156458
370.848	145885
370.931	224695
371.014	127349
371.097	34351
371.180	20444
371.263	11283
371.346	11456
371.429	12580
371.511	20123
371.594	47998
371.677	84168
371.760	105925
371.843	50388
371.926	155045
372.009	346552
372.091	131944
372.174	122053
372.257	185197
372.340	78975
372.423	140178
372.505	186675
372.588	65226
372.671	82823
372.754	214056
372.836	105895
372.919	106524
373.002	212693
373.085	71278
373.167	49065
373.250	109018
373.332	186406
373.415	244358
373.498	481482
373.580	205382
373.663	216576
373.746	286183
373.828	99673
373.911	65116
373.993	63338
374.076	214545
374.159	250239
374.241	106925
374.324	208420
374.406	136011
374.489	136071
374.571	362351
374.654	159117
374.736	95455
374.819	257685
374.901	343657
374.983	337647
375.066	72727
375.148	39936
375.231	153069
375.313	309636
375.395	154982
375.478	36958
375.560	23009
375.643	35149
375.725	109726
375.807	337891
375.890	378664
375.972	288045
376.054	154015
376.136	297361
376.219	117628
376.301	95374
376.383	245809
376.465	104012
376.548	103738
376.630	96192
376.712	215290
376.794	98892
376.877	18544
376.959	17459
377.041	27530
377.123	78351
377.205	93576
377.287	18489
377.369	13951
377.452	17909
377.534	17066
377.616	20348
377.698	19161
377.780	14235
377.862	20648
377.944	19547
378.026	13007
378.108	14929
378.190	15084
378.272	14040
378.354	9672
378.436	13045
378.518	43614
378.600	170794
378.682	107542
378.764	135625
378.846	108830
378.928	66369
379.010	73647
379.091	33813
379.173	16498
379.255	17489
379.337	29285
379.419	72067
379.501	182442
379.583	89383
379.664	35632
379.746	73104
379.828	156116
379.910	179465
379.991	144581
380.073	34553
380.155	34899
380.237	23223
380.318	15042
380.400	19318
380.482	49565
380.564	81445
380.645	81860
380.727	73025
380.809	39170
380.890	28885
380.972	22477
381.053	19250
381.135	26832
381.217	53203
381.298	157795
381.380	91878
381.461	80179
381.543	226322
381.624	264433
381.706	66271
381.787	61083
381.869	52129
381.951	98828
382.032	349746
382.113	251559
382.195	95595
382.276	54218
382.358	88881
382.439	200462
382.521	202702
382.602	312045
382.684	153087
382.765	302282
382.846	241994
382.928	111183
383.009	59084
383.090	44285
383.172	118720
383.253	183282
383.334	165179
383.416	290073
383.497	131016
383.578	47533
383.659	83010
383.741	127153
383.822	261233
383.903	158038
383.984	159401
384.066	357978
384.147	234118
384.228	55673
384.309	55382
384.390	36656
384.471	27635
384.553	39740
384.634	72567
384.715	64512
384.796	27016
384.877	27883
384.958	109541
385.039	145930
385.120	62000
385.201	34345
385.282	81304
385.363	95782
385.444	50047
385.525	55749
385.606	157842
385.687	127520
385.768	77532
385.849	99109
385.930	186402
386.011	278024
386.092	92578
386.173	37874
386.254	48802
386.335	46488
386.416	38251
386.496	100171
386.577	169408
386.658	122282
386.739	84575
386.820	98296
386.901	89685
386.981	59940
387.062	27988
387.143	38620
387.224	137080
387.304	152245
387.385	84892
387.466	77307
387.547	104535
387.627	46745
387.708	55134
387.789	210160
387.869	245865
387.950	72508
388.031	25478
388.111	51124
388.192	185145
388.273	285155
388.353	136624
388.434	44833
388.514	53016
388.595	170314
388.676	234975
388.756	138979
388.837	155346
388.917	95129
388.998	31764
389.078	24611
389.159	19810
389.239	20401
389.320	39296
389.400	41365
389.480	82871
389.561	162109
389.641	68014
389.722	41276
389.802	73020
389.883	75417
389.963	162365
390.043	191701
390.124	110744
390.204	65620
390.284	164023
390.365	108796
390.445	151178
390.525	176883
390.605	100200
390.686	71042
390.766	27731
390.846	16969
390.927	15537
391.007	23187
391.087	35843
391.167	35071
391.247	32444
391.328	101755
391.408	130653
391.488	71771
391.568	21893
391.648	29231
391.728	40633
391.808	39013
391.888	43293
391.969	74925
392.049	120532
392.129	86370
392.209	73430
392.289	128612
392.369	86214
392.449	134880
392.529	77650
392.609	56951
392.689	50869
392.769	123780
392.849	105974
392.929	102026
393.009	230513
393.089	125300
393.169	66112
393.248	163481
393.328	617596
393.408	657784
393.488	168982
393.568	56686
393.648	32086
393.728	23248
393.807	19369
393.887	15557
393.967	13233
394.047	19688
394.127	24240
394.206	28736
394.286	59260
394.366	260005
394.446	276305
394.525	59024
394.605	21823
394.685	43259
394.764	159173
394.844	247022
394.924	150936
395.003	43480
395.083	27982
395.163	23826
395.242	23129
395.322	23532
395.402	13516
395.481	21728
395.561	86487
395.640	248755
395.720	157069
395.799	224859
395.879	163087
395.958	38973
396.038	74024
396.117	339985
396.197	382693
396.276	175246
396.356	108920
396.435	116764
396.515	54099
396.594	50083
396.673	75503
396.753	187645
396.832	580752
396.912	493324
396.991	152597
397.070	43262
397.150	28774
397.229	16879
397.308	15765
397.388	22811
397.467	16895
397.546	12568
397.625	14654
397.705	24968
397.784	31049
397.863	15418
397.942	10720
398.022	16668
398.101	78361
398.180	239783
398.259	159223
398.338	45749
398.417	33253
398.497	31324
398.576	33133
398.655	17911
398.734	12346
398.813	15666
398.892	68560
398.971	234318
399.050	119643
399.129	19755
399.208	12564
399.287	15285
399.366	13907
399.445	18083
399.524	16513
399.603	15798
399.682	36006
399.761	88447
399.840	244835
399.919	188651
399.998	38885
400.077	13926
400.156	13670
400.235	28787
400.313	27518
400.392	36310
400.471	87862
400.550	135581
400.629	50639
400.708	31514
400.786	43075
400.865	107745
400.944	119576
401.023	47748
401.102	11754
401.180	15819
401.259	28462
401.338	40677
401.416	42723
401.495	40524
401.574	39905
401.652	33225
401.731	45432
401.810	45725
401.888	18653
401.967	8754
402.046	12886
402.124	36986
402.203	60071
402.281	24477
402.360	32231
402.438	120624
402.517	98856
402.596	45492
402.674	55548
402.753	29397
402.831	21619
402.910	21009
402.988	72530
403.066	196323
403.145	105838
403.223	63062
403.302	140940
403.380	106872
403.459	115554
403.537	59534
403.615	36818
403.694	10090
403.772	8313
403.850	8895
403.929	8509
404.007	14461
404.085	33317
404.164	40255
404.242	13269
404.320	13045
404.398	22936
404.477	59187
404.555	260183
404.633	220691
404.711	35493
404.789	13572
404.868	18455
404.946	13506
405.024	8027
405.102	7994
405.180	7674
405.258	9944
405.336	13482
405.415	19992
405.493	56949
405.571	43547
405.649	12657
405.727	18502
405.805	35208
405.883	26572
405.961	35280
406.039	58818
406.117	21765
406.195	22694
406.273	73844
406.351	246009
406.429	174396
406.507	69749
406.585	30028
406.663	18683
406.740	26559
406.818	28125
406.896	20118
406.974	14211
407.052	29808
407.130	151006
407.208	199913
407.285	40783
407.363	13607
407.441	16927
407.519	12759
407.596	16741
407.674	30532
407.752	44286
407.830	103671
407.907	77680
407.985	27504
408.063	12180
408.141	10822
408.218	43611
408.296	47223
408.373	21797
408.451	21504
408.529	19097
408.606	8497
408.684	5732
408.762	4805
408.839	4380
408.917	4232
408.994	6713
409.072	8061
409.149	6076
409.227	12502
409.304	13060
409.382	6751
409.459	5615
409.537	11818
409.614	12106
409.692	7510
409.769	8857
409.846	15626
409.924	27087
410.001	21467
410.079	12035
410.156	9045
410.233	7844
410.311	4804
410.388	7350
410.465	14818
410.543	16937
410.620	8914
410.697	12296
410.775	16935
410.852	7786
410.929	16751
411.006	25519
411.083	14665
411.161	40841
411.238	58534
411.315	38757
411.392	12545
411.469	20497
411.547	23032
411.624	12845
411.701	10956
411.778	15255
411.855	40250
411.932	23321
412.009	14829
412.086	12343
412.163	25244
412.240	36633
412.317	46628
412.394	43182
412.471	12238
412.548	9202
412.625	12731
412.702	27510
412.779	56047
412.856	25786
412.933	13339
413.010	8928
413.087	18344
413.164	86573
413.241	115793
413.318	34422
413.395	23749
413.471	38893
413.548	16759
413.625	13209
413.702	34190
413.779	24955
413.855	7611
413.932	7094
414.009	8151
414.086	8108
414.162	8723
414.239	23190
414.316	95723
414.393	167720
414.469	55785
414.546	10847
414.623	9195
414.699	9495
414.776	14556
414.853	10950
414.929	14243
415.006	19084
415.082	36332
415.159	22882
415.236	10883
415.312	11932
415.389	28703
415.465	41646
415.542	20990
415.618	13198
415.695	24556
415.771	20503
415.848	20695
415.924	23545
416.000	24439
416.077	12233
416.153	6605
416.230	3844
416.306	9679
416.383	20134
416.459	11185
416.535	5509
416.612	8872
416.688	7450
416.764	6088
416.841	7371
416.917	11293
416.993	10966
417.069	20279
417.146	28397
417.222	27532
417.298	16555
417.374	12944
417.451	15623
417.527	18361
417.603	20987
417.679	15982
417.755	11094
417.831	6554
417.908	5997
417.984	6464
418.060	8861
418.136	30949
418.212	41816
418.288	16680
418.364	11957
418.440	13941
418.516	25207
418.592	56157
418.668	72620
418.744	78734
418.820	55552
418.896	18578
418.972	8280
419.048	10347
419.124	34521
419.200	28010
419.276	6595
419.352	3729
419.428	5213
419.504	11771
419.579	16633
419.655	11856
419.731	12235
419.807	48128
419.883	85592
419.959	54579
420.034	18830
420.110	30891
420.186	100035
420.262	74838
420.337	24753
420.413	21537
420.489	7763
420.565	7150
420.640	6980
420.716	9189
420.792	4939
420.867	8276
420.943	7828
421.019	23392
421.094	17885
421.170	9292
421.245	5668
421.321	6143
421.397	7068
421.472	7513
421.548	14360
421.623	17628
421.699	12148
421.774	12941
421.850	10490
421.925	24552
422.001	18576
422.076	9212
422.152	11011
422.227	23317
422.302	17019
422.378	18824
422.453	35039
422.529	60222
422.604	182117
422.679	357963
422.755	234007
422.830	71808
422.905	22560
422.981	13234
423.056	9592
423.131	7641
423.207	7707
423.282	15610
423.357	42671
423.432	27749
423.508	27542
423.583	71980
423.658	48789
423.733	23314
423.808	34955
423.883	28057
423.959	19303
424.034	10877
424.109	6024
424.184	4861
424.259	5105
424.334	6770
424.409	5147
424.484	7741
424.559	12323
424.634	9275
424.709	15714
424.784	20975
424.859	14223
424.934	28528
425.009	90822
425.084	130992
425.159	50292
425.234	11987
425.309	5164
425.384	5062
425.459	4909
425.534	11736
425.609	24627
425.683	15052
425.758	8787
425.833	15072
425.908	19020
425.983	55336
426.058	152398
426.132	72676
426.207	30453
426.282	57148
426.357	58263
426.431	15254
426.506	13894
426.581	21468
426.655	17543
426.730	10851
426.805	10022
426.879	12523
426.954	14424
427.029	34232
427.103	115444
427.178	224946
427.253	101873
427.327	24941
427.402	43059
427.476	79249
427.551	29034
427.625	29163
427.700	28172
427.774	18824
427.849	29145
427.923	16776
427.998	13161
428.072	19451
428.147	40188
428.221	82523
428.296	128809
428.370	48211
428.444	28594
428.519	64242
428.593	116459
428.667	92532
428.742	119279
428.816	87102
428.890	141257
428.965	147905
429.039	107567
429.113	147192
429.188	50411
429.262	13834
429.336	26211
429.410	84510
429.485	58322
429.559	96276
429.633	73719
429.707	18394
429.781	44590
429.855	195316
429.930	269896
430.004	254585
430.078	352951
430.152	227119
430.226	124506
430.300	95590
430.374	24401
430.448	22367
430.522	94595
430.596	262362
430.670	131463
430.744	146153
430.818	220494
430.892	60629
430.966	18849
431.040	11919
431.114	8702
431.188	12401
431.262	18487
431.336	19934
431.410	50420
431.484	148377
431.557	78094
431.631	12807
431.705	9235
431.779	20587
431.853	86487
431.927	62741
432.000	12418
432.074	12891
432.148	35455
432.222	31773
432.295	10652
432.369	10556
432.443	25416
432.516	115802
432.590	227110
432.664	97965
432.737	20575
432.811	6788
432.885	4092
432.958	4728
433.032	6213
433.106	5496
433.179	3618
433.253	4449
433.326	4856
433.400	4763
433.473	5504
433.547	4838
433.620	7047
433.694	22076
433.767	31652
433.841	22137
433.914	5539
433.988	4877
434.061	6439
434.134	8612
434.208	5024
434.281	4467
434.355	6615
434.428	9470
434.501	5931
434.575	10427
434.648	13181
434.721	5236
434.795	3350
434.868	2592
434.941	3258
435.014	3031
435.088	3327
435.161	5286
435.234	13890
435.307	21128
435.381	10716
435.454	7656
435.527	7505
435.600	5945
435.673	4320
435.746	4155
435.819	4891
435.892	5180
435.966	4679
436.039	11114
436.112	10386
436.185	4594
436.258	3295
436.331	2797
436.404	3235
436.477	2745
436.550	3300
436.623	3363
436.696	4489
436.769	9786
436.842	9771
436.915	17469
436.987	26676
437.060	10414
437.133	4327
437.206	7719
437.279	9942
437.352	5016
437.425	3894
437.498	8060
437.570	19886
437.643	18933
437.716	5960
437.789	4979
437.861	18957
437.934	53747
438.007	22891
438.080	5104
438.152	7443
438.225	17654
438.298	99312
438.370	258824
438.443	122970
438.516	46944
438.588	11472
438.661	6385
438.734	7826
438.806	15681
438.879	15458
438.951	16825
439.024	28297
439.096	12032
439.169	7006
439.241	5583
439.314	9518
439.386	35815
439.459	57058
439.531	80411
439.604	23986
439.676	6267
439.749	4572
439.821	4709
439.893	5610
439.966	14017
440.038	17810
440.110	14762
440.183	7458
440.255	5851
440.327	13378
440.400	71331
440.472	222529
440.544	129041
440.617	26034
440.689	21218
440.761	31123
440.833	49004
440.905	29358
440.978	7595
441.050	5409
441.122	6725
441.194	6255
441.266	6501
441.338	5739
441.411	14743
441.483	78351
441.555	110885
441.627	34987
441.699	44962
441.771	51825
441.843	18507
441.915	6412
441.987	5037
442.059	6426
442.131	17947
442.203	33689
442.275	35529
442.347	23280
442.419	14544
442.491	32680
442.563	80700
442.635	80601
442.706	119445
442.778	81360
442.850	14208
442.922	8446
442.994	19160
443.066	32018
443.137	21746
443.209	12118
443.281	15995
443.353	35620
443.425	78792
443.496	129694
443.568	125188
443.640	62685
443.711	27973
443.783	14612
443.855	12201
443.926	7101
443.998	17463
444.070	31419
444.141	23060
444.213	26367
444.285	30815
444.356	47662
444.428	49815
444.499	14823
444.571	5226
444.642	5292
444.714	10468
444.785	22764
444.857	40951
444.928	116362
445.000	62528
445.071	84037
445.143	85698
445.214	32493
445.285	56191
445.357	168298
445.428	161932
445.500	265854
445.571	233541
445.642	98220
445.714	108281
445.785	145100
445.856	40260
445.928	29144
445.999	24706
446.070	20454
446.141	19418
446.213	28597
446.284	21965
446.355	33350
446.426	21767
446.497	17186
446.569	44318
446.640	53748
446.711	26940
446.782	16077
446.853	49512
446.924	35636
446.995	18077
447.066	21307
447.138	53311
447.209	22722
447.280	5989
447.351	5031
447.422	7802
447.493	23377
447.564	22824
447.635	25064
447.706	10986
447.777	5907
447.847	5147
447.918	9766
447.989	27940
448.060	35359
448.131	85118
448.202	60135
448.273	38080
448.344	17895
448.414	9404
448.485	8574
448.556	6820
448.627	5889
448.698	4419
448.768	5631
448.839	14516
448.910	47468
448.981	34952
449.051	10666
449.122	6827
449.193	5126
449.263	9443
449.334	8255
449.405	11853
449.475	32404
449.546	27633
449.616	52092
449.687	37116
449.758	11093
449.828	8633
449.899	5585
449.969	5019
450.040	7798
450.110	28375
450.181	32779
450.251	9545
450.322	6919
450.392	12587
450.463	9375
450.533	7565
450.604	9280
450.674	11027
450.744	7602
450.815	9029
450.885	8356
450.955	6157
451.026	6979
451.096	12540
451.166	18339
451.237	50156
451.307	118936
451.377	40309
451.447	9355
451.518	8150
451.588	10439
451.658	9898
451.728	24334
451.799	115089
451.869	119428
451.939	29238
452.009	9236
452.079	6772
452.149	10101
452.219	31698
452.289	131021
452.360	84713
452.430	17525
452.500	14275
452.570	16594
452.640	21538
452.710	74762
452.780	115663
452.850	61462
452.920	51222
452.990	20617
453.060	13018
453.129	21656
453.199	31187
453.269	98002
453.339	199163
453.409	300366
453.479	316568
453.549	451095
453.619	512114
453.688	196601
453.758	37418
453.828	16359
453.898	14924
453.968	12497
454.037	9496
454.087	9916
454.107	10097
454.168	7774
454.177	7440
454.247	7148
454.249	7176
454.316	7958
454.330	9640
454.386	16182
454.411	36317
454.456	70227
454.492	84283
454.525	97159
454.574	46899
454.595	25083
454.655	11696
454.665	9622
454.734	15279
454.736	15796
454.804	35994
454.817	51207
454.873	114199
454.898	122701
454.943	137861
454.979	101578
455.013	68988
455.060	35536
455.082	21117
455.141	20942
455.152	20448
455.221	73421
455.222	74127
455.291	132571
455.303	116714
455.360	45732
455.384	38145
455.430	25912
455.465	35859
455.499	43960
455.546	89165
455.569	109936
455.627	68632
455.638	61253
455.707	13731
455.708	13709
455.777	9716
455.789	9955
455.846	11273
455.869	10044
455.916	7753
455.950	9646
455.985	11257
456.031	11619
456.054	11803
456.112	7672
456.124	6985
456.193	6943
456.193	6927
456.262	11966
456.274	13756
456.332	21585
456.355	26399
456.401	34884
456.436	25413
456.470	16011
456.516	8939
456.540	5896
456.597	5027
456.609	4802
456.678	5409
456.678	5405
456.747	4362
456.759	4365
456.817	4672
456.840	4469
456.886	3947
456.920	4552
456.955	5524
457.001	5879
457.024	6533
457.082	12236
457.093	13291
457.162	25712
457.163	25773
457.232	47398
457.243	42857
457.301	18998
457.324	14089
457.370	6945
457.405	6489
457.439	6029
457.485	5325
457.508	5128
457.566	6823
457.577	7084
457.646	6813
457.647	6834
457.715	8997
457.727	9346
457.784	10995
457.808	12021
457.853	13576
457.889	16228
457.922	17915
457.969	15061
457.991	14776
458.050	16325
458.060	16400
458.129	21008
458.130	21150
458.198	23792
458.211	22394
458.267	16284
458.292	13009
458.336	9322
458.372	8906
458.405	9532
458.453	11606
458.474	13075
458.533	20465
458.543	21247
458.611	37064
458.614	37300
458.680	33644
458.694	29187
458.749	16528
458.775	13278
458.818	9117
458.855	8289
458.887	7800
458.936	7702
458.955	7663
459.016	10075
459.024	10344
459.093	8973
459.097	8943
459.162	8792
459.177	9144
459.230	10462
459.257	11281
459.299	12295
459.338	11927
459.368	11666
459.418	13807
459.437	13953
459.499	10447
459.505	10190
459.574	8009
459.579	7940
459.643	7909
459.659	7737
459.711	7098
459.740	7413
459.780	8325
459.820	9447
459.849	10074
459.900	12253
459.917	12676
459.981	13232
459.986	13187
460.054	8430
460.061	8130
460.123	7499
460.141	7718
460.191	8914
460.222	10045
460.260	11107
460.302	14117
460.328	14574
460.382	9882
460.397	9200
460.462	7562
460.465	7506
460.534	8554
460.543	8572
460.602	11806
460.623	13384
460.671	18186
460.703	22851
460.739	22718
460.783	21818
460.808	20612
460.864	10794
460.876	9829
460.944	9364
460.945	9348
461.013	9062
461.024	8869
461.081	8927
461.104	9500
461.150	9194
461.184	8571
461.218	8462
461.264	7662
461.286	7579
461.345	8592
461.355	8617
461.423	8494
461.425	8486
461.491	9681
461.505	10000
461.559	19420
461.585	24509
461.628	40217
461.665	59891
461.696	70417
461.745	104414
461.764	102762
461.825	38993
461.832	35699
461.901	13757
461.905	13618
461.969	12437
461.985	11953
462.037	11222
462.065	10792
462.105	11307
462.145	12630
462.173	19922
462.225	34518
462.241	37814
462.305	65210
462.310	64737
462.378	48938
462.385	43815
462.446	17037
462.465	13422
462.514	10270
462.545	10136
462.582	9955
462.625	9930
462.650	9958
462.705	10060
462.718	10433
462.785	12425
462.786	12576
462.854	21958
462.865	24224
462.922	32759
462.945	36855
462.990	32553
463.025	20701
463.058	14900
463.104	10715
463.126	9558
463.184	8971
463.194	9071
463.262	10126
463.264	10183
463.330	11294
463.344	11392
463.398	12442
463.424	13126
463.466	14344
463.504	16069
463.533	16274
463.583	15246
463.601	15689
463.663	16801
463.669	17120
463.737	22415
463.743	23091
463.805	40747
463.823	45257
463.873	68656
463.903	87065
463.940	96572
463.982	113565
464.008	101195
464.062	45246
464.076	39523
464.142	13983
464.144	13546
464.211	10692
464.221	10591
464.279	10944
464.301	11213
464.347	13304
464.381	14700
464.414	17420
464.461	21839
464.482	22617
464.540	27411
464.550	26614
464.617	14489
464.620	14080
464.685	13497
464.699	13929
464.753	14155
464.779	14200
464.820	14352
464.859	13967
464.888	15333
464.938	18611
464.956	19610
465.018	24605
465.023	24095
465.091	14693
465.098	13609
465.158	11920
465.177	11814
465.226	12156
465.257	12478
465.293	13085
465.336	13896
465.361	15173
465.416	17858
465.428	20126
465.495	33256
465.496	33491
465.563	64545
465.575	70477
465.631	86485
465.654	94350
465.698	62692
465.734	28532
465.765	20666
465.813	11700
465.833	10752
465.893	11232
465.900	11160
465.968	10677
465.972	10632
466.035	10521
466.052	10517
466.102	10870
466.131	11028
466.170	11019
466.210	10981
466.237	11075
466.290	11282
466.304	11507
466.369	12300
466.372	12339
466.439	13256
466.449	13351
466.506	14958
466.528	15585
466.573	25088
466.607	32230
466.641	54441
466.687	85548
466.708	95458
466.766	124959
466.775	115351
466.842	39903
466.845	36265
466.909	20675
466.925	17619
466.977	15707
467.004	14979
467.044	15005
467.083	15042
467.111	15170
467.163	15420
467.178	15600
467.242	16265
467.245	16303
467.312	16813
467.321	16867
467.379	19148
467.400	19925
467.446	23664
467.480	26311
467.559	23199
467.638	15240
467.717	17311
467.796	20027
467.875	21634
467.955	21761
468.034	35104
468.113	99350
468.192	144032
468.271	38138
468.350	14883
468.429	16470
468.508	16064
468.588	15896
468.667	17060
468.746	18414
468.825	18220
468.904	17065
468.983	22342
469.062	45001
469.141	56765
469.220	19138
469.299	16841
469.378	16255
469.456	14958
469.535	15397
469.614	15758
469.693	19345
469.772	32479
469.851	49697
469.930	33675
470.009	13911
470.088	13971
470.166	15307
470.245	18052
470.324	20772
470.403	15534
470.482	14983
470.560	13670
470.639	16108
470.718	17966
470.797	17164
470.875	21734
470.954	37723
471.033	43894
471.111	14823
471.190	11874
471.269	12899
471.347	12141
471.426	15082
471.505	17640
471.583	15682
471.662	13196
471.740	13851
471.819	12832
471.898	12831
471.976	13105
472.055	13388
472.133	18031
472.212	29650
472.290	34088
472.369	19371
472.447	13221
472.526	11949
472.604	13074
472.683	14436
472.761	16326
472.839	14180
472.918	14501
472.996	16406
473.075	22238
473.153	20747
473.231	15383
473.310	20632
473.388	20870
473.466	17838
473.545	16842
473.623	22706
473.701	21824
473.780	14589
473.858	12274
473.936	15968
474.014	12950
474.093	17835
474.171	35661
474.249	57068
474.327	38349
474.405	12698
474.484	12459
474.562	13495
474.640	13875
474.718	16109
474.796	15722
474.874	12913
474.952	10949
475.030	11269
475.108	12237
475.187	13416
475.265	15122
475.343	24491
475.421	28016
475.499	14908
475.577	15890
475.655	25581
475.733	66445
475.811	124926
475.889	115841
475.966	81251
476.044	18652
476.122	24558
476.200	30171
476.278	25953
476.356	17847
476.434	20359
476.512	24417
476.590	32649
476.667	28646
476.745	18320
476.823	18914
476.901	19574
476.979	21657
477.056	19765
477.134	19454
477.212	18981
477.290	17969
477.367	16260
477.445	16879
477.523	16957
477.601	17186
477.678	19319
477.756	26564
477.834	32008
477.911	19796
477.989	18752
478.066	18969
478.144	23503
478.222	25348
478.299	35285
478.377	33355
478.454	16180
478.532	16125
478.609	17325
478.687	18835
478.764	16938
478.842	16346
478.919	19163
478.997	19112
479.074	16001
479.152	25110
479.229	35011
479.307	23312
479.384	14625
479.461	15029
479.539	19663
479.616	24691
479.694	20331
479.771	22143
479.848	25782
479.926	37474
480.003	44653
480.080	17178
480.157	16889
480.235	16872
480.312	18307
480.389	22831
480.467	47392
480.544	62079
480.621	28973
480.698	22846
480.775	28556
480.853	30979
480.930	23424
481.007	23227
481.084	27148
481.161	27998
481.238	27350
481.315	20566
481.392	19371
481.470	19352
481.547	20526
481.624	19773
481.701	20141
481.778	21392
481.855	26088
481.932	41441
482.009	74592
482.086	57954
482.163	21221
482.240	26528
482.317	45627
482.393	39590
482.470	22298
482.547	23144
482.624	20305
482.701	21569
482.778	22256
482.855	15690
482.932	15922
483.009	16298
483.085	18948
483.162	22536
483.239	22345
483.316	17004
483.393	17366
483.469	17758
483.546	24020
483.623	29110
483.699	19161
483.776	20114
483.853	21893
483.930	31090
484.006	94382
484.083	164365
484.160	58315
484.236	30581
484.313	27838
484.389	26509
484.466	24601
484.543	21865
484.619	24638
484.696	26594
484.772	34471
484.849	42950
484.925	26638
485.002	24128
485.078	28317
485.155	29765
485.231	24739
485.308	24356
485.384	25960
485.461	38416
485.537	91578
485.614	123141
485.690	36007
485.766	23522
485.843	25832
485.919	38439
485.995	43700
486.072	23002
486.148	21379
486.224	20981
486.301	26148
486.377	35635
486.453	36797
486.530	27382
486.606	28259
486.682	32063
486.758	67144
486.835	93723
486.911	62188
486.987	116475
487.063	113192
487.139	104055
487.215	69679
487.292	30917
487.368	22236
487.444	28072
487.520	37740
487.596	29012
487.672	30137
487.748	61638
487.824	91047
487.900	37987
487.976	26531
488.052	33378
488.128	46199
488.204	36472
488.280	29403
488.356	34182
488.432	104637
488.508	183958
488.584	60184
488.660	24171
488.736	23598
488.812	24195
488.888	31203
488.964	40741
489.039	96424
489.115	159823
489.191	100466
489.267	29652
489.343	29424
489.418	20790
489.494	18706
489.570	17878
489.646	22028
489.722	21459
489.797	23779
489.873	46451
489.949	134670
490.024	132431
490.100	26536
490.176	19979
490.251	29317
490.327	36140
490.403	24197
490.478	17845
490.554	16841
490.629	16641
490.705	17516
490.781	20442
490.856	23972
490.932	25702
491.007	24596
491.083	24600
491.158	25247
491.234	34286
491.309	102313
491.385	125453
491.460	31214
491.536	30023
491.611	22198
491.686	24078
491.762	31596
491.837	68195
491.913	122521
491.988	174888
492.063	209065
492.139	86076
492.214	57140
492.289	19102
492.365	18756
492.440	23167
492.515	30246
492.590	27902
492.666	21519
492.741	32854
492.816	67274
492.891	38030
492.967	16678
493.042	16078
493.117	14587
493.192	14270
493.267	18574
493.342	26726
493.418	30416
493.493	15855
493.568	15614
493.643	16934
493.718	26927
493.793	52395
493.868	51601
493.943	25699
494.018	18573
494.093	19769
494.168	21017
494.243	15246
494.318	14347
494.393	14000
494.468	14485
494.543	13857
494.618	18795
494.693	17548
494.768	18778
494.842	19530
494.917	15309
494.992	14835
495.067	14419
495.142	13521
495.217	15371
495.292	16866
495.366	22477
495.441	29819
495.516	39794
495.591	45652
495.665	139363
495.740	337036
495.815	169431
495.890	38487
495.964	29165
496.039	30199
496.114	27142
496.188	27350
496.263	27044
496.338	28433
496.412	35260
496.487	42703
496.561	37552
496.636	38611
496.710	30132
496.785	35690
496.860	45601
496.934	31995
497.009	28927
497.083	26596
497.158	27767
497.232	37737
497.307	48699
497.381	33976
497.455	43222
497.530	69642
497.604	42250
497.679	36632
497.753	66752
497.827	90289
497.902	59002
497.976	58311
498.050	128235
498.125	526201
498.199	622674
498.273	108085
498.348	58516
498.422	43708
498.496	41215
498.570	41963
498.645	32098
498.719	34775
498.793	48391
498.867	88050
498.941	117560
499.016	223787
499.090	627592
499.164	297639
499.238	39727
499.312	30540
499.386	36137
499.460	38173
499.534	37071
499.609	42835
499.683	75177
499.757	75093
499.831	105602
499.905	424780
499.979	484004
500.053	116964
500.127	110871
500.201	60089
500.275	40639
500.349	36432
500.422	41453
500.496	56054
500.570	102554
500.644	254530
500.718	510759
500.792	164085
500.866	42601
500.940	58722
501.013	52981
501.087	41792
501.161	63838
501.235	93666
501.309	203755
501.382	505684
501.456	496648
501.530	123751
501.603	213140
501.677	106158
501.751	36282
501.825	40985
501.898	73178
501.972	234053
502.046	189641
502.119	45937
502.193	96609
502.266	258045
502.340	163182
502.413	115281
502.487	263168
502.561	188183
502.634	59985
502.708	32009
502.781	29347
502.855	24413
502.928	23112
503.002	24372
503.075	23969
503.149	28354
503.222	27633
503.295	31610
503.369	39218
503.442	50115
503.516	161075
503.589	470067
503.662	363053
503.736	106601
503.809	216659
503.882	204758
503.956	216214
504.029	230932
504.102	80192
504.175	70735
504.249	34315
504.322	37541
504.395	41149
504.468	26324
504.542	30108
504.615	21993
504.688	18181
504.761	19298
504.834	28228
504.907	27547
504.980	44035
505.053	29640
505.127	28740
505.200	39117
505.273	50939
505.346	36164
505.419	24383
505.492	22077
505.565	18122
505.638	16087
505.711	18291
505.784	19027
505.857	17318
505.930	20565
506.003	19593
506.076	22885
506.149	32714
506.221	47994
506.294	33996
506.367	77240
506.440	282130
506.513	199280
506.586	52096
506.659	31778
506.731	20810
506.804	25306
506.877	37742
506.950	32394
507.022	20349
507.095	31752
507.168	44733
507.241	23178
507.313	16281
507.386	18937
507.459	27900
507.531	19626
507.604	16155
507.677	18135
507.749	13296
507.822	18831
507.894	29102
507.967	28246
508.040	17145
508.112	15516
508.185	17549
508.257	15796
508.330	24249
508.402	18324
508.475	19547
508.547	21986
508.620	22648
508.692	46846
508.765	30132
508.837	14211
508.909	14790
508.982	14142
509.054	17405
509.127	14645
509.199	13801
509.271	12707
509.344	12285
509.416	12548
509.488	14846
509.560	15414
509.633	14703
509.705	17508
509.777	19550
509.849	25639
509.922	18564
509.994	14097
510.066	14508
510.138	11997
510.210	18269
510.283	16451
510.355	18601
510.427	14199
510.499	15411
510.571	16400
510.643	15047
510.715	25899
510.787	24392
510.859	17862
510.931	24459
511.003	27725
511.076	26030
511.148	15651
511.219	15804
511.291	36026
511.363	60145
511.435	18744
511.507	11869
511.579	13421
511.651	13656
511.723	12641
511.795	13745
511.867	15313
511.939	22325
512.010	68118
512.082	65339
512.154	17693
512.226	16399
512.298	15564
512.369	23825
512.441	20049
512.513	22465
512.585	16453
512.656	19747
512.728	23314
512.800	15972
512.871	14994
512.943	17919
513.015	11268
513.086	13538
513.158	16394
513.230	16779
513.301	25892
513.373	35505
513.444	18107
513.516	13315
513.588	13155
513.659	16895
513.731	21056
513.802	19424
513.874	37467
513.945	76131
514.016	28066
514.088	15802
514.159	15908
514.231	23651
514.302	24581
514.374	17636
514.445	21769
514.516	69308
514.588	63018
514.659	26399
514.730	65153
514.802	48664
514.873	15062
514.944	16690
515.016	15042
515.087	21278
515.158	36718
515.229	70701
515.301	21529
515.372	16530
515.443	13278
515.514	11168
515.585	10312
515.656	12260
515.728	12735
515.799	11232
515.870	13605
515.941	15355
516.012	13714
516.083	14860
516.154	17382
516.225	30261
516.296	25427
516.367	19871
516.438	21117
516.509	27580
516.580	35314
516.651	85475
516.722	308890
516.793	179128
516.864	50021
516.935	53907
517.006	50993
517.077	63490
517.148	115670
517.219	264077
517.289	393283
517.360	309215
517.431	157501
517.502	34213
517.573	29960
517.643	29412
517.714	29457
517.785	28498
517.856	30343
517.926	34550
517.997	35492
518.068	40752
518.138	47427
518.209	56749
518.280	156284
518.350	565519
518.421	206196
518.492	44062
518.562	36893
518.633	44650
518.703	35071
518.774	42893
518.845	73117
518.915	77260
518.986	43734
519.056	42523
519.127	68811
519.197	111862
519.268	295564
519.338	253171
519.408	61841
519.479	54102
519.549	42588
519.620	28886
519.690	24471
519.760	24104
519.831	24224
519.901	27241
519.971	20607
520.042	26183
520.112	36608
520.182	33691
520.253	33271
520.323	24957
520.393	23197
520.463	27884
520.534	24973
520.604	45815
520.674	34919
520.744	35441
520.814	46469
520.885	47735
520.955	83625
521.025	345425
521.095	188235
521.165	34426
521.235	31247
521.305	26575
521.375	22452
521.445	23137
521.515	29731
521.585	32354
521.655	33787
521.725	29923
521.795	29230
521.865	22622
521.935	42932
522.005	46926
522.075	24950
522.145	25679
522.215	31507
522.285	53835
522.355	71336
522.424	156317
522.494	149232
522.564	54303
522.634	63714
522.704	170470
522.774	83298
522.843	29229
522.913	24520
522.983	28923
523.053	24752
523.122	25427
523.192	29416
523.262	91275
523.331	108094
523.401	28892
523.471	17451
523.540	21195
523.610	16130
523.680	17824
523.749	19643
523.819	29470
523.888	35399
523.958	19325
524.027	21023
524.097	26602
524.166	22121
524.236	22007
524.305	24799
524.375	21432
524.444	18286
524.514	23650
524.583	23761
524.653	34136
524.722	40067
524.791	26192
524.861	21673
524.930	19491
524.999	20308
525.069	29914
525.138	30704
525.207	41458
525.277	26944
525.346	23027
525.415	21315
525.484	20803
525.554	31009
525.623	31222
525.692	20038
525.761	23557
525.830	22117
525.900	21178
525.969	32193
526.038	38758
526.107	39825
526.176	93629
526.245	82757
526.314	52198
526.383	73371
526.452	74745
526.522	120260
526.591	167636
526.660	109817
526.729	53071
526.797	45782
526.867	79644
526.935	335977
527.004	413210
527.073	197400
527.142	35216
527.211	23347
527.280	24785
527.349	28221
527.418	17151
527.487	18508
527.555	17606
527.624	16011
527.693	15075
527.762	17295
527.831	16206
527.899	17204
527.968	19245
528.037	17504
528.106	21890
528.174	38622
528.243	41922
528.312	54206
528.380	77180
528.449	28932
528.518	20181
528.586	13620
528.655	16174
528.723	15431
528.792	16266
528.861	19213
528.929	19767
528.998	16363
529.066	15218
529.135	14616
529.203	13772
529.272	14221
529.340	15666
529.409	18485
529.477	16451
529.545	26548
529.614	32883
529.682	29031
529.751	46673
529.819	33830
529.887	29107
529.956	14928
530.024	20172
530.092	14212
530.161	16353
530.229	27744
530.297	19771
530.365	15127
530.434	13889
530.502	13811
530.570	13676
530.638	13437
530.707	15868
530.775	18195
530.843	14819
530.911	14821
530.979	14561
531.047	14300
531.115	16577
531.183	15572
531.252	17472
531.320	18373
531.388	15817
531.456	15749
531.524	13421
531.592	15375
531.660	17842
531.728	15150
531.796	14732
531.864	14322
531.932	16628
532.000	15294
532.067	17330
532.135	16360
532.203	18754
532.271	19477
532.339	29877
532.407	80617
532.475	55679
532.542	25461
532.610	26545
532.678	30017
532.746	98079
532.814	291616
532.881	98370
532.949	23477
533.017	18809
533.084	17240
533.152	16794
533.220	16079
533.287	19306
533.355	15520
533.423	16585
533.490	14966
533.558	15597
533.625	17356
533.693	20147
533.761	18473
533.828	19026
533.896	16523
533.963	30345
534.031	37302
534.098	50847
534.166	31214
534.233	16247
534.300	16459
534.368	16732
534.435	15250
534.503	16016
534.570	14488
534.637	16098
534.705	16126
534.772	17663
534.840	18894
534.907	47347
534.974	59794
535.041	22684
535.109	31613
535.176	19910
535.243	14870
535.310	16713
535.378	15422
535.445	14523
535.512	12570
535.579	15581
535.646	14827
535.714	14784
535.781	15950
535.848	16647
535.915	18687
535.982	17878
536.049	16542
536.116	19151
536.183	17102
536.250	17802
536.317	18422
536.384	21342
536.451	30241
536.518	33945
536.585	23052
536.652	29643
536.719	40466
536.786	35547
536.853	25222
536.920	37270
536.987	64553
537.053	49428
537.120	141478
537.187	153439
537.254	24569
537.321	20311
537.388	20157
537.454	16809
537.521	15601
537.588	15839
537.654	17130
537.721	18467
537.788	18973
537.855	16069
537.921	16339
537.988	17834
538.055	17468
538.121	19283
538.188	18703
538.254	26854
538.321	56145
538.388	41453
538.454	19976
538.521	18145
538.587	15342
538.654	16125
538.720	16509
538.787	17794
538.853	18450
538.920	28041
538.986	31740
539.053	26267
539.119	23117
539.185	20813
539.252	22694
539.318	34158
539.385	27040
539.451	21298
539.517	21439
539.583	24875
539.650	48637
539.716	137953
539.782	51140
539.849	20761
539.915	20188
539.981	20341
540.047	23457
540.114	23276
540.180	24108
540.246	21691
540.312	27867
540.378	54645
540.444	61956
540.510	48232
540.576	137866
540.643	60994
540.709	20725
540.775	20334
540.841	19825
540.907	29099
540.973	45967
541.039	32832
541.105	37159
541.171	22381
541.237	19251
541.303	21027
541.369	23151
541.435	26322
541.500	49430
541.566	38289
541.632	19397
541.698	17927
541.764	17737
541.830	17868
541.896	18819
541.961	20102
542.027	18771
542.093	18543
542.159	18625
542.224	21119
542.290	28743
542.356	45653
542.421	63705
542.487	30046
542.553	22082
542.618	27547
542.684	23341
542.750	20899
542.815	25444
542.881	40100
542.947	122813
543.012	105145
543.078	22241
543.143	19812
543.209	21642
543.274	21460
543.340	22818
543.405	44340
543.471	81951
543.536	26551
543.602	19983
543.667	19313
543.732	18934
543.798	17603
543.863	19062
543.928	17148
543.994	15439
544.059	17449
544.124	15933
544.190	16876
544.255	17275
544.320	18474
544.386	19056
544.451	26188
544.516	33045
544.581	29042
544.646	72623
544.712	134228
544.777	35318
544.842	30129
544.907	38393
544.972	30422
545.037	26929
545.102	30573
545.168	31327
545.233	33217
545.298	32605
545.363	39747
545.428	38930
545.493	52532
545.558	114031
545.623	62798
545.688	33144
545.753	30004
545.818	28516
545.883	30694
545.947	29207
546.012	33649
546.077	39265
546.142	31932
546.207	28620
546.272	36819
546.337	39689
546.401	32445
546.466	28858
546.531	29519
546.596	32509
546.661	31601
546.725	30612
546.790	27057
546.855	29547
546.919	27284
546.984	29906
547.049	35579
547.113	42820
547.178	37388
547.243	37634
547.307	42529
547.372	48919
547.436	62502
547.501	41471
547.565	38396
547.630	42667
547.695	46735
547.759	62283
547.823	56520
547.888	34921
547.952	34523
548.017	35954
548.081	43588
548.146	68757
548.210	63151
548.274	37286
548.339	33227
548.403	32587
548.468	32105
548.532	31884
548.596	34059
548.660	33561
548.725	37290
548.789	49229
548.853	56143
548.917	40052
548.982	62936
549.046	74881
549.110	38047
549.174	34209
549.238	34812
549.303	31880
549.367	34271
549.431	34612
549.495	33292
549.559	33844
549.623	34438
549.687	40038
549.751	54963
549.815	47044
549.879	42948
549.943	37739
550.007	43589
550.071	44176
550.135	48899
550.199	46174
550.263	40631
550.327	46652
550.391	73602
550.455	51328
550.519	42172
550.582	42763
550.646	52616
550.710	58505
550.774	45253
550.838	44350
550.901	47435
550.965	49287
551.029	52105
551.093	59456
551.156	73072
551.220	146456
551.284	189447
551.347	84460
551.411	177000
551.475	248048
551.538	67827
551.602	44649
551.666	43364
551.729	39299
551.793	39923
551.856	40303
551.920	37979
551.983	37827
552.047	38565
552.110	37913
552.174	38113
552.237	37738
552.301	38751
552.364	36560
552.428	37416
552.491	37173
552.554	38124
552.618	39029
552.681	40018
552.745	40300
552.808	48049
552.871	50113
552.934	42058
552.998	40373
553.061	46987
553.124	39872
553.187	36509
553.251	38561
553.314	41729
553.377	38494
553.440	39423
553.503	43952
553.567	46177
553.630	38153
553.693	38831
553.756	41823
553.819	37475
553.882	38238
553.945	38233
554.008	36383
554.071	36310
554.134	37652
554.197	36303
554.260	33547
554.323	38379
554.386	39712
554.449	39125
554.512	38100
554.575	35859
554.638	40036
554.701	38892
554.764	35551
554.827	36741
554.889	33665
554.952	33138
555.015	33012
555.078	33150
555.141	34608
555.203	32553
555.266	32121
555.329	35997
555.391	32368
555.454	34009
555.517	35987
555.580	33593
555.642	29829
555.705	30666
555.768	31197
555.830	33399
555.893	29713
555.955	30420
556.018	32943
556.080	32033
556.143	31218
556.206	30976
556.268	36631
556.330	36944
556.393	34083
556.455	35172
556.518	58188
556.580	70320
556.643	32817
556.705	30822
556.767	30117
556.830	33393
556.892	33908
556.955	51512
557.017	39968
557.079	32788
557.142	29776
557.204	34455
557.266	61237
557.328	58834
557.391	32368
557.453	29361
557.515	30022
557.577	36226
557.639	37862
557.701	30215
557.764	28341
557.826	30316
557.888	33970
557.950	32382
558.012	30141
558.074	33653
558.136	47757
558.198	84249
558.260	49092
558.322	38432
558.384	34523
558.446	38343
558.508	41038
558.570	52880
558.632	74523
558.694	110791
558.756	75829
558.818	147763
558.880	355914
558.942	127823
559.003	91757
559.065	55922
559.127	36683
559.189	37063
559.251	39477
559.312	44140
559.374	77783
559.436	225280
559.498	126451
559.559	40671
559.621	37899
559.683	43872
559.744	65554
559.806	145772
559.868	186932
559.929	65440
559.991	50108
560.052	56460
560.114	93913
560.176	70825
560.237	64179
560.299	94917
560.360	45568
560.422	40149
560.483	38556
560.545	37771
560.606	37497
560.667	36840
560.729	36358
560.790	35720
560.852	35111
560.913	36361
560.974	34679
561.036	35128
561.097	35153
561.158	36310
561.220	36742
561.281	36389
561.342	37502
561.403	42263
561.465	46307
561.526	90908
561.587	126165
561.648	48465
561.709	37639
561.771	36083
561.832	35903
561.893	36390
561.954	34660
562.015	33855
562.076	35005
562.137	35766
562.198	35695
562.259	34780
562.320	34965
562.381	38450
562.442	49072
562.503	44592
562.564	34776
562.625	32871
562.686	33342
562.747	38514
562.808	36854
562.869	37297
562.930	49372
562.991	48867
563.051	43653
563.112	40427
563.173	38368
563.234	37762
563.294	36179
563.355	36855
563.416	37473
563.477	36229
563.537	38386
563.598	43426
563.659	39021
563.720	39572
563.780	38844
563.841	40942
563.901	38918
563.962	38136
564.023	37528
564.083	40405
564.144	40701
564.204	40638
564.265	41244
564.325	50344
564.386	101684
564.446	106486
564.507	40649
564.567	36560
564.628	36660
564.688	35226
564.749	36525
564.809	44321
564.869	59923
564.930	41530
564.990	34580
565.050	34193
565.111	32836
565.171	33106
565.231	33876
565.292	32083
565.352	32324
565.412	35926
565.472	35867
565.532	37233
565.593	34121
565.653	33788
565.713	35066
565.773	36439
565.833	40711
565.893	49681
565.953	37880
566.013	35646
566.074	38603
566.134	54064
566.194	96633
566.254	103034
566.314	61735
566.374	39239
566.434	37574
566.494	36701
566.554	33535
566.614	33594
566.673	34164
566.733	36871
566.793	37874
566.853	38726
566.913	35863
566.973	37222
567.033	39771
567.092	41757
567.152	37979
567.212	38918
567.272	40733
567.331	45254
567.391	41286
567.451	44269
567.511	64945
567.570	73652
567.630	38165
567.690	35003
567.749	33808
567.809	33685
567.868	36314
567.928	40331
567.988	44961
568.047	40709
568.107	35938
568.166	37581
568.226	41940
568.285	50113
568.345	42641
568.404	39593
568.464	39131
568.523	37862
568.582	39058
568.642	41212
568.701	43608
568.761	51083
568.820	64517
568.879	65455
568.939	73466
568.998	55955
569.057	39220
569.116	37425
569.176	33853
569.235	32192
569.294	32148
569.353	32118
569.413	33035
569.472	36213
569.531	32877
569.590	32562
569.649	31540
569.708	30942
569.767	32974
569.827	41632
569.886	37317
569.945	32226
570.004	32432
570.063	32948
570.122	35249
570.181	38936
570.240	47779
570.299	49519
570.358	43727
570.417	35238
570.475	29862
570.534	33513
570.593	33617
570.652	35450
570.711	38119
570.770	35066
570.829	40775
570.887	35072
570.946	36879
571.005	32250
571.064	31414
571.122	34079
571.181	43759
571.240	37015
571.299	32276
571.357	37818
571.416	41587
571.475	46601
571.533	52917
571.592	36663
571.650	42439
571.709	33120
571.768	32903
571.826	30103
571.885	29651
571.943	29893
572.002	32278
572.060	36952
572.119	30003
572.177	28016
572.236	26853
572.294	27222
572.352	27560
572.411	28279
572.469	27103
572.528	28074
572.586	27895
572.644	33524
572.703	41512
572.761	34790
572.819	30135
572.877	29121
572.936	27760
572.994	27866
573.052	27234
573.110	29393
573.169	28135
573.227	26529
573.285	26941
573.343	26602
573.401	28872
573.459	28017
573.517	26889
573.576	27612
573.634	27392
573.692	30473
573.750	28653
573.808	28703
573.866	33584
573.924	47666
573.982	48456
574.040	33298
574.098	28329
574.155	27466
574.213	23638
574.271	27084
574.329	26213
574.387	24268
574.445	25139
574.503	25718
574.560	22568
574.618	23898
574.676	23511
574.734	23747
574.792	24759
574.849	23731
574.907	23463
574.965	23021
575.022	22287
575.080	23618
575.138	24077
575.195	26888
575.253	26339
575.311	29351
575.368	25027
575.426	23749
575.483	24838
575.541	23822
575.598	24787
575.656	28391
575.713	27361
575.771	25000
575.828	24420
575.886	25526
575.943	28461
576.001	29656
576.058	29965
576.115	32871
576.173	39820
576.230	48163
576.287	44518
576.345	37908
576.402	30838
576.459	31972
576.517	33275
576.574	38779
576.631	44189
576.688	35341
576.746	31159
576.803	30374
576.860	27820
576.917	29428
576.974	28363
577.031	28714
577.089	29163
577.146	31074
577.203	29689
577.260	31813
577.317	35765
577.374	44825
577.431	41830
577.488	32635
577.545	28151
577.602	27527
577.659	28597
577.716	26869
577.773	26705
577.830	25666
577.886	27117
577.943	26951
578.000	27552
578.057	30940
578.114	29079
578.171	27722
578.227	28047
578.284	26349
578.341	28933
578.398	29474
578.454	32713
578.511	40787
578.568	48961
578.625	41067
578.681	30017
578.738	26115
578.794	27330
578.851	26734
578.908	25742
578.964	27593
579.021	27520
579.077	26740
579.134	25832
579.190	24547
579.247	24466
579.303	25564
579.360	24118
579.416	24223
579.473	23459
579.529	24371
579.586	24031
579.642	25024
579.698	27534
579.755	27859
579.811	25821
579.867	25643
579.924	24410
579.980	24355
580.036	25885
580.093	26040
580.149	25655
580.205	27828
580.261	27978
580.317	29945
580.374	34865
580.430	44212
580.486	39830
580.542	32425
580.598	28817
580.619	28834
580.654	28871
580.692	28371
580.710	28142
580.765	27735
580.767	27728
580.823	28446
580.838	28312
580.879	27995
580.911	27872
580.935	27810
580.984	26398
580.991	26214
581.047	27604
581.057	27778
581.103	28605
581.130	29062
581.159	29519
581.203	29809
581.215	29896
581.270	30156
581.276	30205
581.326	30630
581.349	30213
581.382	29598
581.422	30806
581.438	31312
581.494	32438
581.494	32432
581.550	31766
581.567	31836
581.606	31905
581.640	32081
581.661	32133
581.713	30439
581.717	30326
581.773	29187
581.786	29463
581.829	30327
581.859	30924
581.885	31416
581.932	30755
581.940	30616
581.996	31961
582.004	31807
582.052	30873
582.077	30256
582.107	29728
582.150	31184
582.163	31600
582.219	33258
582.223	33222
582.274	33125
582.296	34098
582.330	35194
582.368	36291
582.386	36614
582.441	31549
582.441	31538
582.497	30531
582.514	30822
582.552	31615
582.587	31071
582.608	30750
582.659	31470
582.663	31513
582.719	31317
582.732	31388
582.774	31830
582.805	32760
582.830	33331
582.877	33247
582.885	33227
582.941	31698
582.950	31706
582.996	31896
583.023	32202
583.052	32698
583.095	32760
583.107	32811
583.162	34828
583.168	35116
583.218	37150
583.240	36380
583.273	34827
583.313	34289
583.328	34445
583.384	35067
583.385	35108
583.439	35789
583.458	35521
583.494	34472
583.531	33263
583.549	33061
583.603	34152
583.605	34186
583.660	35393
583.676	35517
583.715	36054
583.748	37279
583.770	38143
583.820	39536
583.825	39540
583.881	38360
583.893	37906
583.936	37198
583.965	37367
583.991	37498
584.038	37792
584.046	37960
584.101	39972
584.110	39943
584.156	38784
584.183	38744
584.211	38555
584.255	36616
584.266	36289
584.321	36583
584.328	36680
584.376	38294
584.400	38903
584.431	39152
584.472	37543
584.486	37027
584.541	37843
584.545	37734
584.596	37070
584.617	38020
584.651	40714
584.689	42774
584.706	43007
584.761	43013
584.762	42983
584.816	42712
584.834	42495
584.871	42405
584.906	42692
584.926	43038
584.978	42733
584.980	42769
585.035	44304
585.051	44660
585.090	45823
585.123	46550
585.145	47201
585.195	49736
585.200	49919
585.254	49908
585.267	50140
585.309	51184
585.340	52219
585.364	53496
585.412	55421
585.419	55663
585.473	56117
585.484	56699
585.528	62171
585.556	67474
585.583	74181
585.628	89248
585.637	94354
585.692	144305
585.700	154084
585.747	193200
585.772	167526
585.801	122095
585.845	73526
585.856	66566
585.910	58748
585.917	58091
585.965	57007
585.989	56945
586.019	57105
586.061	56100
586.074	56248
586.128	58682
586.133	58906
586.183	64880
586.205	67270
586.237	68798
586.277	69440
586.292	69248
586.346	67705
586.349	67514
586.401	66880
586.421	67473
586.455	75208
586.493	85484
586.509	100259
586.564	153918
586.565	155438
586.618	257002
586.637	274906
586.672	203988
586.709	114510
586.727	94437
586.781	67408
586.781	67495
586.835	63095
586.853	61648
586.889	60806
586.925	60674
586.944	61001
586.996	61604
586.998	61774
587.052	64390
587.068	64824
587.106	64509
587.140	64159
587.161	64959
587.212	66675
587.215	66891
587.269	70101
587.284	70198
587.323	69466
587.356	68920
587.377	68855
587.427	69174
587.431	69388
587.485	69928
587.499	69777
587.539	70337
587.571	71528
587.593	72991
587.643	74982
587.648	75369
587.702	78246
587.715	78934
587.755	82015
587.786	83597
587.810	82101
587.858	76988
587.864	77409
587.917	82627
587.930	83674
587.971	92420
588.001	99164
588.025	97238
588.073	88655
588.079	88299
588.133	85142
588.145	84634
588.187	86677
588.217	88073
588.241	91358
588.288	97678
588.295	98439
588.348	104366
588.360	105471
588.402	111432
588.431	116045
588.456	121109
588.503	131433
588.510	133123
588.564	147114
588.575	150209
588.617	165179
588.646	176021
588.671	190132
588.718	220948
588.725	229939
588.778	310542
588.789	330687
588.832	505972
588.861	643166
588.886	851823
588.932	1285073
588.939	1314186
588.993	1441170
589.004	1435992
589.047	961238
589.075	630228
589.100	485943
589.147	280036
589.154	269779
589.207	218503
589.218	209606
589.261	203394
589.290	202596
589.314	209523
589.361	227718
589.368	237653
589.421	331258
589.433	355201
589.475	594085
589.504	783306
589.528	965742
589.576	1308884
589.582	1272900
589.635	785737
589.647	675276
589.689	392609
589.718	228556
589.742	204356
589.790	172393
589.795	176193
589.849	215561
589.861	226225
589.902	259141
589.932	276179
589.955	230780
590.004	128051
590.009	126099
590.062	110694
590.075	106636
590.115	104304
590.146	102262
590.168	103316
590.218	105159
590.222	105891
590.275	111874
590.289	113264
590.328	114477
590.360	113923
590.381	110941
590.431	102852
590.435	103240
590.488	105829
590.503	106112
590.541	106957
590.574	107354
590.594	106484
590.645	102414
590.647	102645
590.700	101199
590.716	100337
590.753	99839
590.787	98822
590.806	98910
590.859	98457
590.859	98740
590.912	97253
590.930	96457
590.965	97774
591.001	98565
591.018	99093
591.071	99817
591.072	99511
591.124	101633
591.143	101952
591.177	103450
591.214	104487
591.230	106244
591.283	111229
591.285	111058
591.336	116535
591.356	118302
591.389	117168
591.427	114398
591.442	113179
591.495	107633
591.498	106874
591.547	104780
591.569	103301
591.600	104299
591.640	104892
591.653	106653
591.706	112830
591.711	113097
591.759	131707
591.782	140764
591.811	151193
591.853	165055
591.864	158439
591.917	121056
591.924	115297
591.969	113921
591.995	112625
592.022	117025
592.066	123300
592.075	129720
592.127	166532
592.137	172861
592.180	201334
592.208	218237
592.233	188116
592.279	128498
592.285	127402
592.338	114990
592.350	111788
592.390	111281
592.421	110248
592.443	111376
592.491	112575
592.495	113020
592.548	113658
592.562	113441
592.600	113283
592.633	112381
592.653	112572
592.704	111427
592.705	112136
592.775	115469
592.846	114420
592.916	120080
592.987	129661
593.058	123288
593.128	113711
593.199	110526
593.270	106056
593.341	107827
593.411	111309
593.482	109469
593.553	106475
593.623	105541
593.694	118206
593.764	138775
593.835	113490
593.906	109222
593.976	114810
594.047	128480
594.117	173379
594.188	173758
594.258	106810
594.329	101675
594.399	106682
594.470	101206
594.540	99450
594.611	100010
594.681	101315
594.751	106599
594.822	108528
594.892	113644
594.963	121091
595.033	119651
595.103	123066
595.174	154038
595.244	276619
595.314	351252
595.384	135201
595.455	117396
595.525	121417
595.595	119764
595.665	123725
595.736	122372
595.806	117618
595.876	114946
595.946	113064
596.016	108216
596.087	114631
596.157	115386
596.227	114915
596.297	121371
596.367	128742
596.437	155485
596.507	251614
596.577	332753
596.647	144406
596.717	119323
596.787	118820
596.857	116698
596.927	118163
596.997	116613
597.067	113951
597.137	119569
597.207	115311
597.277	119179
597.347	119942
597.417	115777
597.487	117366
597.557	124858
597.626	126755
597.696	149476
597.766	217807
597.836	318844
597.906	157298
597.975	118900
598.045	117135
598.115	116577
598.185	116939
598.254	124157
598.324	126723
598.394	125578
598.464	129346
598.533	118265
598.603	112339
598.672	119162
598.742	116274
598.812	116786
598.881	114807
598.951	109796
599.020	107117
599.090	104172
599.159	107306
599.229	105104
599.299	101865
599.368	107619
599.437	104378
599.507	113875
599.576	122477
599.646	108883
599.715	108909
599.785	116934
599.854	142864
599.924	170377
599.993	140289
600.062	113804
600.132	110887
600.201	118486
600.270	126629
600.340	112673
600.409	107649
600.478	108816
600.547	109199
600.617	114887
600.686	112238
600.755	111139
600.824	114611
600.894	109431
600.963	100794
601.032	98596
601.101	103140
601.170	101829
601.239	109456
601.308	116703
601.378	108083
601.447	100376
601.516	97587
601.585	103222
601.654	119120
601.723	107607
601.792	106787
601.861	103602
601.930	108321
601.999	115381
602.068	102638
602.137	118122
602.206	110542
602.275	105590
602.343	125706
602.412	123907
602.481	99947
602.550	94955
602.619	95267
602.688	101325
602.756	96750
602.825	91335
602.894	94128
602.963	96332
603.032	96716
603.100	92321
603.169	93778
603.238	96966
603.307	93469
603.375	89050
603.444	93620
603.513	93028
603.581	90092
603.650	91511
603.719	91619
603.787	92216
603.856	95480
603.924	97211
603.993	95819
604.061	91699
604.130	96106
604.198	97774
604.267	94701
604.335	91076
604.404	92109
604.472	91552
604.541	93299
604.609	91287
604.678	89666
604.746	92600
604.815	93460
604.883	94602
604.951	93380
605.020	90757
605.088	97810
605.156	99083
605.225	95573
605.293	95120
605.361	96855
605.429	94370
605.498	99429
605.566	103601
605.634	100287
605.702	102115
605.771	101870
605.839	101734
605.907	101563
605.975	98101
606.043	98299
606.111	96874
606.180	96676
606.248	97171
606.316	103987
606.384	120732
606.452	160474
606.520	148237
606.588	110234
606.656	94835
606.724	98404
606.792	92364
606.860	88200
606.928	84239
606.996	84939
607.064	82774
607.132	85393
607.200	88418
607.267	88567
607.335	85055
607.403	86544
607.471	90259
607.539	87407
607.607	87103
607.674	86015
607.742	95104
607.810	98793
607.878	89098
607.946	83601
608.013	87426
608.081	92248
608.149	88867
608.216	86015
608.284	90116
608.352	92977
608.419	116121
608.487	195509
608.555	119528
608.622	84060
608.690	85473
608.757	90753
608.825	92054
608.893	99594
608.960	124318
609.028	162932
609.095	223819
609.163	115648
609.230	106151
609.298	96258
609.365	79475
609.432	84223
609.500	89135
609.567	95342
609.635	99008
609.702	102425
609.769	110362
609.837	138112
609.904	100082
609.971	81449
610.039	85643
610.106	100861
610.173	151026
610.241	260987
610.308	159564
610.375	94561
610.442	82925
610.509	79852
610.577	78773
610.644	82386
610.711	81719
610.778	82523
610.845	82175
610.912	84820
610.980	86739
611.047	90467
611.114	92883
611.181	86894
611.248	82194
611.315	87946
611.382	84485
611.449	85321
611.516	88473
611.583	90183
611.650	92339
611.717	94632
611.784	94455
611.851	98465
611.918	111574
611.984	115110
612.051	154798
612.118	251001
612.185	518357
612.252	298730
612.319	110795
612.386	100005
612.452	103784
612.519	135614
612.586	229275
612.653	138141
612.719	94725
612.786	90505
612.853	86499
612.919	86045
612.986	85381
613.053	81584
613.120	79138
613.186	79659
613.253	82354
613.319	79090
613.386	81150
613.453	86795
613.519	101227
613.586	126393
613.652	172281
613.719	141380
613.785	121020
613.852	88368
613.918	79598
613.985	78793
614.051	78800
614.118	85817
614.184	84869
614.250	76444
614.317	75680
614.383	76554
614.449	77538
614.516	83375
614.582	96273
614.648	83968
614.715	78412
614.781	81578
614.847	91391
614.914	100379
614.980	97555
615.046	82407
615.112	78446
615.179	77557
615.245	80071
615.311	82721
615.377	85852
615.443	89179
615.509	90420
615.575	91797
615.642	92702
615.708	100762
615.774	105533
615.840	116109
615.906	126658
615.972	133245
616.038	177347
616.104	320800
616.170	698407
616.236	532103
616.302	168755
616.368	139229
616.434	123525
616.500	123144
616.565	125007
616.631	133080
616.697	121240
616.763	123161
616.829	151839
616.895	209992
616.961	195123
617.026	132875
617.092	110913
617.158	107748
617.224	107106
617.289	109749
617.355	114190
617.421	123200
617.487	118228
617.552	108686
617.618	104484
617.684	105498
617.749	106181
617.815	101298
617.880	99446
617.946	100907
618.012	101446
618.077	100503
618.143	98744
618.208	101970
618.274	107829
618.339	112904
618.405	106984
618.470	111100
618.536	121757
618.601	144875
618.667	128849
618.732	116820
618.798	111612
618.863	110870
618.928	112645
618.994	124060
619.059	137600
619.124	178944
619.190	133721
619.255	119392
619.320	122590
619.386	117756
619.451	109628
619.516	110283
619.581	113015
619.647	112960
619.712	111756
619.777	111126
619.842	114100
619.907	118397
619.972	116339
620.038	117903
620.103	111829
620.168	107133
620.233	107265
620.298	108483
620.363	105823
620.428	107414
620.493	111446
620.558	105845
620.623	106405
620.688	105898
620.753	103398
620.818	106153
620.883	106898
620.948	106847
621.013	109373
621.078	115990
621.143	123761
621.207	128825
621.272	129574
621.337	139615
621.402	165361
621.467	244143
621.532	242888
621.596	165802
621.661	143806
621.726	133668
621.791	136902
621.855	143389
621.920	162447
621.985	192258
622.049	227725
622.114	205588
622.179	160483
622.243	167838
622.308	155502
622.373	155657
622.437	154092
622.502	145690
622.566	148016
622.631	152050
622.695	147250
622.760	149836
622.824	141862
622.889	147745
622.953	161159
623.018	217433
623.082	198917
623.147	147058
623.211	141108
623.276	146845
623.340	133109
623.404	129644
623.469	132964
623.533	131657
623.597	131585
623.662	130679
623.726	128328
623.790	126554
623.854	132170
623.919	130730
623.983	132133
624.047	134160
624.111	127442
624.176	131110
624.240	145524
624.304	151123
624.368	130527
624.432	129641
624.496	133476
624.560	141041
624.625	154019
624.689	127794
624.753	124365
624.817	123352
624.881	121715
624.945	119490
625.009	119939
625.073	120119
625.137	139445
625.201	158335
625.265	149149
625.329	124068
625.393	134671
625.456	129434
625.520	138382
625.584	159891
625.648	209848
625.712	375775
625.776	925815
625.839	954803
625.903	316025
625.967	192530
626.031	360106
626.095	558088
626.158	170842
626.222	113513
626.286	107671
626.349	109827
626.413	107703
626.477	119154
626.540	105335
626.604	108708
626.668	104382
626.731	105515
626.795	121214
626.858	116809
626.922	107966
626.986	102808
627.049	100264
627.113	101203
627.176	97274
627.240	98577
627.303	100628
627.366	102265
627.430	99073
627.493	104249
627.557	111652
627.620	104337
627.684	102761
627.747	103687
627.810	101594
627.874	98953
627.937	97926
628.000	104073
628.064	102344
628.127	92666
628.190	97438
628.253	97689
628.317	93561
628.380	95998
628.443	96269
628.506	98661
628.569	90212
628.632	90469
628.696	89499
628.759	89143
628.822	86056
628.885	86159
628.948	86731
629.011	90080
629.074	89544
629.137	83655
629.200	89439
629.263	98092
629.326	83215
629.389	84117
629.452	88261
629.515	96564
629.578	89937
629.641	96997
629.704	91631
629.767	92052
629.830	80792
629.892	83448
629.955	81360
630.018	88326
630.081	96008
630.144	112271
630.207	93509
630.269	101762
630.332	123844
630.395	95010
630.458	75521
630.520	79824
630.583	73385
630.646	74462
630.708	75676
630.771	77350
630.834	74053
630.896	72253
630.959	72016
631.021	76842
631.084	83099
631.146	101661
631.209	117215
631.272	78239
631.334	72262
631.397	72448
631.459	70426
631.522	72239
631.584	74057
631.646	74628
631.709	80729
631.771	108799
631.834	79763
631.896	69534
631.958	61895
632.021	66915
632.083	68282
632.145	72761
632.208	70015
632.270	69841
632.332	66438
632.395	67343
632.457	73062
632.519	69091
632.581	65693
632.643	65968
632.706	67629
632.768	65127
632.830	63977
632.892	62627
632.954	67029
633.016	68172
633.078	62828
633.141	61538
633.203	64983
633.265	66349
633.327	61570
633.389	65126
633.451	75932
633.513	91474
633.575	100342
633.637	88235
633.698	74339
633.760	64764
633.822	61083
633.884	62081
633.946	61630
634.008	62032
634.070	57114
634.132	59306
634.193	60283
634.255	61086
634.317	59788
634.379	62301
634.441	61207
634.502	60029
634.564	57281
634.626	55283
634.687	55886
634.749	59221
634.811	56251
634.873	53372
634.934	55090
634.996	59869
635.057	56599
635.119	56132
635.181	59442
635.242	59410
635.304	52546
635.365	57331
635.427	58619
635.488	57228
635.550	55875
635.611	57204
635.673	57348
635.734	63896
635.796	60695
635.857	63021
635.918	57868
635.980	60764
636.041	58257
636.102	60750
636.164	56968
636.225	55998
636.286	58145
636.348	58594
636.409	54283
636.470	54256
636.531	61075
636.593	85197
636.654	69260
636.715	51077
636.776	49755
636.838	49556
636.899	54622
636.960	53671
637.021	49004
637.082	51481
637.143	52149
637.204	47845
637.265	48320
637.326	47289
637.387	47462
637.448	46558
637.509	48182
637.570	48749
637.631	48003
637.692	46358
637.753	43883
637.814	46505
637.875	45459
637.936	47308
637.997	48786
638.058	53410
638.119	59100
638.179	50482
638.240	47665
638.301	47594
638.362	49780
638.423	52039
638.483	48464
638.544	44683
638.605	46103
638.666	44178
638.726	47799
638.787	44042
638.848	44595
638.908	42957
638.969	44649
639.030	47234
639.090	42532
639.151	45084
639.211	49421
639.272	64069
639.332	97023
639.393	56035
639.453	46822
639.514	47778
639.574	43831
639.635	41992
639.695	46154
639.756	45130
639.816	48016
639.877	57529
639.937	93612
639.997	111096
640.058	49324
640.118	42483
640.178	41177
640.239	39070
640.299	39801
640.359	39865
640.420	40007
640.480	40455
640.540	39727
640.600	39705
640.661	43393
640.721	44874
640.781	54033
640.841	42611
640.901	43200
640.961	44176
641.021	46930
641.082	52285
641.142	74956
641.202	49059
641.262	39100
641.322	40224
641.382	39821
641.442	41403
641.502	40979
641.562	40874
641.622	39212
641.682	41282
641.742	39423
641.802	43498
641.861	47768
641.921	51708
641.981	52930
642.041	53179
642.101	62390
642.161	42276
642.221	39710
642.280	37309
642.340	36907
642.400	37635
642.460	39044
642.519	39487
642.579	37865
642.639	41078
642.698	35652
642.758	38633
642.818	39025
642.877	39725
642.937	43109
642.997	48755
643.056	66231
643.116	42874
643.175	39294
643.235	36685
643.294	37686
643.354	38403
643.414	37200
643.473	39652
643.532	40315
643.592	43375
643.651	51593
643.711	70297
643.770	112765
643.830	238338
643.889	433378
643.948	104254
644.008	43935
644.067	37778
644.126	35273
644.186	35685
644.245	33694
644.304	30648
644.363	35970
644.423	31725
644.482	35021
644.541	34516
644.600	31772
644.659	36351
644.719	37903
644.778	47026
644.837	50728
644.896	70909
644.955	112165
645.014	54106
645.073	37752
645.132	39117
645.191	37999
645.250	33455
645.309	37707
645.368	34976
645.427	36977
645.486	39932
645.545	45080
645.604	33729
645.663	33203
645.722	34533
645.781	33371
645.840	34112
645.898	34743
645.957	41210
646.016	43721
646.075	62460
646.134	95255
646.192	228542
646.251	285223
646.310	58058
646.369	36779
646.427	33370
646.486	32509
646.545	33081
646.603	31750
646.662	32645
646.721	31588
646.779	28881
646.838	30678
646.896	33174
646.955	33325
647.014	37821
647.072	44820
647.131	74705
647.189	44012
647.248	30341
647.306	29335
647.365	30221
647.423	26747
647.481	30545
647.540	27787
647.598	29945
647.657	27673
647.715	30643
647.773	28983
647.832	30300
647.890	31416
647.948	32770
648.007	32075
648.065	29767
648.123	30551
648.181	32682
648.240	30270
648.298	29665
648.356	32088
648.414	33706
648.472	32587
648.531	33121
648.589	31056
648.647	29731
648.705	31244
648.763	32066
648.821	30942
648.879	30500
648.937	32088
648.995	33508
649.053	33708
649.111	39447
649.169	44959
649.227	56149
649.285	84795
649.343	190901
649.401	111049
649.459	114435
649.516	68141
649.574	36250
649.632	38558
649.690	39976
649.748	44148
649.806	36045
649.863	40102
649.921	60902
649.979	43771
650.037	29400
650.094	28593
650.152	29800
650.210	26716
650.268	29418
650.325	27834
650.383	26395
650.440	26951
650.498	30165
650.556	29464
650.613	25800
650.671	27840
650.728	32246
650.786	37456
650.843	29721
650.901	26127
650.958	26989
651.016	25170
651.073	27475
651.131	27546
651.188	28952
651.246	31140
651.303	27948
651.360	26873
651.418	27621
651.475	27468
651.532	24111
651.590	26666
651.647	27015
651.704	29347
651.762	27913
651.819	27575
651.876	26929
651.933	26745
651.990	27450
652.048	25434
652.105	26977
652.162	27365
652.219	24753
652.276	24731
652.333	24722
652.390	23825
652.448	24128
652.505	24891
652.562	25174
652.619	23101
652.676	24327
652.733	24234
652.790	23194
652.847	20767
652.904	23559
652.961	23568
653.017	22917
653.074	23344
653.131	24524
653.188	22974
653.245	24009
653.302	23555
653.359	23196
653.415	23259
653.472	24351
653.529	23734
653.586	25245
653.642	24078
653.699	21357
653.756	22917
653.813	22491
653.869	21661
653.926	21846
653.983	22182
654.039	21965
654.096	24734
654.152	25721
654.209	25890
654.266	29536
654.322	28775
654.379	33600
654.435	35991
654.492	41289
654.548	60299
654.605	93548
654.661	36798
654.717	30018
654.774	32294
654.830	30293
654.887	28349
654.943	30013
655.000	27440
655.056	27375
655.112	29920
655.168	29513
655.225	31903
655.281	40738
655.337	61322
655.394	112561
655.450	70927
655.506	63122
655.562	115396
655.618	72726
655.675	30313
655.731	29004
655.787	26497
655.843	27965
655.899	26043
655.955	27657
656.011	27346
656.067	23322
656.123	26627
656.179	28249
656.235	28746
656.291	25576
656.347	29201
656.403	31331
656.459	33900
656.515	43358
656.571	40603
656.627	31800
656.683	28157
656.739	27888
656.795	25567
656.850	29749
656.906	33149
656.962	27408
657.018	23903
657.074	25630
657.129	26239
657.185	26962
657.241	29317
657.297	26233
657.352	25974
657.408	25537
657.464	33856
657.519	30355
657.575	23650
657.630	24415
657.686	24374
657.742	25875
657.797	25064
657.853	26242
657.908	26551
657.964	23605
658.019	24535
658.075	27056
658.130	25901
658.186	23015
658.241	23848
658.297	24385
658.352	24985
658.407	25237
658.463	23521
658.518	26506
658.573	24518
658.629	22822
658.684	22565
658.739	21901
658.795	20381
658.850	22509
658.905	22935
658.960	22819
659.016	22531
659.071	25088
659.126	25686
659.181	28547
659.236	41019
659.291	41501
659.346	30590
659.401	28792
659.457	24138
659.512	24164
659.567	24996
659.622	24275
659.677	25094
659.732	27021
659.787	28931
659.842	39363
659.897	50943
659.952	28389
660.007	24845
660.061	26434
660.116	27660
660.171	24080
660.226	22768
660.281	23629
660.336	22173
660.391	24148
660.445	23839
660.500	24741
660.555	25155
660.610	24459
660.664	24581
660.719	23686
660.774	24368
660.828	24571
660.883	24876
660.938	24997
660.992	24202
661.047	24109
661.101	23170
661.156	23146
661.211	22672
661.265	23515
661.320	22781
661.374	23613
661.429	22314
661.483	25351
661.538	24331
661.592	24668
661.647	23910
661.701	23602
661.755	24163
661.810	26554
661.864	24962
661.919	23163
661.973	25725
662.027	25190
662.081	23644
662.136	25355
662.190	28541
662.244	30637
662.299	25923
662.353	24612
662.407	24373
662.461	27885
662.515	26773
662.569	28469
662.624	27253
662.678	27216
662.732	26706
662.786	28304
662.840	28889
662.894	28389
662.948	24505
663.002	23338
663.056	24706
663.110	23488
663.164	25307
663.218	23712
663.272	25517
663.326	26942
663.380	29097
663.434	28919
663.488	27752
663.542	27927
663.595	27738
663.649	27230
663.703	25689
663.757	27416
663.811	24476
663.864	24775
663.918	25571
663.972	24765
664.026	24467
664.079	25559
664.133	25897
664.187	24333
664.240	22975
664.294	23981
664.348	25251
664.401	24896
664.455	23865
664.508	24625
664.562	25721
664.615	24754
664.669	23858
664.722	25256
664.776	25137
664.829	25842
664.883	25804
664.936	28212
664.990	28746
665.043	30610
665.097	33219
665.150	35577
665.203	30030
665.257	29042
665.310	29190
665.363	30422
665.417	30868
665.470	29238
665.523	28464
665.576	29067
665.630	27862
665.683	28452
665.736	30031
665.789	30169
665.842	28235
665.895	28499
665.949	27971
666.002	27142
666.055	28396
666.108	30919
666.161	29368
666.214	31018
666.267	30943
666.320	33627
666.373	30280
666.426	31909
666.479	33015
666.532	40658
666.585	47834
666.638	50484
666.691	44172
666.744	48539
666.796	49790
666.849	42698
666.902	32632
666.955	29511
667.008	27551
667.060	26048
667.113	25222
667.166	25651
667.219	26355
667.271	27920
667.324	26016
667.377	27272
667.430	25584
667.482	27159
667.535	26740
667.587	30388
667.640	31940
667.693	40966
667.745	50341
667.798	49585
667.850	33144
667.903	29555
667.955	30306
668.008	31062
668.060	36507
668.113	34919
668.165	36401
668.218	35030
668.270	32541
668.322	32360
668.375	31163
668.427	32246
668.479	29035
668.532	32655
668.584	32812
668.636	30241
668.689	31198
668.741	31648
668.793	30575
668.845	31568
668.898	32575
668.950	30283
669.002	32406
669.054	32642
669.106	31801
669.158	32280
669.211	29922
669.263	30207
669.315	33015
669.367	30833
669.419	30704
669.471	31687
669.523	29213
669.575	30767
669.627	30809
669.679	28372
669.731	28258
669.783	28112
669.835	28515
669.886	28708
669.938	29086
669.990	29750
670.042	26869
670.094	27384
670.146	27620
670.197	28083
670.249	29096
670.301	28706
670.353	29114
670.404	29780
670.456	30923
670.508	31949
670.560	36549
670.611	42628
670.663	52812
670.715	95767
670.766	119296
670.818	44383
670.869	28443
670.921	27591
670.972	29699
671.024	27858
671.075	29178
671.127	29083
671.178	27389
671.230	28882
671.281	28786
671.333	30410
671.384	33910
671.436	34584
671.487	35943
671.538	36052
671.590	39505
671.641	46205
671.692	47051
671.744	59633
671.795	47713
671.846	35920
671.897	35824
671.949	36245
672.000	32514
672.051	33499
672.102	34006
672.153	32159
672.204	31879
672.256	33016
672.307	32023
672.358	35232
672.409	33127
672.460	29181
672.511	29780
672.562	32410
672.613	31221
672.664	30852
672.715	30893
672.766	30490
672.817	29869
672.868	30098
672.919	29174
672.970	30539
673.021	31295
673.071	30334
673.122	28886
673.173	29667
673.224	29505
673.275	30007
673.326	28628
673.376	29032
673.427	28482
673.478	28645
673.528	28305
673.579	29046
673.630	28864
673.680	30689
673.731	26676
673.782	27040
673.832	30305
673.883	31385
673.934	29781
673.984	27783
674.035	29516
674.085	29684
674.136	33917
674.186	38068
674.237	50193
674.287	72388
674.338	36917
674.388	30893
674.438	29887
674.489	32503
674.539	33149
674.589	33113
674.640	31071
674.690	30462
674.740	34409
674.791	35304
674.841	32592
674.891	31942
674.942	29678
674.992	29799
675.042	26667
675.092	26350
675.142	27753
675.193	27473
675.243	27060
675.293	29286
675.343	29641
675.393	30529
675.443	28569
675.493	25712
675.543	27583
675.593	30368
675.643	26964
675.693	27722
675.743	28096
675.793	26643
675.843	26774
675.893	27115
675.943	25796
675.993	25969
676.043	27208
676.093	26603
676.142	26025
676.192	27970
676.242	26640
676.292	26110
676.341	31344
676.391	30981
676.441	25848
676.491	25887
676.540	24815
676.590	24065
676.640	26594
676.689	25129
676.739	24858
676.789	22405
676.838	24638
676.888	23521
676.937	25168
676.987	24113
677.037	23539
677.086	21671
677.136	24761
677.185	23765
677.235	21492
677.284	23992
677.333	23245
677.383	22509
677.432	22040
677.482	23505
677.531	24956
677.580	26789
677.630	22464
677.679	22147
677.728	23731
677.778	22464
677.827	21237
677.876	22429
677.925	22079
677.975	22635
678.024	23311
678.073	23807
678.122	26658
678.171	26701
678.220	25886
678.269	28844
678.319	28519
678.368	26023
678.417	26858
678.466	26975
678.515	28902
678.564	28032
678.613	25141
678.662	25949
678.711	26203
678.760	25359
678.809	24850
678.857	25958
678.906	25562
678.955	25862
679.004	25583
679.053	25638
679.102	24966
679.151	27018
679.199	24169
679.248	23934
679.297	28015
679.346	27352
679.394	25700
679.443	24251
679.492	24454
679.540	25298
679.589	26001
679.638	24154
679.686	21666
679.735	23527
679.784	25459
679.832	25038
679.881	21499
679.929	22923
679.978	21503
680.026	22592
680.075	24225
680.123	23266
680.172	22302
680.220	21165
680.268	22645
680.317	21724
680.365	21783
680.414	21237
680.462	22262
680.510	22676
680.559	20278
680.607	21044
680.655	21618
680.703	22678
680.752	21510
680.800	19964
680.848	19657
680.896	20128
680.945	21498
680.993	23110
681.041	21201
681.089	20743
681.137	18346
681.185	20363
681.233	21076
681.258	20840
681.281	20521
681.329	20546
681.377	20576
681.380	20775
681.425	22592
681.473	24897
681.502	24314
681.521	23711
681.569	23492
681.617	22600
681.624	22768
681.665	23105
681.713	23134
681.745	23254
681.761	23173
681.809	23211
681.857	23411
681.867	23233
681.904	22219
681.952	24049
681.989	24525
682.000	24539
682.048	23433
682.096	22801
682.111	23055
682.143	23241
682.191	22456
682.233	24991
682.239	25281
682.286	24519
682.334	23773
682.354	23712
682.382	23451
682.430	25750
682.476	25318
682.477	25224
682.525	24572
682.572	24788
682.598	24527
682.620	24181
682.667	24755
682.715	26533
682.720	26559
682.763	25923
682.810	25431
682.841	25695
682.857	25675
682.905	24940
682.952	25983
682.963	26238
683.000	26775
683.047	26905
683.085	26905
683.095	26806
683.142	25252
683.190	25946
683.206	25960
683.237	25868
683.284	26413
683.328	27198
683.332	27182
683.379	26273
683.426	26124
683.449	26206
683.473	26151
683.521	26107
683.568	27228
683.571	27218
683.615	26196
683.662	27870
683.693	27938
683.709	27907
683.757	26467
683.804	27784
683.814	28046
683.851	28723
683.898	27627
683.936	27836
683.945	27822
683.992	29563
684.039	29785
684.057	29867
684.086	29791
684.133	30363
684.179	30848
684.180	30789
684.227	31073
684.274	30414
684.300	30845
684.321	31169
684.368	29469
684.415	31112
684.422	30938
684.462	29231
684.509	28790
684.543	29005
684.556	29131
684.603	28414
684.649	28968
684.665	29132
684.696	29586
684.743	30180
684.786	32999
684.790	33259
684.837	33480
684.883	37659
684.908	38977
684.930	39272
684.977	39095
685.023	35660
685.029	35615
685.070	34506
685.117	34102
685.150	35168
685.164	36050
685.210	38334
685.257	39662
685.272	39652
685.303	38423
685.350	37339
685.393	38334
685.396	38460
685.443	38841
685.490	41451
685.514	41753
685.536	41282
685.583	38562
685.629	38263
685.636	38242
685.675	38272
685.722	37521
685.757	38969
685.768	39534
685.815	39583
685.861	38963
685.878	39415
685.908	40543
685.954	42519
686.000	46203
686.000	46287
686.047	51561
686.093	63128
686.121	62315
686.139	58021
686.185	49498
686.232	44192
686.242	43261
686.278	42224
686.324	40032
686.363	36619
686.370	36271
686.416	38014
686.463	39222
686.484	38571
686.509	37744
686.555	37812
686.601	37497
686.606	37533
686.647	38059
686.693	38101
686.727	38268
686.739	38300
686.785	38145
686.831	38679
686.848	38551
686.877	37825
686.923	37384
686.969	36396
686.969	36395
687.015	38195
687.061	39159
687.090	40075
687.107	40069
687.153	39407
687.199	38436
687.211	38238
687.245	39104
687.291	41923
687.332	45247
687.336	45442
687.382	45019
687.428	42454
687.453	42294
687.474	41296
687.520	39329
687.565	37388
687.574	36944
687.611	36971
687.657	37340
687.695	38083
687.702	38331
687.748	38953
687.794	39974
687.816	40435
687.839	40002
687.885	38804
687.931	37315
687.937	37244
687.976	38384
688.022	39634
688.058	40546
688.067	40583
688.113	40003
688.158	39384
688.179	39296
688.204	39602
688.249	40074
688.295	41708
688.300	41852
688.340	43261
688.386	44047
688.421	43541
688.431	43128
688.477	42287
688.522	42437
688.542	41878
688.567	41457
688.613	41783
688.658	40737
688.663	40738
688.703	41679
688.749	42410
688.784	42619
688.794	42450
688.839	41840
688.884	41079
688.905	40458
688.930	40209
688.975	40616
689.020	42363
689.026	42274
689.065	41885
689.110	41343
689.146	41628
689.155	41554
689.201	40380
689.246	39754
689.267	39481
689.291	40072
689.336	40892
689.381	42530
689.388	42522
689.426	41684
689.471	41403
689.509	40776
689.516	40694
689.561	39924
689.606	39816
689.630	39721
689.651	40254
689.696	41104
689.741	41934
689.750	42130
689.785	41992
689.830	40927
689.871	40031
689.875	39997
689.920	39678
689.965	39441
689.992	39110
690.010	39309
690.054	40090
690.099	40823
690.112	40911
690.144	40812
690.189	40353
690.233	39706
690.233	39745
690.278	40151
690.323	39062
690.354	39155
690.367	39570
690.412	40301
690.457	41880
690.474	42092
690.501	41512
690.546	39581
690.590	38501
690.595	38380
690.635	38880
690.680	39274
690.716	39772
690.724	39953
690.769	40253
690.813	40880
690.836	40332
690.857	39796
690.902	40438
690.946	40697
690.957	40631
690.991	41383
691.035	42827
691.077	43589
691.080	43744
691.124	46108
691.168	48764
691.198	50133
691.213	50589
691.257	52609
691.301	52611
691.318	52667
691.346	49889
691.390	45657
691.434	41604
691.439	41171
691.478	42732
691.522	44480
691.559	45151
691.567	45188
691.611	45663
691.655	45119
691.680	45234
691.699	45291
691.743	45702
691.787	45269
691.800	45147
691.831	46341
691.875	48165
691.919	49953
691.921	49931
691.964	51151
692.008	52626
692.041	53091
692.052	52989
692.096	52764
692.139	52640
692.162	51783
692.183	50775
692.227	50614
692.271	49629
692.282	49205
692.315	48912
692.359	48961
692.402	49033
692.403	49114
692.447	49116
692.490	49388
692.523	50357
692.534	50911
692.578	51426
692.622	51647
692.643	51817
692.666	50943
692.709	49292
692.753	47705
692.763	47213
692.797	46783
692.840	45954
692.884	45437
692.884	45523
692.928	46664
692.971	47981
693.004	48886
693.015	49003
693.059	48759
693.102	48193
693.124	48052
693.146	48920
693.189	50683
693.233	53001
693.245	53395
693.276	53778
693.320	53372
693.363	53658
693.365	53583
693.407	53373
693.450	52861
693.485	52068
693.493	52301
693.537	53527
693.580	54269
693.605	54638
693.624	53849
693.667	51594
693.710	49647
693.725	48993
693.753	50529
693.797	52526
693.840	54004
693.845	54170
693.883	53046
693.926	51136
693.966	49631
693.970	49566
694.013	47654
694.056	45707
694.086	44750
694.099	45812
694.142	48614
694.185	51120
694.206	52231
694.229	53365
694.272	55548
694.315	58349
694.326	58603
694.358	57294
694.401	55763
694.444	54519
694.446	54347
694.487	53703
694.530	52923
694.566	52234
694.573	51877
694.616	48561
694.659	45342
694.686	43545
694.702	43585
694.745	43093
694.787	42398
694.806	42296
694.830	43284
694.873	44583
694.916	45758
694.926	45868
694.959	45601
695.002	45717
695.044	45584
695.046	45493
695.087	46225
695.130	46726
695.166	47123
695.172	47233
695.215	47006
695.258	47174
695.286	47102
695.301	47100
695.343	46638
695.386	46358
695.406	45997
695.428	45556
695.471	44680
695.514	44006
695.526	43665
695.556	44169
695.599	44976
695.641	45480
695.646	45469
695.684	45368
695.726	44816
695.766	44572
695.769	44720
695.811	45343
695.854	45907
695.886	46242
695.896	46022
695.938	44577
695.981	43061
696.005	42202
696.023	42928
696.065	44415
696.108	46400
696.125	46951
696.150	47231
696.192	47399
696.235	47562
696.245	47510
696.277	46365
696.319	44564
696.361	43008
696.365	42781
696.404	43273
696.446	43602
696.485	43822
696.488	43956
696.530	44411
696.572	44964
696.604	45289
696.614	45134
696.656	43842
696.698	42498
696.724	41710
696.740	41930
696.783	42203
696.825	42460
696.844	42461
696.867	43051
696.909	44131
696.951	45033
696.964	45189
696.992	44281
697.034	42956
697.076	41642
697.083	41324
697.118	42287
697.160	43224
697.202	44263
697.203	44187
697.244	43834
697.286	43481
697.323	42889
697.327	42947
697.369	42612
697.411	42397
697.442	42212
697.453	42662
697.494	43924
697.536	45221
697.562	45903
697.578	45842
697.620	45398
697.661	44926
697.682	44648
697.703	45490
697.744	46769
697.786	48336
697.801	48716
697.828	48797
697.869	48674
697.911	48611
697.921	48498
697.952	47732
697.994	46549
698.035	45319
698.040	45056
698.077	44180
698.118	43156
698.160	42080
698.160	41973
698.201	42724
698.243	43458
698.279	43974
698.284	44092
698.325	44202
698.367	44298
698.399	44227
698.408	44060
698.449	42848
698.491	41625
698.518	40703
698.532	41137
698.573	42165
698.614	43210
698.638	43663
698.656	44045
698.697	44747
698.738	45421
698.757	45631
698.779	46037
698.820	46572
698.862	47123
698.877	47216
698.903	48645
698.944	50727
698.985	52810
698.996	53260
699.026	51842
699.067	49689
699.116	47006
699.235	44297
699.354	43668
699.474	47916
699.593	62473
699.713	54313
699.832	47190
699.951	47655
700.070	43338
700.190	42119
700.309	47610
700.428	57329
700.547	46630
700.667	46570
700.786	58817
700.905	43878
701.024	53529
701.143	46255
701.262	37395
701.381	38935
701.500	43404
701.619	44088
701.738	38145
701.857	36369
701.976	36684
702.095	35824
702.214	44010
702.333	42631
702.452	39830
702.571	35192
702.690	36975
702.809	34657
702.928	33969
703.047	37207
703.165	35093
703.284	34732
703.403	36696
703.522	50834
703.640	45485
703.759	66566
703.878	101643
703.997	42756
704.115	38119
704.234	36833
704.353	33378
704.471	32507
704.590	30690
704.708	30065
704.827	31965
704.946	38573
705.064	45790
705.183	37702
705.301	54642
705.420	84307
705.538	68245
705.656	53708
705.775	47878
705.893	56553
706.012	61041
706.130	58135
706.249	59065
706.367	63510
706.485	68003
706.604	63159
706.722	65643
706.840	81764
706.958	69318
707.077	55228
707.195	53271
707.313	51327
707.431	50974
707.549	51823
707.668	54003
707.786	55237
707.904	51023
708.022	48923
708.140	47581
708.258	47646
708.376	49955
708.494	48906
708.612	58785
708.730	96151
708.848	84772
708.966	75385
709.084	68692
709.202	66618
709.320	70531
709.438	72889
709.556	72721
709.674	70423
709.791	69413
709.909	68329
710.027	67508
710.145	65612
710.263	69242
710.380	70749
710.498	66638
710.616	67488
710.733	70716
710.851	76741
710.969	76222
711.086	68887
711.204	66011
711.322	69046
711.439	72342
711.557	75090
711.674	68009
711.792	68520
711.909	62316
712.027	59789
712.144	60547
712.262	64406
712.379	80906
712.497	118032
712.614	107137
712.732	87945
712.849	83749
712.966	98389
713.084	112604
713.201	92106
713.318	89891
713.436	83979
713.553	86810
713.670	89515
713.787	103622
713.905	100562
714.022	82599
714.139	81749
714.256	85589
714.373	92624
714.490	104554
714.608	165056
714.725	503951
714.842	429100
714.959	91081
715.076	78149
715.193	72593
715.310	68517
715.427	69383
715.544	66616
715.661	69563
715.778	72205
715.895	80344
716.011	80747
716.128	69956
716.245	72130
716.362	78099
716.479	80674
716.596	66992
716.713	67285
716.829	65347
716.946	65323
717.063	61625
717.180	61891
717.296	61449
717.413	62480
717.530	61605
717.646	59260
717.763	60339
717.880	57344
717.996	59262
718.113	59791
718.229	60604
718.346	54598
718.462	59124
718.579	73154
718.695	111835
718.812	100056
718.928	109272
719.045	66010
719.161	53654
719.277	50202
719.394	50893
719.510	56973
719.626	56508
719.743	70524
719.859	64860
719.975	75189
720.092	168130
720.208	284951
720.324	73603
720.440	58017
720.557	70554
720.673	101974
720.789	167848
720.905	365550
721.021	97787
721.137	54718
721.253	59605
721.369	61042
721.486	76844
721.602	108267
721.718	52794
721.834	44944
721.950	49583
722.066	45713
722.181	45772
722.297	48991
722.413	43287
722.529	46357
722.645	44000
722.761	43813
722.877	41782
722.993	41211
723.108	46519
723.224	43061
723.340	44361
723.456	38670
723.571	43911
723.687	40728
723.803	40945
723.918	38987
724.034	43348
724.150	42572
724.265	58790
724.381	151312
724.497	154488
724.612	42775
724.728	38382
724.843	41738
724.959	57264
725.074	143385
725.190	134015
725.305	51674
725.421	41283
725.536	32659
725.651	33470
725.767	31913
725.882	32208
725.997	33923
726.113	34792
726.228	31835
726.343	33125
726.459	30256
726.574	39034
726.689	32765
726.804	35697
726.920	34598
727.035	36008
727.150	35575
727.265	33730
727.380	35494
727.495	29813
727.610	26797
727.725	30219
727.841	29334
727.956	33484
728.071	42898
728.186	31118
728.301	26798
728.416	30945
728.531	27285
728.645	26153
728.760	31137
728.875	28412
728.990	28240
729.105	30007
729.220	29374
729.335	28463
729.449	25756
729.564	24967
729.679	24348
729.794	27142
729.908	35010
730.023	28798
730.138	22009
730.253	26165
730.367	22759
730.482	23897
730.596	24545
730.711	25400
730.826	22754
730.940	22777
731.055	25741
731.169	21977
731.284	22024
731.398	25095
731.513	34701
731.627	30750
731.742	40174
731.856	38809
731.970	22703
732.085	25341
732.199	26401
732.313	34450
732.428	60941
732.542	151066
732.656	81765
732.771	26731
732.885	22711
732.999	25916
733.113	28866
733.227	25897
733.342	18821
733.456	20672
733.570	19731
733.684	21797
733.798	21407
733.912	19556
734.026	18394
734.140	19974
734.254	29459
734.368	76956
734.482	79139
734.596	19557
734.710	18732
734.824	18553
734.938	17968
735.052	21525
735.166	28793
735.280	20466
735.393	18405
735.507	21651
735.621	40905
735.735	91592
735.849	26213
735.962	18864
736.076	23502
736.190	25066
736.303	49711
736.417	56243
736.531	20187
736.644	21863
736.758	14555
736.872	15282
736.985	14745
737.099	14140
737.212	14380
737.326	15418
737.439	15293
737.553	15355
737.666	15302
737.780	13876
737.893	13694
738.007	13198
738.120	13933
738.233	13779
738.347	14178
738.460	14591
738.573	16906
738.687	16105
738.800	16469
738.913	22513
739.026	16879
739.140	15314
739.253	12944
739.366	13065
739.479	12290
739.592	13115
739.705	14064
739.818	15081
739.932	12347
740.045	13975
740.158	14004
740.271	15075
740.384	11731
740.497	12266
740.610	13559
740.723	14063
740.836	13018
740.949	14914
741.062	24015
741.174	19737
741.287	15236
741.400	11639
741.513	12860
741.626	14393
741.739	13079
741.851	13110
741.964	12564
742.077	13959
742.189	13893
742.302	15049
742.415	12530
742.527	11941
742.640	11001
742.753	11698
742.865	10768
742.978	11810
743.090	13004
743.203	12850
743.316	11406
743.428	11133
743.541	10274
743.653	10911
743.766	11838
743.878	14812
743.990	30401
744.103	21737
744.215	15428
744.327	12548
744.440	16875
744.552	29758
744.664	12565
744.777	10745
744.889	8765
745.001	11116
745.113	10256
745.226	9222
745.338	9911
745.450	10021
745.562	9698
745.674	9262
745.786	9260
745.898	9387
746.010	9426
746.122	9179
746.234	8445
746.347	9548
746.459	9796
746.570	9715
746.682	10450
746.794	13751
746.906	10540
747.018	10600
747.130	9739
747.242	8846
747.354	10211
747.466	12975
747.577	9183
747.689	9501
747.801	8885
747.913	8193
748.024	8244
748.136	9285
748.248	7575
748.359	8551
748.471	7484
748.583	9105
748.694	9204
748.806	14080
748.918	25217
749.029	13184
749.141	11228
749.252	11917
749.364	16321
749.475	37316
749.587	25496
749.698	9340
749.809	8879
749.921	9034
750.032	7921
750.144	7278
750.255	7144
750.366	7020
750.478	7467
750.589	9000
750.700	9902
750.811	9999
750.923	16023
751.034	40824
751.145	32531
751.256	8938
751.367	7664
751.479	7364
751.590	8138
751.701	7474
751.812	6343
751.923	7958
752.034	6533
752.145	7035
752.256	7127
752.367	7570
752.478	6527
752.589	6549
752.700	6488
752.811	7339
752.922	6543
753.032	10110
753.143	11216
753.254	6872
753.365	7077
753.476	6736
753.586	6868
753.697	6601
753.808	6892
753.919	6611
754.029	7364
754.140	7764
754.251	8203
754.361	7744
754.472	7889
754.582	8214
754.693	5905
754.804	6863
754.914	5812
755.025	6276
755.135	6850
755.246	6472
755.356	7120
755.466	6462
755.577	7017
755.687	7533
755.798	6143
755.908	6290
756.018	5754
756.129	6334
756.239	6212
756.349	7151
756.460	6011
756.570	8382
756.680	6928
756.790	9212
756.900	8561
757.011	6569
757.121	5143
757.231	6086
757.341	6222
757.451	6175
757.561	5813
757.671	5878
757.781	5242
757.891	8118
758.001	9521
758.111	7105
758.221	6511
758.331	10601
758.441	9455
758.551	17499
758.661	13808
758.771	8191
758.880	9995
758.990	10218
759.100	9037
759.210	8733
759.320	8505
759.429	8677
759.539	8193
759.649	8879
759.758	9251
759.868	9578
759.978	8743
760.087	9940
760.197	9401
760.307	8989
760.416	8779
760.526	9123
760.635	8381
760.745	8366
760.854	8708
760.964	9748
761.073	9873
761.182	8698
761.292	9142
761.401	14248
761.511	9102
761.620	8700
761.729	11119
761.839	10864
761.948	9718
762.057	11308
762.166	9174
762.276	7641
762.385	8928
762.494	8465
762.603	7549
762.712	10298
762.822	10263
762.931	9852
763.040	8396
763.149	8889
763.258	8933
763.367	9481
763.476	9723
763.585	9394
763.694	9828
763.803	11497
763.912	10296
764.021	9536
764.130	8467
764.238	9336
764.347	8242
764.456	9949
764.565	9196
764.674	9645
764.783	8446
764.891	8379
765.000	9838
765.109	9412
765.217	10090
765.326	15407
765.435	20250
765.543	12646
765.652	10597
765.761	12763
765.869	15296
765.978	21151
766.086	33679
766.195	61006
766.303	165218
766.412	503020
766.520	396614
766.629	81278
766.737	35398
766.846	24264
766.954	18336
767.062	17143
767.171	17215
767.279	14535
767.387	13071
767.496	14012
767.604	12765
767.712	12559
767.820	11822
767.928	13390
768.037	11384
768.145	13105
768.253	12530
768.361	12432
768.469	11308
768.577	11338
768.685	11929
768.793	12167
768.901	12210
769.009	11892
769.117	12512
769.225	13550
769.333	15292
769.441	19965
769.549	28291
769.657	59121
769.765	194836
769.873	416337
769.981	114200
770.088	28468
770.196	18206
770.304	16623
770.412	15923
770.519	14897
770.627	13826
770.735	13810
770.842	13371
770.950	12922
771.058	12837
771.165	12051
771.273	11842
771.380	11969
771.488	11803
771.595	12120
771.703	11320
771.810	11925
771.918	10691
772.025	12323
772.133	10257
772.240	12088
772.348	11163
772.455	12176
772.562	10809
772.670	10585
772.777	12485
772.884	10389
772.991	10121
773.099	10173
773.206	9972
773.313	10890
773.420	10129
773.528	9338
773.635	9994
773.742	10268
773.849	9706
773.956	9618
774.063	10521
774.170	11034
774.277	13093
774.384	11567
774.491	10872
774.598	12313
774.705	12560
774.812	16637
774.919	13563
775.026	13862
775.133	12477
775.239	11962
775.346	11096
775.453	10798
775.560	11023
775.667	12225
775.773	11482
775.880	11564
775.987	12034
776.093	11665
776.200	12158
776.307	11778
776.413	11143
776.520	11592
776.627	11281
776.733	11822
776.840	9978
776.946	12518
777.053	14647
777.159	20823
777.266	14154
777.372	20642
777.478	16748
777.585	12777
777.691	9478
777.798	11227
777.904	13521
778.010	18509
778.117	15332
778.223	11389
778.329	12127
778.435	11077
778.542	11038
778.648	10396
778.754	10438
778.860	11254
778.966	12221
779.072	11739
779.178	9986
779.284	9847
779.391	8875
779.497	9635
779.603	11338
779.708	9203
779.815	10259
779.920	13419
780.026	16510
780.132	9543
780.238	9536
780.344	9271
780.450	9931
780.556	9038
780.661	8488
780.767	10879
780.873	8781
780.979	9949
781.085	8853
781.190	8396
781.296	7539
781.402	8181
781.507	7534
781.613	8960
781.719	8702
781.824	8575
781.930	8285
782.035	10064
782.141	8536
782.246	9409
782.352	8253
782.457	8630
782.563	7655
782.668	8921
782.773	10462
782.879	9920
782.984	10887
783.090	13092
783.195	19917
783.300	12775
783.405	11228
783.511	10305
783.616	10382
783.721	10056
783.826	7484
783.932	9973
784.037	9611
784.142	9679
784.247	9379
784.352	8550
784.457	9481
784.562	8242
784.667	8809
784.772	8374
784.877	8910
784.982	9182
785.087	8512
785.192	9599
785.297	8474
785.402	8344
785.507	7601
785.611	8582
785.716	9920
785.821	8430
785.926	7351
786.031	8406
786.135	8363
786.240	7263
786.345	6771
786.450	7639
786.554	7312
786.659	7367
786.763	6074
786.868	8253
786.973	8993
787.077	7163
787.182	6882
787.286	6831
787.391	7510
787.495	6703
787.600	7014
787.704	6934
787.809	7728
787.913	6296
788.017	7286
788.122	7649
788.226	6787
788.330	6518
788.435	7399
788.539	6986
788.643	6167
788.747	6378
788.852	5579
788.956	5548
789.060	6005
789.164	5919
789.268	6642
789.372	6061
789.476	6075
789.580	5518
789.684	6417
789.788	6397
789.892	6291
789.996	8768
790.100	6499
790.204	7616
790.308	9248
790.412	7739
790.516	7895
790.620	8296
790.724	7372
790.828	7871
790.931	6739
791.035	8457
791.139	5701
791.242	5409
791.346	6791
791.450	5884
791.554	5902
791.657	5862
791.761	7884
791.864	7424
791.968	5708
792.072	6954
792.175	7641
792.279	6477
792.382	6970
792.486	7637
792.589	9590
792.693	8304
792.796	5085
792.899	7082
793.003	6387
793.106	4918
793.209	6143
793.313	7487
793.416	4640
793.519	8326
793.623	12954
793.726	18547
793.829	7673
793.932	6341
794.035	5112
794.138	6684
794.242	8292
794.345	12122
794.448	11965
794.551	16769
794.654	14222
794.757	13308
794.860	16657
794.963	11286
795.066	5480
795.169	6454
795.272	4525
795.375	5531
795.477	4509
795.580	4962
795.683	3610
795.786	5961
795.889	3907
795.991	7439
796.094	11857
796.197	9693
796.300	5907
796.402	5101
796.505	5047
796.608	5186
796.710	4843
796.813	5063
796.915	4132
797.018	5165
797.120	4528
797.223	3344
797.326	5394
797.428	4857
797.530	6335
797.633	7157
797.735	12223
797.838	30069
797.940	18237
798.042	4938
798.145	3979
798.247	5797
798.349	2872
798.452	5202
798.554	3722
798.656	3804
798.758	5276
798.860	4371
798.962	4152
799.065	4394
799.167	3166
799.269	5850
799.371	6625
799.473	7790
799.575	14293
799.677	15879
799.779	10387
799.881	15119
799.983	7392
800.085	4956
800.187	4080
800.289	4867
800.390	4350
800.492	4402
800.594	5774
800.696	3085
800.798	4015
800.899	3514
801.001	3638
801.103	3837
801.205	3132
801.306	3724
801.408	2851
801.509	3640
801.611	3547
801.713	3550
801.814	2749
801.916	3434
802.017	3233
802.119	2934
802.220	3427
802.322	5543
802.423	15695
802.525	9975
802.626	4462
802.727	4838
802.829	5259
802.930	2089
803.031	4211
803.133	2742
803.234	3085
803.335	3762
803.436	2032
803.538	3154
803.639	2310
803.740	3726
803.841	2397
803.942	3909
804.043	3117
804.144	2485
804.245	3575
804.346	2791
804.447	4125
804.548	9612
804.649	8721
804.750	3726
804.851	3117
804.952	2047
805.053	2712
805.154	809
805.255	3585
805.355	2785
805.456	2796
805.557	2017
805.658	2074
805.758	3341
805.859	2560
805.960	2956
806.061	2255
806.161	2741
806.262	2421
806.362	3596
806.463	3430
806.564	4806
806.664	5536
806.765	11701
806.865	7782
806.966	4575
807.066	2969
807.166	2728
807.267	2618
807.367	2204
807.468	2852
807.568	1507
807.668	3337
807.769	3720
807.869	1781
807.969	3547
808.069	2979
808.170	3046
808.270	2986
808.370	4741
808.470	7563
808.570	4703
808.670	2337
808.770	2931
808.870	2112
808.970	3787
809.070	2350
809.170	2119
809.271	3038
809.370	2378
809.470	2191
809.570	2339
809.670	1350
809.770	2213
809.870	3079
809.970	3646
810.070	2600
810.169	2102
810.269	1141
810.369	3857
810.469	1629
810.568	1692
810.668	1393
810.768	2069
810.867	2324
810.967	2052
811.066	1737
811.166	1536
811.265	2619
811.365	1705
811.464	907
811.564	1876
811.663	2738
811.763	905
811.862	1612
811.962	2654
812.061	1214
812.160	1766
812.260	2323
812.359	1971
812.458	1383
812.557	2101
812.657	2751
812.756	2783
812.855	2602
812.954	1708
813.053	2394
813.153	2655
813.252	1436
813.351	2196
813.450	1045
813.549	1134
813.648	1951
813.747	1781
813.846	1821
813.945	1374
814.044	1766
814.143	1914
814.242	2207
814.341	1324
814.439	1409
814.538	1961
814.637	1345
814.736	1676
814.835	2164
814.933	1544
815.032	2331
815.131	2005
815.229	1695
815.328	3229
815.427	1192
815.525	2762
815.624	1950
815.722	1900
815.821	2171
815.919	2178
816.018	2059
816.116	2963
816.215	2055
816.313	2707
816.412	2367
816.510	2798
816.609	3297
816.707	3040
816.805	2601
816.904	2299
817.002	3625
817.100	3323
817.198	3131
817.296	2791
817.395	2365
817.493	4196
817.591	3429
817.689	4725
817.787	5523
817.885	10052
817.983	14935
818.081	31038
818.179	76509
818.277	199820
818.375	157567
818.473	40596
818.571	16724
818.669	12553
818.767	11450
818.865	10229
818.963	11441
819.061	16074
819.158	29561
819.256	65386
819.354	158136
819.452	359088
819.549	212972
819.647	56595
819.745	22292
819.842	15772
819.940	10431
820.038	8811
820.135	6150
820.233	6203
820.330	3831
820.428	3311
820.525	4333
820.623	3843
820.720	3868
820.818	3050
820.915	3196
821.012	4561
821.110	1534
821.207	3526
821.304	2252
821.402	2967
821.499	4780
821.596	6645
821.693	4634
821.791	5141
821.888	7194
821.985	19794
822.082	13258
822.179	4397
822.276	4008
822.373	2098
822.470	1832
822.567	1947
822.664	1372
822.761	3320
822.858	897
822.955	2329
823.052	1489
823.149	2417
823.246	2196
823.343	1736
823.440	2029
823.536	1821
823.633	1440
823.730	1281
823.827	1631
823.923	1665
824.020	2989
824.117	3016
824.213	2127
824.310	2741
824.407	796
824.503	1478
824.600	1139
824.696	1715
824.793	2494
824.889	1150
824.986	1174
825.082	829
825.179	1391
825.275	1286
825.371	1023
825.468	2037
825.564	986
825.660	1151
825.757	1768
825.853	2662
825.949	256
826.045	979
826.142	496
826.238	1391
826.334	1900
826.430	1150
826.526	1778
826.622	1267
826.718	2316
826.814	1725
826.910	2072
827.006	1157
827.102	687
827.198	2163
827.294	1301
827.390	1512
827.486	1248
827.582	620
827.678	796
827.774	1886
827.869	593
827.965	2640
828.061	1081
828.157	1193
828.252	902
828.348	1011
828.444	2297
828.539	886
828.635	1021
828.731	1895
828.826	1032
828.922	1517
829.017	1193
829.113	1771
829.208	-126
829.304	1245
829.399	2936
829.495	1327
829.590	1755
829.685	325
829.781	1700
829.876	782
829.971	211
830.066	1186
830.162	449
830.257	1436
830.352	1404
830.447	3146
830.543	3514
830.638	2720
830.733	2770
830.828	1570
830.923	2344
831.018	1908
831.113	3912
831.208	3435
831.303	2187
831.398	1420
831.493	705
831.588	1393
831.683	252
831.778	647
831.873	671
831.967	3195
832.062	1084
832.157	1266
832.252	2035
832.346	1701
832.441	3370
832.536	6649
832.631	15920
832.725	11166
832.820	1242
832.914	1064
833.009	1438
833.104	5028
833.198	4778
833.293	2271
833.387	2735
833.482	1630
833.576	1574
833.670	1886
833.765	1328
833.859	2262
833.954	2716
834.048	1669
834.142	1199
834.237	1287
834.331	860
834.425	1475
834.519	1130
834.613	2474
834.708	1013
834.802	2062
834.896	1075
834.990	1194
835.084	1598
835.178	2586
835.272	3496
835.366	1851
835.460	1673
835.554	1356
835.648	1323
835.742	963
835.836	1860
835.930	710
836.024	1922
836.117	4401
836.211	5097
836.305	9979
836.399	13799
836.493	3072
836.586	1883
836.680	682
836.774	472
836.867	2636
836.961	-17
837.055	679
837.148	762
837.242	1601
837.335	1460
837.429	2351
837.522	3791
837.616	7426
837.709	18592
837.803	11090
837.896	3426
837.989	4841
838.083	11143
838.176	26847
838.269	20721
838.363	4659
838.456	2410
838.549	6411
838.642	9762
838.735	19013
838.829	6442
838.922	2731
839.015	2441
839.108	1619
839.201	1592
839.294	2800
839.387	3243
839.480	4123
839.573	9122
839.666	12790
839.759	2273
839.852	1243
839.945	1112
840.038	1421
840.131	927
840.223	1707
840.316	1786
840.409	916
840.502	323
840.594	2538
840.687	469
840.780	1905
840.873	1403
840.965	5777
841.058	9594
841.150	22897
841.243	13649
841.336	3529
841.428	2166
841.521	2025
841.613	4006
841.706	3485
841.798	1664
841.890	2069
841.983	1092
842.075	2480
842.167	2884
842.260	4271
842.352	7523
842.444	13055
842.537	28096
842.629	34952
842.721	6393
842.813	2390
842.905	1423
842.997	3394
843.090	5181
843.182	11892
843.274	26720
843.366	59591
843.458	108473
843.550	59480
843.642	8163
843.734	4823
843.826	8941
843.918	5835
844.009	2927
844.101	1272
844.193	935
844.285	2485
844.377	1751
844.469	3115
844.560	3489
844.652	3689
844.744	2502
844.835	2418
844.927	3665
845.019	7019
845.110	3775
845.202	1859
845.293	1516
845.385	1328
845.476	1679
845.568	2832
845.659	2130
845.751	2406
845.842	853
845.934	760
846.025	352
846.116	1601
846.208	1930
846.299	1700
846.390	2169
846.482	3164
846.573	4950
846.664	8046
846.755	12415
846.846	9463
846.937	1282
847.029	1823
847.120	1261
847.211	1422
847.302	1623
847.393	527
847.484	1798
847.575	1410
847.666	486
847.757	1427
847.847	1571
847.938	1702
848.029	1896
848.120	1152
848.211	1022
848.302	1648
848.392	542
848.483	1362
848.574	362
848.664	1063
848.755	1457
848.846	1247
848.936	-164
849.027	1476
849.118	1426
849.208	2230
849.299	3452
849.389	5022
849.480	9674
849.570	17337
849.661	27891
849.751	45145
849.841	14369
849.932	2478
850.022	1443
850.112	1855
850.203	1506
850.293	1530
850.383	742
850.474	1048
850.564	1332
850.654	1827
850.744	953
850.834	1015
850.924	1403
851.014	1211
851.104	1877
851.194	1702
851.284	3780
851.374	4804
851.464	3536
851.554	4133
851.644	5483
851.734	11031
851.824	5700
851.914	1567
852.004	1554
852.094	1102
852.183	1112
852.273	1197
852.363	443
852.452	1804
852.542	1756
852.632	1759
852.721	1301
852.811	917
852.901	1166
852.990	2382
853.080	1778
853.169	1301
853.259	2349
853.348	1679
853.438	2898
853.527	2955
853.617	5417
853.706	10791
853.795	18765
853.885	44938
853.974	83659
854.063	153538
854.152	232353
854.242	78421
854.331	13891
854.420	5932
854.509	5651
854.598	5288
854.687	6113
854.777	6719
854.866	1911
854.955	1815
855.044	1413
855.133	1755
855.222	1313
855.311	1143
855.400	703
855.488	926
855.577	882
855.666	1217
855.755	1056
855.844	1831
855.933	-88
856.021	1473
856.110	1261
856.199	416
856.288	-57
856.376	1223
856.465	726
856.554	1165
856.642	1505
856.731	1328
856.819	733
856.908	1978
856.996	608
857.085	1128
857.173	836
857.262	1268
857.350	768
857.438	1057
857.527	1685
857.615	2190
857.703	1550
857.792	1681
857.880	513
857.968	1183
858.056	1090
858.145	1838
858.233	688
858.321	794
858.409	1116
858.497	480
858.585	892
858.673	1758
858.761	726
858.849	403
858.937	614
859.025	1845
859.113	1336
859.201	928
859.289	1320
859.377	939
859.465	1345
859.552	1146
859.640	645
859.728	2190
859.816	1601
859.903	1779
859.991	1033
860.079	991
860.166	1041
860.254	926
860.342	1286
860.429	1056
860.517	280
860.604	278
860.692	752
860.779	453
860.867	1610
860.954	1245
861.042	1393
861.129	3086
861.216	1267
861.304	909
861.391	1315
861.478	1368
861.565	2020
861.653	1925
861.740	1277
861.827	790
861.914	657
862.001	1100
862.089	238
862.176	851
862.263	153
862.350	1205
862.437	622
862.524	876
862.611	986
862.698	2057
862.785	1520
862.871	1897
862.958	764
863.045	832
863.132	168
863.219	-10
863.306	415
863.392	1501
863.479	759
863.566	1664
863.652	1119
863.739	622
863.826	604
863.912	509
863.999	890
864.086	940
864.172	859
864.259	985
864.345	341
864.432	1003
864.518	543
864.604	725
864.691	314
864.777	1125
864.863	641
864.950	1934
865.036	947
865.122	1806
865.209	1631
865.295	2479
865.381	2425
865.467	2609
865.553	3456
865.639	5407
865.726	10066
865.812	21342
865.898	42104
865.984	64236
866.070	122378
866.156	122013
866.242	28805
866.328	6922
866.414	2466
866.499	3494
866.585	2371
866.671	2960
866.757	2118
866.843	2662
866.928	1484
867.014	1487
867.100	2875
867.186	3880
867.271	4991
867.357	8430
867.442	10837
867.528	4042
867.614	1239
867.699	2752
867.785	3031
867.870	3580
867.956	4034
868.041	5021
868.127	5149
868.212	7954
868.297	3535
868.383	3305
868.468	5277
868.553	8050
868.639	10024
868.724	20957
868.809	16708
868.894	2997
868.979	1373
869.065	3150
869.150	2378
869.235	1693
869.320	183
869.405	227
869.490	695
869.575	1049
869.660	863
869.745	1083
869.830	400
869.915	1624
870.000	511
870.085	1942
870.169	662
870.254	1352
870.339	223
870.424	661
870.509	649
870.593	842
870.678	308
870.763	411
870.847	464
870.932	932
871.016	1553
871.101	1030
871.186	1065
871.270	1101
871.355	-538
871.439	832
871.523	660
871.608	894
871.692	571
871.777	1629
871.861	1280
871.945	-124
872.030	504
872.114	1009
872.198	-971
872.282	-131
872.367	87
872.451	-79
872.535	203
872.619	294
872.703	46
872.787	20
872.871	522
872.955	210
873.039	281
873.123	102
873.207	1008
873.291	1705
873.375	1627
873.459	756
873.543	143
873.627	225
873.711	-120
873.794	1003
873.878	-333
873.962	317
874.045	-231
874.129	585
874.137	552
874.213	222
874.245	517
874.296	991
874.352	95
874.380	-343
874.460	384
874.464	413
874.547	3
874.568	168
874.631	653
874.676	508
874.714	388
874.784	930
874.798	1040
874.881	1916
874.892	1729
874.965	413
874.999	220
875.048	-38
875.107	832
875.131	1189
875.215	593
875.215	593
875.298	377
875.323	369
875.381	422
875.430	803
875.465	1050
875.538	836
875.548	806
875.631	818
875.646	698
875.714	89
875.753	346
875.798	685
875.861	-136
875.881	-393
875.964	524
875.968	530
876.047	622
876.076	990
876.130	1698
876.183	860
876.213	355
876.291	2057
876.296	2169
876.379	370
876.398	459
876.462	969
876.506	1046
876.545	933
876.613	614
876.628	584
876.711	123
876.721	132
876.794	270
876.828	389
876.877	484
876.935	207
876.960	113
877.043	-19
877.043	-18
877.125	324
877.150	354
877.208	444
877.258	740
877.291	853
877.365	371
877.374	328
877.456	201
877.472	137
877.539	-71
877.579	419
877.622	873
877.687	311
877.704	164
877.787	795
877.794	744
877.869	161
877.901	185
877.952	241
878.008	106
878.034	6
878.115	-107
878.117	-104
878.199	-953
878.222	-454
878.282	749
878.329	316
878.364	-8
878.437	368
878.447	415
878.529	-403
878.544	-285
878.611	333
878.651	330
878.694	295
878.758	328
878.776	334
878.858	169
878.865	190
878.941	398
878.972	237
879.023	51
879.078	380
879.105	561
879.185	942
879.187	948
879.269	1396
879.292	1150
879.351	472
879.399	694
879.433	887
879.506	34
879.516	-101
879.598	-57
879.613	-88
879.680	-66
879.720	106
879.762	233
879.827	-91
879.844	-127
879.926	46
879.933	81
880.007	-8
880.040	-117
880.089	256
880.147	897
880.171	922
880.253	2415
880.254	2419
880.335	2727
880.360	3130
880.417	4477
880.467	6686
880.499	7927
880.574	8517
880.580	8498
880.662	2883
880.680	2453
880.744	899
880.787	99
880.825	-445
880.893	-140
880.907	-26
880.989	194
881.000	238
881.070	245
881.106	249
881.152	497
881.213	345
881.233	123
881.315	-130
881.319	-142
881.396	233
881.426	300
881.478	265
881.532	145
881.559	92
881.639	-8
881.641	-5
881.722	528
881.745	479
881.803	455
881.852	1017
881.885	1139
881.958	932
881.966	948
882.047	1533
882.064	1562
882.129	1587
882.171	1951
882.210	2560
882.277	4435
882.291	4656
882.372	1209
882.383	1071
882.454	507
882.489	396
882.535	48
882.596	-142
882.616	-21
882.697	243
882.702	251
882.778	-55
882.808	-104
882.859	-5
882.914	-51
882.940	-131
883.020	158
883.021	159
883.102	-153
883.127	-178
883.183	290
883.233	283
883.264	34
883.339	-38
883.345	-28
883.426	-230
883.445	-149
883.507	318
883.551	326
883.587	256
883.657	660
883.668	721
883.749	496
883.763	459
883.830	26
883.869	-115
883.910	43
883.975	429
883.991	392
884.072	-437
884.081	-455
884.152	-124
884.187	-244
884.233	-521
884.292	-141
884.314	28
884.394	-257
884.398	-244
884.475	-402
884.504	-527
884.555	-63
884.610	397
884.636	327
884.716	83
884.716	88
884.797	817
884.821	926
884.877	183
884.927	-406
884.958	-424
885.033	-250
885.038	-231
885.118	-273
885.139	-210
885.199	-210
885.244	-161
885.279	-23
885.350	99
885.359	114
885.439	184
885.456	152
885.520	-168
885.561	-51
885.600	168
885.667	113
885.680	141
885.760	590
885.773	620
885.840	412
885.878	415
885.920	277
885.984	-228
886.000	-189
886.080	258
886.089	292
886.160	-79
886.195	-122
886.240	257
886.300	425
886.320	343
886.400	398
886.406	392
886.480	493
886.511	585
886.560	637
886.616	394
886.640	339
886.720	441
886.722	438
886.800	147
886.827	137
886.879	411
886.932	636
886.959	487
887.038	281
887.039	280
887.119	-146
887.143	-172
887.198	-323
887.248	-546
887.278	-228
887.354	540
887.358	511
887.437	-51
887.459	-202
887.517	456
887.564	945
887.596	664
887.669	41
887.676	64
887.755	340
887.774	411
887.835	691
887.880	875
887.914	756
887.985	524
887.994	533
888.073	611
888.090	631
888.153	512
888.195	328
888.232	24
888.300	-362
888.311	-155
888.391	1165
888.405	1424
888.470	518
888.510	-83
888.549	170
888.615	645
888.628	537
888.708	-192
888.720	-286
888.787	413
888.825	736
888.866	232
888.930	-482
888.945	-353
889.024	257
889.035	357
889.103	822
889.140	1019
889.182	806
889.245	515
889.261	434
889.340	51
889.349	11
889.419	531
889.454	769
889.498	637
889.559	498
889.577	383
889.656	-139
889.664	-185
889.735	297
889.768	527
889.814	491
889.873	443
889.978	-524
890.083	503
890.187	-157
890.292	656
890.397	265
890.501	616
890.606	712
890.710	881
890.815	389
890.919	943
891.024	205
891.128	895
891.233	588
891.337	464
891.442	539
891.546	300
891.650	114
891.755	387
891.859	1499
891.963	536
892.068	164
892.172	1013
892.276	-266
892.380	-373
892.484	10
892.589	-223
892.693	510
892.797	-400
892.901	-158
893.005	441
893.109	115
893.213	878
893.317	1072
893.421	7
893.525	-41
893.629	288
893.733	384
893.837	-141
893.941	426
894.045	925
894.148	-51
894.252	255
894.356	161
894.460	695
894.564	-416
894.667	560
894.771	-27
894.875	-8
894.978	201
895.082	-275
895.186	583
895.289	1276
895.393	371
895.496	319
895.600	-75
895.703	343
895.807	279
895.910	437
896.014	-643
896.117	-609
896.221	996
896.324	650
896.427	254
896.531	-596
896.634	44
896.737	567
896.840	263
896.944	-156
897.047	248
897.150	749
897.253	173
897.356	479
897.460	-9
897.563	428
897.666	344
897.769	347
897.872	-15
897.975	-229
898.078	-936
898.181	77
898.284	316
898.387	75
898.490	-603
898.593	262
898.695	189
898.798	277
898.901	376
899.004	258
899.107	-577
899.209	151
899.312	167
899.415	75
899.518	-335
899.620	190
899.723	-190
899.826	-160
899.928	991
900.031	-151
900.133	-627
900.236	654
900.338	257
900.441	433
900.543	-935
900.646	-264
900.748	204
900.851	459
900.953	46
901.055	75
901.158	-220
901.260	102
901.362	-366
901.465	-654
901.567	91
901.669	433
901.771	-846
901.873	114
901.976	-157
902.078	492
902.180	-755
902.282	490
902.384	17
902.486	376
902.588	-6
902.690	-93
902.792	211
902.894	-26
902.996	-225
903.098	45
903.200	574
903.302	1176
903.404	135
903.505	107
903.607	-347
903.709	201
903.811	-225
903.913	696
904.014	246
904.116	-194
904.218	214
904.319	-265
904.421	877
904.523	68
904.624	55
904.726	-48
904.827	-448
904.929	-181
905.030	-1231
905.132	631
905.233	964
905.335	455
905.436	546
905.537	24
905.639	-358
905.740	-650
905.841	-507
905.943	33
906.044	-614
906.145	-310
906.247	315
906.348	-448
906.449	-354
906.550	-50
906.651	499
906.752	-105
906.854	-718
906.955	92
907.056	-176
907.157	-371
907.258	-451
907.359	-308
907.460	945
907.561	-107
907.662	-195
907.762	263
907.863	-521
907.964	95
908.065	201
908.166	-198
908.267	-968
908.367	-346
908.468	-528
908.569	-227
908.670	314
908.770	856
908.871	325
908.971	150
909.072	120
909.173	-92
909.273	-71
909.374	300
909.474	27
909.575	-383
909.675	-892
909.776	-87
909.876	-447
909.977	-395
910.077	632
910.177	-323
910.278	-868
910.378	-386
910.478	483
910.579	-56
910.679	-936
910.779	-274
910.879	124
910.980	129
911.080	-92
911.180	-489
911.280	-488
911.380	-322
911.480	19
911.580	267
911.680	139
911.780	315
911.880	-314
911.980	-175
912.080	-720
912.180	88
912.280	-195
912.380	-303
912.480	-377
912.580	-489
912.679	-100
912.779	165
912.879	-280
912.979	-28
913.078	-734
913.178	-398
913.278	-544
913.377	8
913.477	-77
913.577	-663
913.676	-672
913.776	-440
913.875	-461
913.975	149
914.074	-575
914.174	-177
914.273	-1131
914.373	577
914.472	-870
914.572	-354
914.671	-849
914.770	-85
914.870	-183
914.969	-117
915.068	-1069
915.167	-435
915.267	-415
915.366	37
915.465	-900
915.564	-497
915.663	-107
915.763	-144
915.862	-442
915.961	-1068
916.060	-770
916.159	78
916.258	-781
916.357	-1165
916.456	474
916.555	133
916.654	-385
916.752	-2
916.851	-16
916.950	-830
917.049	-197
917.148	-703
917.247	-332
917.345	403
917.444	-960
917.543	-709
917.642	-379
917.740	-353
917.839	-190
917.937	447
918.036	157
918.135	-194
918.233	-1364
918.332	-313
918.430	-269
918.529	-230
918.627	-584
918.726	47
918.824	-582
918.923	-259
919.021	-825
919.119	-346
919.218	-667
919.316	-36
919.414	-694
919.512	545
919.611	-527
919.709	-262
919.807	-866
919.905	-1138
920.003	-937
920.102	29
920.200	-640
920.298	-1247
920.396	-203
920.494	-815
920.592	-943
920.690	-63
920.788	-747
920.886	-423
920.984	-526
921.082	-164
921.180	-48
921.277	319
921.375	-524
921.473	-248
921.571	-68
921.669	-1163
921.766	-619
921.864	-281
921.962	-371
922.060	122
922.157	197
922.255	-242
922.352	-262
922.450	73
922.548	-68
922.645	-84
922.743	-382
922.840	173
922.938	270
923.035	345
923.133	357
923.230	-218
923.327	141
923.425	-68
923.522	310
923.619	-133
923.717	-225
923.814	204
923.911	-545
924.008	528
924.106	-186
924.203	182
924.300	-390
924.397	-278
924.494	800
924.591	289
924.688	-776
924.786	-183
924.883	79
924.979	550
925.077	260
925.173	398
925.270	484
925.367	-551
925.464	-42
925.561	130
925.658	150
925.755	381
925.852	-125
925.948	243
926.045	358
926.142	-252
926.239	-152
926.335	-170
926.432	-352
926.529	-247
926.625	330
926.722	378
926.818	-342
926.915	276
927.011	-474
927.108	457
927.204	-551
927.301	-554
927.397	-428
927.494	248
927.590	-246
927.687	-53
927.783	-227
927.879	-68
927.976	-581
928.072	-1098
928.168	-739
928.264	-692
928.361	-117
928.457	-109
928.553	-686
928.649	52
928.745	-778
928.841	-735
928.937	-279
929.033	71
929.129	-14
929.225	-480
929.321	-1313
929.417	-639
929.513	-53
929.609	220
929.705	-1130
929.801	-48
929.897	-1103
929.993	559
930.089	-836
930.184	-382
930.280	-1095
930.376	-18
930.471	-421
930.567	-529
930.663	-806
930.758	-888
930.854	-383
930.950	-1108
931.045	-883
931.141	-144
931.236	-1011
931.332	-24
931.427	-324
931.523	300
931.618	-811
931.714	-1054
931.809	283
931.905	20
932.000	-1167
932.095	-1014
932.191	-408
932.286	-42
932.381	-972
932.476	-11
932.572	-529
932.667	-197
932.762	34
932.857	98
932.952	-1072
933.047	-561
933.142	-473
933.237	-400
933.332	-1541
933.427	-636
933.522	-1348
933.617	-832
933.712	-29
933.807	-991
933.902	-391
933.997	-156
934.092	-833
934.187	-458
934.282	-396
934.376	-1142
934.471	-276
934.566	-336
934.661	-689
934.755	-564
934.850	-835
934.945	-86
935.039	-641
935.134	-134
935.228	-491
935.323	-487
935.417	-478
935.512	-506
935.606	-1364
935.701	-612
935.795	-1029
935.890	-830
935.984	-1151
936.079	254
936.173	46
936.267	-812
936.362	-1424
936.456	-500
936.550	-268
936.644	-387
936.738	-1083
936.833	-333
936.927	-911
937.021	-154
937.115	-381
937.209	-1632
937.303	25
937.397	-991
937.491	-542
937.585	36
937.679	-315
937.773	-509
937.867	-1141
937.961	-573
938.055	-1539
938.149	-592
938.243	-1372
938.337	-598
938.430	-1658
938.524	-115
938.618	740
938.712	-504
938.805	-775
938.899	-752
938.993	-1110
939.086	-610
939.180	-518
939.274	238
939.367	-339
939.461	-399
939.554	-1620
939.648	-112
939.741	-874
939.835	-656
939.928	-455
940.022	-1247
940.115	-476
940.208	-1250
940.302	-893
940.395	-1366
940.488	-918
940.582	96
940.675	-2284
940.768	-1051
940.861	-1118
940.954	-95
941.048	-984
941.141	-880
941.234	-1682
941.327	-985
941.420	-107
941.513	-346
941.606	-1390
941.699	-34
941.792	-909
941.885	-473
941.978	-1791
942.071	-1052
942.164	-360
942.257	-1204
942.349	-1408
942.442	-873
942.535	-1668
942.628	150
942.721	-724
942.813	-1670
942.906	-530
942.999	-908
943.091	-1553
943.184	-1293
943.277	-2145
943.369	238
943.462	-1333
943.554	-319
943.647	-1245
943.739	-270
943.832	-1271
943.924	-1746
944.017	-1061
944.109	-1734
944.201	-1081
944.294	-504
944.386	-1184
944.478	-650
944.571	-1406
944.663	-1319
944.755	-697
944.847	-1125
944.940	-1114
945.032	-887
945.124	-1301
945.216	-118
945.308	-785
945.400	-306
945.492	-902
945.584	-1583
945.676	-967
945.768	-838
945.860	-1068
945.952	-1622
946.044	-345
946.136	-1644
946.228	-1401
946.320	-1694
946.412	-982
946.503	-1278
946.595	-882
946.687	-1454
946.779	-1449
946.870	-814
946.962	-1797
947.054	-1543
947.145	-260
947.237	-1201
947.329	-582
947.420	-1434
947.512	-1668
947.603	-1029
947.695	-975
947.786	-1273
947.878	-1425
947.969	-1280
948.061	-1461
948.152	-1947
948.243	-1413
948.335	-170
948.426	-1876
948.517	-894
948.609	-682
948.700	-787
948.791	-1309
948.882	-811
948.973	-1991
949.065	-1097
949.156	-874
949.247	-1475
949.338	-1019
949.429	-1583
949.520	-1447
949.611	-1690
949.702	-1631
949.793	-1122
949.884	-1654
949.975	-702
950.066	-1444
950.157	-997
950.247	-1221
950.338	-1736
950.429	-1261
950.520	-1144
950.611	-444
950.701	-780
950.792	-1673
950.883	-660
950.973	-1174
951.064	-1781
951.155	-1883
951.245	-865
951.336	-1692
951.427	-1754
951.517	-494
951.608	-856
951.698	-1894
951.788	-1426
951.879	-1436
951.969	-1458
952.060	-1350
952.150	-1996
952.240	-1477
952.331	-2661
952.421	-410
952.511	-1564
952.602	-1444
952.692	-734
952.782	-1525
952.872	-1401
952.962	-1558
953.052	-2293
953.143	-1539
953.233	-1380
953.323	-1701
953.413	-1722
953.503	-1293
953.593	-1417
953.683	-1482
953.773	-1413
953.863	-1504
953.953	-1521
954.042	-1580
954.132	-689
954.222	-757
954.312	-1546
954.402	-1902
954.492	-424
954.581	-89
954.671	-1407
954.761	-1573
954.850	-414
954.940	-1628
955.030	-1649
955.119	-1650
955.209	-857
955.298	-2414
955.388	-1524
955.477	-441
955.567	-2281
955.656	-1176
955.746	-701
955.835	-1369
955.925	-1590
956.014	-875
956.103	-1424
956.193	-1258
956.282	-1569
956.371	-1329
956.461	-1172
956.550	-2121
956.639	-852
956.728	-1679
956.817	-582
956.906	-2381
956.995	-179
957.085	-1556
957.174	-1468
957.263	-2711
957.352	-1151
957.441	-2242
957.530	-1018
957.619	-1778
957.708	-1497
957.796	-1842
957.885	-1575
957.974	-1302
958.063	-1342
958.152	-2384
958.241	-1225
958.329	-1619
958.418	-1107
958.507	-1588
958.596	-176
958.684	-1593
958.773	-1156
958.861	-1521
958.950	-939
959.039	-912
959.127	-1732
959.216	-1362
959.304	-1748
959.393	-2168
959.481	-1912
959.570	-2081
959.658	-1440
959.746	-1318
959.835	-562
959.923	-479
960.011	-1329
960.100	-1625
960.188	-742
960.276	-2311
960.365	-1180
960.453	-1919
960.541	-2282
960.629	-608
960.717	-1731
960.805	-1951
960.893	-1071
960.981	-2396
961.069	-52
961.158	-2687
961.245	-1231
961.333	-1364
961.421	-1479
961.509	-1875
961.597	-429
961.685	-1772
961.773	-1678
961.861	-2441
961.949	-2332
962.036	-1979
962.124	-618
962.212	-1644
962.299	-1234
962.387	-1975
962.475	-1416
962.562	-1188
962.650	-1397
962.738	-2393
962.825	-1730
962.913	-1271
963.000	-1478
963.088	-2342
963.175	-810
963.263	-1568
963.350	-1055
963.438	-1310
963.525	-462
963.612	437
963.700	3832
963.787	7572
963.874	1809
963.962	-1359
964.049	-1348
964.136	-2294
964.223	-1542
964.310	-1469
964.398	-1385
964.485	-1750
964.572	-1387
964.659	-531
964.746	-329
964.833	-2146
964.920	-892
965.007	-2338
965.094	-1734
965.181	-900
965.268	-808
965.355	-1970
965.441	-2083
965.528	-2530
965.615	-569
965.702	-1052
965.789	-1983
965.875	-1083
965.962	-1597
966.049	-2567
966.136	-942
966.222	-1999
966.309	-1128
966.395	-2774
966.482	-767
966.569	-2382
966.655	-1892
966.742	-2169
966.828	-1202
966.915	-1901
967.001	-765
967.087	-2410
967.174	-367
967.260	-1540
967.347	214
967.433	1678
967.519	2942
967.605	-767
967.692	-2244
967.778	-1522
967.864	-1274
967.950	-2024
968.036	-1456
968.123	-1716
968.209	-1738
968.295	-2952
968.381	-903
968.467	-1738
968.553	-2227
968.639	-624
968.725	-1697
968.811	-667
968.897	-1099
968.983	-2350
969.069	-2143
969.154	-1061
969.240	-845
969.326	-1911
969.412	-2479
969.497	-1993
969.583	-1661
969.669	-1300
969.755	-1570
969.840	-1846
969.926	-645
970.012	-2548
970.097	-937
970.183	-1924
970.268	-1726
970.354	-538
970.439	-130
970.525	2759
970.610	-1392
970.696	-786
970.781	-1874
970.866	-2689
970.952	-1335
971.037	-1646
971.122	-2488
971.208	-2090
971.293	-1387
971.378	-2548
971.463	-2255
971.549	-1015
971.634	-1286
971.719	-1397
971.804	-766
971.889	-1750
971.974	-2362
972.059	-2849
972.144	-1885
972.229	-1795
972.314	-2249
972.399	-1749
972.484	-2167
972.569	-1728
972.654	-1838
972.739	671
972.824	-302
972.908	-1540
972.993	-1958
973.078	-2367
973.163	-1428
973.247	-1910
973.332	-3042
973.417	-1220
973.501	-2347
973.586	-1698
973.671	-1618
973.755	-1516
973.840	-964
973.924	-1325
974.009	-1568
974.093	-1643
974.178	-123
974.262	-710
974.346	-913
974.431	-2069
974.515	-2062
974.600	-1762
974.684	-1349
974.768	-2094
974.852	-1168
974.937	-3259
975.021	-903
975.105	-2278
975.189	-2462
975.273	-2196
975.358	-2212
975.442	-2288
975.526	-1191
975.610	-2775
975.694	-2323
975.778	-1259
975.862	-1593
975.946	-3415
976.030	-1239
976.114	-1894
976.198	-2155
976.281	-2682
976.365	-1921
976.449	-2763
976.533	-1545
976.617	-2608
976.700	-2349
976.784	-1740
976.868	-2438
976.951	-1348
977.035	-1408
977.119	-1713
977.202	-2439
977.286	-2008
977.369	-1782
977.453	-2301
977.536	-3022
977.620	-2508
977.703	-869
977.787	-2488
977.870	-1283
977.953	-1269
978.037	-2593
978.120	-895
978.203	-1772
978.287	-456
978.370	-1356
978.453	-2653
978.536	-1555
978.620	-1039
978.703	-1167
978.786	-1881
978.869	-2317
978.952	-2723
979.035	-462
979.118	-1804
979.201	-2516
979.284	-1878
979.367	-2763
979.450	-2242
979.533	-2595
979.616	-2988
979.699	-1896
979.782	-1874
979.865	-1878
979.948	-2406
980.030	-2632
980.113	-2921
980.196	-3072
980.279	-2193
980.361	-2126
980.444	-2987
980.526	-1665
980.609	-2508
980.692	-2575
980.774	-2148
980.857	-3540
980.939	-1553
981.022	-3014
981.104	-2434
981.187	-2662
981.269	-1426
981.352	-1892
981.434	-3051
981.516	-2891
981.599	-1929
981.681	-1161
981.763	-1976
981.846	-2541
981.928	-2595
982.010	-1705
982.092	-2305
982.174	-2078
982.256	-1681
982.339	-1789
982.421	-2960
982.503	-1525
982.585	-2303
982.667	-2039
982.749	-2528
982.831	-1745
982.913	-2936
982.995	-1302
983.077	-1732
983.158	-817
983.240	-2705
983.322	-1676
983.404	-1727
983.486	-2631
983.568	-2063
983.649	-2805
983.731	-1146
983.813	-2224
983.894	-1804
983.976	-2918
984.058	-2662
984.139	-1183
984.221	-2514
984.302	-1817
984.384	-2050
984.465	-3076
984.547	-2165
984.628	-2515
984.710	-1317
984.791	-2153
984.872	-3087
984.954	-1742
985.035	-1985
985.116	-2835
985.198	-2068
985.279	-165
985.360	-2615
985.441	-1957
985.522	-2315
985.604	-1718
985.685	-4229
985.766	-533
985.847	-1320
985.928	-2070
986.009	-2882
986.090	-1678
986.171	-2081
986.252	-2329
986.333	-2324
986.414	-1688
986.495	-2161
986.576	-2523
986.656	-1840
986.737	-2276
986.818	-2014
986.899	-1921
986.980	-2942
987.060	-1467
987.141	-2770
987.222	-1864
987.302	-2098
987.383	-2194
987.464	-2394
987.544	-1513
987.625	-2304
987.705	-1340
987.786	-1719
987.866	-2275
987.947	-3311
988.027	-2094
988.108	-2496
988.188	-1568
988.268	-1854
988.349	-2826
988.429	-2952
988.509	-962
988.589	-2677
988.670	-3506
988.750	-1354
988.830	-2288
988.910	-2215
988.990	-1175
989.070	-2649
989.151	-1757
989.231	-2598
989.311	-1652
989.391	-2682
989.471	-1727
989.551	-2954
989.631	-2634
989.711	-1733
989.791	-2836
989.870	-1885
989.950	-1244
990.030	-2962
990.110	-2221
990.190	-2576
990.269	-3015
990.349	-2297
990.429	-2199
990.509	-1918
990.588	-2260
990.668	-1855
990.747	-2138
990.827	-2561
990.907	-1775
990.986	-1953
991.066	-1520
991.145	-2457
991.225	-2096
991.304	-2130
991.383	-2019
991.463	-2466
991.542	-1805
991.622	-2933
991.701	-2692
991.780	-2486
991.859	-1379
991.939	-2538
992.018	-2010
992.097	-1400
992.176	-1790
992.256	-2799
992.335	-3306
992.414	-2168
992.493	-2371
992.572	-1773
992.651	-1959
992.730	-2825
992.809	-1756
992.888	-2888
992.967	-2212
993.046	-2414
993.125	-2385
993.203	-2400
993.282	-2294
993.361	-1958
993.440	-3195
993.519	-3129
993.597	-2305
993.676	-3506
993.755	-2201
993.834	-2415
993.912	-2603
993.991	-1441
994.069	-1771
994.148	-1478
994.226	-2479
994.305	-2075
994.384	-2818
994.462	-1530
994.540	-2306
994.619	-2027
994.697	-2262
994.776	-3382
994.854	-1368
994.932	-1934
995.011	-1913
995.089	-2461
995.167	-2652
995.245	-2061
995.324	-2502
995.402	-1713
995.480	-2039
995.558	-2378
995.636	-3098
995.714	-2920
995.792	-1639
995.870	-2601
995.948	-2991
996.026	-1996
996.104	-2729
996.182	-1335
996.260	-2382
996.338	-1503
996.416	-3109
996.494	-1912
996.572	-1052
996.649	-2660
996.727	-3122
996.805	-1999
996.883	-1111
996.960	-3108
997.038	-1698
997.116	-2333
997.193	-2351
997.271	-2436
997.348	-2420
997.426	-2735
997.504	-1822
997.581	-2509
997.658	-1378
997.736	-2971
997.813	-2781
997.891	-2446
997.968	-3203
998.046	-2458
998.123	-1975
998.200	-2476
998.277	-2868
998.355	-2761
998.432	-2817
998.509	-1933
998.586	-2250
998.663	-1944
998.741	-2516
998.818	-2330
998.895	-2688
998.972	-2316
999.049	-1882
999.126	-3280
999.203	-1955
999.280	-2699
999.357	-2054
999.434	-3029
999.511	-1747
999.587	-1966
999.664	-2701
999.741	-2899
999.818	-1596
999.895	-2563
999.971	-1583
1000.048	-2626
1000.125	-1252
1000.202	-2667
1000.278	-2512
1000.355	-1957
1000.431	-2906
1000.508	-2632
1000.584	-1339
1000.661	-2418
1000.738	-2709
1000.814	-3030
1000.890	-1552
1000.967	-2625
1001.043	-2151
1001.120	-3494
1001.196	-1531
1001.272	-3324
1001.349	-2147
1001.425	-2456
1001.501	-2485
1001.577	-3270
1001.654	-2349
1001.730	-2196
1001.806	-1700
1001.882	-3394
1001.958	-2219
1002.034	-2181
1002.110	-2118
1002.186	-2760
1002.262	-2877
1002.338	-3144
1002.414	-1888
1002.490	-2985
1002.566	-2055
1002.642	-3542
1002.718	-1984
1002.794	-2494
1002.870	-2257
1002.945	-2791
1003.021	-3102
1003.097	-2139
1003.173	-2520
1003.248	-3681
1003.324	-2488
1003.400	-1829
1003.475	-2519
1003.551	-2413
1003.626	-2420
1003.702	-2483
1003.777	-3185
1003.853	-3497
1003.928	-2753
1004.004	-2500
1004.079	-2199
1004.155	-2174
1004.230	-2860
1004.305	-2068
1004.381	-3192
1004.456	-2607
1004.531	-2790
1004.607	-2939
1004.682	-1969
1004.757	-1990
1004.832	-2014
1004.907	-3343
1004.982	-1922
1005.057	-1761
1005.133	-2409
1005.208	-2667
1005.283	-2440
1005.358	-1906
1005.433	-2751
1005.508	-3269
1005.583	-2023
1005.657	-2875
1005.732	-1661
1005.807	-3083
1005.882	-2089
1005.957	-2143
1006.032	-2209
1006.106	-2337
1006.181	-2601
1006.256	-2567
1006.331	-2483
1006.405	-3008
1006.480	-1428
1006.554	-2756
1006.629	-2777
1006.704	-3477
1006.778	-2069
1006.853	-2319
1006.927	-2480
1007.002	-3033
1007.076	-2189
1007.150	-3269
1007.225	-2864
1007.299	-2738
1007.373	-3019
1007.448	-2876
1007.522	-1689
1007.596	-2690
1007.671	-3203
1007.745	-2576
1007.819	-3373
1007.893	-3120
1007.967	-2567
1008.041	-2967
1008.115	-1900
1008.190	-3497
1008.264	-1732
1008.338	-3855
1008.412	-3008
1008.486	-3270
1008.560	-2802
1008.633	-3048
1008.707	-2347
1008.781	-2659
1008.855	-2760
1008.929	-3207
1009.003	-2697
1009.076	-2170
1009.150	-2446
1009.224	-2961
1009.298	-1706
1009.371	-3017
1009.445	-1936
1009.519	-2531
1009.592	-2774
1009.666	-3226
1009.739	-2699
1009.813	-3850
1009.886	-1570
1009.960	-3865
1010.033	-2202
1010.107	-2596
1010.180	-3060
1010.253	-2838
1010.327	-3032
1010.400	-2641
1010.473	-3069
1010.547	-1460
1010.620	-2827
1010.693	-2776
1010.766	-3118
1010.840	-2302
1010.913	-2035
1010.986	-3299
1011.059	-2644
1011.132	-3249
1011.205	-1256
1011.278	-2580
1011.351	-2805
1011.424	-1946
1011.497	-2575
1011.570	-2770
1011.643	-2677
1011.716	-2844
1011.789	-2924
1011.862	-2266
1011.934	-1627
1012.007	-3353
1012.080	-2398
1012.153	-3308
1012.225	-1589
1012.298	-3447
1012.371	-3157
1012.443	-2495
1012.516	-3536
1012.588	-2353
1012.661	-1935
1012.733	-3438
1012.806	-2596
1012.879	-3370
1012.951	-3253
1013.023	-3628
1013.096	-2696
1013.168	-2555
1013.241	-1580
1013.313	-3535
1013.385	-2317
1013.458	-2037
1013.530	-1532
1013.602	-4085
1013.674	-2315
1013.746	-4337
1013.819	-2795
1013.891	-2619
1013.963	-3478
1014.035	-2838
1014.107	-2714
1014.179	-1838
1014.251	-3095
1014.323	-1942
1014.395	-1730
1014.467	-3085
1014.539	-2208
1014.611	-3426
1014.683	-2327
1014.754	-3516
1014.826	-3689
1014.898	-2513
1014.970	-3381
1015.042	-2019
1015.113	-2362
1015.185	-2872
1015.257	-2867
1015.328	-1965
1015.400	-2981
1015.471	-1878
1015.543	-3384
1015.615	-2989
1015.686	-2374
1015.757	-2874
1015.829	-2960
1015.901	-2814
1015.972	-2585
1016.043	-3820
1016.115	-2875
1016.186	-2538
1016.257	-2373
1016.328	-2786
1016.400	-1708
1016.471	-2920
1016.542	-2514
1016.613	-2978
1016.685	-2416
1016.756	-3235
1016.827	-2361
1016.898	-3401
1016.969	-2256
1017.040	-2729
1017.111	-2252
1017.182	-2532
1017.253	-3283
1017.324	-2892
1017.395	-3478
1017.466	-3072
1017.537	-2914
1017.608	-2428
1017.678	-2832
1017.749	-3367
1017.820	-3066
1017.891	-2981
1017.961	-2691
1018.032	-2525
1018.103	-2447
1018.173	-2998
1018.244	-3719
1018.315	-3285
1018.385	-2122
1018.456	-3081
1018.526	-3226
1018.597	-3150
1018.667	-2432
1018.738	-3150
1018.808	-2587
1018.878	-2772
1018.949	-2291
1019.019	-3123
1019.089	-2895
1019.160	-2496
1019.230	-2469
1019.300	-2513
1019.371	-3007
1019.441	-1997
1019.511	-1891
1019.581	-2243
1019.651	-2933
1019.721	-2917
1019.791	-2603
1019.861	-3538
1019.931	-2523
1020.001	-2956
1020.071	-2730
1020.141	-2466
1020.211	-2474
1020.281	-3236
1020.351	-2920
1020.421	-2328
1020.491	-1906
1020.560	-3212
1020.630	-3210
1020.700	-3103
1020.770	-2925
1020.839	-2302
1020.909	-1484
1020.979	-3920
1021.048	-2669
1021.118	-2912
1021.187	-2223
1021.257	-2548
1021.326	-1955
1021.396	-3683
1021.465	-1737
1021.535	-2781
1021.604	-2941
1021.674	-2201
1021.743	-1795
1021.812	-2724
1021.882	-2967
1021.951	-2364
1022.020	-2465
1022.089	-2214
1022.159	-2619
1022.228	-2637
1022.297	-2236
1022.366	-3344
1022.435	-2114
1022.504	-2857
1022.573	-2694
1022.642	-3230
1022.711	-2864
1022.781	-2547
1022.849	-1662
1022.918	-2826
1022.987	-2568
1023.056	-3098
1023.125	-2703
1023.194	-2390
1023.263	-2905
1023.331	-2951
1023.400	-2661
1023.469	-2375
1023.538	-1934
1023.606	-3009
1023.675	-3180
1023.744	-2426
1023.812	-3097
1023.881	-2819
1023.949	-2148
1024.018	-3163
1024.086	-2791
1024.155	-2194
1024.223	-1920
1024.292	-2047
1024.360	-2315
1024.429	-3250
1024.497	-3352
1024.565	-2816
1024.634	-2912
1024.702	-2422
1024.770	-2230
1024.838	-3360
1024.907	-1924
1024.975	-3120
1025.043	-2116
1025.111	-3178
1025.179	-1806
1025.247	-2972
1025.315	-2463
1025.383	-3231
1025.451	-2617
1025.519	-2986
1025.587	-2789
1025.655	-2960
1025.723	-3184
1025.791	-2988
1025.859	-2618
1025.927	-3000
1025.995	-2876
1026.062	-3013
1026.130	-2519
1026.198	-2652
1026.266	-2477
1026.333	-2366
1026.401	-1917
1026.469	-3204
1026.536	-2425
1026.604	-2602
1026.671	-3259
1026.739	-1926
1026.806	-2312
1026.874	-2959
1026.941	-2146
1027.009	-2441
1027.076	-2211
1027.144	-2267
1027.211	-3159
1027.278	-2901
1027.345	-3069
1027.413	-2698
1027.480	-2713
1027.547	-3077
1027.614	-1898
1027.682	-2456
1027.749	-2567
1027.816	-2661
1027.883	-2268
1027.950	-2579
1028.017	-3052
1028.084	-2757
1028.151	-3980
1028.218	-3429
1028.285	-2685
1028.352	-3424
1028.419	-2943
1028.486	-3381
1028.553	-2755
1028.619	-2159
1028.686	-3059
1028.753	-3066
1028.820	-2357
1028.886	-2581
1028.953	-2587
1029.020	-3428
1029.086	-1913
1029.153	-2409
1029.220	-2721
1029.286	-2777
1029.353	-2527
1029.419	-3442
1029.486	-2566
1029.552	-2635
1029.619	-1904
1029.685	-2809
1029.751	-2221
1029.818	-2032
1029.884	-2955
1029.951	-1734
1030.017	-2390
1030.083	-3010
1030.149	-1731
1030.216	-3233
1030.282	-2343
1030.348	-3148
1030.414	-3128
1030.480	-2627
1030.546	-3237
1030.612	-2072
1030.678	-2946
1030.744	-2598
1030.810	-2617
1030.876	-3507
1030.942	-2786
1031.008	-3128
1031.074	-2833
1031.140	-2477
1031.206	-1261
1031.272	-2352
1031.337	-2189
1031.403	-2249
1031.469	-2501
1031.534	-3429
1031.600	-2056
1031.666	-2497
1031.731	-2540
1031.797	-2935
1031.863	-2532
1031.928	-2478
1031.994	-2192
1032.059	-2346
1032.125	-2794
1032.190	-3821
1032.256	-2372
1032.321	-3219
1032.386	-2449
1032.452	-2159
1032.517	-2477
1032.582	-2721
1032.647	-3204
1032.713	-2851
1032.778	-1935
1032.843	-2350
1032.908	-3534
1032.974	-2762
1033.039	-2354
1033.104	-2970
1033.169	-2340
1033.234	-2691
1033.299	-1934
1033.364	-2474
1033.429	-2060
1033.494	-3046
1033.559	-3079
1033.624	-3053
1033.688	-1877
1033.753	-2471
1033.818	-2223
1033.883	-3167
1033.948	-2453
1034.013	-2530
1034.077	-2974
1034.142	-2412
1034.207	-2835
1034.271	-2012
1034.336	-2118
1034.400	-2493
1034.465	-3013
1034.530	-2790
1034.594	-2721
1034.658	-3247
1034.723	-3057
1034.787	-2224
1034.852	-2158
1034.916	-2982
1034.981	-2512
1035.045	-2605
1035.109	-2360
1035.173	-3146
1035.238	-2621
1035.302	-2224
1035.366	-2929
1035.430	-2901
1035.495	-2782
1035.559	-2963
1035.623	-2330
1035.687	-3612
1035.751	-2385
1035.815	-3762
1035.879	-2502
1035.943	-2386
1036.007	-3333
1036.071	-1990
1036.135	-2384
1036.198	-3207
1036.262	-2876
1036.326	-3147
1036.390	-2769
1036.454	-2513
1036.517	-2585
1036.581	-2810
1036.645	-2641
1036.709	-2144
1036.772	-3522
1036.836	-3128
1036.900	-2323
1036.963	-2966
1037.026	-2608
1037.090	-2668
1037.154	-2611
1037.217	-2698
1037.280	-2537
1037.344	-2273
1037.407	-2024
1037.471	-3144
1037.534	-2951
1037.597	-3118
1037.661	-3209
1037.724	-3051
1037.787	-2099
1037.850	-3217
1037.913	-2667
1037.977	-2911
1038.040	-2977
1038.103	-2935
1038.166	-2439
1038.229	-2831
1038.292	-2564
1038.355	-3302
1038.418	-2783
1038.481	-2205
1038.544	-2948
1038.607	-2394
1038.670	-3018
1038.732	-3044
1038.795	-3761
1038.858	-2983
1038.921	-2391
1038.984	-2298
1039.046	-2490
1039.109	-3380
1039.172	-3066
1039.234	-3676
1039.297	-2307
1039.360	-3008
1039.422	-3077
1039.485	-2990
1039.547	-3067
1039.610	-1956
1039.672	-2570
1039.734	-3393
1039.797	-2703
1039.859	-2473
1039.922	-2587
1039.984	-2605
1040.046	-2530
1040.109	-2958
1040.171	-2988
1040.233	-2525
1040.295	-3236
1040.358	-3955
1040.420	-3116
1040.482	-3157
1040.544	-2589
1040.606	-3476
1040.668	-2176
1040.730	-2958
1040.792	-2590
1040.854	-2335
1040.916	-2244
1040.978	-3233
1041.040	-1795
1041.102	-3016
1041.164	-2444
1041.225	-3247
1041.287	-3053
1041.349	-1756
1041.411	-2294
1041.472	-2769
1041.534	-3040
1041.596	-2993
1041.657	-2441
1041.719	-3029
1041.781	-2742
1041.842	-2699
1041.904	-2015
1041.965	-2116
1042.027	-3164
1042.088	-3431
1042.150	-3059
1042.211	-2613
1042.272	-2083
1042.334	-3169
1042.395	-2197
1042.456	-2974
1042.518	-2524
1042.579	-3094
1042.640	-2610
1042.701	-2740
1042.763	-2662
1042.824	-2946
1042.885	-2905
1042.946	-2773
1043.007	-2387
1043.068	-2687
1043.129	-3114
1043.190	-3068
1043.251	-2321
1043.312	-2176
1043.373	-2024
1043.434	-2094
1043.495	-1926
1043.556	-2117
1043.616	-2159
1043.677	-2508
1043.738	-2421
1043.799	-3147
1043.859	-1796
1043.920	-2601
1043.981	-2713
1044.041	-2738
1044.102	-3291
1044.162	-2532
1044.223	-2752
1044.284	-1751
1044.344	-2668
1044.405	-2792
1044.465	-2708
1044.525	-2597
1044.586	-2117
1044.646	-2592
1044.707	-2047
1044.767	-1985
1044.827	-2305
1044.887	-2579
1044.948	-2658
1045.008	-2308
1045.068	-2623
1045.128	-2358
1045.188	-2147
1045.249	-2246
1045.309	-2393
1045.369	-1802
1045.429	-1793
1045.489	-1845
1045.549	-2549
1045.609	-2228
1045.669	-2715
1045.729	-3736
1045.789	-2734
1045.848	-3011
1045.908	-2318
1045.968	-2018
1046.028	-2167
1046.088	-2542
1046.147	-2414
1046.207	-3624
1046.267	-2418
1046.326	-1469
1046.386	-2449
1046.446	-1244
1046.505	-2112
1046.565	-1705
1046.624	-2124
1046.684	-2091
1046.743	-578
1046.803	-1048
1046.862	-776
1046.922	0
