'Start Wavelength	183.907
'End Wavelength	1046.922
'Gate Delay	5.000
'Gate Width (ms)	1.050
'Laser Output Level	0.000
'X Position	0.000
'Y Position	0.000
'Z Position	0.000
'Grid Point Number	1.000
'Shot Number	100.000
183.907	30.000
183.977	92.000
184.047	-497
184.116	1443
184.186	-194
184.256	171
184.325	-111
184.395	-1063
184.465	33
184.534	759
184.604	-362
184.674	912
184.743	-119
184.813	985
184.883	344
184.952	201
185.022	-390
185.092	296
185.161	-2
185.231	781
185.301	466
185.370	911
185.440	376
185.509	360
185.579	-252
185.649	368
185.718	684
185.788	441
185.857	-328
185.927	150
185.996	962
186.066	-305
186.136	-557
186.205	258
186.275	362
186.344	-314
186.414	460
186.483	-647
186.553	783
186.622	1631
186.692	31
186.761	-290
186.831	272
186.900	-622
186.970	-53
187.039	887
187.109	649
187.178	241
187.248	704
187.317	1036
187.387	-540
187.456	643
187.526	287
187.595	482
187.664	-185
187.734	579
187.803	1059
187.873	1150
187.942	552
188.012	748
188.081	-65
188.150	936
188.220	848
188.289	744
188.358	577
188.428	906
188.497	73
188.567	1752
188.636	-257
188.705	687
188.775	691
188.844	-286
188.913	833
188.983	248
189.052	-101
189.121	485
189.191	666
189.260	961
189.329	329
189.399	602
189.468	393
189.537	-168
189.606	37
189.676	603
189.745	902
189.814	1584
189.883	357
189.953	533
190.022	-145
190.091	2266
190.161	2881
190.230	1369
190.299	833
190.368	434
190.437	208
190.507	668
190.576	355
190.645	743
190.714	-114
190.783	153
190.853	560
190.922	719
190.991	22
191.060	274
191.129	-85
191.198	1003
191.268	772
191.337	342
191.406	1264
191.475	208
191.544	417
191.613	280
191.682	468
191.752	397
191.821	-291
191.890	-164
191.959	611
192.028	1368
192.097	-53
192.166	1014
192.235	266
192.304	687
192.373	23
192.442	430
192.511	75
192.580	1275
192.650	228
192.719	-38
192.788	-460
192.857	1306
192.926	-133
192.995	1057
193.064	1121
193.133	1023
193.202	2412
193.271	981
193.340	1791
193.409	2167
193.478	1250
193.547	2012
193.615	2559
193.684	3570
193.753	2450
193.822	1229
193.891	-39
193.960	1085
194.029	684
194.098	1473
194.167	232
194.236	380
194.305	707
194.374	453
194.443	-271
194.512	1726
194.580	953
194.649	1419
194.718	1099
194.787	379
194.856	368
194.925	1102
194.994	997
195.062	1598
195.131	1582
195.200	2065
195.269	2658
195.338	1719
195.407	719
195.475	592
195.544	1435
195.613	2559
195.682	1319
195.751	2029
195.819	2026
195.888	1820
195.957	2393
196.026	2608
196.094	2316
196.163	2047
196.232	1591
196.301	1647
196.369	1789
196.438	1894
196.507	1138
196.576	1745
196.644	818
196.713	387
196.782	718
196.850	1628
196.919	718
196.988	1339
197.056	362
197.125	1393
197.194	1371
197.262	853
197.331	153
197.400	808
197.468	1184
197.537	275
197.606	980
197.674	1633
197.743	2923
197.812	2116
197.880	2190
197.949	1388
198.017	3245
198.086	1735
198.155	1184
198.223	1724
198.292	2719
198.360	1861
198.429	977
198.497	1348
198.566	1978
198.635	4050
198.703	1568
198.772	872
198.840	3484
198.909	4418
198.977	1725
199.046	2173
199.114	1680
199.183	1202
199.251	1466
199.320	773
199.388	967
199.457	1190
199.525	783
199.594	1918
199.662	1054
199.731	828
199.799	862
199.867	1668
199.936	977
200.004	1622
200.073	1591
200.141	1166
200.210	326
200.278	1011
200.346	1120
200.415	1463
200.483	1569
200.552	1830
200.620	862
200.688	2102
200.757	1967
200.825	1274
200.893	1197
200.962	1337
201.030	1454
201.098	1338
201.167	1052
201.235	1504
201.303	1344
201.372	2045
201.440	1217
201.508	2185
201.577	1425
201.645	1942
201.713	1432
201.781	1779
201.850	2430
201.918	2200
201.986	960
202.055	1437
202.123	861
202.191	1454
202.259	865
202.327	1373
202.396	645
202.464	1789
202.532	2202
202.600	6030
202.669	4609
202.737	1939
202.805	1200
202.873	1642
202.941	705
203.009	1614
203.078	1656
203.146	1764
203.214	593
203.282	697
203.350	1850
203.418	1231
203.487	1681
203.555	1390
203.623	1487
203.691	1473
203.759	1192
203.827	1773
203.895	1607
203.963	1659
204.031	1089
204.099	1436
204.168	876
204.236	2070
204.304	1892
204.372	1894
204.440	1384
204.508	1025
204.576	830
204.644	1106
204.712	1161
204.780	1514
204.848	1434
204.916	1867
204.984	1230
205.052	1419
205.120	1480
205.188	1305
205.256	752
205.324	1049
205.392	1160
205.460	1600
205.528	636
205.596	1390
205.664	1253
205.732	1178
205.799	4134
205.867	6401
205.935	1324
206.003	1580
206.071	1130
206.139	1811
206.207	1514
206.275	1995
206.343	2012
206.411	1569
206.478	1708
206.546	1192
206.614	2073
206.682	1790
206.750	1663
206.818	2694
206.885	1941
206.953	1113
207.021	1381
207.089	1729
207.157	805
207.225	2395
207.292	1454
207.360	1531
207.428	1400
207.496	2113
207.563	1657
207.631	2042
207.699	868
207.767	1570
207.834	945
207.902	1678
207.970	1887
208.038	1309
208.105	1902
208.173	1647
208.241	1953
208.309	2896
208.376	2547
208.444	4493
208.512	2449
208.579	1697
208.647	1898
208.715	2915
208.782	1991
208.850	1467
208.918	1839
208.985	1812
209.053	1828
209.120	1915
209.188	1713
209.256	2330
209.323	2063
209.391	2849
209.459	2653
209.526	2207
209.594	1520
209.661	1605
209.729	1764
209.796	2353
209.864	2564
209.932	1599
209.999	3361
210.067	2095
210.134	2711
210.202	2305
210.269	4442
210.337	3440
210.404	2006
210.472	1912
210.539	2507
210.607	2461
210.674	3343
210.742	2203
210.809	2132
210.877	2885
210.944	4039
211.012	2517
211.079	3839
211.146	2073
211.214	1827
211.281	2480
211.349	3205
211.416	3196
211.484	2894
211.551	2926
211.618	2020
211.686	2621
211.753	1403
211.821	3490
211.888	2487
211.955	2951
212.023	2559
212.090	2496
212.157	2699
212.225	2685
212.292	5575
212.359	8193
212.427	17148
212.494	9732
212.561	4354
212.629	3701
212.696	2608
212.763	3456
212.831	2030
212.898	2920
212.965	2462
213.032	3088
213.100	3600
213.167	3502
213.234	3241
213.301	2693
213.369	2276
213.436	3141
213.503	2419
213.570	3582
213.638	2482
213.705	2381
213.772	1517
213.839	3579
213.906	4241
213.973	3272
214.041	2913
214.108	3284
214.175	3732
214.242	3475
214.309	2639
214.376	2825
214.444	2888
214.511	3619
214.578	3618
214.645	2921
214.712	3219
214.779	3760
214.846	2558
214.913	3949
214.980	3486
215.048	4369
215.115	4439
215.182	4901
215.249	4193
215.316	2980
215.383	3746
215.450	3522
215.517	3188
215.584	3006
215.651	3226
215.718	3317
215.785	4405
215.852	3760
215.919	5005
215.986	4535
216.053	3569
216.120	2988
216.187	3568
216.254	3899
216.321	3611
216.388	3945
216.455	4068
216.522	4770
216.589	5826
216.656	8032
216.722	7340
216.789	5658
216.856	5309
216.923	4624
216.990	4394
217.057	5065
217.124	5232
217.191	4446
217.258	6347
217.324	6929
217.391	7042
217.458	6229
217.525	4717
217.592	4110
217.659	3077
217.725	4997
217.792	4713
217.859	6306
217.926	3113
217.993	3404
218.059	2567
218.126	3047
218.193	3682
218.260	3083
218.327	2019
218.393	3757
218.460	3048
218.527	1811
218.594	3328
218.660	6601
218.727	6272
218.794	3110
218.860	3920
218.927	1881
218.994	1518
219.061	2823
219.127	3186
219.194	5499
219.261	2989
219.327	2322
219.394	2350
219.461	2582
219.527	2235
219.594	4435
219.661	3146
219.727	1929
219.794	2646
219.860	2050
219.927	3239
219.994	5047
220.060	7463
220.127	5948
220.193	3599
220.260	3775
220.326	5171
220.393	7250
220.460	10298
220.526	7690
220.593	4753
220.659	5950
220.726	5482
220.792	10669
220.859	10153
220.925	12910
220.992	16911
221.058	16140
221.125	14862
221.191	10619
221.258	5089
221.324	3919
221.391	3982
221.457	3272
221.524	2849
221.590	5178
221.657	11802
221.723	8901
221.789	8113
221.856	8548
221.922	4603
221.989	4086
222.055	3543
222.121	2951
222.188	3948
222.254	3809
222.321	2415
222.387	3123
222.453	2926
222.520	2220
222.586	2602
222.652	2733
222.719	1893
222.785	4434
222.851	2515
222.918	3060
222.984	3000
223.050	3335
223.116	2030
223.183	3199
223.249	1329
223.315	2125
223.382	1850
223.448	2160
223.514	1551
223.580	1913
223.647	1144
223.713	1485
223.779	2004
223.845	2242
223.911	2461
223.978	1800
224.044	2665
224.110	2558
224.176	2931
224.242	2717
224.309	984
224.375	1888
224.441	2050
224.507	1999
224.573	1940
224.639	3494
224.705	1710
224.772	2580
224.838	2833
224.904	4266
224.970	2812
225.036	2756
225.102	2794
225.168	3237
225.234	2439
225.300	2997
225.366	2442
225.432	2683
225.499	2203
225.565	3224
225.631	2809
225.697	3871
225.763	4378
225.829	4008
225.895	4585
225.961	6298
226.027	5658
226.093	4911
226.159	6393
226.225	8355
226.291	15845
226.357	25807
226.423	15040
226.489	9922
226.554	6360
226.620	5386
226.686	7285
226.752	11986
226.818	15345
226.884	31153
226.950	28710
227.016	13285
227.082	8068
227.148	6637
227.214	6528
227.279	5986
227.345	4432
227.411	4703
227.477	4500
227.543	7849
227.609	8611
227.674	4962
227.740	4682
227.806	4185
227.872	4081
227.938	3856
228.003	6555
228.069	3919
228.135	2869
228.201	3453
228.267	3459
228.332	4625
228.398	5170
228.464	4187
228.530	2683
228.595	2146
228.661	2653
228.727	5905
228.792	5599
228.858	3192
228.924	3386
228.990	6316
229.055	4776
229.121	6535
229.187	4613
229.252	3703
229.318	3091
229.384	4481
229.449	4616
229.515	1761
229.581	1083
229.646	4113
229.712	3886
229.777	8571
229.843	8209
229.909	7029
229.974	6614
230.040	6693
230.105	5052
230.171	5669
230.236	5113
230.302	9152
230.368	7835
230.433	4638
230.499	4176
230.564	4856
230.630	3541
230.695	3704
230.761	3904
230.826	2753
230.892	6695
230.957	3973
231.023	3208
231.088	4242
231.154	3341
231.219	5137
231.284	4104
231.350	6374
231.415	3241
231.481	3915
231.546	3177
231.612	4178
231.677	3152
231.742	2025
231.808	4180
231.873	2484
231.939	1336
232.004	7330
232.069	6451
232.135	4077
232.200	3160
232.265	3273
232.331	2203
232.396	2984
232.461	2333
232.527	2610
232.592	2554
232.657	3228
232.723	5602
232.788	5228
232.853	3416
232.918	3538
232.984	2385
233.049	2552
233.114	5111
233.179	5253
233.245	7606
233.310	9179
233.375	3163
233.440	4459
233.506	3021
233.571	2480
233.636	2272
233.701	3215
233.766	5712
233.832	8727
233.897	4550
233.962	4870
234.027	7978
234.092	5600
234.157	4788
234.222	4213
234.288	6476
234.353	16673
234.418	16875
234.483	11551
234.548	8739
234.613	6875
234.678	6824
234.743	6355
234.808	18664
234.873	12680
234.938	7988
235.004	5658
235.069	4683
235.134	4617
235.199	5122
235.264	4080
235.329	3101
235.394	4277
235.459	6653
235.524	5457
235.589	5270
235.654	3662
235.719	2994
235.784	4504
235.849	4058
235.913	10686
235.978	11024
236.043	14137
236.108	5711
236.173	5369
236.238	6205
236.303	4493
236.368	3991
236.433	7727
236.498	11899
236.563	7936
236.627	13338
236.692	38704
236.757	34132
236.822	15726
236.887	14241
236.952	11251
237.017	8129
237.081	10058
237.146	10805
237.211	19341
237.276	38716
237.341	63605
237.405	35120
237.470	16308
237.535	12569
237.600	8148
237.664	7210
237.729	6361
237.794	5990
237.859	14119
237.923	11204
237.988	7338
238.053	9189
238.118	10426
238.182	20988
238.247	20603
238.312	12561
238.376	9060
238.441	6773
238.506	7826
238.570	4054
238.635	4815
238.700	3820
238.764	4415
238.829	10305
238.893	13951
238.958	8298
239.023	6945
239.087	4674
239.152	5629
239.216	4022
239.281	4924
239.346	4481
239.410	4893
239.475	5046
239.539	20527
239.604	16290
239.668	6893
239.733	4879
239.797	6323
239.862	12086
239.926	17892
239.991	8288
240.055	5767
240.120	4910
240.184	5490
240.249	4104
240.313	4362
240.378	4501
240.442	13767
240.507	19205
240.571	8496
240.635	9323
240.700	14255
240.764	7044
240.829	5546
240.893	2602
240.957	5025
241.022	11215
241.086	21560
241.151	11894
241.215	5104
241.279	7315
241.344	12532
241.408	7967
241.472	5536
241.537	6288
241.601	5793
241.665	3707
241.730	5077
241.794	5813
241.858	4394
241.922	5255
241.987	5906
242.051	4328
242.115	4329
242.179	5136
242.244	3822
242.308	5969
242.372	5158
242.436	6051
242.501	6087
242.565	4271
242.629	5424
242.693	4819
242.757	4005
242.822	4065
242.886	5444
242.950	5768
243.014	6005
243.078	6953
243.142	8712
243.206	6360
243.271	6880
243.335	5624
243.399	8784
243.463	23142
243.527	61007
243.591	23608
243.655	12033
243.719	6582
243.783	8533
243.847	11525
243.911	15641
243.975	20543
244.040	16944
244.104	8126
244.168	6809
244.232	11091
244.296	16560
244.360	14387
244.424	9443
244.488	7637
244.552	7283
244.615	3979
244.679	5844
244.743	7576
244.807	8687
244.871	5984
244.935	5812
244.999	3882
245.063	5900
245.127	6879
245.191	10466
245.255	10668
245.319	10480
245.383	8966
245.446	8084
245.510	5355
245.574	8167
245.638	7401
245.702	6717
245.766	15216
245.829	11645
245.893	7333
245.957	6385
246.021	7218
246.085	7956
246.149	9215
246.212	20319
246.276	28200
246.340	15339
246.404	11087
246.467	11497
246.531	14637
246.595	11613
246.659	9688
246.722	9500
246.786	13400
246.850	11903
246.913	14925
246.977	7560
247.041	7985
247.104	9445
247.168	7841
247.232	18847
247.295	36498
247.359	21716
247.423	10735
247.486	18908
247.550	13292
247.614	9892
247.677	14418
247.741	9631
247.804	7294
247.868	8744
247.932	16720
247.995	37453
248.059	16403
248.122	9216
248.186	11979
248.249	19962
248.313	53161
248.376	59065
248.440	41708
248.503	18597
248.567	15581
248.630	20497
248.694	28777
248.757	34550
248.821	57654
248.884	43639
248.948	36404
249.011	50614
249.075	67152
249.138	63136
249.202	30762
249.265	19969
249.328	21869
249.392	17484
249.455	14843
249.519	10823
249.582	14650
249.645	21878
249.709	16067
249.772	11859
249.835	10912
249.899	12069
249.962	10744
250.025	9914
250.089	23714
250.152	35468
250.215	19657
250.279	14891
250.342	13026
250.405	13113
250.468	10775
250.532	15213
250.595	21926
250.658	57456
250.721	92285
250.785	41549
250.848	23298
250.911	15103
250.974	13516
251.038	17814
251.101	36836
251.164	22346
251.227	22736
251.290	19103
251.354	24499
251.417	76665
251.480	82505
251.543	57909
251.606	129473
251.669	109318
251.732	49168
251.795	51521
251.859	49686
251.922	88106
251.985	60007
252.048	25784
252.111	20844
252.174	21318
252.237	37026
252.300	70659
252.363	73031
252.426	115641
252.489	59021
252.552	33699
252.615	23798
252.678	25850
252.741	52143
252.804	64294
252.867	115348
252.930	86275
252.993	50006
253.056	32448
253.119	24525
253.182	17679
253.245	29124
253.308	26319
253.371	28608
253.434	25463
253.497	22002
253.559	37838
253.622	28502
253.685	42740
253.748	46539
253.811	21700
253.874	25114
253.937	24629
254.000	19341
254.062	28576
254.125	41958
254.188	33997
254.251	32818
254.314	17703
254.376	31230
254.439	37621
254.502	35032
254.565	30286
254.628	51516
254.690	39059
254.753	22029
254.816	18650
254.878	19047
254.941	28795
255.004	29849
255.067	15881
255.129	18889
255.192	11915
255.255	8886
255.317	12745
255.380	8549
255.443	7721
255.505	7235
255.568	7035
255.631	7440
255.693	8754
255.756	5783
255.819	7568
255.881	5277
255.944	6391
256.006	6027
256.069	6498
256.132	5143
256.194	9603
256.257	22444
256.319	17483
256.382	16711
256.444	10139
256.507	8568
256.569	6641
256.632	7497
256.694	12529
256.757	23642
256.819	64440
256.882	29046
256.944	14779
257.007	12907
257.069	15658
257.132	8922
257.194	8771
257.257	7307
257.319	7459
257.381	8055
257.444	17792
257.506	70748
257.569	88445
257.631	50024
257.693	29487
257.756	14664
257.818	15204
257.880	9019
257.943	9567
258.005	7816
258.067	7732
258.130	7087
258.192	10930
258.254	24311
258.317	14456
258.379	8887
258.441	19669
258.503	19315
258.566	23035
258.628	31795
258.690	9572
258.753	10636
258.815	23428
258.877	13329
258.939	7279
259.001	6562
259.064	6914
259.126	9671
259.188	13437
259.250	8886
259.312	10850
259.375	24358
259.437	18906
259.499	9046
259.561	6959
259.623	7697
259.685	6782
259.747	8099
259.809	20839
259.872	40259
259.934	55967
259.996	52062
260.058	15832
260.120	9367
260.182	8166
260.244	6629
260.306	6120
260.368	6630
260.430	6392
260.492	10724
260.554	19258
260.616	18884
260.678	31910
260.740	44055
260.802	14337
260.864	13110
260.926	10382
260.988	10897
261.050	9751
261.112	12832
261.174	34689
261.236	33779
261.298	13707
261.359	20139
261.421	31034
261.483	10226
261.545	9867
261.607	6285
261.669	7534
261.731	14100
261.793	35784
261.854	17660
261.916	12371
261.978	7766
262.040	8819
262.102	8519
262.164	16022
262.225	12726
262.287	8618
262.349	19504
262.411	17052
262.472	8426
262.534	14031
262.596	29816
262.658	10536
262.719	6828
262.781	9972
262.843	27683
262.904	14015
262.966	10345
263.028	12075
263.090	42045
263.151	105052
263.213	38646
263.275	23648
263.336	10858
263.398	9058
263.459	6746
263.521	7545
263.583	18749
263.644	14582
263.706	7132
263.767	4635
263.829	5408
263.891	4356
263.952	3898
264.014	4537
264.075	4753
264.137	10053
264.198	11033
264.260	4832
264.321	4287
264.383	10809
264.444	19958
264.506	6942
264.567	6889
264.629	7334
264.690	8890
264.752	8689
264.813	7330
264.875	4782
264.936	4197
264.998	4435
265.059	3635
265.120	5921
265.182	8840
265.243	33995
265.305	35001
265.366	11074
265.427	6459
265.489	6440
265.550	4066
265.611	7714
265.673	7158
265.734	5885
265.795	4782
265.857	4430
265.918	4230
265.979	11145
266.040	52354
266.102	48337
266.163	15152
266.224	14705
266.286	8854
266.347	7014
266.408	7527
266.469	8545
266.530	5863
266.592	6147
266.653	13622
266.714	25297
266.775	9810
266.836	6744
266.898	5320
266.959	8678
267.020	6414
267.081	6536
267.142	5472
267.203	5959
267.264	5131
267.326	8126
267.387	6024
267.448	5082
267.509	6331
267.570	5930
267.631	4891
267.692	5147
267.753	5370
267.814	5020
267.875	10587
267.936	25687
267.997	10297
268.058	10747
268.119	7879
268.180	8111
268.241	6799
268.302	6261
268.363	5222
268.424	7217
268.485	6264
268.546	4774
268.607	3797
268.668	4053
268.729	3671
268.790	5062
268.851	6275
268.912	15649
268.972	23561
269.033	13987
269.094	6372
269.155	5678
269.216	5600
269.277	5642
269.338	4519
269.398	5775
269.459	7500
269.520	12271
269.581	15574
269.642	20081
269.702	12067
269.763	9339
269.824	6825
269.885	9501
269.945	15332
270.006	7354
270.067	4351
270.128	4794
270.188	4274
270.249	5377
270.310	4655
270.370	5437
270.431	4863
270.492	4562
270.553	5373
270.613	15783
270.674	28005
270.734	12292
270.795	7522
270.856	12195
270.916	10355
270.977	6358
271.038	8972
271.098	9256
271.159	14374
271.219	16059
271.280	6427
271.340	5688
271.401	7994
271.462	19773
271.522	12286
271.583	7943
271.643	7473
271.704	7718
271.764	8172
271.825	21062
271.885	58186
271.946	77381
272.006	30483
272.066	35948
272.127	58701
272.187	21805
272.248	12177
272.308	12911
272.369	37543
272.429	24898
272.489	20046
272.550	22954
272.610	23625
272.671	20093
272.731	14313
272.791	25833
272.852	16750
272.912	14776
272.972	8716
273.033	7717
273.093	13941
273.153	14176
273.214	8646
273.274	10368
273.334	25357
273.394	58327
273.455	32168
273.515	27387
273.575	53587
273.635	25815
273.696	32510
273.756	58830
273.816	28177
273.876	17822
273.936	28277
273.997	47984
274.057	15271
274.117	13745
274.177	19069
274.237	67628
274.297	59697
274.358	47420
274.418	45473
274.478	40185
274.538	16089
274.598	14124
274.658	40743
274.718	56370
274.778	23744
274.838	13143
274.898	23700
274.958	72498
275.018	59025
275.078	41084
275.138	20500
275.198	11747
275.258	9091
275.318	12454
275.378	22877
275.438	26279
275.498	16287
275.558	31632
275.618	61974
275.678	42854
275.738	28597
275.798	21929
275.858	10165
275.918	7676
275.978	10552
276.038	10668
276.098	7828
276.157	15793
276.217	48064
276.277	24205
276.337	19984
276.397	10585
276.457	13024
276.517	9329
276.576	7133
276.636	6903
276.696	14586
276.756	29223
276.815	22711
276.875	11802
276.935	13811
276.995	13118
277.055	7515
277.114	7432
277.174	10525
277.234	35612
277.293	18585
277.353	12754
277.413	7964
277.472	9928
277.532	10270
277.592	11246
277.651	31585
277.711	60396
277.771	21835
277.830	66638
277.890	59414
277.950	39784
278.009	97155
278.069	44683
278.128	42548
278.188	64491
278.248	31148
278.307	65522
278.367	43957
278.426	16260
278.486	10717
278.545	9230
278.605	7487
278.664	7284
278.724	9072
278.783	21370
278.843	54642
278.902	19737
278.962	14601
279.021	16235
279.081	19459
279.140	18866
279.199	16762
279.259	14702
279.318	16109
279.378	20534
279.437	35308
279.496	100257
279.556	242283
279.615	215125
279.675	78072
279.734	45861
279.793	57567
279.853	74028
279.912	32951
279.971	20990
280.031	18854
280.090	28022
280.149	48024
280.208	49524
280.268	162351
280.327	186430
280.386	59692
280.445	42624
280.505	40173
280.564	19802
280.623	15363
280.682	21283
280.742	33872
280.801	13305
280.860	9991
280.919	9170
280.978	8257
281.037	8077
281.097	7486
281.156	8773
281.215	8326
281.274	9662
281.333	32862
281.392	28298
281.451	9142
281.510	7055
281.569	6857
281.628	7253
281.688	5896
281.747	7864
281.806	8467
281.865	6595
281.924	6281
281.983	8039
282.042	4228
282.101	5855
282.160	5332
282.219	5523
282.278	7598
282.337	23747
282.396	17892
282.454	8761
282.513	9903
282.572	35771
282.631	24877
282.690	9567
282.749	7262
282.808	10598
282.867	9323
282.926	11320
282.985	5569
283.043	5454
283.102	7160
283.161	7742
283.220	16083
283.279	35861
283.338	13411
283.396	9725
283.455	9363
283.514	11462
283.573	17065
283.631	13246
283.690	9055
283.749	9452
283.808	18178
283.866	23626
283.925	10274
283.984	8631
284.043	13197
284.101	15708
284.160	10092
284.219	10543
284.277	12201
284.336	19376
284.395	51144
284.453	44364
284.512	19167
284.570	28634
284.629	25705
284.688	25021
284.746	28660
284.805	32566
284.863	42478
284.922	54180
284.981	62877
285.039	87526
285.098	139086
285.156	233712
285.215	221504
285.273	220346
285.332	251097
285.390	168463
285.449	109059
285.507	76793
285.566	55523
285.624	45073
285.683	34101
285.741	28060
285.799	23845
285.858	22115
285.916	18989
285.975	15935
286.033	13344
286.091	12168
286.150	9863
286.208	10583
286.267	11517
286.325	13803
286.383	20462
286.442	17162
286.500	8582
286.558	9053
286.616	7785
286.675	11290
286.733	10255
286.791	10325
286.850	10538
286.908	12805
286.966	22142
287.024	11144
287.083	6380
287.141	6407
287.199	7941
287.257	13655
287.315	9629
287.374	10480
287.432	22020
287.490	16386
287.548	10137
287.606	7807
287.664	6599
287.723	11064
287.781	14477
287.839	8228
287.897	9141
287.955	11123
288.013	15586
288.071	34751
288.129	111094
288.187	276867
288.245	143211
288.303	48465
288.361	28679
288.419	21230
288.477	14593
288.535	11552
288.593	9042
288.651	8132
288.709	6561
288.767	7030
288.825	7637
288.883	5798
288.941	4491
288.999	4618
289.057	5352
289.115	3760
289.173	4589
289.231	6739
289.289	5458
289.346	5423
289.404	7437
289.462	14826
289.520	15932
289.578	7586
289.636	3238
289.694	2884
289.751	3296
289.809	4064
289.867	5394
289.925	6482
289.983	9935
290.040	5109
290.098	4009
290.156	6498
290.214	9561
290.271	5504
290.329	2968
290.387	3054
290.444	3183
290.502	2608
290.560	2672
290.617	3011
290.675	3760
290.733	4177
290.790	5017
290.848	4774
290.906	4666
290.963	4715
291.021	4384
291.078	3867
291.136	4504
291.194	12419
291.251	29431
291.309	10224
291.366	4401
291.424	4766
291.481	5130
291.539	6342
291.596	5698
291.654	3722
291.711	3363
291.769	5299
291.826	15672
291.884	11381
291.941	4926
291.999	4812
292.056	6562
292.114	8641
292.171	4249
292.228	5429
292.286	7916
292.343	16836
292.401	18901
292.458	10852
292.515	7106
292.573	10621
292.630	9506
292.687	9230
292.745	6792
292.802	7484
292.859	14700
292.917	39343
292.974	27469
293.031	9036
293.089	5526
293.146	4761
293.203	4679
293.260	3635
293.318	4935
293.375	5664
293.432	3797
293.489	4318
293.546	4323
293.604	9406
293.661	23470
293.718	58101
293.775	31276
293.832	18169
293.889	14608
293.947	14335
294.004	9723
294.061	10429
294.118	17616
294.175	32468
294.232	25155
294.289	13709
294.346	7689
294.403	8587
294.460	8259
294.517	6780
294.574	6204
294.631	5228
294.688	6614
294.745	17488
294.802	53977
294.859	48448
294.916	22286
294.973	16115
295.030	14928
295.087	14602
295.144	8939
295.201	7460
295.258	6206
295.315	9610
295.372	25207
295.429	48344
295.486	22216
295.542	10988
295.599	13189
295.656	20821
295.713	22704
295.770	40876
295.827	16963
295.883	9084
295.940	9378
295.997	18521
296.054	18861
296.111	9763
296.167	6118
296.224	4665
296.281	4368
296.338	4127
296.394	4050
296.451	6849
296.508	18190
296.564	37868
296.621	26109
296.678	49655
296.734	73236
296.791	28448
296.848	15701
296.904	18386
296.961	40272
297.018	53406
297.074	37548
297.131	14891
297.187	11324
297.244	18469
297.301	44423
297.357	82922
297.414	33265
297.470	13453
297.527	9807
297.583	8374
297.640	9577
297.696	7192
297.753	5157
297.809	4679
297.866	3220
297.922	4412
297.979	4366
298.035	6554
298.092	11106
298.148	28333
298.204	31668
298.261	15548
298.317	22706
298.374	58402
298.430	40102
298.486	20084
298.543	14496
298.599	11699
298.656	13292
298.712	23355
298.768	54691
298.824	39120
298.881	13412
298.937	8340
298.993	7409
299.050	11743
299.106	10314
299.162	7844
299.218	8051
299.275	7301
299.331	7820
299.387	16322
299.443	51946
299.500	60125
299.556	24097
299.612	12589
299.668	11506
299.724	12393
299.780	12632
299.837	9816
299.893	14016
299.949	46556
300.005	60178
300.061	46929
300.117	72095
300.173	39410
300.229	19783
300.285	25352
300.341	32002
300.397	15908
300.453	10114
300.510	7894
300.566	8750
300.622	10070
300.678	23309
300.734	51324
300.790	48481
300.845	56794
300.901	36931
300.957	51311
301.013	44083
301.069	18099
301.125	13161
301.181	16535
301.237	11800
301.293	8106
301.349	6233
301.405	5385
301.461	5200
301.516	6626
301.572	9114
301.628	20026
301.684	17922
301.740	20325
301.796	35016
301.851	25283
301.907	42803
301.963	45861
302.019	60231
302.074	138402
302.130	150499
302.186	71275
302.242	30271
302.297	20445
302.353	19680
302.409	34915
302.464	31393
302.520	27022
302.576	60338
302.631	72144
302.687	45822
302.743	20748
302.798	10295
302.854	9193
302.910	9204
302.965	11908
303.021	22100
303.076	24244
303.132	30326
303.187	38304
303.243	19416
303.299	10338
303.354	6816
303.410	6747
303.465	6125
303.521	5607
303.576	6717
303.632	9171
303.687	16180
303.743	45939
303.798	44411
303.853	18232
303.909	10102
303.964	10407
304.020	15837
304.075	29006
304.130	24448
304.186	46226
304.241	48369
304.297	37541
304.352	17778
304.358	17100
304.407	11601
304.449	10077
304.463	9570
304.518	11089
304.539	10502
304.573	9575
304.629	9141
304.630	9242
304.684	14223
304.720	27907
304.739	34794
304.794	57162
304.811	49206
304.850	30148
304.902	14441
304.905	13438
304.960	9219
304.992	8790
305.015	8451
305.071	8495
305.083	8164
305.126	6960
305.173	5841
305.181	5677
305.236	4266
305.264	5224
305.292	6185
305.347	7535
305.354	7577
305.402	7907
305.445	8175
305.457	8277
305.512	12401
305.535	12905
305.567	13309
305.622	11417
305.626	11748
305.678	20239
305.716	39922
305.733	46943
305.788	58933
305.807	50926
305.843	36990
305.897	44772
305.898	44834
305.953	48112
305.988	32209
306.008	23475
306.063	13616
306.078	12408
306.118	9642
306.168	7409
306.173	7239
306.228	5729
306.259	5359
306.283	5028
306.338	4393
306.349	4467
306.393	4901
306.440	6014
306.448	6185
306.503	5959
306.530	5921
306.558	6826
306.613	14215
306.620	15576
306.668	27097
306.711	44714
306.723	47455
306.778	42473
306.801	33425
306.833	22459
306.888	11331
306.892	10899
306.943	7538
306.982	6264
306.997	5817
307.052	5072
307.072	5028
307.107	5173
307.162	5542
307.163	5549
307.217	6474
307.253	7612
307.272	7895
307.327	7652
307.343	7692
307.381	8023
307.434	8781
307.436	9066
307.491	17560
307.524	26403
307.546	29730
307.600	39933
307.614	36599
307.655	22906
307.704	10856
307.710	10171
307.765	10059
307.795	11204
307.819	12139
307.874	15462
307.885	15447
307.929	13871
307.975	13066
307.984	13548
308.038	18926
308.065	24206
308.093	41716
308.148	86689
308.156	97531
308.202	154502
308.246	192166
308.257	189035
308.312	107760
308.336	79262
308.366	62271
308.421	44330
308.426	42280
308.475	26130
308.517	17149
308.530	15577
308.585	13618
308.607	13114
308.639	12720
308.694	12252
308.697	12328
308.748	16906
308.787	21369
308.803	21295
308.857	18080
308.877	16810
308.912	16773
308.967	18200
308.967	18281
309.021	29189
309.058	38200
309.076	47246
309.130	82435
309.148	95491
309.185	152097
309.238	242822
309.239	243488
309.293	273570
309.328	261853
309.348	231198
309.402	121700
309.418	94062
309.457	67430
309.508	44607
309.511	44131
309.566	45935
309.598	49842
309.620	61820
309.674	99700
309.688	109973
309.729	106650
309.778	85582
309.783	83393
309.837	55831
309.868	43018
309.892	46076
309.946	59714
309.959	65426
310.001	82646
310.049	95690
310.055	92658
310.109	55746
310.139	34542
310.163	26424
310.218	14481
310.229	12731
310.272	10188
310.319	8226
310.326	7954
310.381	6410
310.409	5819
310.435	5529
310.489	4994
310.499	5000
310.543	5045
310.589	4944
310.598	4850
310.652	4488
310.679	4271
310.706	3890
310.760	3161
310.769	3070
310.814	2936
310.859	2838
310.868	2896
310.923	3293
310.948	3529
310.977	4076
311.031	5014
311.038	5172
311.085	4845
311.128	4221
311.139	4194
311.193	4449
311.218	4427
311.247	3927
311.301	3110
311.308	3017
311.356	3437
311.398	3812
311.410	3740
311.464	3401
311.488	3276
311.518	3495
311.572	3898
311.578	3966
311.626	6524
311.668	8817
311.680	8344
311.734	5865
311.758	4792
311.788	4423
311.842	3865
311.847	3820
311.896	5277
311.937	6583
311.950	6611
312.004	6728
312.027	6772
312.058	6160
312.112	5082
312.117	4980
312.165	4205
312.207	3564
312.297	3538
312.386	3463
312.476	5352
312.566	14659
312.656	6310
312.745	3238
312.835	3031
312.925	4646
313.015	2943
313.104	3744
313.194	3884
313.284	3988
313.374	7004
313.463	6414
313.553	4513
313.643	3330
313.732	3295
313.822	2519
313.912	3762
314.001	5092
314.091	3871
314.180	5060
314.270	7271
314.360	7806
314.449	7503
314.539	3113
314.628	3236
314.718	3632
314.808	4889
314.897	3802
314.987	4504
315.076	6547
315.166	8291
315.255	6547
315.345	7427
315.434	5544
315.524	5980
315.613	8506
315.703	11100
315.792	15394
315.881	39771
315.971	15471
316.060	13873
316.150	12400
316.239	10616
316.328	4497
316.418	4878
316.507	4674
316.597	7737
316.686	5897
316.775	7097
316.865	10810
316.954	3667
317.043	2750
317.133	4428
317.222	3055
317.311	4055
317.400	3933
317.490	8914
317.579	10025
317.668	6273
317.757	11052
317.847	22628
317.936	70887
318.025	36042
318.114	18767
318.203	10838
318.293	8646
318.382	11945
318.471	13796
318.560	12731
318.649	22359
318.738	6448
318.828	8645
318.917	9639
319.006	8209
319.095	16271
319.184	35560
319.273	34178
319.362	24861
319.451	8520
319.540	8404
319.629	20893
319.718	35952
319.807	10666
319.896	17512
319.985	47999
320.074	25431
320.163	5618
320.252	7166
320.341	5653
320.430	6154
320.519	15946
320.608	8564
320.697	4587
320.786	5872
320.875	10847
320.964	16393
321.053	24447
321.142	38135
321.230	37990
321.319	23894
321.408	58501
321.497	19924
321.586	23147
321.675	17296
321.764	18057
321.852	12653
321.941	34242
322.030	22829
322.119	20843
322.207	61269
322.296	22707
322.385	12468
322.474	21885
322.562	77447
322.651	33334
322.740	26940
322.829	32144
322.917	18128
323.006	18482
323.095	17010
323.183	8538
323.272	13935
323.361	23517
323.449	47296
323.538	17406
323.626	32989
323.715	18462
323.804	9574
323.892	31223
323.981	24980
324.069	7229
324.158	14097
324.246	13221
324.335	11903
324.424	22941
324.512	8470
324.601	16149
324.689	46587
324.778	89832
324.866	20088
324.954	6215
325.043	6798
325.131	10171
325.220	11817
325.308	12638
325.397	12288
325.485	8970
325.574	3272
325.662	4611
325.750	5774
325.839	3887
325.927	3614
326.015	5412
326.104	5060
326.192	6740
326.280	4032
326.369	4323
326.457	9049
326.545	18459
326.634	7580
326.722	1989
326.810	4821
326.898	4217
326.987	5580
327.075	15328
327.163	13444
327.251	10205
327.340	41073
327.428	67538
327.516	7170
327.604	4796
327.692	3292
327.781	3644
327.869	5975
327.957	5449
328.045	7625
328.133	3441
328.221	2742
328.309	4622
328.397	4621
328.485	6564
328.574	11101
328.662	40705
328.750	16114
328.838	4476
328.926	3311
329.014	3424
329.102	6543
329.190	13128
329.278	11015
329.366	2511
329.454	3081
329.542	2412
329.630	1668
329.718	3209
329.806	5827
329.893	3554
329.981	2931
330.069	3591
330.157	12443
330.245	32036
330.333	16272
330.421	6047
330.509	11861
330.597	51671
330.684	29210
330.772	6672
330.860	4704
330.948	5363
331.036	4673
331.123	2492
331.211	1837
331.299	2621
331.387	5233
331.475	11416
331.562	4243
331.650	2903
331.738	3283
331.825	2849
331.913	2762
332.001	2375
332.089	2635
332.176	4524
332.264	12721
332.352	10345
332.439	6011
332.527	3432
332.614	2063
332.702	3452
332.790	3337
332.877	9426
332.965	16937
333.052	8919
333.140	10704
333.228	28597
333.315	7105
333.403	4532
333.490	8958
333.578	13837
333.665	41271
333.753	17311
333.840	4273
333.928	4405
334.015	9234
334.103	13463
334.190	37696
334.278	10771
334.365	5781
334.452	5042
334.540	3756
334.627	3844
334.715	5597
334.802	11720
334.889	46015
334.977	47969
335.064	9008
335.151	4825
335.239	4714
335.326	5289
335.413	19295
335.501	25585
335.588	5681
335.675	3716
335.762	3866
335.850	5171
335.937	6667
336.024	14843
336.111	50167
336.199	23778
336.286	6326
336.373	3411
336.460	2537
336.547	3328
336.635	5317
336.722	3787
336.809	2771
336.896	6129
336.983	16416
337.070	32197
337.157	39907
337.245	29504
337.332	19398
337.419	3094
337.506	2926
337.593	3026
337.680	7759
337.767	20245
337.854	9217
337.941	10396
338.028	12920
338.115	5112
338.202	6191
338.289	9943
338.376	32421
338.463	10573
338.550	11926
338.637	11967
338.724	6565
338.811	8569
338.898	3235
338.984	2499
339.071	2918
339.158	7449
339.245	21457
339.332	11488
339.419	8628
339.506	7773
339.593	3031
339.679	3874
339.766	3517
339.853	6236
339.940	18171
340.027	5060
340.113	5695
340.200	8036
340.287	5453
340.374	8235
340.460	15447
340.547	5653
340.634	13532
340.720	48002
340.807	25698
340.894	4465
340.980	3679
341.067	3147
341.154	6060
341.240	10517
341.327	25195
341.414	7457
341.500	6811
341.587	4377
341.674	5182
341.760	15730
341.847	20087
341.933	5868
342.020	2373
342.106	2678
342.193	6883
342.279	12001
342.366	9579
342.452	16763
342.539	8001
342.625	22688
342.712	53309
342.798	21464
342.885	7795
342.971	2698
343.058	2499
343.144	3369
343.230	3550
343.317	4054
343.403	3304
343.490	2589
343.576	2287
343.662	4292
343.749	4822
343.835	7439
343.921	14447
344.008	72158
344.094	145799
344.180	33577
344.267	15789
344.353	46861
344.439	43512
344.525	23784
344.612	10334
344.698	7942
344.784	5411
344.870	3912
344.957	4653
345.043	9005
345.129	7728
345.215	15322
345.301	7761
345.387	5456
345.474	1925
345.560	3181
345.646	2429
345.732	2603
345.818	5837
345.904	4531
345.990	5686
346.076	4563
346.162	6899
346.249	4427
346.335	2771
346.421	5278
346.507	19799
346.593	61327
346.679	14435
346.765	4007
346.851	4289
346.937	3959
347.023	4562
347.108	5348
347.194	4494
347.280	4275
347.366	6625
347.452	21197
347.538	75091
347.624	57077
347.710	43602
347.796	6541
347.882	3559
347.967	2109
348.053	3540
348.139	2418
348.225	2922
348.311	3154
348.397	3244
348.482	5543
348.568	7143
348.654	3027
348.740	4678
348.825	4671
348.911	10139
348.997	36562
349.083	64037
349.168	9234
349.254	4549
349.340	4718
349.425	2820
349.511	6677
349.597	7513
349.682	17691
349.768	52912
349.854	21892
349.939	4285
350.025	2648
350.110	3659
350.196	3143
350.282	1492
350.367	2722
350.453	4433
350.538	5012
350.624	6075
350.709	5205
350.795	3208
350.880	4045
350.966	5980
351.051	5572
351.137	3915
351.222	5286
351.308	18408
351.393	49133
351.479	12715
351.564	3804
351.649	4233
351.735	2430
351.820	3098
351.906	3705
351.991	6247
352.076	31379
352.162	45860
352.247	9156
352.332	7538
352.418	14493
352.503	18401
352.588	73467
352.673	58868
352.759	14287
352.844	7219
352.929	7573
353.014	10568
353.100	5769
353.185	10434
353.270	18967
353.355	19805
353.441	5609
353.526	5072
353.611	17376
353.696	21576
353.781	12147
353.866	4937
353.952	5964
354.037	18263
354.122	42190
354.207	37219
354.292	12738
354.377	4753
354.462	4866
354.547	7147
354.632	5813
354.717	6776
354.802	9152
354.887	3915
354.972	3099
355.057	3001
355.142	2046
355.227	6516
355.312	11400
355.397	27987
355.482	65956
355.567	30495
355.652	21236
355.737	23297
355.822	60961
355.907	47390
355.991	8294
356.076	4565
356.161	3388
356.246	2839
356.331	5576
356.416	14609
356.501	87971
356.585	85618
356.670	13546
356.755	9828
356.840	15268
356.924	67567
357.009	217178
357.094	82323
357.179	21312
357.263	12885
357.348	12401
357.433	12067
357.517	11560
357.602	8745
357.687	6523
357.771	7314
357.856	10348
357.941	11930
358.025	49573
358.110	192213
358.195	88296
358.279	16495
358.364	13627
358.448	50660
358.533	124474
358.617	89525
358.702	83449
358.787	31653
358.871	20067
358.956	15059
359.040	4162
359.125	4523
359.209	3929
359.294	5921
359.378	9046
359.462	13774
359.547	7467
359.631	4130
359.716	3156
359.800	3767
359.885	6560
359.969	5997
360.053	4225
360.138	4170
360.222	9493
360.306	20380
360.391	12470
360.475	16886
360.559	37712
360.644	49073
360.728	33817
360.812	51814
360.896	127050
360.981	54074
361.065	28831
361.149	9129
361.233	9674
361.318	6857
361.402	7131
361.486	7706
361.570	5681
361.654	8976
361.739	24337
361.823	90455
361.907	122251
361.991	22840
362.075	16319
362.159	38925
362.243	24515
362.327	18467
362.411	20677
362.495	11621
362.580	6562
362.664	4212
362.748	3520
362.832	5301
362.916	7682
363.000	30913
363.084	103709
363.168	144946
363.252	35395
363.336	13334
363.420	17263
363.503	32389
363.587	31540
363.671	10786
363.755	10360
363.839	16577
363.923	7151
364.007	18786
364.091	18398
364.175	12034
364.258	46349
364.342	39554
364.426	58020
364.510	32233
364.594	17454
364.677	25995
364.761	112141
364.845	74227
364.929	33143
365.013	26932
365.096	22419
365.180	24375
365.264	15568
365.347	43956
365.431	17861
365.515	7441
365.598	6590
365.682	6201
365.766	4626
365.849	5924
365.933	6438
366.017	7415
366.100	3062
366.184	1800
366.267	3719
366.351	3862
366.435	4241
366.518	2453
366.602	3419
366.685	4789
366.769	5289
366.852	7119
366.936	16777
367.019	11854
367.103	4691
367.186	7259
367.270	3647
367.353	2417
367.436	4825
367.520	4076
367.603	6828
367.687	11820
367.770	22418
367.853	12617
367.937	35779
368.020	55722
368.104	14779
368.187	17622
368.270	24572
368.353	18768
368.437	18756
368.520	22692
368.603	25049
368.687	46252
368.770	79049
368.853	19429
368.936	17071
369.020	12072
369.103	6162
369.186	3156
369.269	5049
369.352	15107
369.436	19794
369.519	10789
369.602	3789
369.685	6795
369.768	7058
369.851	5712
369.934	2943
370.018	6603
370.101	18883
370.184	13667
370.267	6843
370.350	11936
370.433	20874
370.516	58156
370.599	69026
370.682	25456
370.765	51272
370.848	58089
370.931	95664
371.014	30015
371.097	7232
371.180	6583
371.263	3489
371.346	2820
371.429	4207
371.511	4455
371.594	11516
371.677	15299
371.760	10245
371.843	15427
371.926	72160
372.009	148132
372.091	50003
372.174	39365
372.257	79880
372.340	29303
372.423	19343
372.505	17292
372.588	10211
372.671	34929
372.754	99671
372.836	44849
372.919	16154
373.002	25223
373.085	14535
373.167	18914
373.250	46247
373.332	86924
373.415	112965
373.498	214980
373.580	80151
373.663	105935
373.746	128978
373.828	33197
373.911	14787
373.993	12539
374.076	24465
374.159	22208
374.241	24979
374.324	87160
374.406	54219
374.489	65534
374.571	170890
374.654	69466
374.736	36658
374.819	106222
374.901	154741
374.983	152412
375.066	27313
375.148	8933
375.231	21074
375.313	38661
375.395	18070
375.478	6118
375.560	6173
375.643	10242
375.725	35199
375.807	135247
375.890	84863
375.972	26115
376.054	18993
376.136	17017
376.219	10304
376.301	42663
376.383	121025
376.465	45983
376.548	36889
376.630	42114
376.712	108976
376.794	44182
376.877	6340
376.959	3536
377.041	5589
377.123	5180
377.205	5154
377.287	2376
377.369	3335
377.452	3828
377.534	3580
377.616	4678
377.698	4492
377.780	3274
377.862	4473
377.944	5086
378.026	2338
378.108	3746
378.190	3141
378.272	3219
378.354	1465
378.436	2283
378.518	4680
378.600	18079
378.682	23195
378.764	62576
378.846	44208
378.928	11432
379.010	18495
379.091	9369
379.173	4948
379.255	4200
379.337	7613
379.419	29951
379.501	83077
379.583	29082
379.664	8750
379.746	24156
379.828	63655
379.910	83221
379.991	67736
380.073	11377
380.155	8322
380.237	6210
380.318	4066
380.400	5008
380.482	14897
380.564	22584
380.645	21110
380.727	19345
380.809	11160
380.890	7421
380.972	4643
381.053	5983
381.135	7767
381.217	23675
381.298	65494
381.380	28863
381.461	23998
381.543	111393
381.624	124850
381.706	22825
381.787	11437
381.869	13850
381.951	48202
382.032	164416
382.113	104016
382.195	24172
382.276	16316
382.358	37372
382.439	94215
382.521	104842
382.602	155585
382.684	76265
382.765	150783
382.846	186865
382.928	320959
383.009	169340
383.090	116704
383.172	409244
383.253	573922
383.334	190309
383.416	158706
383.497	81365
383.578	49573
383.659	96946
383.741	343094
383.822	776389
383.903	391389
383.984	142520
384.066	197295
384.147	117792
384.228	27410
384.309	22668
384.390	16168
384.471	11228
384.553	12610
384.634	17546
384.715	18189
384.796	9767
384.877	13542
384.958	58377
385.039	67475
385.120	25313
385.201	11023
385.282	11389
385.363	9787
385.444	10986
385.525	20044
385.606	67580
385.687	53566
385.768	12760
385.849	16629
385.930	77933
386.011	120025
386.092	32819
386.173	8169
386.254	5312
386.335	6611
386.416	7532
386.496	35968
386.577	59179
386.658	16939
386.739	9678
386.820	6523
386.901	4519
386.981	5827
387.062	5132
387.143	15057
387.224	60377
387.304	50014
387.385	16705
387.466	6373
387.547	7486
387.627	6554
387.708	22811
387.789	100714
387.869	111998
387.950	26337
388.031	5207
388.111	1595
388.192	6357
388.273	9869
388.353	8022
388.434	8134
388.514	19674
388.595	82103
388.676	107164
388.756	58442
388.837	59127
388.917	34427
388.998	4432
389.078	6269
389.159	6410
389.239	4491
389.320	11330
389.400	9386
389.480	20042
389.561	57171
389.641	26334
389.722	9639
389.802	17425
389.883	24590
389.963	64130
390.043	32975
390.124	7309
390.204	20608
390.284	70893
390.365	39646
390.445	26456
390.525	89083
390.605	89742
390.686	32264
390.766	10900
390.846	5871
390.927	3415
391.007	3650
391.087	5183
391.167	4475
391.247	2819
391.328	6122
391.408	6344
391.488	5082
391.568	2510
391.648	8123
391.728	13159
391.808	11727
391.888	13765
391.969	32689
392.049	50428
392.129	16686
392.209	22476
392.289	63129
392.369	28338
392.449	11633
392.529	10885
392.609	13076
392.689	18487
392.769	62459
392.849	48182
392.929	29615
393.009	73729
393.089	58086
393.169	45957
393.248	155454
393.328	573394
393.408	578816
393.488	150709
393.568	42340
393.648	21958
393.728	14109
393.807	9361
393.887	9568
393.967	8661
394.047	9686
394.127	12374
394.206	19184
394.286	70446
394.366	307219
394.446	306440
394.525	64019
394.605	16584
394.685	12719
394.764	18968
394.844	27101
394.924	21244
395.003	12468
395.083	9760
395.163	8952
395.242	7769
395.322	8127
395.402	4116
395.481	7549
395.561	14261
395.640	41371
395.720	36162
395.799	33228
395.879	25886
395.958	24264
396.038	99636
396.117	401006
396.197	406330
396.276	104000
396.356	30037
396.435	19176
396.515	18471
396.594	26156
396.673	47841
396.753	172491
396.832	526433
396.912	386173
396.991	97535
397.070	26014
397.150	13306
397.229	10677
397.308	12440
397.388	19020
397.467	10269
397.546	5100
397.625	2865
397.705	8809
397.784	10558
397.863	4815
397.942	2614
398.022	3411
398.101	7907
398.180	22855
398.259	10703
398.338	5426
398.417	5425
398.497	3325
398.576	4829
398.655	2483
398.734	1972
398.813	1716
398.892	8997
398.971	25457
399.050	11376
399.129	953
399.208	1960
399.287	1707
399.366	987
399.445	1693
399.524	2738
399.603	2047
399.682	7867
399.761	19174
399.840	33996
399.919	20554
399.998	3722
400.077	1274
400.156	1146
400.235	3673
400.313	1839
400.392	3773
400.471	34323
400.550	53308
400.629	11838
400.708	4692
400.786	3204
400.865	5035
400.944	6651
401.023	5272
401.102	1464
401.180	1008
401.259	595
401.338	1983
401.416	6236
401.495	4817
401.574	2487
401.652	2388
401.731	4570
401.810	2659
401.888	1814
401.967	518
402.046	1717
402.124	4272
402.203	5588
402.281	3038
402.360	3069
402.438	6820
402.517	4130
402.596	2066
402.674	801
402.753	979
402.831	2087
402.910	3366
402.988	15855
403.066	55780
403.145	28506
403.223	18611
403.302	44760
403.380	31603
403.459	31363
403.537	11009
403.615	3364
403.694	381
403.772	1598
403.850	1393
403.929	1470
404.007	1242
404.085	6645
404.164	6745
404.242	2056
404.320	5188
404.398	14215
404.477	34032
404.555	136681
404.633	108246
404.711	18640
404.789	5072
404.868	2692
404.946	1475
405.024	1366
405.102	1660
405.180	1176
405.258	246
405.336	1721
405.415	1171
405.493	4811
405.571	5276
405.649	1289
405.727	917
405.805	4346
405.883	3640
405.961	3848
406.039	1888
406.117	1162
406.195	7599
406.273	35207
406.351	121248
406.429	61638
406.507	6596
406.585	2190
406.663	5030
406.740	6580
406.818	5127
406.896	1325
406.974	3275
407.052	10517
407.130	74952
407.208	98295
407.285	17636
407.363	3810
407.441	2759
407.519	2604
407.596	4318
407.674	10225
407.752	26999
407.830	20736
407.907	5936
407.985	2671
408.063	1785
408.141	677
408.218	2842
408.296	2834
408.373	2565
408.451	4886
408.529	4710
408.606	1325
408.684	812
408.762	-162
408.839	382
408.917	292
408.994	1138
409.072	192
409.149	737
409.227	2940
409.304	1965
409.382	2586
409.459	2162
409.537	5458
409.614	4154
409.692	2792
409.769	2248
409.846	5345
409.924	6252
410.001	1693
410.079	2547
410.156	3164
410.233	1355
410.311	1148
410.388	1297
410.465	2082
410.543	444
410.620	1750
410.697	3197
410.775	5138
410.852	216
410.929	2884
411.006	4182
411.083	857
411.161	2217
411.238	3067
411.315	1951
411.392	896
411.469	2783
411.547	447
411.624	-847
411.701	269
411.778	2837
411.855	9344
411.932	4441
412.009	1367
412.086	1408
412.163	1839
412.240	1105
412.317	1907
412.394	1046
412.471	1488
412.548	501
412.625	1161
412.702	1855
412.779	3907
412.856	2080
412.933	-89
413.010	1383
413.087	4445
413.164	31283
413.241	42446
413.318	8606
413.395	5306
413.471	8055
413.548	3231
413.625	1919
413.702	2560
413.779	1287
413.855	530
413.932	-447
414.009	341
414.086	-36
414.162	1729
414.239	4441
414.316	30845
414.393	68050
414.469	21752
414.546	2030
414.623	878
414.699	1319
414.776	2529
414.853	1173
414.929	1955
415.006	612
415.082	537
415.159	1056
415.236	1741
415.312	1794
415.389	7925
415.465	9999
415.542	4397
415.618	2424
415.695	6840
415.771	3961
415.848	3024
415.924	1169
416.000	1297
416.077	1228
416.153	-253
416.230	-1246
416.306	374
416.383	220
416.459	-121
416.535	-270
416.612	108
416.688	486
416.764	1348
416.841	746
416.917	1211
416.993	176
417.069	2173
417.146	2493
417.222	4733
417.298	2388
417.374	1109
417.451	2047
417.527	3666
417.603	4334
417.679	2996
417.755	1757
417.831	376
417.908	146
417.984	414
418.060	320
418.136	8951
418.212	11971
418.288	2538
418.364	1176
418.440	1168
418.516	4033
418.592	3379
418.668	12877
418.744	23705
418.820	15817
418.896	3059
418.972	102
419.048	1676
419.124	9307
419.200	6644
419.276	1404
419.352	63
419.428	212
419.504	2104
419.579	3853
419.655	2519
419.731	3577
419.807	15511
419.883	27842
419.959	17192
420.034	4130
420.110	9355
420.186	44392
420.262	31057
420.337	4140
420.413	3282
420.489	883
420.565	1324
420.640	670
420.716	1587
420.792	-391
420.867	1458
420.943	483
421.019	5114
421.094	3389
421.170	452
421.245	233
421.321	1175
421.397	1256
421.472	4980
421.548	13748
421.623	10381
421.699	3952
421.774	3419
421.850	3583
421.925	8327
422.001	6452
422.076	2940
422.152	4359
422.227	10258
422.302	9041
422.378	12960
422.453	24420
422.529	62550
422.604	192387
422.679	314323
422.755	196026
422.830	61483
422.905	23538
422.981	11758
423.056	8229
423.131	5553
423.207	3974
423.282	6021
423.357	13929
423.432	8817
423.508	8847
423.583	23029
423.658	15928
423.733	3657
423.808	3961
423.883	7862
423.959	4306
424.034	3587
424.109	2047
424.184	17
424.259	238
424.334	593
424.409	801
424.484	872
424.559	1778
424.634	1244
424.709	3877
424.784	5433
424.859	1779
424.934	6536
425.009	31913
425.084	50561
425.159	15399
425.234	2338
425.309	-250
425.384	540
425.459	507
425.534	984
425.609	-258
425.683	108
425.758	492
425.833	1501
425.908	3552
425.983	19136
426.058	56223
426.132	19684
426.207	2244
426.282	2297
426.357	748
426.431	399
426.506	1076
426.581	1029
426.655	801
426.730	476
426.805	674
426.879	1519
426.954	1248
427.029	7783
427.103	49490
427.178	109124
427.253	41333
427.327	3783
427.402	869
427.476	2089
427.551	735
427.625	668
427.700	911
427.774	-196
427.849	543
427.923	-204
427.998	625
428.072	727
428.147	4614
428.221	26507
428.296	66591
428.370	29842
428.444	3060
428.519	1884
428.593	3151
428.667	2371
428.742	3902
428.816	6490
428.890	33547
428.965	51737
429.039	12512
429.113	4124
429.188	1273
429.262	1333
429.336	5731
429.410	23809
429.485	12084
429.559	3807
429.633	1984
429.707	998
429.781	5937
429.855	37474
429.930	62679
430.004	22188
430.078	20154
430.152	26861
430.226	84188
430.300	79895
430.374	10809
430.448	3339
430.522	7995
430.596	21191
430.670	21207
430.744	92147
430.818	129079
430.892	25879
430.966	4148
431.040	1440
431.114	-366
431.188	-644
431.262	10
431.336	156
431.410	3595
431.484	9450
431.557	8926
431.631	241
431.705	1447
431.779	12038
431.853	54227
431.927	33691
432.000	3039
432.074	451
432.148	677
432.222	-236
432.295	139
432.369	60
432.443	4491
432.516	41178
432.590	101382
432.664	33073
432.737	3172
432.811	786
432.885	-419
432.958	384
433.032	-866
433.106	128
433.179	-689
433.253	-1222
433.326	-470
433.400	-1206
433.473	-963
433.547	-946
433.620	676
433.694	4138
433.767	3481
433.841	-387
433.914	-695
433.988	-1033
434.061	-958
434.134	-441
434.208	-553
434.281	-548
434.355	-699
434.428	-20
434.501	-893
434.575	-698
434.648	-585
434.721	-91
434.795	-380
434.868	-564
434.941	-871
435.014	-667
435.088	-124
435.161	2718
435.234	4899
435.307	6119
435.381	2206
435.454	637
435.527	1502
435.600	1464
435.673	540
435.746	150
435.819	317
435.892	-52
435.966	-1053
436.039	-911
436.112	278
436.185	-677
436.258	-1296
436.331	-1500
436.404	-963
436.477	-899
436.550	-1009
436.623	-691
436.696	-1271
436.769	737
436.842	-97
436.915	91
436.987	803
437.060	-172
437.133	-700
437.206	-1088
437.279	8
437.352	-294
437.425	-588
437.498	464
437.570	5358
437.643	5014
437.716	317
437.789	-988
437.861	462
437.934	3188
438.007	837
438.080	-335
438.152	208
438.225	7158
438.298	54441
438.370	134432
438.443	48027
438.516	6558
438.588	1315
438.661	-239
438.734	170
438.806	487
438.879	2167
438.951	806
439.024	1495
439.096	156
439.169	-153
439.241	-608
439.314	-780
439.386	-26
439.459	681
439.531	2081
439.604	18
439.676	-99
439.749	-837
439.821	-1069
439.893	-609
439.966	-146
440.038	-50
440.110	549
440.183	-342
440.255	104
440.327	2139
440.400	20712
440.472	91493
440.544	55234
440.617	5293
440.689	2775
440.761	2342
440.833	4939
440.905	2311
440.978	-693
441.050	-154
441.122	221
441.194	-1211
441.266	-680
441.338	-541
441.411	3773
441.483	32985
441.555	46483
441.627	8012
441.699	1466
441.771	-7
441.843	8
441.915	-303
441.987	-700
442.059	-548
442.131	-523
442.203	1358
442.275	3042
442.347	2035
442.419	3894
442.491	24807
442.563	60183
442.635	24796
442.706	10430
442.778	9193
442.850	1790
442.922	91
442.994	428
443.066	2154
443.137	1170
443.209	914
443.281	2855
443.353	6901
443.425	31578
443.496	116214
443.568	107731
443.640	37129
443.711	6978
443.783	2141
443.855	242
443.926	267
443.998	208
444.070	128
444.141	730
444.213	3475
444.285	6295
444.356	2957
444.428	680
444.499	-646
444.571	-389
444.642	-213
444.714	1383
444.785	4813
444.857	2817
444.928	3196
445.000	1288
445.071	1776
445.143	2514
445.214	2700
445.285	5082
445.357	16139
445.428	76159
445.500	176080
445.571	101909
445.642	52423
445.714	15197
445.785	8160
445.856	3931
445.928	6518
445.999	4419
446.070	1264
446.141	3652
446.213	5930
446.284	1679
446.355	-111
446.426	-334
446.497	-108
446.569	1001
446.640	5198
446.711	5970
446.782	897
446.853	208
446.924	1628
446.995	1835
447.066	567
447.138	74
447.209	377
447.280	-777
447.351	-808
447.422	-1578
447.493	-942
447.564	2065
447.635	5278
447.706	1336
447.777	-202
447.847	-609
447.918	-1600
447.989	230
448.060	-608
448.131	2076
448.202	4223
448.273	4880
448.344	1573
448.414	1178
448.485	725
448.556	416
448.627	222
448.698	372
448.768	-1113
448.839	-294
448.910	-129
448.981	831
449.051	648
449.122	-353
449.193	-805
449.263	-872
449.334	-1306
449.405	1649
449.475	7025
449.546	3706
449.616	592
449.687	818
449.758	178
449.828	-586
449.899	-442
449.969	169
450.040	-812
450.110	-41
450.181	191
450.251	321
450.322	-570
450.392	-528
450.463	-714
450.533	-1062
450.604	-305
450.674	-1036
450.744	611
450.815	-952
450.885	-560
450.955	-204
451.026	-832
451.096	-1124
451.166	-616
451.237	369
451.307	3123
451.377	470
451.447	-561
451.518	-169
451.588	-349
451.658	-323
451.728	-553
451.799	2175
451.869	2926
451.939	-447
452.009	-1442
452.079	-1050
452.149	-444
452.219	574
452.289	3528
452.360	2615
452.430	-831
452.500	-495
452.570	1629
452.640	3342
452.710	6887
452.780	9371
452.850	13446
452.920	15994
452.990	4247
453.060	1194
453.129	3278
453.199	3280
453.269	5765
453.339	11302
453.409	16882
453.479	16858
453.549	22824
453.619	23614
453.688	8484
453.758	944
453.828	13
453.898	-617
453.968	-736
454.037	-769
454.087	-586
454.107	-538
454.168	-834
454.177	-905
454.247	-857
454.249	-810
454.316	-194
454.330	-208
454.386	-371
454.411	216
454.456	985
454.492	1557
454.525	2067
454.574	1163
454.595	754
454.655	-262
454.665	-442
454.734	525
454.736	586
454.804	1293
454.817	2067
454.873	4897
454.898	4640
454.943	3990
454.979	2610
455.013	1422
455.060	828
455.082	603
455.141	905
455.152	915
455.221	3481
455.222	3561
455.291	6078
455.303	6147
455.360	6013
455.384	8561
455.430	12649
455.465	9469
455.499	6509
455.546	5656
455.569	5113
455.627	4005
455.638	3777
455.707	919
455.708	941
455.777	650
455.789	619
455.846	325
455.869	202
455.916	-140
455.950	522
455.985	1223
456.031	1005
456.054	822
456.112	847
456.124	833
456.193	1294
456.193	1271
456.262	1274
456.274	1354
456.332	1677
456.355	1470
456.401	877
456.436	1188
456.470	1474
456.516	1274
456.540	1052
456.597	523
456.609	471
456.678	1318
456.678	1294
456.747	642
456.759	629
456.817	891
456.840	1057
456.886	951
456.920	942
456.955	1195
457.001	1349
457.024	1386
457.082	1857
457.093	1855
457.162	2500
457.163	2527
457.232	2187
457.243	2055
457.301	1597
457.324	1415
457.370	1270
457.405	1993
457.439	2470
457.485	2155
457.508	2026
457.566	1738
457.577	1756
457.646	3155
457.647	3192
457.715	5198
457.727	5632
457.784	9266
457.808	11691
457.853	14188
457.889	16456
457.922	16032
457.969	11367
457.991	12081
458.050	14836
458.060	15250
458.129	25171
458.130	25477
458.198	23807
458.211	21465
458.267	12085
458.292	8494
458.336	5878
458.372	5522
458.405	7624
458.453	11293
458.474	14396
458.533	26273
458.543	27234
458.611	40782
458.614	41059
458.680	23791
458.694	18543
458.749	9942
458.775	7546
458.818	4645
458.855	3827
458.887	3637
458.936	3276
458.955	3118
459.016	3318
459.024	3404
459.093	4277
459.097	4318
459.162	4600
459.177	4877
459.230	6348
459.257	7203
459.299	6919
459.338	5877
459.368	5495
459.418	5433
459.437	5232
459.499	4167
459.505	4155
459.574	4676
459.579	4720
459.643	4336
459.659	4232
459.711	4579
459.740	4673
459.780	4519
459.820	4911
459.849	5052
459.900	4746
459.917	4653
459.981	4433
459.986	4455
460.054	5112
460.061	5202
460.123	6081
460.141	6384
460.191	9124
460.222	11076
460.260	12506
460.302	14219
460.328	12491
460.382	8045
460.397	7791
460.462	5289
460.465	5263
460.534	7298
460.543	7488
460.602	16070
460.623	19422
460.671	28291
460.703	36408
460.739	34413
460.783	28565
460.808	23594
460.864	7465
460.876	6362
460.944	5100
460.945	5095
461.013	6004
461.024	6142
461.081	6706
461.104	7058
461.150	6602
461.184	6281
461.218	6576
461.264	6374
461.286	6227
461.345	6777
461.355	6677
461.423	4915
461.425	4879
461.491	4357
461.505	4457
461.559	5766
461.585	6094
461.628	8123
461.665	10236
461.696	10903
461.745	12601
461.764	11810
461.825	7095
461.832	7099
461.901	7879
461.905	7959
461.969	6352
461.985	5900
462.037	5964
462.065	6064
462.105	5762
462.145	5480
462.173	6249
462.225	7274
462.241	7489
462.305	9413
462.310	9352
462.378	7972
462.385	7728
462.446	7928
462.465	8112
462.514	8004
462.545	8004
462.582	7445
462.625	6719
462.650	6422
462.705	5453
462.718	5426
462.785	6080
462.786	6093
462.854	5996
462.865	5980
462.922	7219
462.945	7956
462.990	7694
463.025	7185
463.058	6730
463.104	6125
463.126	6267
463.184	6472
463.194	6718
463.262	8620
463.264	8679
463.330	7285
463.344	7048
463.398	7178
463.424	6936
463.466	6570
463.504	6495
463.533	7072
463.583	7937
463.601	8059
463.663	8456
463.669	8650
463.737	10686
463.743	10918
463.805	12352
463.823	12655
463.873	13144
463.903	13339
463.940	13714
463.982	14339
464.008	12717
464.062	8718
464.076	8507
464.142	7483
464.144	7492
464.211	7522
464.221	7577
464.279	8841
464.301	9236
464.347	9533
464.381	9862
464.414	9244
464.461	8182
464.482	8458
464.540	9256
464.550	9312
464.617	9415
464.620	9411
464.685	12766
464.699	13545
464.753	14858
464.779	15347
464.820	14894
464.859	14371
464.888	13410
464.938	11760
464.956	11927
465.018	12351
465.023	12273
465.091	11002
465.098	10877
465.158	10808
465.177	10721
465.226	11201
465.257	11491
465.293	12788
465.336	14271
465.361	15366
465.416	17824
465.428	18002
465.495	18826
465.496	18848
465.563	17264
465.575	16964
465.631	19247
465.654	20263
465.698	16356
465.734	12910
465.765	12085
465.813	10725
465.833	10738
465.893	10980
465.900	11000
465.968	10868
465.972	10841
466.035	10714
466.052	10643
466.102	11381
466.131	11809
466.170	11683
466.210	11425
466.237	11645
466.290	12125
466.304	12057
466.369	11513
466.372	11594
466.439	13284
466.449	13511
466.506	14386
466.528	14673
466.573	16585
466.607	17961
466.641	22076
466.687	27746
466.708	30257
466.766	37113
466.775	35460
466.842	22409
466.845	21743
466.909	16667
466.925	15430
466.977	14214
467.004	13564
467.044	14753
467.083	15860
467.111	16737
467.163	18320
467.178	18952
467.242	21371
467.245	21346
467.312	19874
467.321	19637
467.379	18524
467.400	18061
467.446	18080
467.480	18028
467.559	16404
467.638	16626
467.717	16348
467.796	19733
467.875	25047
467.955	18231
468.034	19094
468.113	26213
468.192	33594
468.271	18670
468.350	18860
468.429	19799
468.508	20325
468.588	17026
468.667	17406
468.746	16378
468.825	15854
468.904	15306
468.983	16053
469.062	18545
469.141	21394
469.220	14667
469.299	14942
469.378	16446
469.456	19069
469.535	17220
469.614	17686
469.693	15798
469.772	18108
469.851	19777
469.930	19210
470.009	19369
470.088	21056
470.166	27894
470.245	46694
470.324	60797
470.403	36330
470.482	24016
470.560	19917
470.639	20957
470.718	25478
470.797	19144
470.875	19055
470.954	20833
471.033	22194
471.111	14427
471.190	14791
471.269	13431
471.347	14191
471.426	13916
471.505	15685
471.583	16436
471.662	16693
471.740	13984
471.819	15012
471.898	12807
471.976	15170
472.055	14008
472.133	15459
472.212	15835
472.290	15247
472.369	13220
472.447	14243
472.526	12872
472.604	14981
472.683	17414
472.761	20295
472.839	17245
472.918	16561
472.996	15076
473.075	15557
473.153	15244
473.231	14721
473.310	17596
473.388	18422
473.466	16102
473.545	20255
473.623	30451
473.701	30371
473.780	16229
473.858	14481
473.936	17466
474.014	15692
474.093	16870
474.171	17333
474.249	17530
474.327	16040
474.405	14482
474.484	15926
474.562	15809
474.640	15148
474.718	13718
474.796	15179
474.874	14402
474.952	13730
475.030	13398
475.108	14905
475.187	14930
475.265	18416
475.343	28290
475.421	31794
475.499	14409
475.577	14971
475.655	15874
475.733	18660
475.811	22550
475.889	21808
475.966	18449
476.044	14383
476.122	20800
476.200	28327
476.278	21338
476.356	14119
476.434	15631
476.512	17933
476.590	25565
476.667	22059
476.745	13744
476.823	16808
476.901	12961
476.979	13371
477.056	13804
477.134	14645
477.212	14998
477.290	15374
477.367	13101
477.445	12510
477.523	11830
477.601	12363
477.678	11946
477.756	12864
477.834	12773
477.911	12797
477.989	12818
478.066	13666
478.144	13999
478.222	19834
478.299	33825
478.377	31049
478.454	13162
478.532	13244
478.609	15339
478.687	16834
478.764	12423
478.842	14615
478.919	16882
478.997	17121
479.074	11951
479.152	12293
479.229	12183
479.307	11165
479.384	11513
479.461	11723
479.539	11405
479.616	12494
479.694	11665
479.771	12868
479.848	12229
479.926	12303
480.003	15488
480.080	13183
480.157	12421
480.235	12268
480.312	11629
480.389	12031
480.467	13200
480.544	15507
480.621	11923
480.698	12385
480.775	12999
480.853	12320
480.930	12127
481.007	11307
481.084	11949
481.161	13715
481.238	12173
481.315	11160
481.392	11681
481.470	11394
481.547	11260
481.624	11967
481.701	10805
481.778	11389
481.855	11979
481.932	13713
482.009	17507
482.086	14441
482.163	13237
482.240	22785
482.317	42355
482.393	32558
482.470	11929
482.547	12338
482.624	12105
482.701	12829
482.778	11588
482.855	10591
482.932	11341
483.009	10862
483.085	11805
483.162	14326
483.239	13921
483.316	12565
483.393	12788
483.469	12648
483.546	11511
483.623	13523
483.699	11155
483.776	12331
483.853	12921
483.930	15783
484.006	20995
484.083	32114
484.160	31111
484.236	50570
484.313	40586
484.389	30297
484.466	27967
484.543	26091
484.619	25715
484.696	28301
484.772	26923
484.849	27000
484.925	24320
485.002	24185
485.078	26537
485.155	26570
485.231	23387
485.308	24292
485.384	24282
485.461	26561
485.537	30169
485.614	32975
485.690	23937
485.766	25098
485.843	29443
485.919	49640
485.995	53541
486.072	25263
486.148	22152
486.224	23220
486.301	22637
486.377	25043
486.453	23113
486.530	25570
486.606	31060
486.682	35499
486.758	32882
486.835	34415
486.911	32615
486.987	46246
487.063	91061
487.139	148325
487.215	95516
487.292	37088
487.368	26901
487.444	28516
487.520	33007
487.596	33696
487.672	46528
487.748	117381
487.824	175597
487.900	59064
487.976	28259
488.052	25750
488.128	30644
488.204	28064
488.280	23654
488.356	24423
488.432	31067
488.508	40768
488.584	29567
488.660	26825
488.736	27119
488.812	31255
488.888	39945
488.964	55708
489.039	140907
489.115	229447
489.191	124490
489.267	27696
489.343	23273
489.418	21511
489.494	19702
489.570	18863
489.646	20873
489.722	20020
489.797	20225
489.873	21988
489.949	30399
490.024	28596
490.100	20252
490.176	20127
490.251	29701
490.327	45411
490.403	23814
490.478	19645
490.554	17737
490.629	18126
490.705	17541
490.781	21203
490.856	19265
490.932	23810
491.007	26413
491.083	23222
491.158	19165
491.234	20667
491.309	25391
491.385	26687
491.460	19355
491.536	22182
491.611	23740
491.686	26862
491.762	39931
491.837	93197
491.913	146680
491.988	200824
492.063	276358
492.139	50357
492.214	22329
492.289	19277
492.365	19187
492.440	23197
492.515	19726
492.590	18686
492.666	16377
492.741	20466
492.816	20756
492.891	17223
492.967	17818
493.042	17963
493.117	16801
493.192	17490
493.267	23044
493.342	40810
493.418	48854
493.493	21632
493.568	15801
493.643	16896
493.718	19084
493.793	28648
493.868	42520
493.943	32492
494.018	21137
494.093	15935
494.168	16990
494.243	16524
494.318	16261
494.393	16149
494.468	16353
494.543	17631
494.618	22235
494.693	18542
494.768	16513
494.842	17489
494.917	16496
494.992	19002
495.067	17707
495.142	17839
495.217	19136
495.292	20695
495.366	24111
495.441	29092
495.516	37121
495.591	50759
495.665	190512
495.740	483406
495.815	189073
495.890	27534
495.964	19107
496.039	21956
496.114	19606
496.188	20283
496.263	21011
496.338	18100
496.412	18527
496.487	21465
496.561	27951
496.636	30352
496.710	20019
496.785	21522
496.860	20555
496.934	19371
497.009	21325
497.083	20515
497.158	18881
497.232	21175
497.307	24313
497.381	22454
497.455	21161
497.530	21021
497.604	19054
497.679	19554
497.753	23695
497.827	30175
497.902	28792
497.976	31113
498.050	47185
498.125	147637
498.199	168834
498.273	62894
498.348	52279
498.422	40382
498.496	41658
498.570	40795
498.645	22380
498.719	18933
498.793	21507
498.867	27411
498.941	29191
499.016	58366
499.090	151757
499.164	66877
499.238	19533
499.312	20966
499.386	30373
499.460	25120
499.534	20589
499.609	24009
499.683	25063
499.757	19058
499.831	28576
499.905	93034
499.979	94365
500.053	25411
500.127	36271
500.201	44327
500.275	24651
500.349	21910
500.422	23705
500.496	40104
500.570	89741
500.644	101660
500.718	112841
500.792	35939
500.866	16116
500.940	17078
501.013	15879
501.087	19722
501.161	45586
501.235	48121
501.309	34518
501.382	80054
501.456	85832
501.530	32602
501.603	30032
501.677	18492
501.751	12696
501.825	16383
501.898	17869
501.972	34774
502.046	25637
502.119	15962
502.193	26964
502.266	41690
502.340	23032
502.413	20373
502.487	31163
502.561	22296
502.634	15221
502.708	20715
502.781	18413
502.855	16133
502.928	10105
503.002	11725
503.075	10748
503.149	11555
503.222	11059
503.295	12207
503.369	12317
503.442	13614
503.516	25354
503.589	56795
503.662	40027
503.736	18496
503.809	31343
503.882	30942
503.956	41463
504.029	50738
504.102	79346
504.175	105605
504.249	34091
504.322	18295
504.395	15224
504.468	13835
504.542	11489
504.615	11069
504.688	12796
504.761	10647
504.834	16285
504.907	24912
504.980	45263
505.053	21124
505.127	28674
505.200	29183
505.273	11902
505.346	11023
505.419	8955
505.492	10682
505.565	9146
505.638	10708
505.711	8497
505.784	10353
505.857	9448
505.930	11320
506.003	9066
506.076	11909
506.149	10631
506.221	10496
506.294	12870
506.367	18045
506.440	50057
506.513	38497
506.586	14153
506.659	11082
506.731	13733
506.804	16219
506.877	25769
506.950	15174
507.022	11417
507.095	11411
507.168	14864
507.241	14544
507.313	12316
507.386	15276
507.459	25913
507.531	16168
507.604	11782
507.677	12098
507.749	10212
507.822	18113
507.894	32914
507.967	35815
508.040	18994
508.112	16218
508.185	14877
508.257	16794
508.330	28813
508.402	16407
508.475	13544
508.547	13898
508.620	12465
508.692	15003
508.765	12751
508.837	12698
508.909	12514
508.982	12671
509.054	16600
509.127	14045
509.199	11577
509.271	10814
509.344	11699
509.416	12104
509.488	12743
509.560	13424
509.633	14980
509.705	19197
509.777	17289
509.849	27487
509.922	17768
509.994	12085
510.066	13081
510.138	12502
510.210	22827
510.283	19872
510.355	18092
510.427	17802
510.499	17076
510.571	20317
510.643	18129
510.715	34586
510.787	30657
510.859	18979
510.931	18817
511.003	34230
511.076	30206
511.148	14638
511.219	14449
511.291	16101
511.363	15772
511.435	13478
511.507	11932
511.579	14213
511.651	13143
511.723	12389
511.795	12529
511.867	13014
511.939	12907
512.010	15260
512.082	17109
512.154	16296
512.226	14776
512.298	22659
512.369	33807
512.441	26303
512.513	29046
512.585	19884
512.656	19546
512.728	23910
512.800	17212
512.871	15574
512.943	15079
513.015	14594
513.086	17200
513.158	20060
513.230	18652
513.301	31714
513.373	41717
513.444	21468
513.516	15943
513.588	16576
513.659	20760
513.731	27746
513.802	22033
513.874	51039
513.945	100954
514.016	30980
514.088	17240
514.159	20594
514.231	28674
514.302	33143
514.374	20763
514.445	16853
514.516	20654
514.588	18819
514.659	16995
514.730	20826
514.802	24961
514.873	19125
514.944	19230
515.016	20021
515.087	24626
515.158	22624
515.229	24381
515.301	17882
515.372	20888
515.443	16508
515.514	15505
515.585	14210
515.656	16384
515.728	16797
515.799	14491
515.870	18526
515.941	18308
516.012	19032
516.083	23056
516.154	29049
516.225	43273
516.296	41497
516.367	37663
516.438	44827
516.509	59601
516.580	81817
516.651	242326
516.722	948537
516.793	417869
516.864	78951
516.935	68943
517.006	77922
517.077	105992
517.148	240469
517.219	871263
517.289	1382387
517.360	226414
517.431	61107
517.502	32204
517.573	29122
517.643	28067
517.714	30298
517.785	31688
517.856	33842
517.926	45449
517.997	57413
518.068	75621
518.138	101847
518.209	146880
518.280	515815
518.350	1875812
518.421	802260
518.492	100447
518.562	47872
518.633	37732
518.703	33077
518.774	44248
518.845	97544
518.915	101748
518.986	39231
519.056	34422
519.127	70415
519.197	91073
519.268	96963
519.338	43571
519.408	24792
519.479	49452
519.549	35000
519.620	22428
519.690	17291
519.760	15912
519.831	19805
519.901	18559
519.971	15473
520.042	14061
520.112	15982
520.182	21981
520.253	29991
520.323	15565
520.393	16687
520.463	24104
520.534	14220
520.604	23417
520.674	16958
520.744	15131
520.814	27646
520.885	32065
520.955	22160
521.025	55674
521.095	28242
521.165	14431
521.235	13370
521.305	13211
521.375	14240
521.445	17429
521.515	27332
521.585	31925
521.655	31726
521.725	22311
521.795	20027
521.865	12372
521.935	16395
522.005	13328
522.075	12850
522.145	14133
522.215	13937
522.285	16060
522.355	19158
522.424	25530
522.494	25530
522.564	28103
522.634	67010
522.704	231150
522.774	88583
522.843	20584
522.913	18800
522.983	27932
523.053	19698
523.122	19462
523.192	29284
523.262	119682
523.331	118925
523.401	20475
523.471	13443
523.540	15396
523.610	12539
523.680	12005
523.749	11760
523.819	12747
523.888	11274
523.958	10796
524.027	11865
524.097	12068
524.166	12177
524.236	15711
524.305	15727
524.375	12449
524.444	10733
524.514	13462
524.583	11683
524.653	11903
524.722	13661
524.791	10289
524.861	13474
524.930	11680
524.999	14962
525.069	21686
525.138	13657
525.207	12579
525.277	13373
525.346	14311
525.415	12880
525.484	14143
525.554	13795
525.623	13103
525.692	14484
525.761	13609
525.830	16888
525.900	18445
525.969	25041
526.038	35022
526.107	63117
526.176	186297
526.245	158282
526.314	63835
526.383	102594
526.452	133086
526.522	217324
526.591	241311
526.660	122424
526.729	61384
526.797	58524
526.867	115583
526.935	528104
527.004	675917
527.073	338865
527.142	38668
527.211	20836
527.280	23451
527.349	27082
527.418	12544
527.487	14143
527.555	11139
527.624	10487
527.693	9305
527.762	13537
527.831	10121
527.899	11852
527.968	11527
528.037	11560
528.106	16892
528.174	34957
528.243	20803
528.312	29778
528.380	46074
528.449	15343
528.518	12518
528.586	9561
528.655	10665
528.723	9854
528.792	9485
528.861	10021
528.929	8799
528.998	10763
529.066	9690
529.135	10580
529.203	9257
529.272	9443
529.340	11185
529.409	12648
529.477	9037
529.545	10412
529.614	12415
529.682	11139
529.751	11706
529.819	15343
529.887	12036
529.956	11301
530.024	12289
530.092	10066
530.161	15639
530.229	28553
530.297	15455
530.365	12419
530.434	11296
530.502	10383
530.570	10436
530.638	9398
530.707	14183
530.775	13818
530.843	10130
530.911	10558
530.979	10619
531.047	11112
531.115	11406
531.183	10275
531.252	11919
531.320	10865
531.388	9388
531.456	12242
531.524	9215
531.592	12797
531.660	13021
531.728	10311
531.796	10288
531.864	11719
531.932	11234
532.000	11977
532.067	13790
532.135	15785
532.203	18121
532.271	18635
532.339	32951
532.407	98648
532.475	57986
532.542	27267
532.610	29373
532.678	37623
532.746	147006
532.814	409818
532.881	105942
532.949	21698
533.017	15107
533.084	13974
533.152	11878
533.220	13535
533.287	16420
533.355	13201
533.423	11294
533.490	12252
533.558	12294
533.625	12152
533.693	13013
533.761	13314
533.828	14865
533.896	14610
533.963	31762
534.031	39129
534.098	56620
534.166	25278
534.233	12954
534.300	14918
534.368	14328
534.435	12723
534.503	13442
534.570	15267
534.637	14271
534.705	14917
534.772	17103
534.840	22532
534.907	82020
534.974	113441
535.041	21150
535.109	14851
535.176	12486
535.243	12063
535.310	13466
535.378	13630
535.445	11659
535.512	11199
535.579	11713
535.646	11185
535.714	12570
535.781	14735
535.848	13167
535.915	13950
535.982	13839
536.049	13168
536.116	15097
536.183	13006
536.250	13973
536.317	14522
536.384	17868
536.451	28951
536.518	30941
536.585	19500
536.652	23016
536.719	39992
536.786	33544
536.853	24065
536.920	33319
536.987	55594
537.053	54472
537.120	205753
537.187	181976
537.254	23021
537.321	14873
537.388	15661
537.454	12945
537.521	12524
537.588	11922
537.654	15098
537.721	15858
537.788	16962
537.855	13491
537.921	14807
537.988	14386
538.055	14793
538.121	13888
538.188	17056
538.254	25331
538.321	58990
538.388	36058
538.454	16643
538.521	14624
538.587	13919
538.654	13381
538.720	13916
538.787	14013
538.853	14844
538.920	17523
538.986	17544
539.053	14524
539.119	16850
539.185	16887
539.252	21757
539.318	34874
539.385	25242
539.451	21073
539.517	21659
539.583	23676
539.650	55943
539.716	161073
539.782	45743
539.849	18593
539.915	17959
539.981	18741
540.047	24630
540.114	20129
540.180	20759
540.246	19389
540.312	28424
540.378	55720
540.444	59356
540.510	60475
540.576	185868
540.643	56850
540.709	17742
540.775	16277
540.841	15840
540.907	17321
540.973	21820
541.039	27023
541.105	35189
541.171	18307
541.237	16740
541.303	17553
541.369	20843
541.435	26651
541.500	51314
541.566	32611
541.632	16667
541.698	14956
541.764	14862
541.830	13160
541.896	13648
541.961	15068
542.027	15961
542.093	16673
542.159	17662
542.224	17624
542.290	24391
542.356	46188
542.421	61852
542.487	25896
542.553	18139
542.618	17374
542.684	18530
542.750	19265
542.815	23219
542.881	35800
542.947	153350
543.012	115225
543.078	20535
543.143	17661
543.209	18760
543.274	19410
543.340	24047
543.405	57287
543.471	100518
543.536	23174
543.602	15673
543.667	13888
543.732	15597
543.798	13799
543.863	14985
543.928	13276
543.994	13928
544.059	14139
544.124	15763
544.190	15445
544.255	16750
544.320	16347
544.386	18908
544.451	26047
544.516	33338
544.581	31212
544.646	93246
544.712	154318
544.777	28437
544.842	16534
544.907	16221
544.972	15252
545.037	16281
545.102	17323
545.168	16696
545.233	17849
545.298	20054
545.363	21060
545.428	25556
545.493	51431
545.558	132964
545.623	48336
545.688	18654
545.753	17415
545.818	17466
545.883	16602
545.947	16300
546.012	16851
546.077	17160
546.142	18825
546.207	18546
546.272	27151
546.337	29456
546.401	20548
546.466	19272
546.531	18115
546.596	21227
546.661	21373
546.725	20732
546.790	19361
546.855	20514
546.919	19382
546.984	22463
547.049	23337
547.113	26548
547.178	25406
547.243	30433
547.307	31677
547.372	37336
547.436	36684
547.501	35639
547.565	38334
547.630	43426
547.695	41926
547.759	36014
547.823	33341
547.888	34994
547.952	34560
548.017	36244
548.081	38986
548.146	40746
548.210	38387
548.274	39498
548.339	39295
548.403	36375
548.468	33176
548.532	34121
548.596	34482
548.660	35201
548.725	38204
548.789	43373
548.853	41702
548.917	37689
548.982	37965
549.046	36423
549.110	30920
549.174	32545
549.238	35012
549.303	38097
549.367	40395
549.431	38554
549.495	35721
549.559	36227
549.623	41678
549.687	47809
549.751	61078
549.815	53767
549.879	50363
549.943	47119
550.007	50050
550.071	51534
550.135	56850
550.199	48472
550.263	44058
550.327	42908
550.391	42519
550.455	45860
550.519	48316
550.582	53523
550.646	69788
550.710	71974
550.774	55303
550.838	55869
550.901	56669
550.965	59625
551.029	60611
551.093	65483
551.156	68312
551.220	81246
551.284	93809
551.347	72274
551.411	65752
551.475	65082
551.538	59466
551.602	55953
551.666	51943
551.729	49525
551.793	49662
551.856	48697
551.920	47629
551.983	47715
552.047	45931
552.110	47755
552.174	47193
552.237	49994
552.301	45592
552.364	45937
552.428	43847
552.491	45075
552.554	49018
552.618	48040
552.681	51059
552.745	53539
552.808	83049
552.871	113060
552.934	66779
552.998	50480
553.061	46402
553.124	46014
553.187	44560
553.251	45997
553.314	45571
553.377	45318
553.440	48403
553.503	60185
553.567	75541
553.630	50380
553.693	46158
553.756	47001
553.819	46454
553.882	44404
553.945	44254
554.008	44338
554.071	43213
554.134	45214
554.197	44252
554.260	42762
554.323	45133
554.386	45966
554.449	45455
554.512	45702
554.575	42037
554.638	43012
554.701	42952
554.764	41451
554.827	40369
554.889	38941
554.952	37028
555.015	37350
555.078	37862
555.141	37673
555.203	36879
555.266	38347
555.329	37406
555.391	35945
555.454	37892
555.517	38555
555.580	34471
555.642	31822
555.705	31448
555.768	33299
555.830	31954
555.893	30468
555.955	30086
556.018	30152
556.080	29183
556.143	32007
556.206	30350
556.268	30580
556.330	31354
556.393	31890
556.455	29362
556.518	31150
556.580	32376
556.643	27132
556.705	27780
556.767	26139
556.830	27636
556.892	31628
556.955	46731
557.017	35959
557.079	26272
557.142	26991
557.204	31119
557.266	58723
557.328	48876
557.391	24893
557.453	22860
557.515	23628
557.577	28373
557.639	30504
557.701	23160
557.764	21931
557.826	23153
557.888	24865
557.950	23943
558.012	26523
558.074	30191
558.136	55764
558.198	136581
558.260	57741
558.322	29831
558.384	30184
558.446	35083
558.508	39421
558.570	47823
558.632	78224
558.694	113696
558.756	90381
558.818	238536
558.880	627207
558.942	203615
559.003	144517
559.065	78669
559.127	38009
559.189	36480
559.251	40592
559.312	50641
559.374	110305
559.436	392443
559.498	204304
559.559	40551
559.621	36795
559.683	39038
559.744	57532
559.806	174881
559.868	279143
559.929	60278
559.991	36532
560.052	47954
560.114	127009
560.176	85709
560.237	76740
560.299	132249
560.360	36040
560.422	18997
560.483	16723
560.545	16632
560.606	17460
560.667	15453
560.729	15040
560.790	16084
560.852	16280
560.913	15623
560.974	15263
561.036	14999
561.097	16394
561.158	16575
561.220	18496
561.281	16879
561.342	18348
561.403	22178
561.465	29076
561.526	72272
561.587	97239
561.648	26329
561.709	17562
561.771	16284
561.832	17291
561.893	16843
561.954	16452
562.015	16427
562.076	15847
562.137	16809
562.198	16746
562.259	15794
562.320	17356
562.381	20106
562.442	28378
562.503	21935
562.564	16334
562.625	15304
562.686	15296
562.747	15165
562.808	15444
562.869	14557
562.930	15820
562.991	16206
563.051	15717
563.112	15236
563.173	15423
563.234	14306
563.294	15927
563.355	16077
563.416	16275
563.477	15898
563.537	16296
563.598	15438
563.659	16542
563.720	16237
563.780	16971
563.841	18210
563.901	16359
563.962	15283
564.023	15366
564.083	15734
564.144	16131
564.204	14574
564.265	15390
564.325	15025
564.386	18593
564.446	17847
564.507	15098
564.567	14214
564.628	16036
564.688	15973
564.749	15684
564.809	15882
564.869	17096
564.930	15376
564.990	16829
565.050	15418
565.111	15338
565.171	15407
565.231	15315
565.292	16149
565.352	15183
565.412	15574
565.472	16875
565.532	17201
565.593	16887
565.653	15551
565.713	16196
565.773	17782
565.833	22862
565.893	28232
565.953	17886
566.013	14694
566.074	16005
566.134	16659
566.194	19280
566.254	23739
566.314	18160
566.374	15303
566.434	15659
566.494	14819
566.554	15346
566.614	17410
566.673	15585
566.733	15164
566.793	15879
566.853	15989
566.913	16958
566.973	15487
567.033	16992
567.092	16392
567.152	16012
567.212	16755
567.272	16691
567.331	14895
567.391	14714
567.451	16914
567.511	17777
567.570	18253
567.630	16052
567.690	15462
567.749	15233
567.809	16090
567.868	18724
567.928	17708
567.988	18183
568.047	19643
568.107	19808
568.166	24965
568.226	33889
568.285	44979
568.345	36914
568.404	29143
568.464	26376
568.523	23978
568.582	25880
568.642	26896
568.701	33718
568.761	41554
568.820	67307
568.879	63148
568.939	42515
568.998	30172
569.057	25733
569.116	21799
569.176	19789
569.235	17272
569.294	17408
569.353	16602
569.413	16289
569.472	15231
569.531	15159
569.590	14494
569.649	15322
569.708	14087
569.767	14890
569.827	16023
569.886	15186
569.945	14947
570.004	15605
570.063	14947
570.122	16224
570.181	16349
570.240	15152
570.299	15940
570.358	16524
570.417	14547
570.475	14020
570.534	15948
570.593	17002
570.652	14890
570.711	15726
570.770	15692
570.829	16332
570.887	16934
570.946	21724
571.005	15141
571.064	15483
571.122	17684
571.181	16036
571.240	13618
571.299	14147
571.357	12678
571.416	14960
571.475	13557
571.533	14960
571.592	13595
571.650	14254
571.709	13046
571.768	15447
571.826	14377
571.885	14156
571.943	12879
572.002	13509
572.060	12465
572.119	13057
572.177	12699
572.236	12257
572.294	12394
572.352	13708
572.411	12297
572.469	13464
572.528	11722
572.586	12958
572.644	12843
572.703	14917
572.761	12177
572.819	12329
572.877	11842
572.936	11910
572.994	11245
573.052	12479
573.110	12858
573.169	13327
573.227	11727
573.285	12159
573.343	11264
573.401	12379
573.459	11493
573.517	11927
573.576	12096
573.634	12658
573.692	11617
573.750	12099
573.808	10591
573.866	11970
573.924	11602
573.982	12444
574.040	11472
574.098	11247
574.155	11198
574.213	11704
574.271	11221
574.329	12384
574.387	10783
574.445	10463
574.503	10991
574.560	10932
574.618	10866
574.676	10683
574.734	11377
574.792	12092
574.849	10686
574.907	10184
574.965	9653
575.022	10446
575.080	10330
575.138	11746
575.195	11426
575.253	11784
575.311	13885
575.368	11530
575.426	10043
575.483	11357
575.541	10093
575.598	10473
575.656	10018
575.713	10489
575.771	11124
575.828	10950
575.886	10148
575.943	11701
576.001	10678
576.058	10859
576.115	10828
576.173	11740
576.230	13392
576.287	17111
576.345	13153
576.402	11616
576.459	10987
576.517	9717
576.574	10794
576.631	11171
576.688	10374
576.746	9821
576.803	10824
576.860	9649
576.917	10220
576.974	11081
577.031	9758
577.089	10873
577.146	10590
577.203	10338
577.260	10351
577.317	10224
577.374	9558
577.431	9773
577.488	10674
577.545	10680
577.602	10388
577.659	9299
577.716	10075
577.773	11487
577.830	9539
577.886	11001
577.943	9704
578.000	10042
578.057	9470
578.114	10676
578.171	11694
578.227	12018
578.284	10784
578.341	11120
578.398	9744
578.454	10529
578.511	9901
578.568	10715
578.625	9609
578.681	10023
578.738	9975
578.794	10865
578.851	10690
578.908	12086
578.964	12534
579.021	13306
579.077	12443
579.134	11249
579.190	10682
579.247	12142
579.303	10000
579.360	10497
579.416	10681
579.473	10259
579.529	10237
579.586	10495
579.642	10659
579.698	9584
579.755	10548
579.811	11116
579.867	10503
579.924	10877
579.980	10061
580.036	11609
580.093	11530
580.149	13728
580.205	13844
580.261	12193
580.317	11894
580.374	11246
580.430	11671
580.486	10660
580.542	10720
580.598	11490
580.619	11551
580.654	11671
580.692	11618
580.710	11611
580.765	10546
580.767	10525
580.823	11390
580.838	11582
580.879	12134
580.911	11479
580.935	11024
580.984	10599
580.991	10559
581.047	10327
581.057	10274
581.103	10066
581.130	11029
581.159	12062
581.203	11602
581.215	11498
581.270	10360
581.276	10272
581.326	9532
581.349	9918
581.382	10480
581.422	10564
581.438	10615
581.494	10584
581.494	10569
581.550	9943
581.567	10605
581.606	12004
581.640	11065
581.661	10531
581.713	11052
581.717	11101
581.773	10548
581.786	10594
581.829	10819
581.859	11173
581.885	11458
581.932	11480
581.940	11506
581.996	11494
582.004	11433
582.052	11038
582.077	10667
582.107	10291
582.150	11224
582.163	11475
582.219	10429
582.223	10471
582.274	11174
582.296	10802
582.330	10180
582.368	10805
582.386	11177
582.441	10545
582.441	10546
582.497	11751
582.514	11495
582.552	11110
582.587	11380
582.608	11424
582.659	11373
582.663	11392
582.719	11232
582.732	10980
582.774	10093
582.805	10276
582.830	10507
582.877	10703
582.885	10724
582.941	11090
582.950	11135
582.996	11283
583.023	11306
583.052	11482
583.095	11125
583.107	11011
583.162	11459
583.168	11570
583.218	12419
583.240	12061
583.273	11555
583.313	10280
583.328	9840
583.384	11082
583.385	11044
583.439	9806
583.458	10215
583.494	10981
583.531	10840
583.549	10838
583.603	10972
583.605	10967
583.660	10026
583.676	10242
583.715	10951
583.748	10800
583.770	10604
583.820	10988
583.825	11019
583.881	9918
583.893	9879
583.936	9958
583.965	9758
583.991	9565
584.038	10247
584.046	10322
584.101	9797
584.110	9815
584.156	10119
584.183	10431
584.211	10726
584.255	10353
584.266	10270
584.321	10075
584.328	10100
584.376	10409
584.400	10702
584.431	10865
584.472	10418
584.486	10256
584.541	10347
584.545	10351
584.596	10508
584.617	10472
584.651	10576
584.689	11012
584.706	11188
584.761	11068
584.762	11077
584.816	11487
584.834	11565
584.871	11738
584.906	12185
584.926	12216
584.978	10779
584.980	10754
585.035	12391
585.051	12595
585.090	13180
585.123	13956
585.145	14246
585.195	13614
585.200	13597
585.254	15475
585.267	15847
585.309	17250
585.340	18281
585.364	18778
585.412	19555
585.419	19745
585.473	22743
585.484	23213
585.528	26052
585.556	30097
585.583	38624
585.628	58525
585.637	66032
585.692	136893
585.700	150158
585.747	196886
585.772	164333
585.801	101551
585.845	37058
585.856	29336
585.910	21384
585.917	20471
585.965	17251
585.989	16239
586.019	15508
586.061	15213
586.074	15222
586.128	15615
586.133	15617
586.183	15501
586.205	15757
586.237	15965
586.277	15271
586.292	14975
586.346	14550
586.349	14550
586.401	14507
586.421	14499
586.455	14660
586.493	14766
586.509	15115
586.564	16760
586.565	16820
586.618	19893
586.637	20623
586.672	19596
586.709	17184
586.727	16726
586.781	18507
586.781	18501
586.835	16671
586.853	16369
586.889	16214
586.925	15592
586.944	15254
586.996	15856
586.998	15874
587.052	16148
587.068	16248
587.106	16250
587.140	16256
587.161	16325
587.212	17050
587.215	17083
587.269	17354
587.284	17470
587.323	17423
587.356	17600
587.377	17938
587.427	18644
587.431	18686
587.485	19533
587.499	19659
587.539	19227
587.571	19189
587.593	19698
587.643	20879
587.648	20936
587.702	21441
587.715	21665
587.755	22806
587.786	23447
587.810	23511
587.858	24022
587.864	24192
587.917	26489
587.930	26941
587.971	28105
588.001	28927
588.025	29566
588.073	31203
588.079	31579
588.133	35500
588.145	36460
588.187	39674
588.217	41956
588.241	44225
588.288	49983
588.295	50813
588.348	58016
588.360	59809
588.402	67309
588.431	72870
588.456	77760
588.503	89071
588.510	90989
588.564	108626
588.575	112830
588.617	131487
588.646	145799
588.671	163220
588.718	202634
588.725	212680
588.778	305107
588.789	328980
588.832	503346
588.861	642075
588.886	810996
588.932	1149920
588.939	1167143
588.993	1182492
589.004	1173696
589.047	908405
589.075	694569
589.100	541447
589.147	304560
589.154	289769
589.207	215424
589.218	202980
589.261	187322
589.290	181213
589.314	188535
589.361	211736
589.368	221581
589.421	318951
589.433	344904
589.475	557739
589.504	729207
589.528	860419
589.576	1076173
589.582	1053000
589.635	732872
589.647	655508
589.689	382107
589.718	220137
589.742	175952
589.790	109497
589.795	105718
589.849	78359
589.861	73013
589.902	63690
589.932	57094
589.955	52621
590.004	44276
590.009	43759
590.062	39366
590.075	38365
590.115	35694
590.146	33905
590.168	33153
590.218	31389
590.222	31219
590.275	29561
590.289	29109
590.328	28338
590.360	27766
590.381	26996
590.431	25499
590.435	25454
590.488	24553
590.503	24493
590.541	24875
590.574	25134
590.594	24613
590.645	23070
590.647	23011
590.700	21755
590.716	21514
590.753	21325
590.787	20910
590.806	21007
590.859	21805
590.859	21794
590.912	21596
590.930	21602
590.965	21507
591.001	21423
591.018	21227
591.071	20641
591.072	20651
591.124	20737
591.143	20818
591.177	21154
591.214	21410
591.230	21378
591.283	21657
591.285	21668
591.336	23078
591.356	23861
591.389	24029
591.427	23880
591.442	23080
591.495	20183
591.498	19983
591.547	19167
591.569	18896
591.600	18990
591.640	18996
591.653	19055
591.706	19587
591.711	19645
591.759	19438
591.782	19368
591.811	19663
591.853	20067
591.864	19917
591.917	19281
591.924	19180
591.969	19564
591.995	19915
592.022	19737
592.066	19398
592.075	19571
592.127	20749
592.137	20965
592.180	21076
592.208	21183
592.233	20209
592.279	18370
592.285	18446
592.338	19308
592.350	19498
592.390	18931
592.421	18599
592.443	18844
592.491	19378
592.495	19348
592.548	19183
592.562	19150
592.600	18887
592.633	18716
592.653	18655
592.704	18451
592.705	18577
592.775	19725
592.846	19620
592.916	22014
592.987	24241
593.058	21264
593.128	18965
593.199	19459
593.270	18360
593.341	18780
593.411	21017
593.482	21147
593.553	20232
593.623	19232
593.694	19949
593.764	20192
593.835	19581
593.906	19174
593.976	19996
594.047	20568
594.117	21942
594.188	21789
594.258	21212
594.329	20153
594.399	20455
594.470	21816
594.540	21233
594.611	21255
594.681	21276
594.751	21557
594.822	22961
594.892	24070
594.963	23257
595.033	23514
595.103	23271
595.174	24108
595.244	27585
595.314	29345
595.384	23950
595.455	25362
595.525	25117
595.595	25476
595.665	25629
595.736	25064
595.806	24951
595.876	26226
595.946	25801
596.016	26427
596.087	27291
596.157	26909
596.227	27243
596.297	28457
596.367	29345
596.437	31485
596.507	33699
596.577	34142
596.647	32292
596.717	32654
596.787	32960
596.857	32775
596.927	32671
596.997	33090
597.067	33777
597.137	33879
597.207	33432
597.277	34028
597.347	33550
597.417	32818
597.487	33814
597.557	33761
597.626	35364
597.696	35429
597.766	35609
597.836	35541
597.906	30925
597.975	30639
598.045	31029
598.115	31156
598.185	33458
598.254	37294
598.324	42401
598.394	43590
598.464	42626
598.533	38299
598.603	37465
598.672	36659
598.742	36041
598.812	34972
598.881	36260
598.951	36583
599.020	35355
599.090	37582
599.159	38107
599.229	37042
599.299	35711
599.368	36616
599.437	37409
599.507	33183
599.576	33077
599.646	32992
599.715	33110
599.785	31072
599.854	31226
599.924	31651
599.993	29845
600.062	29949
600.132	31388
600.201	33888
600.270	39405
600.340	41260
600.409	38522
600.478	38763
600.547	38796
600.617	36527
600.686	31207
600.755	29680
600.824	29552
600.894	27340
600.963	25878
601.032	26171
601.101	24128
601.170	23876
601.239	23392
601.308	26024
601.378	24443
601.447	23536
601.516	22698
601.585	26368
601.654	28018
601.723	23612
601.792	25071
601.861	26281
601.930	30371
601.999	32067
602.068	27273
602.137	31242
602.206	30981
602.275	30207
602.343	35228
602.412	35816
602.481	27669
602.550	28408
602.619	29091
602.688	30131
602.756	27864
602.825	27407
602.894	29504
602.963	29997
603.032	29755
603.100	30354
603.169	30321
603.238	29037
603.307	29548
603.375	30458
603.444	31026
603.513	31393
603.581	31675
603.650	32464
603.719	31303
603.787	31873
603.856	33353
603.924	34258
603.993	34563
604.061	35739
604.130	37520
604.198	39401
604.267	38875
604.335	39477
604.404	39506
604.472	39906
604.541	39481
604.609	41847
604.678	41393
604.746	40841
604.815	42211
604.883	42786
604.951	42308
605.020	44242
605.088	43776
605.156	44271
605.225	44129
605.293	45333
605.361	45828
605.429	46754
605.498	48779
605.566	51581
605.634	51921
605.702	52379
605.771	53355
605.839	54660
605.907	53520
605.975	51206
606.043	49867
606.111	50328
606.180	49670
606.248	50371
606.316	49329
606.384	51342
606.452	54904
606.520	64072
606.588	55661
606.656	53652
606.724	50708
606.792	48360
606.860	43964
606.928	40148
606.996	38261
607.064	37162
607.132	39244
607.200	40325
607.267	42687
607.335	43404
607.403	43974
607.471	41922
607.539	40910
607.607	41649
607.674	36183
607.742	37925
607.810	39530
607.878	37795
607.946	37566
608.013	40246
608.081	39034
608.149	41123
608.216	41923
608.284	43526
608.352	41681
608.419	42853
608.487	44194
608.555	41463
608.622	42057
608.690	44115
608.757	49386
608.825	51079
608.893	49624
608.960	47170
609.028	46525
609.095	47826
609.163	43730
609.230	39316
609.298	36624
609.365	38761
609.432	41056
609.500	44713
609.567	51902
609.635	59294
609.702	62114
609.769	59131
609.837	46977
609.904	40523
609.971	41997
610.039	50197
610.106	69031
610.173	141194
610.241	334490
610.308	202085
610.375	86446
610.442	48919
610.509	41225
610.577	43137
610.644	41797
610.711	43992
610.778	44819
610.845	45250
610.912	49557
610.980	52096
611.047	54370
611.114	50301
611.181	47118
611.248	46532
611.315	51256
611.382	50082
611.449	53303
611.516	54415
611.583	52835
611.650	53122
611.717	54982
611.784	56151
611.851	59561
611.918	65346
611.984	79047
612.051	121988
612.118	270855
612.185	690642
612.252	375003
612.319	88832
612.386	71198
612.452	65892
612.519	61833
612.586	61551
612.653	62011
612.719	64543
612.786	60284
612.853	55107
612.919	54060
612.986	54166
613.053	52222
613.120	48512
613.186	47790
613.253	49153
613.319	46910
613.386	49625
613.453	49909
613.519	53298
613.586	62874
613.652	79974
613.719	67462
613.785	61724
613.852	51105
613.918	49852
613.985	50858
614.051	56512
614.118	65804
614.184	60485
614.250	49346
614.317	49905
614.383	49244
614.449	49869
614.516	49658
614.582	50631
614.648	49423
614.715	49450
614.781	47873
614.847	48354
614.914	47755
614.980	46179
615.046	46428
615.112	47212
615.179	46907
615.245	48639
615.311	49496
615.377	53747
615.443	53221
615.509	50404
615.575	51655
615.642	52238
615.708	54133
615.774	57900
615.840	62218
615.906	70160
615.972	91080
616.038	155534
616.104	345791
616.170	859113
616.236	648207
616.302	131190
616.368	93764
616.434	66813
616.500	62597
616.565	70856
616.631	87959
616.697	68650
616.763	73551
616.829	115957
616.895	211841
616.961	185417
617.026	73831
617.092	54882
617.158	50962
617.224	48206
617.289	46275
617.355	43526
617.421	43091
617.487	43707
617.552	39844
617.618	40260
617.684	39448
617.749	42378
617.815	38934
617.880	37647
617.946	38062
618.012	39363
618.077	40187
618.143	39072
618.208	39086
618.274	42421
618.339	41560
618.405	33325
618.470	33773
618.536	34026
618.601	34032
618.667	31210
618.732	30082
618.798	31215
618.863	30168
618.928	30489
618.994	32687
619.059	37334
619.124	50792
619.190	35605
619.255	29849
619.320	29498
619.386	28631
619.451	27512
619.516	28603
619.581	28001
619.647	28894
619.712	29913
619.777	28279
619.842	28828
619.907	29157
619.972	30491
620.038	30114
620.103	27598
620.168	27361
620.233	28810
620.298	27391
620.363	28906
620.428	29503
620.493	31169
620.558	30654
620.623	30235
620.688	30560
620.753	30911
620.818	31511
620.883	31002
620.948	30990
621.013	31535
621.078	29475
621.143	29699
621.207	32701
621.272	31063
621.337	31427
621.402	30133
621.467	32217
621.532	31834
621.596	30285
621.661	29773
621.726	28738
621.791	29632
621.855	32182
621.920	32543
621.985	30113
622.049	31615
622.114	29838
622.179	30888
622.243	31265
622.308	31237
622.373	33682
622.437	32817
622.502	30128
622.566	30580
622.631	29455
622.695	31877
622.760	31311
622.824	32553
622.889	33151
622.953	37412
623.018	56351
623.082	53141
623.147	34549
623.211	34232
623.276	33406
623.340	30360
623.404	30622
623.469	29074
623.533	30464
623.597	28542
623.662	28953
623.726	27124
623.790	24951
623.854	25515
623.919	26314
623.983	27183
624.047	26309
624.111	26678
624.176	26332
624.240	27095
624.304	29245
624.368	26998
624.432	27233
624.496	29107
624.560	33500
624.625	36976
624.689	30294
624.753	30502
624.817	28351
624.881	27187
624.945	25823
625.009	25431
625.073	26632
625.137	29117
625.201	39314
625.265	37603
625.329	27419
625.393	29951
625.456	28761
625.520	29091
625.584	30718
625.648	32341
625.712	35012
625.776	46931
625.839	49623
625.903	29281
625.967	23139
626.031	30466
626.095	37920
626.158	27565
626.222	20724
626.286	19922
626.349	18660
626.413	18941
626.477	21918
626.540	19791
626.604	17368
626.668	18794
626.731	16723
626.795	17486
626.858	16841
626.922	17049
626.986	18456
627.049	15733
627.113	18546
627.176	16842
627.240	16067
627.303	17800
627.366	16657
627.430	17180
627.493	16706
627.557	15763
627.620	17873
627.684	16759
627.747	17812
627.810	14836
627.874	15843
627.937	14056
628.000	17254
628.064	17025
628.127	12453
628.190	14783
628.253	14368
628.317	12997
628.380	12981
628.443	12283
628.506	12178
628.569	12129
628.632	10969
628.696	11611
628.759	11588
628.822	10992
628.885	10957
628.948	10925
629.011	10858
629.074	11952
629.137	10400
629.200	10684
629.263	11813
629.326	8559
629.389	9837
629.452	10385
629.515	9756
629.578	10088
629.641	10434
629.704	10979
629.767	12123
629.830	11424
629.892	9998
629.955	8999
630.018	13299
630.081	15434
630.144	20034
630.207	12736
630.269	12563
630.332	10080
630.395	9569
630.458	9454
630.520	8550
630.583	10831
630.646	9740
630.708	9696
630.771	8496
630.834	10445
630.896	9596
630.959	9620
631.021	9254
631.084	9690
631.146	10288
631.209	12031
631.272	9342
631.334	9903
631.397	9446
631.459	10223
631.522	12146
631.584	10896
631.646	11724
631.709	13759
631.771	17924
631.834	13344
631.896	11693
631.958	9327
632.021	10055
632.083	8033
632.145	9778
632.208	9988
632.270	11073
632.332	8335
632.395	7334
632.457	8975
632.519	8189
632.581	9562
632.643	8299
632.706	9224
632.768	8030
632.830	9136
632.892	8820
632.954	8591
633.016	9302
633.078	8698
633.141	9321
633.203	8877
633.265	8435
633.327	9414
633.389	9158
633.451	12003
633.513	15384
633.575	12166
633.637	15147
633.698	12784
633.760	9529
633.822	9923
633.884	10393
633.946	10143
634.008	9293
634.070	10266
634.132	11371
634.193	11468
634.255	13615
634.317	12276
634.379	13783
634.441	11073
634.502	10093
634.564	9476
634.626	9020
634.687	8948
634.749	8554
634.811	8435
634.873	7497
634.934	7747
634.996	8749
635.057	8035
635.119	7824
635.181	8041
635.242	9244
635.304	7243
635.365	10069
635.427	8500
635.488	9619
635.550	7426
635.611	8232
635.673	6532
635.734	9882
635.796	10285
635.857	11042
635.918	9702
635.980	12248
636.041	11512
636.102	12741
636.164	13378
636.225	13472
636.286	9676
636.348	10227
636.409	8631
636.470	8150
636.531	8495
636.593	7200
636.654	8216
636.715	7665
636.776	7689
636.838	6221
636.899	7540
636.960	7201
637.021	5998
637.082	6129
637.143	7510
637.204	5955
637.265	7083
637.326	6746
637.387	7199
637.448	5560
637.509	7575
637.570	6135
637.631	7506
637.692	4238
637.753	5402
637.814	6133
637.875	6953
637.936	8206
637.997	6173
638.058	6877
638.119	6638
638.179	6650
638.240	5374
638.301	5451
638.362	5660
638.423	5336
638.483	6742
638.544	4672
638.605	6051
638.666	4343
638.726	5651
638.787	5968
638.848	5606
638.908	4585
638.969	6249
639.030	5434
639.090	5062
639.151	6020
639.211	8114
639.272	12323
639.332	22823
639.393	9109
639.453	6363
639.514	5894
639.574	6056
639.635	5228
639.695	6623
639.756	4431
639.816	8264
639.877	10117
639.937	21904
639.997	27184
640.058	7318
640.118	4806
640.178	6404
640.239	4631
640.299	5538
640.359	4993
640.420	4994
640.480	5818
640.540	6811
640.600	6246
640.661	6954
640.721	6934
640.781	11617
640.841	5238
640.901	6410
640.961	5518
641.021	7252
641.082	9702
641.142	15977
641.202	8979
641.262	3134
641.322	5377
641.382	4688
641.442	4621
641.502	4429
641.562	5180
641.622	4427
641.682	4988
641.742	6064
641.802	5887
641.861	6273
641.921	6113
641.981	9295
642.041	8518
642.101	11302
642.161	5499
642.221	4323
642.280	4872
642.340	4723
642.400	2729
642.460	5100
642.519	4634
642.579	4875
642.639	5783
642.698	2774
642.758	6464
642.818	5005
642.877	4725
642.937	5697
642.997	8502
643.056	14401
643.116	5933
643.175	6350
643.235	4094
643.294	4489
643.354	5494
643.414	6602
643.473	8183
643.532	9798
643.592	14437
643.651	26151
643.711	50259
643.770	103133
643.830	263484
643.889	539471
643.948	104546
644.008	17175
644.067	10562
644.126	6999
644.186	6190
644.245	6208
644.304	3926
644.363	6919
644.423	4229
644.482	5075
644.541	4508
644.600	3877
644.659	7019
644.719	7411
644.778	13097
644.837	23361
644.896	53250
644.955	121205
645.014	34434
645.073	8721
645.132	5314
645.191	5683
645.250	4474
645.309	6766
645.368	5050
645.427	8038
645.486	11534
645.545	21559
645.604	5632
645.663	4918
645.722	5112
645.781	5570
645.840	7086
645.898	9693
645.957	15073
646.016	22714
646.075	45785
646.134	92731
646.192	264564
646.251	364375
646.310	43878
646.369	12186
646.427	10392
646.486	6390
646.545	5666
646.603	4583
646.662	5284
646.721	4973
646.779	4087
646.838	4472
646.896	7501
646.955	8469
647.014	14164
647.072	27319
647.131	75997
647.189	31600
647.248	4724
647.306	5081
647.365	4707
647.423	2035
647.481	4705
647.540	2595
647.598	2826
647.657	3051
647.715	4012
647.773	3187
647.832	3495
647.890	2264
647.948	2377
648.007	3514
648.065	2465
648.123	2201
648.181	4581
648.240	3529
648.298	2167
648.356	2489
648.414	2879
648.472	2541
648.531	3084
648.589	3161
648.647	3098
648.705	2328
648.763	2961
648.821	3177
648.879	3300
648.937	3449
648.995	5298
649.053	5884
649.111	11267
649.169	19293
649.227	35501
649.285	77050
649.343	225748
649.401	98075
649.459	36768
649.516	20979
649.574	7677
649.632	12411
649.690	12023
649.748	9063
649.806	9988
649.863	20567
649.921	52924
649.979	31309
650.037	5189
650.094	2164
650.152	3915
650.210	2461
650.268	3060
650.325	2865
650.383	2619
650.440	1380
650.498	1940
650.556	3274
650.613	1652
650.671	2815
650.728	2407
650.786	1802
650.843	2549
650.901	760
650.958	2833
651.016	2403
651.073	2478
651.131	891
651.188	862
651.246	1798
651.303	1433
651.360	2317
651.418	1141
651.475	2523
651.532	617
651.590	2305
651.647	251
651.704	1789
651.762	1980
651.819	1996
651.876	1357
651.933	1828
651.990	2636
652.048	979
652.105	1141
652.162	2342
652.219	1546
652.276	2381
652.333	1947
652.390	1603
652.448	1704
652.505	1761
652.562	1719
652.619	1670
652.676	2812
652.733	2875
652.790	1661
652.847	381
652.904	1929
652.961	565
653.017	1136
653.074	1916
653.131	1631
653.188	513
653.245	559
653.302	1923
653.359	1236
653.415	2231
653.472	1278
653.529	2087
653.586	-86
653.642	1236
653.699	1460
653.756	961
653.813	679
653.869	2123
653.926	1210
653.983	781
654.039	2360
654.096	1330
654.152	1983
654.209	75
654.266	1638
654.322	1162
654.379	1105
654.435	2328
654.492	2206
654.548	4537
654.605	7286
654.661	3821
654.717	1760
654.774	1334
654.830	1478
654.887	1633
654.943	1422
655.000	1612
655.056	1602
655.112	1778
655.168	108
655.225	1977
655.281	2040
655.337	1365
655.394	1889
655.450	2214
655.506	1667
655.562	2278
655.618	2697
655.675	979
655.731	1727
655.787	677
655.843	1861
655.899	582
655.955	1560
656.011	1157
656.067	-164
656.123	1454
656.179	1383
656.235	2639
656.291	962
656.347	1901
656.403	1369
656.459	1092
656.515	1895
656.571	1308
656.627	1481
656.683	1213
656.739	2411
656.795	2638
656.850	1504
656.906	3377
656.962	2014
657.018	1015
657.074	1217
657.129	2176
657.185	3470
657.241	6847
657.297	3025
657.352	1899
657.408	1067
657.464	3214
657.519	1875
657.575	621
657.630	1395
657.686	597
657.742	135
657.797	886
657.853	798
657.908	1901
657.964	448
658.019	1850
658.075	784
658.130	1759
658.186	-333
658.241	1680
658.297	529
658.352	1469
658.407	980
658.463	1109
658.518	1810
658.573	1542
658.629	1179
658.684	1446
658.739	1195
658.795	917
658.850	358
658.905	501
658.960	1301
659.016	1054
659.071	1452
659.126	2201
659.181	2559
659.236	7621
659.291	7004
659.346	2404
659.401	1820
659.457	2105
659.512	1075
659.567	1903
659.622	1351
659.677	1107
659.732	414
659.787	1359
659.842	295
659.897	2093
659.952	1726
660.007	1349
660.061	477
660.116	-141
660.171	137
660.226	1121
660.281	1730
660.336	143
660.391	1246
660.445	1036
660.500	1156
660.555	960
660.610	1010
660.664	1074
660.719	970
660.774	1342
660.828	797
660.883	2129
660.938	1442
660.992	327
661.047	1467
661.101	682
661.156	156
661.211	-169
661.265	461
661.320	550
661.374	377
661.429	183
661.483	938
661.538	453
661.592	688
661.647	975
661.701	732
661.755	1237
661.810	877
661.864	387
661.919	193
661.973	1099
662.027	780
662.081	792
662.136	-151
662.190	1449
662.244	725
662.299	919
662.353	676
662.407	617
662.461	1530
662.515	605
662.569	1019
662.624	1335
662.678	79
662.732	-61
662.786	1478
662.840	710
662.894	994
662.948	32
663.002	425
663.056	1300
663.110	43
663.164	1229
663.218	1422
663.272	1674
663.326	1323
663.380	1774
663.434	742
663.488	269
663.542	880
663.595	1237
663.649	310
663.703	1372
663.757	675
663.811	654
663.864	843
663.918	751
663.972	336
664.026	1020
664.079	660
664.133	1611
664.187	890
664.240	-141
664.294	376
664.348	1079
664.401	1025
664.455	1492
664.508	359
664.562	909
664.615	811
664.669	443
664.722	1355
664.776	1138
664.829	-26
664.883	-153
664.936	-85
664.990	559
665.043	1046
665.097	241
665.150	2025
665.203	1086
665.257	546
665.310	1412
665.363	1037
665.417	1646
665.470	60
665.523	378
665.576	359
665.630	2007
665.683	1485
665.736	185
665.789	754
665.842	363
665.895	491
665.949	886
666.002	496
666.055	977
666.108	1830
666.161	1060
666.214	1822
666.267	1733
666.320	2679
666.373	1361
666.426	1360
666.479	586
666.532	104
666.585	773
666.638	1795
666.691	734
666.744	1418
666.796	720
666.849	776
666.902	1225
666.955	866
667.008	741
667.060	709
667.113	831
667.166	1346
667.219	883
667.271	879
667.324	883
667.377	-54
667.430	666
667.482	1250
667.535	1294
667.587	1604
667.640	2046
667.693	2412
667.745	7904
667.798	6552
667.850	1633
667.903	1474
667.955	1388
668.008	687
668.060	986
668.113	723
668.165	874
668.218	771
668.270	1104
668.322	1228
668.375	257
668.427	1055
668.479	966
668.532	414
668.584	1236
668.636	1026
668.689	1295
668.741	349
668.793	617
668.845	839
668.898	1901
668.950	383
669.002	1368
669.054	1109
669.106	779
669.158	1385
669.211	907
669.263	-150
669.315	2030
669.367	1756
669.419	1188
669.471	1739
669.523	1889
669.575	3266
669.627	2247
669.679	1230
669.731	1420
669.783	1867
669.835	1934
669.886	1016
669.938	1388
669.990	1273
670.042	1959
670.094	1913
670.146	1670
670.197	2227
670.249	3181
670.301	3836
670.353	6701
670.404	9390
670.456	14614
670.508	23900
670.560	40253
670.611	69598
670.663	126200
670.715	313161
670.766	470809
670.818	138762
670.869	24473
670.921	11899
670.972	9063
671.024	6049
671.075	4976
671.127	3372
671.178	2896
671.230	2714
671.281	2762
671.333	2893
671.384	2923
671.436	1999
671.487	3609
671.538	3910
671.590	6765
671.641	10340
671.692	18826
671.744	36341
671.795	20215
671.846	5709
671.897	3684
671.949	2035
672.000	1635
672.051	1435
672.102	1486
672.153	789
672.204	1228
672.256	2344
672.307	1016
672.358	1021
672.409	691
672.460	964
672.511	996
672.562	1434
672.613	913
672.664	1090
672.715	1025
672.766	692
672.817	665
672.868	1001
672.919	1658
672.970	734
673.021	830
673.071	381
673.122	1109
673.173	-34
673.224	1092
673.275	453
673.326	1462
673.376	1303
673.427	138
673.478	1036
673.528	1172
673.579	729
673.630	802
673.680	1134
673.731	392
673.782	585
673.832	762
673.883	482
673.934	90
673.984	993
674.035	773
674.085	1292
674.136	1510
674.186	106
674.237	1174
674.287	1283
674.338	414
674.388	443
674.438	523
674.489	648
674.539	78
674.589	811
674.640	930
674.690	1074
674.740	453
674.791	299
674.841	732
674.891	1182
674.942	1591
674.992	1229
675.042	308
675.092	-136
675.142	254
675.193	963
675.243	838
675.293	612
675.343	1105
675.393	-66
675.443	527
675.493	1020
675.543	929
675.593	-133
675.643	-144
675.693	279
675.743	781
675.793	407
675.843	29
675.893	-162
675.943	559
675.993	318
676.043	1059
676.093	18
676.142	-363
676.192	252
676.242	952
676.292	-362
676.341	-39
676.391	89
676.441	1017
676.491	-627
676.540	778
676.590	238
676.640	358
676.689	215
676.739	-129
676.789	57
676.838	537
676.888	798
676.937	361
676.987	-266
677.037	371
677.086	-394
677.136	448
677.185	-464
677.235	316
677.284	-176
677.333	853
677.383	-652
677.432	-208
677.482	1178
677.531	708
677.580	85
677.630	-196
677.679	-426
677.728	244
677.778	294
677.827	384
677.876	-378
677.925	295
677.975	-58
678.024	165
678.073	104
678.122	458
678.171	-484
678.220	1003
678.269	380
678.319	633
678.368	493
678.417	118
678.466	369
678.515	-135
678.564	34
678.613	417
678.662	82
678.711	285
678.760	-269
678.809	-184
678.857	77
678.906	-185
678.955	141
679.004	900
679.053	-265
679.102	-54
679.151	-126
679.199	-355
679.248	310
679.297	990
679.346	-433
679.394	266
679.443	465
679.492	755
679.540	51
679.589	-185
679.638	-229
679.686	1025
679.735	440
679.784	-138
679.832	-93
679.881	-171
679.929	-181
679.978	-639
680.026	-320
680.075	184
680.123	-349
680.172	-842
680.220	-623
680.268	211
680.317	-481
680.365	89
680.414	43
680.462	-49
680.510	410
680.559	111
680.607	-522
680.655	309
680.703	-549
680.752	459
680.800	-272
680.848	-316
680.896	-269
680.945	730
680.993	-1132
681.041	151
681.089	352
681.137	734
681.185	-209
681.233	77
681.258	-141
681.281	-361
681.329	-782
681.377	-447
681.380	-380
681.425	605
681.473	442
681.502	104
681.521	-152
681.569	-35
681.617	710
681.624	568
681.665	-425
681.713	-260
681.745	506
681.761	859
681.809	195
681.857	384
681.867	514
681.904	906
681.952	690
681.989	320
682.000	195
682.048	536
682.096	150
682.111	59
682.143	-174
682.191	602
682.233	892
682.239	921
682.286	299
682.334	203
682.354	213
682.382	217
682.430	488
682.476	626
682.477	618
682.525	276
682.572	605
682.598	704
682.620	793
682.667	504
682.715	817
682.720	877
682.763	1325
682.810	950
682.841	897
682.857	828
682.905	1090
682.952	959
682.963	909
683.000	653
683.047	544
683.085	1171
683.095	1351
683.142	672
683.190	1208
683.206	838
683.237	107
683.284	1211
683.328	1492
683.332	1510
683.379	810
683.426	972
683.449	793
683.473	609
683.521	389
683.568	796
683.571	822
683.615	1005
683.662	1041
683.693	1578
683.709	1868
683.757	864
683.804	1593
683.814	1420
683.851	786
683.898	1568
683.936	1234
683.945	1143
683.992	1323
684.039	2038
684.057	2082
684.086	2142
684.133	1320
684.179	1823
684.180	1824
684.227	2093
684.274	1736
684.300	1901
684.321	2090
684.368	2070
684.415	1720
684.422	1726
684.462	1480
684.509	1096
684.543	936
684.556	938
684.603	1090
684.649	1479
684.665	1563
684.696	1678
684.743	1188
684.786	1915
684.790	1975
684.837	1627
684.883	1557
684.908	1832
684.930	2031
684.977	2026
685.023	1734
685.029	1735
685.070	1684
685.117	1709
685.150	1670
685.164	1695
685.210	1863
685.257	1740
685.272	1954
685.303	2361
685.350	2209
685.393	2138
685.396	2141
685.443	2727
685.490	4041
685.514	3744
685.536	3270
685.583	3034
685.629	2747
685.636	2761
685.675	2810
685.722	2305
685.757	2805
685.768	2999
685.815	2076
685.861	2609
685.878	2545
685.908	2468
685.954	2177
686.000	2380
686.000	2380
686.047	2337
686.093	2537
686.121	2753
686.139	2824
686.185	2125
686.232	3105
686.242	2963
686.278	2548
686.324	2608
686.363	1880
686.370	1735
686.416	2840
686.463	2570
686.484	2469
686.509	2430
686.555	2398
686.601	2567
686.606	2560
686.647	2360
686.693	1973
686.727	2526
686.739	2779
686.785	2393
686.831	2696
686.848	2702
686.877	2532
686.923	2546
686.969	2295
686.969	2295
687.015	2505
687.061	2739
687.090	2807
687.107	2725
687.153	2601
687.199	2605
687.211	2499
687.245	2512
687.291	2738
687.332	2471
687.336	2410
687.382	2897
687.428	2699
687.453	2642
687.474	2720
687.520	2822
687.565	2843
687.574	2838
687.611	2683
687.657	2913
687.695	3105
687.702	3182
687.748	2921
687.794	3871
687.816	3855
687.839	3660
687.885	3379
687.931	2906
687.937	2933
687.976	3261
688.022	3105
688.058	3238
688.067	3229
688.113	3003
688.158	2577
688.179	2596
688.204	2772
688.249	3229
688.295	2586
688.300	2672
688.340	3281
688.386	3891
688.421	3162
688.431	2955
688.477	3443
688.522	3884
688.542	3788
688.567	3693
688.613	3691
688.658	3531
688.663	3561
688.703	3754
688.749	3181
688.784	3330
688.794	3366
688.839	3067
688.884	3480
688.905	3460
688.930	3488
688.975	3335
689.020	3413
689.026	3381
689.065	3140
689.110	3252
689.146	3403
689.155	3477
689.201	3295
689.246	3728
689.267	3685
689.291	3557
689.336	3679
689.381	3118
689.388	3135
689.426	3403
689.471	3701
689.509	3514
689.516	3462
689.561	3633
689.606	3294
689.630	3319
689.651	3416
689.696	3690
689.741	3872
689.750	3926
689.785	4038
689.830	3540
689.871	3404
689.875	3404
689.920	3441
689.965	3805
689.992	3673
690.010	3607
690.054	3362
690.099	3893
690.112	3939
690.144	3986
690.189	3607
690.233	3171
690.233	3176
690.278	3263
690.323	3885
690.354	3951
690.367	3966
690.412	4047
690.457	4113
690.474	4215
690.501	4376
690.546	4152
690.590	4318
690.595	4302
690.635	4265
690.680	4299
690.716	4098
690.724	4068
690.769	4094
690.813	4313
690.836	4484
690.857	4838
690.902	5220
690.946	5603
690.957	5815
690.991	7176
691.035	8448
691.077	9745
691.080	9730
691.124	8910
691.168	7862
691.198	7353
691.213	7026
691.257	6385
691.301	5261
691.318	4902
691.346	4875
691.390	4326
691.434	4349
691.439	4316
691.478	4350
691.522	4711
691.559	4760
691.567	4805
691.611	5194
691.655	5842
691.680	5694
691.699	5301
691.743	4846
691.787	4317
691.800	4175
691.831	4262
691.875	4556
691.919	4730
691.921	4722
691.964	4769
692.008	5125
692.041	4899
692.052	4830
692.096	5075
692.139	5091
692.162	5051
692.183	4857
692.227	4704
692.271	4308
692.282	4229
692.315	4440
692.359	4798
692.402	4707
692.403	4717
692.447	4886
692.490	4939
692.523	4870
692.534	4839
692.578	5089
692.622	4730
692.643	4583
692.666	4433
692.709	4543
692.753	4028
692.763	4053
692.797	4373
692.840	4343
692.884	4569
692.884	4582
692.928	4850
692.971	4847
693.004	4938
693.015	4927
693.059	4879
693.102	4502
693.124	4480
693.146	4689
693.189	5060
693.233	5202
693.245	5337
693.276	5487
693.320	5327
693.363	5123
693.365	5113
693.407	5574
693.450	5836
693.485	6158
693.493	6249
693.537	6477
693.580	6599
693.605	6796
693.624	7287
693.667	8401
693.710	9282
693.725	9689
693.753	12000
693.797	15741
693.840	19605
693.845	19928
693.883	17310
693.926	14207
693.966	11777
693.970	11621
694.013	9732
694.056	7915
694.086	6559
694.099	6428
694.142	6098
694.185	5674
694.206	5505
694.229	5793
694.272	6314
694.315	6637
694.326	6719
694.358	6901
694.401	7342
694.444	7733
694.446	7724
694.487	7641
694.530	7510
694.566	7576
694.573	7502
694.616	6541
694.659	5964
694.686	5540
694.702	5589
694.745	5495
694.787	5634
694.806	5613
694.830	5579
694.873	5671
694.916	5339
694.926	5348
694.959	5716
695.002	6049
695.044	6388
695.046	6380
695.087	6077
695.130	5888
695.166	5720
695.172	5736
695.215	5615
695.258	5696
695.286	5649
695.301	5676
695.343	5551
695.386	5563
695.406	5618
695.428	5668
695.471	5650
695.514	5429
695.526	5405
695.556	5704
695.599	6159
695.641	6548
695.646	6558
695.684	6378
695.726	6422
695.766	6204
695.769	6192
695.811	5955
695.854	5548
695.886	5317
695.896	5430
695.938	5758
695.981	5981
696.005	6182
696.023	6193
696.065	6336
696.108	6163
696.125	6125
696.150	6174
696.192	6089
696.235	6333
696.245	6308
696.277	6029
696.319	5787
696.361	5477
696.365	5438
696.404	6035
696.446	6525
696.485	7154
696.488	7163
696.530	6765
696.572	6562
696.604	6367
696.614	6445
696.656	6611
696.698	6879
696.724	7091
696.740	7101
696.783	6772
696.825	6711
696.844	6611
696.867	6706
696.909	6795
696.951	6881
696.964	6976
696.992	7045
697.034	6711
697.076	6672
697.083	6616
697.118	6667
697.160	6792
697.202	6805
697.203	6789
697.244	6875
697.286	6747
697.323	6619
697.327	6653
697.369	6876
697.411	6960
697.442	7052
697.453	7110
697.494	7273
697.536	7476
697.562	7522
697.578	7568
697.620	7719
697.661	7802
697.682	7833
697.703	8010
697.744	8311
697.786	8635
697.801	8717
697.828	8948
697.869	9298
697.911	9595
697.921	9646
697.952	9034
697.994	8274
698.035	7381
698.040	7260
698.077	7523
698.118	7790
698.160	8013
698.160	7989
698.201	7643
698.243	7338
698.279	7004
698.284	7055
698.325	7353
698.367	7642
698.399	7824
698.408	7798
698.449	7561
698.491	7379
698.518	7225
698.532	7407
698.573	7887
698.614	8359
698.638	8610
698.656	8465
698.697	8091
698.738	7687
698.757	7477
698.779	7512
698.820	7539
698.862	7562
698.877	7549
698.903	7877
698.944	8373
698.985	8869
698.996	8982
699.026	8566
699.067	7955
699.116	7205
699.235	8667
699.354	8338
699.474	7595
699.593	8233
699.713	7421
699.832	8826
699.951	8683
700.070	8547
700.190	7045
700.309	7973
700.428	7654
700.547	7846
700.667	7420
700.786	7979
700.905	6211
701.024	7770
701.143	6185
701.262	7712
701.381	7271
701.500	8429
701.619	9460
701.738	7749
701.857	7000
701.976	6686
702.095	7207
702.214	9771
702.333	8772
702.452	9086
702.571	7103
702.690	8361
702.809	7370
702.928	7229
703.047	7372
703.165	7546
703.284	6888
703.403	7326
703.522	7298
703.640	7705
703.759	8281
703.878	8936
703.997	6808
704.115	6323
704.234	6761
704.353	7091
704.471	6888
704.590	6935
704.708	5943
704.827	6152
704.946	6163
705.064	6654
705.183	5985
705.301	7358
705.420	7721
705.538	7077
705.656	6380
705.775	7471
705.893	8400
706.012	9189
706.130	6505
706.249	6782
706.367	6652
706.485	7309
706.604	6158
706.722	7739
706.840	8048
706.958	8402
707.077	6238
707.195	6281
707.313	5645
707.431	5845
707.549	6379
707.668	6878
707.786	6322
707.904	5880
708.022	4984
708.140	5845
708.258	5365
708.376	7179
708.494	6396
708.612	6296
708.730	8059
708.848	7439
708.966	7496
709.084	7995
709.202	6603
709.320	7730
709.438	6320
709.556	6605
709.674	6932
709.791	7348
709.909	5904
710.027	5912
710.145	6485
710.263	7598
710.380	5388
710.498	5846
710.616	6021
710.733	6338
710.851	6436
710.969	6292
711.086	5654
711.204	6392
711.322	5003
711.439	5652
711.557	5635
711.674	5393
711.792	5003
711.909	6183
712.027	5468
712.144	5909
712.262	4809
712.379	5681
712.497	6396
712.614	7201
712.732	6674
712.849	6975
712.966	7691
713.084	10026
713.201	6700
713.318	6329
713.436	6351
713.553	6222
713.670	7359
713.787	7839
713.905	6042
714.022	6219
714.139	5608
714.256	8831
714.373	10868
714.490	21117
714.608	58818
714.725	255975
714.842	216147
714.959	15468
715.076	8656
715.193	6721
715.310	6930
715.427	6316
715.544	5967
715.661	6253
715.778	5332
715.895	6543
716.011	6276
716.128	7305
716.245	5791
716.362	10235
716.479	8899
716.596	6685
716.713	6160
716.829	6690
716.946	5478
717.063	5910
717.180	4734
717.296	5372
717.413	5061
717.530	5493
717.646	5696
717.763	5801
717.880	4875
717.996	5315
718.113	5531
718.229	5872
718.346	4743
718.462	6757
718.579	10582
718.695	22282
718.812	9979
718.928	6460
719.045	4721
719.161	5665
719.277	4150
719.394	5358
719.510	5260
719.626	5521
719.743	6701
719.859	9941
719.975	15936
720.092	70162
720.208	142257
720.324	14355
720.440	6115
720.557	6784
720.673	15251
720.789	11386
720.905	10985
721.021	5737
721.137	4323
721.253	4808
721.369	4633
721.486	5299
721.602	5030
721.718	4685
721.834	3767
721.950	5018
722.066	4330
722.181	4134
722.297	5152
722.413	5464
722.529	4278
722.645	4528
722.761	4113
722.877	3960
722.993	4248
723.108	4634
723.224	4295
723.340	4524
723.456	4500
723.571	5263
723.687	3562
723.803	3524
723.918	3515
724.034	4339
724.150	3531
724.265	4671
724.381	5621
724.497	6965
724.612	3972
724.728	4208
724.843	4355
724.959	4853
725.074	6595
725.190	4869
725.305	3664
725.421	4079
725.536	3723
725.651	4436
725.767	3700
725.882	4275
725.997	3685
726.113	3485
726.228	3143
726.343	3669
726.459	4223
726.574	2802
726.689	3816
726.804	3593
726.920	3349
727.035	3865
727.150	3660
727.265	3466
727.380	3053
727.495	3640
727.610	3472
727.725	4099
727.841	3424
727.956	4819
728.071	3965
728.186	3497
728.301	2782
728.416	3897
728.531	3526
728.645	3284
728.760	3975
728.875	4797
728.990	3877
729.105	4180
729.220	5776
729.335	4849
729.449	3454
729.564	2994
729.679	3562
729.794	3094
729.908	3463
730.023	4023
730.138	3721
730.253	3283
730.367	2919
730.482	3630
730.596	3031
730.711	4744
730.826	3702
730.940	4023
731.055	3242
731.169	3803
731.284	3015
731.398	3452
731.513	2822
731.627	3578
731.742	4254
731.856	3877
731.970	4527
732.085	5185
732.199	5742
732.313	9633
732.428	25456
732.542	83084
732.656	40076
732.771	7403
732.885	5281
732.999	5458
733.113	4429
733.227	4910
733.342	4107
733.456	4673
733.570	3941
733.684	4490
733.798	3399
733.912	3797
734.026	3804
734.140	4010
734.254	4297
734.368	4654
734.482	5066
734.596	2886
734.710	4568
734.824	3661
734.938	3326
735.052	4083
735.166	4432
735.280	4352
735.393	3416
735.507	2961
735.621	3627
735.735	4210
735.849	3458
735.962	4019
736.076	3802
736.190	3866
736.303	4175
736.417	5101
736.531	3153
736.644	3420
736.758	3011
736.872	3935
736.985	3243
737.099	3432
737.212	2793
737.326	3730
737.439	3673
737.553	3376
737.666	4032
737.780	3119
737.893	3246
738.007	3722
738.120	2478
738.233	3613
738.347	2548
738.460	3591
738.573	3563
738.687	4013
738.800	4625
738.913	6388
739.026	3302
739.140	4152
739.253	2813
739.366	3087
739.479	2852
739.592	2992
739.705	3133
739.818	3664
739.932	2696
740.045	3772
740.158	2997
740.271	3517
740.384	2637
740.497	3579
740.610	3354
740.723	3752
740.836	4143
740.949	4530
741.062	6635
741.174	4604
741.287	3175
741.400	2764
741.513	3682
741.626	3894
741.739	4020
741.851	4014
741.964	2191
742.077	3764
742.189	3037
742.302	3891
742.415	3829
742.527	3338
742.640	2880
742.753	2800
742.865	2640
742.978	2279
743.090	2430
743.203	2572
743.316	2075
743.428	2925
743.541	3002
743.653	3882
743.766	2506
743.878	3292
743.990	2715
744.103	3376
744.215	3253
744.327	3619
744.440	5424
744.552	9625
744.664	3506
744.777	3379
744.889	1640
745.001	3266
745.113	1956
745.226	2554
745.338	2153
745.450	2572
745.562	1749
745.674	2387
745.786	2301
745.898	2644
746.010	3117
746.122	1944
746.234	1998
746.347	2519
746.459	3416
746.570	2035
746.682	2502
746.794	2825
746.906	2253
747.018	1681
747.130	2254
747.242	3080
747.354	2804
747.466	2083
747.577	2204
747.689	2341
747.801	1782
747.913	2829
748.024	1994
748.136	1983
748.248	2384
748.359	2388
748.471	2643
748.583	2584
748.694	2015
748.806	2507
748.918	2177
749.029	3558
749.141	3228
749.252	3388
749.364	4293
749.475	10946
749.587	3670
749.698	2636
749.809	2260
749.921	2178
750.032	2213
750.144	2502
750.255	1552
750.366	1906
750.478	2306
750.589	2784
750.700	2270
750.811	3119
750.923	4523
751.034	13679
751.145	9986
751.256	2645
751.367	1670
751.479	2516
751.590	1152
751.701	1550
751.812	1450
751.923	1683
752.034	2311
752.145	1704
752.256	1879
752.367	1859
752.478	1318
752.589	2995
752.700	1539
752.811	2126
752.922	905
753.032	2383
753.143	3063
753.254	2186
753.365	1724
753.476	2208
753.586	1424
753.697	2431
753.808	2538
753.919	1715
754.029	1708
754.140	2009
754.251	73
754.361	2228
754.472	2008
754.582	1897
754.693	1583
754.804	2043
754.914	1337
755.025	1955
755.135	1535
755.246	2235
755.356	789
755.466	2179
755.577	1326
755.687	1822
755.798	1446
755.908	1520
756.018	1365
756.129	1672
756.239	1989
756.349	1638
756.460	2128
756.570	2092
756.680	1931
756.790	2363
756.900	3256
757.011	1817
757.121	1006
757.231	1576
757.341	1301
757.451	2717
757.561	1553
757.671	1507
757.781	907
757.891	2235
758.001	2096
758.111	2498
758.221	2424
758.331	3609
758.441	3242
758.551	4713
758.661	2832
758.771	2518
758.880	2177
758.990	2120
759.100	1322
759.210	2230
759.320	1357
759.429	2211
759.539	1476
759.649	2387
759.758	2179
759.868	2446
759.978	1480
760.087	1877
760.197	1787
760.307	2251
760.416	2060
760.526	1118
760.635	2534
760.745	2284
760.854	1973
760.964	3104
761.073	2420
761.182	1841
761.292	1957
761.401	3007
761.511	1849
761.620	2440
761.729	1798
761.839	2018
761.948	1875
762.057	2663
762.166	1981
762.276	987
762.385	2908
762.494	1989
762.603	1856
762.712	2178
762.822	1952
762.931	2606
763.040	1326
763.149	2063
763.258	2576
763.367	3119
763.476	1581
763.585	2713
763.694	2216
763.803	2470
763.912	2383
764.021	2986
764.130	2548
764.238	2400
764.347	2252
764.456	3364
764.565	2790
764.674	4017
764.783	3442
764.891	3717
765.000	4636
765.109	5211
765.217	4716
765.326	6563
765.435	7115
765.543	8576
765.652	9655
765.761	13398
765.869	19171
765.978	29684
766.086	52452
766.195	105168
766.303	251477
766.412	475889
766.520	383397
766.629	151702
766.737	62239
766.846	35187
766.954	23307
767.062	16936
767.171	12965
767.279	10414
767.387	8034
767.496	8622
767.604	6088
767.712	6478
767.820	4583
767.928	5749
768.037	4349
768.145	5310
768.253	4462
768.361	4574
768.469	4121
768.577	4180
768.685	5168
768.793	4966
768.901	5198
769.009	7188
769.117	6321
769.225	8803
769.333	13054
769.441	21710
769.549	39791
769.657	93702
769.765	263811
769.873	388416
769.981	161653
770.088	48187
770.196	23512
770.304	16136
770.412	11358
770.519	8808
770.627	6992
770.735	5520
770.842	5608
770.950	4477
771.058	4907
771.165	4628
771.273	3361
771.380	3667
771.488	3100
771.595	3666
771.703	3335
771.810	4018
771.918	1699
772.025	3961
772.133	2732
772.240	3280
772.348	4410
772.455	2811
772.562	3039
772.670	3010
772.777	2476
772.884	3027
772.991	2027
773.099	3125
773.206	2177
773.313	2936
773.420	2764
773.528	2319
773.635	2065
773.742	3791
773.849	2307
773.956	2596
774.063	1277
774.170	1925
774.277	2512
774.384	2245
774.491	1455
774.598	1804
774.705	2226
774.812	3958
774.919	3580
775.026	2683
775.133	2064
775.239	1471
775.346	1562
775.453	2374
775.560	1909
775.667	2004
775.773	1178
775.880	3213
775.987	1328
776.093	2658
776.200	1775
776.307	1922
776.413	2207
776.520	2009
776.627	1479
776.733	2237
776.840	561
776.946	3469
777.053	2260
777.159	2914
777.266	953
777.372	3512
777.478	2073
777.585	2950
777.691	1162
777.798	2087
777.904	2883
778.010	4981
778.117	3451
778.223	2029
778.329	1207
778.435	1495
778.542	2717
778.648	1529
778.754	934
778.860	1923
778.966	1352
779.072	893
779.178	1143
779.284	1619
779.391	172
779.497	1142
779.603	3311
779.708	2051
779.815	5880
779.920	18314
780.026	28019
780.132	4185
780.238	1696
780.344	2764
780.450	2265
780.556	1381
780.661	873
780.767	1971
780.873	1603
780.979	2345
781.085	864
781.190	1277
781.296	1108
781.402	914
781.507	1155
781.613	1412
781.719	814
781.824	1634
781.930	1765
782.035	1522
782.141	1213
782.246	264
782.352	835
782.457	1522
782.563	1105
782.668	1426
782.773	1031
782.879	998
782.984	2192
783.090	3195
783.195	5119
783.300	2583
783.405	1386
783.511	737
783.616	1926
783.721	1829
783.826	1057
783.932	1717
784.037	1167
784.142	1064
784.247	1450
784.352	2119
784.457	504
784.562	1530
784.667	1246
784.772	908
784.877	480
784.982	1178
785.087	96
785.192	744
785.297	797
785.402	925
785.507	740
785.611	1670
785.716	144
785.821	1135
785.926	466
786.031	1466
786.135	567
786.240	976
786.345	-687
786.450	1802
786.554	1022
786.659	439
786.763	-95
786.868	1455
786.973	1336
787.077	1093
787.182	743
787.286	1601
787.391	1465
787.495	757
787.600	1116
787.704	142
787.809	1053
787.913	788
788.017	896
788.122	1602
788.226	1123
788.330	557
788.435	685
788.539	21
788.643	-266
788.747	1368
788.852	373
788.956	477
789.060	658
789.164	1540
789.268	58
789.372	1383
789.476	-205
789.580	888
789.684	159
789.788	1225
789.892	-122
789.996	1352
790.100	523
790.204	549
790.308	325
790.412	-60
790.516	246
790.620	10
790.724	368
790.828	1117
790.931	-706
791.035	2966
791.139	437
791.242	386
791.346	1207
791.450	1500
791.554	-14
791.657	30
791.761	1056
791.864	1255
791.968	1255
792.072	-159
792.175	939
792.279	1338
792.382	187
792.486	796
792.589	-344
792.693	1798
792.796	-630
792.899	1626
793.003	1459
793.106	-654
793.209	501
793.313	1731
793.416	123
793.519	2045
793.623	3168
793.726	5310
793.829	1091
793.932	510
794.035	-21
794.138	2224
794.242	1040
794.345	1494
794.448	1781
794.551	5846
794.654	11167
794.757	14402
794.860	1237
794.963	1196
795.066	509
795.169	1909
795.272	22
795.375	937
795.477	-206
795.580	577
795.683	-594
795.786	673
795.889	-810
795.991	1136
796.094	703
796.197	-21
796.300	1580
796.402	588
796.505	-237
796.608	-192
796.710	1316
796.813	517
796.915	-134
797.018	526
797.120	792
797.223	-172
797.326	1344
797.428	1339
797.530	-153
797.633	535
797.735	706
797.838	-10
797.940	784
798.042	-378
798.145	260
798.247	1389
798.349	-1893
798.452	948
798.554	-213
798.656	-416
798.758	919
798.860	-17
798.962	265
799.065	159
799.167	-505
799.269	1351
799.371	374
799.473	823
799.575	415
799.677	1010
799.779	2936
799.881	2082
799.983	1266
800.085	1142
800.187	136
800.289	499
800.390	-183
800.492	178
800.594	868
800.696	105
800.798	-397
800.899	-238
801.001	-138
801.103	-3
801.205	-106
801.306	-107
801.408	-773
801.509	1107
801.611	-94
801.713	455
801.814	-199
801.916	-657
802.017	-96
802.119	-530
802.220	49
802.322	-1321
802.423	1965
802.525	-522
802.626	-164
802.727	671
802.829	414
802.930	-2021
803.031	942
803.133	381
803.234	-338
803.335	111
803.436	-681
803.538	566
803.639	-1345
803.740	1386
803.841	-394
803.942	621
804.043	327
804.144	-262
804.245	-260
804.346	450
804.447	-265
804.548	1560
804.649	2842
804.750	652
804.851	-978
804.952	-891
805.053	451
805.154	-44
805.255	438
805.355	80
805.456	-40
805.557	564
805.658	-431
805.758	975
805.859	-65
805.960	150
806.061	-421
806.161	119
806.262	-356
806.362	309
806.463	-358
806.564	-204
806.664	164
806.765	671
806.865	447
806.966	384
807.066	-389
807.166	270
807.267	-172
807.367	-57
807.468	552
807.568	-1372
807.668	643
807.769	839
807.869	-716
807.969	178
808.069	488
808.170	284
808.270	23
808.370	1073
808.470	1427
808.570	217
808.670	182
808.770	269
808.870	-572
808.970	152
809.070	-1232
809.170	79
809.271	303
809.370	540
809.470	571
809.570	-525
809.670	-703
809.770	321
809.870	-5
809.970	1206
810.070	-205
810.169	328
810.269	-1154
810.369	1003
810.469	-336
810.568	628
810.668	-856
810.768	-185
810.867	-274
810.967	-873
811.066	-230
811.166	125
811.265	428
811.365	-898
811.464	-1076
811.564	149
811.663	65
811.763	-847
811.862	122
811.962	879
812.061	-55
812.160	-390
812.260	229
812.359	766
812.458	-281
812.557	3155
812.657	2579
812.756	1815
812.855	-1002
812.954	368
813.053	507
813.153	-14
813.252	-1014
813.351	998
813.450	74
813.549	-763
813.648	8
813.747	122
813.846	-302
813.945	-80
814.044	136
814.143	135
814.242	419
814.341	-177
814.439	-907
814.538	292
814.637	-72
814.736	-99
814.835	646
814.933	-239
815.032	-408
815.131	314
815.229	383
815.328	1175
815.427	-665
815.525	1058
815.624	201
815.722	30
815.821	585
815.919	637
816.018	-312
816.116	1131
816.215	1553
816.313	44
816.412	366
816.510	278
816.609	1951
816.707	1044
816.805	-476
816.904	889
817.002	863
817.100	1586
817.198	1582
817.296	1175
817.395	251
817.493	2040
817.591	288
817.689	1586
817.787	1387
817.885	2822
817.983	7026
818.081	15793
818.179	40417
818.277	104147
818.375	66221
818.473	11709
818.571	4648
818.669	3718
818.767	3384
818.865	3457
818.963	3795
819.061	7007
819.158	13206
819.256	34277
819.354	84440
819.452	183377
819.549	81814
819.647	15949
819.745	5936
819.842	4730
819.940	2624
820.038	1765
820.135	1927
820.233	2223
820.330	202
820.428	354
820.525	1841
820.623	1401
820.720	502
820.818	1210
820.915	268
821.012	800
821.110	-40
821.207	1278
821.304	-42
821.402	901
821.499	990
821.596	1114
821.693	356
821.791	1512
821.888	2136
821.985	5997
822.082	2852
822.179	1538
822.276	278
822.373	934
822.470	-476
822.567	564
822.664	-633
822.761	670
822.858	-1313
822.955	914
823.052	442
823.149	199
823.246	305
823.343	621
823.440	493
823.536	-538
823.633	-203
823.730	1143
823.827	2
823.923	449
824.020	255
824.117	-124
824.213	-623
824.310	1413
824.407	-426
824.503	-29
824.600	31
824.696	-169
824.793	208
824.889	155
824.986	446
825.082	174
825.179	583
825.275	69
825.371	306
825.468	-216
825.564	-1067
825.660	348
825.757	325
825.853	1203
825.949	-581
826.045	-167
826.142	-735
826.238	-251
826.334	-123
826.430	-767
826.526	641
826.622	-449
826.718	7
826.814	-1088
826.910	882
827.006	81
827.102	-640
827.198	529
827.294	233
827.390	98
827.486	471
827.582	-372
827.678	-1163
827.774	335
827.869	-1024
827.965	1847
828.061	-562
828.157	443
828.252	-269
828.348	-587
828.444	415
828.539	-143
828.635	-783
828.731	1743
828.826	-809
828.922	324
829.017	-34
829.113	1189
829.208	-929
829.304	314
829.399	1041
829.495	285
829.590	-41
829.685	-182
829.781	-18
829.876	-365
829.971	-843
830.066	747
830.162	-844
830.257	-326
830.352	-475
830.447	66
830.543	211
830.638	-1091
830.733	599
830.828	-573
830.923	239
831.018	540
831.113	194
831.208	-1039
831.303	-38
831.398	21
831.493	-43
831.588	177
831.683	-1424
831.778	-182
831.873	-286
831.967	879
832.062	-430
832.157	-408
832.252	424
832.346	-390
832.441	-49
832.536	1709
832.631	6152
832.725	4015
832.820	-1244
832.914	-219
833.009	-389
833.104	420
833.198	188
833.293	-411
833.387	-183
833.482	586
833.576	-1117
833.670	586
833.765	106
833.859	14
833.954	1198
834.048	-238
834.142	-1097
834.237	-1175
834.331	-348
834.425	81
834.519	-902
834.613	-34
834.708	-1011
834.802	-559
834.896	-824
834.990	182
835.084	-205
835.178	-745
835.272	-118
835.366	-695
835.460	-252
835.554	-373
835.648	-217
835.742	-700
835.836	-617
835.930	-750
836.024	-449
836.117	-585
836.211	-1470
836.305	846
836.399	-1
836.493	-811
836.586	206
836.680	-829
836.774	-641
836.867	1038
836.961	-1395
837.055	-396
837.148	-1405
837.242	-158
837.335	-725
837.429	-131
837.522	-856
837.616	-460
837.709	-629
837.803	-1213
837.896	-461
837.989	-294
838.083	206
838.176	-705
838.269	-437
838.363	448
838.456	-649
838.549	1710
838.642	2337
838.735	6269
838.829	1547
838.922	-7
839.015	487
839.108	-842
839.201	-378
839.294	-754
839.387	-494
839.480	-763
839.573	-639
839.666	-380
839.759	-949
839.852	-1294
839.945	-236
840.038	-1126
840.131	-536
840.223	-449
840.316	512
840.409	-891
840.502	-1475
840.594	270
840.687	-968
840.780	-421
840.873	-1268
840.965	31
841.058	-261
841.150	-80
841.243	-1826
841.336	382
841.428	-873
841.521	-450
841.613	-1578
841.706	-615
841.798	-219
841.890	1022
841.983	-1887
842.075	388
842.167	241
842.260	-1140
842.352	827
842.444	-1290
842.537	-389
842.629	1097
842.721	-652
842.813	275
842.905	-1731
842.997	24
843.090	-757
843.182	-941
843.274	-600
843.366	1356
843.458	1382
843.550	1711
843.642	-551
843.734	-169
843.826	-624
843.918	-207
844.009	79
844.101	-868
844.193	-764
844.285	-672
844.377	-46
844.469	-26
844.560	-760
844.652	-749
844.744	-307
844.835	-801
844.927	-235
845.019	-611
845.110	-1209
845.202	-709
845.293	-1323
845.385	-826
845.476	-528
845.568	462
845.659	-376
845.751	-78
845.842	-1196
845.934	-405
846.025	-783
846.116	-499
846.208	-164
846.299	-1364
846.390	-1463
846.482	-1417
846.573	773
846.664	-78
846.755	-680
846.846	546
846.937	-2071
847.029	-301
847.120	-1159
847.211	-753
847.302	807
847.393	-868
847.484	-250
847.575	-1438
847.666	-551
847.757	-729
847.847	-455
847.938	-218
848.029	-488
848.120	-882
848.211	-436
848.302	-464
848.392	-611
848.483	500
848.574	-1376
848.664	-518
848.755	-224
848.846	-970
848.936	-838
849.027	-198
849.118	0
849.208	-45
849.299	-273
849.389	816
849.480	3358
849.570	7164
849.661	14776
849.751	24796
849.841	7090
849.932	568
850.022	-784
850.112	592
850.203	-1007
850.293	-669
850.383	-1050
850.474	-1027
850.564	-605
850.654	36
850.744	-1233
850.834	-307
850.924	-331
851.014	637
851.104	-213
851.194	62
851.284	220
851.374	547
851.464	-1340
851.554	-638
851.644	-1377
851.734	337
851.824	-915
851.914	55
852.004	433
852.094	-335
852.183	-688
852.273	-482
852.363	-1023
852.452	-649
852.542	-671
852.632	-243
852.721	-1207
852.811	-519
852.901	-392
852.990	-237
853.080	-339
853.169	-846
853.259	-1430
853.348	-301
853.438	-163
853.527	955
853.617	1357
853.706	4414
853.795	9700
853.885	24871
853.974	47893
854.063	92019
854.152	135832
854.242	43814
854.331	5351
854.420	1740
854.509	388
854.598	1101
854.687	561
854.777	829
854.866	-36
854.955	209
855.044	-911
855.133	-495
855.222	-224
855.311	-867
855.400	-720
855.488	-216
855.577	-749
855.666	-70
855.755	-1244
855.844	-231
855.933	-816
856.021	-590
856.110	-308
856.199	-1322
856.288	-911
856.376	-59
856.465	-893
856.554	-503
856.642	-996
856.731	-432
856.819	-500
856.908	-165
856.996	-631
857.085	-678
857.173	-1268
857.262	-1467
857.350	-832
857.438	-543
857.527	-405
857.615	-201
857.703	-1011
857.792	-821
857.880	-681
857.968	-1129
858.056	-858
858.145	-809
858.233	-1112
858.321	-636
858.409	114
858.497	-609
858.585	-1098
858.673	-960
858.761	-1188
858.849	-1148
858.937	-1278
859.025	-329
859.113	-320
859.201	-1487
859.289	-733
859.377	-404
859.465	-933
859.552	-552
859.640	-1257
859.728	-1143
859.816	-1385
859.903	-355
859.991	-882
860.079	-169
860.166	-458
860.254	-703
860.342	-1118
860.429	-184
860.517	-1323
860.604	51
860.692	-434
860.779	-817
860.867	-1383
860.954	-1018
861.042	227
861.129	66
861.216	-1051
861.304	-505
861.391	67
861.478	178
861.565	-1062
861.653	-271
861.740	-700
861.827	-773
861.914	-406
862.001	-487
862.089	-1098
862.176	-1198
862.263	-1294
862.350	-89
862.437	-1369
862.524	-828
862.611	-773
862.698	-711
862.785	-1139
862.871	-249
862.958	-1145
863.045	-568
863.132	-1398
863.219	-473
863.306	-1426
863.392	-844
863.479	-390
863.566	-369
863.652	-111
863.739	-542
863.826	-964
863.912	-640
863.999	-1766
864.086	-455
864.172	-1022
864.259	-502
864.345	-990
864.432	-419
864.518	-943
864.604	-1027
864.691	-936
864.777	-145
864.863	-501
864.950	476
865.036	-310
865.122	741
865.209	503
865.295	1001
865.381	420
865.467	884
865.553	1872
865.639	2287
865.726	5146
865.812	12612
865.898	23483
865.984	35344
866.070	72627
866.156	71273
866.242	13808
866.328	2864
866.414	-604
866.499	642
866.585	-242
866.671	627
866.757	-109
866.843	-153
866.928	-292
867.014	11
867.100	700
867.186	80
867.271	766
867.357	956
867.442	336
867.528	-250
867.614	-1029
867.699	285
867.785	473
867.870	469
867.956	-330
868.041	-33
868.127	-317
868.212	-894
868.297	-496
868.383	1363
868.468	1159
868.553	2900
868.639	3394
868.724	7350
868.809	5540
868.894	427
868.979	-860
869.065	49
869.150	-1422
869.235	-411
869.320	-111
869.405	-327
869.490	-338
869.575	-822
869.660	-1314
869.745	9
869.830	-338
869.915	-315
870.000	-499
870.085	-101
870.169	-80
870.254	-367
870.339	-1224
870.424	-1057
870.509	74
870.593	-334
870.678	385
870.763	60
870.847	-523
870.932	-708
871.016	78
871.101	-242
871.186	-253
871.270	10
871.355	-842
871.439	-328
871.523	-406
871.608	-586
871.692	-725
871.777	-370
871.861	-173
871.945	-648
872.030	-652
872.114	-89
872.198	-1176
872.282	28
872.367	-916
872.451	-605
872.535	-363
872.619	-225
872.703	-936
872.787	278
872.871	-831
872.955	50
873.039	-1484
873.123	-513
873.207	-229
873.291	-742
873.375	-619
873.459	273
873.543	-498
873.627	-347
873.711	-1144
873.794	-378
873.878	-737
873.962	-347
874.045	-741
874.129	-73
874.137	-98
874.213	-348
874.245	-416
874.296	-518
874.352	-1246
874.380	-1613
874.460	-765
874.464	-730
874.547	-1016
874.568	-773
874.631	-103
874.676	-584
874.714	-952
874.784	-426
874.798	-332
874.881	-342
874.892	-345
874.965	-322
874.999	-269
875.048	-242
875.107	-322
875.131	-334
875.215	-251
875.215	-251
875.298	-783
875.323	-815
875.381	-898
875.430	-269
875.465	161
875.538	-485
875.548	-563
875.631	391
875.646	207
875.714	-794
875.753	-400
875.798	159
875.861	-166
875.881	-298
875.964	-16
875.968	-39
876.047	-418
876.076	-129
876.130	389
876.183	-145
876.213	-435
876.291	721
876.296	796
876.379	-319
876.398	-248
876.462	76
876.506	-640
876.545	-1367
876.613	-598
876.628	-404
876.711	-624
876.721	-558
876.794	-71
876.828	-310
876.877	-636
876.935	-66
876.960	158
877.043	-490
877.043	-488
877.125	125
877.150	-56
877.208	-615
877.258	-165
877.291	231
877.365	-297
877.374	-370
877.456	395
877.472	240
877.539	-402
877.579	-350
877.622	-273
877.687	-113
877.704	-84
877.787	23
877.794	-4
877.869	-325
877.901	-66
877.952	432
878.008	-92
878.034	-375
878.115	-490
878.117	-488
878.199	-941
878.222	-508
878.282	559
878.329	27
878.364	-271
878.437	339
878.447	361
878.529	-580
878.544	-560
878.611	-69
878.651	53
878.694	99
878.758	46
878.776	41
878.858	166
878.865	180
878.941	195
878.972	-61
879.023	-307
879.078	214
879.105	530
879.185	650
879.187	645
879.269	762
879.292	649
879.351	380
879.399	79
879.433	6
879.506	87
879.516	86
879.598	126
879.613	29
879.680	-215
879.720	331
879.762	827
879.827	373
879.844	212
879.926	552
879.933	540
880.007	563
880.040	721
880.089	1095
880.147	1340
880.171	1404
880.253	3625
880.254	3635
880.335	6057
880.360	6726
880.417	9392
880.467	14354
880.499	17934
880.574	21781
880.580	21298
880.662	6697
880.680	4824
880.744	2090
880.787	1019
880.825	701
880.893	597
880.907	567
880.989	249
881.000	191
881.070	150
881.106	112
881.152	-46
881.213	189
881.233	253
881.315	-61
881.319	-59
881.396	587
881.426	561
881.478	271
881.532	519
881.559	627
881.639	-88
881.641	-100
881.722	676
881.745	484
881.803	267
881.852	674
881.885	739
881.958	667
881.966	701
882.047	907
882.064	906
882.129	1179
882.171	1678
882.210	2577
882.277	4138
882.291	4107
882.372	2527
882.383	2320
882.454	920
882.489	656
882.535	576
882.596	18
882.616	63
882.697	679
882.702	689
882.778	210
882.808	16
882.859	-82
882.914	77
882.940	193
883.020	472
883.021	479
883.102	788
883.127	951
883.183	1235
883.233	897
883.264	565
883.339	517
883.345	525
883.426	118
883.445	120
883.507	670
883.551	844
883.587	603
883.657	738
883.668	870
883.749	737
883.763	838
883.830	712
883.869	427
883.910	380
883.975	475
883.991	521
884.072	716
884.081	741
884.152	826
884.187	700
884.233	563
884.292	756
884.314	888
884.394	1157
884.398	1158
884.475	407
884.504	67
884.555	306
884.610	650
884.636	496
884.716	43
884.716	52
884.797	1020
884.821	1240
884.877	994
884.927	678
884.958	719
885.033	888
885.038	884
885.118	768
885.139	667
885.199	673
885.244	992
885.279	1117
885.350	958
885.359	955
885.439	1028
885.456	1016
885.520	960
885.561	845
885.600	589
885.667	447
885.680	533
885.760	723
885.773	755
885.840	937
885.878	1128
885.920	1133
885.984	858
886.000	803
886.080	795
886.089	771
886.160	1118
886.195	1311
886.240	1216
886.300	986
886.320	924
886.400	958
886.406	934
886.480	1147
886.511	1332
886.560	1668
886.616	1711
886.640	1450
886.720	966
886.722	941
886.800	637
886.827	669
886.879	1305
886.932	1811
886.959	1761
887.038	1449
887.039	1450
887.119	898
887.143	752
887.198	1072
887.248	1326
887.278	1375
887.354	1407
887.358	1396
887.437	1026
887.459	941
887.517	1177
887.564	1294
887.596	1486
887.669	1864
887.676	1819
887.755	1220
887.774	1087
887.835	818
887.880	525
887.914	808
887.985	1453
887.994	1444
888.073	1271
888.090	1228
888.153	1236
888.195	1185
888.232	1135
888.300	1137
888.311	1234
888.391	1833
888.405	1934
888.470	1387
888.510	1008
888.549	1203
888.615	1597
888.628	1572
888.708	1258
888.720	1225
888.787	1182
888.825	1075
888.866	993
888.930	939
888.945	1116
889.024	1992
889.035	2102
889.103	1627
889.140	1345
889.182	1109
889.245	790
889.261	861
889.340	1138
889.349	1169
889.419	1379
889.454	1472
889.498	1159
889.559	706
889.577	946
889.656	2002
889.664	2101
889.735	2132
889.768	2135
889.814	2003
889.873	1816
889.978	1434
890.083	1219
890.187	1723
890.292	1648
890.397	1374
890.501	1217
890.606	1246
890.710	1305
890.815	1388
890.919	1444
891.024	1457
891.128	1212
891.233	1962
891.337	1603
891.442	975
891.546	1813
891.650	215
891.755	381
891.859	1752
891.963	2049
892.068	1617
892.172	1036
892.276	1014
892.380	1422
892.484	1139
892.589	1282
892.693	1913
892.797	830
892.901	1490
893.005	1533
893.109	1297
893.213	1602
893.317	2022
893.421	1852
893.525	1734
893.629	1286
893.733	677
893.837	1283
893.941	802
894.045	1904
894.148	1615
894.252	2650
894.356	2388
894.460	2322
894.564	1935
894.667	1735
894.771	1577
894.875	764
894.978	1287
895.082	1449
895.186	1706
895.289	1736
895.393	1529
895.496	2044
895.600	1273
895.703	1245
895.807	1024
895.910	1546
896.014	991
896.117	487
896.221	1472
896.324	1849
896.427	414
896.531	1284
896.634	1568
896.737	2049
896.840	1085
896.944	1611
897.047	2003
897.150	1597
897.253	1184
897.356	1756
897.460	1484
897.563	1601
897.666	754
897.769	1782
897.872	1857
897.975	1488
898.078	1216
898.181	1559
898.284	804
898.387	1281
898.490	796
898.593	1476
898.695	715
898.798	796
898.901	797
899.004	1667
899.107	765
899.209	1039
899.312	1414
899.415	1558
899.518	1147
899.620	1397
899.723	1159
899.826	3059
899.928	3898
900.031	1788
900.133	860
900.236	808
900.338	702
900.441	1344
900.543	1446
900.646	1109
900.748	175
900.851	1696
900.953	1116
901.055	1626
901.158	1537
901.260	1210
901.362	1033
901.465	1898
901.567	1129
901.669	1739
901.771	1178
901.873	1429
901.976	627
902.078	1404
902.180	1751
902.282	863
902.384	1921
902.486	2112
902.588	1368
902.690	1098
902.792	1540
902.894	713
902.996	1137
903.098	1606
903.200	1611
903.302	1601
903.404	845
903.505	1278
903.607	847
903.709	1355
903.811	965
903.913	734
904.014	1424
904.116	2130
904.218	1000
904.319	1772
904.421	1532
904.523	1424
904.624	809
904.726	1285
904.827	909
904.929	931
905.030	600
905.132	2095
905.233	1161
905.335	1178
905.436	700
905.537	1506
905.639	1557
905.740	957
905.841	792
905.943	1196
906.044	867
906.145	1363
906.247	1371
906.348	2071
906.449	1196
906.550	1016
906.651	1178
906.752	1374
906.854	1189
906.955	1115
907.056	837
907.157	1424
907.258	1213
907.359	632
907.460	810
907.561	824
907.662	1267
907.762	2563
907.863	837
907.964	1719
908.065	1226
908.166	1557
908.267	1778
908.367	1445
908.468	1255
908.569	1618
908.670	1671
908.770	2567
908.871	2169
908.971	1492
909.072	1885
909.173	565
909.273	871
909.374	1053
909.474	722
909.575	1827
909.675	1380
909.776	2011
909.876	1413
909.977	2213
910.077	2063
910.177	894
910.278	1639
910.378	1592
910.478	823
910.579	1735
910.679	1036
910.779	1240
910.879	1350
910.980	1312
911.080	1195
911.180	1077
911.280	1368
911.380	2330
911.480	1123
911.580	1594
911.680	1993
911.780	1838
911.880	1797
911.980	995
912.080	474
912.180	499
912.280	1106
912.380	729
912.480	1714
912.580	1675
912.679	1493
912.779	1536
912.879	946
912.979	1441
913.078	799
913.178	1570
913.278	1361
913.377	2205
913.477	1162
913.577	1191
913.676	414
913.776	1602
913.875	1149
913.975	1131
914.074	1261
914.174	1642
914.273	84
914.373	2640
914.472	911
914.572	1243
914.671	319
914.770	1633
914.870	1314
914.969	1212
915.068	1177
915.167	1272
915.267	925
915.366	1330
915.465	1886
915.564	1434
915.663	1348
915.763	838
915.862	1617
915.961	900
916.060	432
916.159	1339
916.258	207
916.357	1445
916.456	1975
916.555	1385
916.654	551
916.752	1597
916.851	1241
916.950	1634
917.049	1025
917.148	1161
917.247	1698
917.345	1626
917.444	687
917.543	1313
917.642	1538
917.740	985
917.839	758
917.937	1018
918.036	387
918.135	1494
918.233	626
918.332	1310
918.430	697
918.529	1549
918.627	884
918.726	2080
918.824	1268
918.923	722
919.021	2172
919.119	1249
919.218	842
919.316	1880
919.414	1160
919.512	1511
919.611	1288
919.709	1743
919.807	986
919.905	1810
920.003	1283
920.102	1688
920.200	1234
920.298	1734
920.396	1620
920.494	1985
920.592	957
920.690	1657
920.788	1200
920.886	1723
920.984	1589
921.082	1310
921.180	1816
921.277	1743
921.375	932
921.473	1860
921.571	1027
921.669	1189
921.766	1872
921.864	1831
921.962	2133
922.060	2370
922.157	1516
922.255	1856
922.352	1214
922.450	2827
922.548	1648
922.645	2147
922.743	1857
922.840	3559
922.938	2465
923.035	2638
923.133	4022
923.230	2316
923.327	2759
923.425	4098
923.522	2998
923.619	2598
923.717	2494
923.814	3125
923.911	2336
924.008	3118
924.106	2036
924.203	2658
924.300	2357
924.397	2167
924.494	2576
924.591	3153
924.688	2424
924.786	2539
924.883	3200
924.979	3023
925.077	2742
925.173	3595
925.270	2025
925.367	2729
925.464	3109
925.561	3962
925.658	2588
925.755	3301
925.852	3078
925.948	3153
926.045	3076
926.142	3296
926.239	2551
926.335	2982
926.432	2853
926.529	3267
926.625	2826
926.722	3162
926.818	2507
926.915	4033
927.011	2475
927.108	2637
927.204	2271
927.301	2617
927.397	2254
927.494	2895
927.590	1752
927.687	2679
927.783	2775
927.879	3338
927.976	2012
928.072	2723
928.168	2359
928.264	3044
928.361	2068
928.457	2530
928.553	1545
928.649	3058
928.745	2484
928.841	2813
928.937	2634
929.033	2149
929.129	2107
929.225	3210
929.321	2586
929.417	2600
929.513	2671
929.609	2006
929.705	1875
929.801	3109
929.897	1198
929.993	2118
930.089	2067
930.184	1462
930.280	2395
930.376	2078
930.471	2209
930.567	2799
930.663	2171
930.758	2030
930.854	1434
930.950	2658
931.045	1862
931.141	2219
931.236	2476
931.332	2456
931.427	1489
931.523	2311
931.618	2233
931.714	2312
931.809	1939
931.905	2992
932.000	1502
932.095	2461
932.191	2554
932.286	2508
932.381	1903
932.476	2241
932.572	1781
932.667	2414
932.762	1887
932.857	2295
932.952	2383
933.047	2581
933.142	1638
933.237	1935
933.332	1534
933.427	3582
933.522	1476
933.617	2189
933.712	1147
933.807	2357
933.902	1762
933.997	1827
934.092	2186
934.187	2580
934.282	2162
934.376	2174
934.471	1784
934.566	1761
934.661	1949
934.755	2665
934.850	1548
934.945	2420
935.039	1743
935.134	1718
935.228	1237
935.323	2132
935.417	1275
935.512	2214
935.606	1371
935.701	2007
935.795	2285
935.890	2113
935.984	1963
936.079	1654
936.173	1751
936.267	1754
936.362	997
936.456	1420
936.550	1384
936.644	2629
936.738	945
936.833	1267
936.927	1865
937.021	2751
937.115	1036
937.209	918
937.303	1869
937.397	1709
937.491	1405
937.585	2153
937.679	1943
937.773	1258
937.867	1543
937.961	2506
938.055	1272
938.149	2785
938.243	1146
938.337	1123
938.430	1251
938.524	1687
938.618	1446
938.712	1836
938.805	1569
938.899	1629
938.993	1760
939.086	2128
939.180	921
939.274	1835
939.367	1930
939.461	2275
939.554	1533
939.648	2172
939.741	1668
939.835	1617
939.928	2404
940.022	2207
940.115	666
940.208	2498
940.302	1746
940.395	2393
940.488	846
940.582	1731
940.675	1021
940.768	805
940.861	2002
940.954	2117
941.048	504
941.141	1401
941.234	874
941.327	1991
941.420	2736
941.513	2362
941.606	754
941.699	1998
941.792	1453
941.885	1460
941.978	1180
942.071	1507
942.164	143
942.257	1980
942.349	1487
942.442	1035
942.535	1332
942.628	1233
942.721	1756
942.813	1263
942.906	1819
942.999	2022
943.091	1299
943.184	1715
943.277	905
943.369	1577
943.462	259
943.554	1750
943.647	233
943.739	1904
943.832	1349
943.924	324
944.017	1292
944.109	480
944.201	1253
944.294	1818
944.386	1104
944.478	1552
944.571	1792
944.663	776
944.755	1563
944.847	2025
944.940	1486
945.032	1022
945.124	632
945.216	1750
945.308	1275
945.400	2208
945.492	1130
945.584	1491
945.676	1880
945.768	1185
945.860	1245
945.952	1607
946.044	1424
946.136	1497
946.228	901
946.320	1288
946.412	950
946.503	1091
946.595	2054
946.687	708
946.779	369
946.870	811
946.962	736
947.054	1299
947.145	1441
947.237	1248
947.329	337
947.420	1402
947.512	422
947.603	722
947.695	318
947.786	747
947.878	670
947.969	1495
948.061	487
948.152	1108
948.243	1308
948.335	1684
948.426	37
948.517	526
948.609	390
948.700	1340
948.791	1228
948.882	749
948.973	572
949.065	292
949.156	-30
949.247	1088
949.338	906
949.429	881
949.520	446
949.611	475
949.702	1524
949.793	1549
949.884	514
949.975	481
950.066	516
950.157	718
950.247	539
950.338	775
950.429	635
950.520	1818
950.611	712
950.701	887
950.792	1124
950.883	1589
950.973	660
951.064	1586
951.155	285
951.245	1888
951.336	748
951.427	557
951.517	1462
951.608	1105
951.698	179
951.788	1185
951.879	265
951.969	991
952.060	977
952.150	212
952.240	1404
952.331	-405
952.421	1085
952.511	911
952.602	951
952.692	780
952.782	802
952.872	271
952.962	865
953.052	816
953.143	-190
953.233	1336
953.323	466
953.413	312
953.503	778
953.593	1227
953.683	1304
953.773	157
953.863	1350
953.953	754
954.042	434
954.132	321
954.222	1523
954.312	1138
954.402	263
954.492	715
954.581	1286
954.671	1067
954.761	19
954.850	2478
954.940	-215
955.030	1640
955.119	327
955.209	821
955.298	-62
955.388	728
955.477	724
955.567	-15
955.656	620
955.746	955
955.835	255
955.925	50
956.014	459
956.103	471
956.193	1267
956.282	918
956.371	612
956.461	448
956.550	186
956.639	1124
956.728	-400
956.817	790
956.906	410
956.995	1613
957.085	399
957.174	496
957.263	336
957.352	1263
957.441	-135
957.530	1231
957.619	1090
957.708	295
957.796	148
957.885	-388
957.974	618
958.063	1902
958.152	373
958.241	1107
958.329	361
958.418	731
958.507	-928
958.596	1352
958.684	768
958.773	816
958.861	682
958.950	765
959.039	1099
959.127	1116
959.216	1361
959.304	332
959.393	973
959.481	1067
959.570	627
959.658	302
959.746	517
959.835	1076
959.923	363
960.011	498
960.100	235
960.188	119
960.276	93
960.365	1146
960.453	419
960.541	165
960.629	-519
960.717	160
960.805	-138
960.893	921
960.981	29
961.069	1266
961.158	-80
961.245	1133
961.333	151
961.421	-508
961.509	1221
961.597	179
961.685	-276
961.773	589
961.861	407
961.949	1051
962.036	-117
962.124	832
962.212	-613
962.299	1191
962.387	-312
962.475	792
962.562	-691
962.650	1879
962.738	-255
962.825	106
962.913	35
963.000	1288
963.088	63
963.175	368
963.263	299
963.350	562
963.438	-258
963.525	184
963.612	484
963.700	1742
963.787	2316
963.874	1673
963.962	394
964.049	807
964.136	-278
964.223	540
964.310	366
964.398	383
964.485	-522
964.572	591
964.659	887
964.746	285
964.833	182
964.920	533
965.007	-375
965.094	955
965.181	-565
965.268	505
965.355	596
965.441	769
965.528	-1122
965.615	946
965.702	400
965.789	-503
965.875	-426
965.962	761
966.049	-829
966.136	854
966.222	-765
966.309	-407
966.395	114
966.482	493
966.569	-568
966.655	223
966.742	-587
966.828	452
966.915	-718
967.001	-335
967.087	154
967.174	-364
967.260	75
967.347	132
967.433	205
967.519	2270
967.605	-51
967.692	-377
967.778	190
967.864	141
967.950	-636
968.036	-382
968.123	-682
968.209	154
968.295	-1574
968.381	1156
968.467	-403
968.553	-845
968.639	-324
968.725	52
968.811	143
968.897	826
968.983	-478
969.069	190
969.154	188
969.240	518
969.326	303
969.412	-215
969.497	-797
969.583	-550
969.669	368
969.755	390
969.840	-241
969.926	1200
970.012	53
970.097	668
970.183	572
970.268	-444
970.354	149
970.439	-463
970.525	1356
970.610	251
970.696	1676
970.781	1012
970.866	-1186
970.952	-539
971.037	-188
971.122	332
971.208	-139
971.293	165
971.378	-1087
971.463	87
971.549	-303
971.634	-729
971.719	-713
971.804	-328
971.889	463
971.974	-33
972.059	-176
972.144	195
972.229	-119
972.314	-1245
972.399	-272
972.484	-508
972.569	55
972.654	-316
972.739	1279
972.824	597
972.908	-360
972.993	-570
973.078	-722
973.163	473
973.247	5
973.332	-1072
973.417	996
973.501	-1044
973.586	-82
973.671	421
973.755	-68
973.840	1324
973.924	1062
974.009	-220
974.093	-674
974.178	1055
974.262	-97
974.346	17
974.431	266
974.515	-634
974.600	-1167
974.684	150
974.768	-662
974.852	587
974.937	-1155
975.021	449
975.105	-269
975.189	368
975.273	3
975.358	453
975.442	-810
975.526	967
975.610	-1172
975.694	-752
975.778	593
975.862	-426
975.946	-2720
976.030	1025
976.114	-595
976.198	-599
976.281	-199
976.365	689
976.449	-398
976.533	306
976.617	-872
976.700	-272
976.784	-847
976.868	-137
976.951	282
977.035	249
977.119	-422
977.202	80
977.286	364
977.369	66
977.453	-713
977.536	-90
977.620	-304
977.703	64
977.787	-1054
977.870	298
977.953	31
978.037	-671
978.120	256
978.203	-134
978.287	263
978.370	-315
978.453	-189
978.536	-214
978.620	203
978.703	239
978.786	314
978.869	-238
978.952	-1275
979.035	646
979.118	-681
979.201	-578
979.284	223
979.367	-274
979.450	-244
979.533	-461
979.616	-660
979.699	-948
979.782	-247
979.865	-539
979.948	-18
980.030	1
980.113	624
980.196	-427
980.279	-75
980.361	-35
980.444	-798
980.526	482
980.609	92
980.692	-143
980.774	842
980.857	-1298
980.939	-237
981.022	-565
981.104	97
981.187	-1093
981.269	406
981.352	-162
981.434	-880
981.516	-142
981.599	750
981.681	581
981.763	-566
981.846	618
981.928	-671
982.010	-563
982.092	-874
982.174	655
982.256	-971
982.339	-165
982.421	-759
982.503	943
982.585	-936
982.667	-128
982.749	6
982.831	-527
982.913	-53
982.995	438
983.077	-1203
983.158	1017
983.240	-561
983.322	710
983.404	8
983.486	-535
983.568	-56
983.649	-268
983.731	-124
983.813	197
983.894	-678
983.976	60
984.058	-882
984.139	525
984.221	-2004
984.302	450
984.384	-93
984.465	-903
984.547	-173
984.628	-1023
984.710	-199
984.791	12
984.872	-1184
984.954	-798
985.035	-467
985.116	-449
985.198	-1433
985.279	902
985.360	-904
985.441	56
985.522	-147
985.604	427
985.685	-2344
985.766	640
985.847	1069
985.928	-739
986.009	-1230
986.090	1232
986.171	-282
986.252	-355
986.333	-101
986.414	-116
986.495	-460
986.576	-417
986.656	1
986.737	-35
986.818	-163
986.899	151
986.980	-125
987.060	231
987.141	-777
987.222	79
987.302	309
987.383	269
987.464	-1050
987.544	-247
987.625	-142
987.705	661
987.786	-246
987.866	165
987.947	-399
988.027	-211
988.108	-603
988.188	402
988.268	-47
988.349	-142
988.429	-729
988.509	423
988.589	-882
988.670	-996
988.750	1142
988.830	-134
988.910	-8
988.990	-352
989.070	-96
989.151	-360
989.231	-1325
989.311	556
989.391	1
989.471	59
989.551	-879
989.631	-521
989.711	130
989.791	-679
989.870	-1020
989.950	873
990.030	-638
990.110	-563
990.190	-1117
990.269	-170
990.349	-186
990.429	349
990.509	593
990.588	-906
990.668	-298
990.747	-154
990.827	-594
990.907	-244
990.986	-663
991.066	140
991.145	-1697
991.225	-268
991.304	-1399
991.383	218
991.463	-1061
991.542	164
991.622	-493
991.701	-223
991.780	-645
991.859	-645
991.939	-280
992.018	-1406
992.097	-591
992.176	-336
992.256	-429
992.335	-230
992.414	439
992.493	-495
992.572	-836
992.651	982
992.730	-847
992.809	-332
992.888	-1111
992.967	-459
993.046	-445
993.125	-1713
993.203	-145
993.282	-863
993.361	-961
993.440	-772
993.519	-1875
993.597	174
993.676	-1741
993.755	-199
993.834	-860
993.912	-876
993.991	179
994.069	-965
994.148	-501
994.226	-600
994.305	-1656
994.384	-1415
994.462	312
994.540	-1266
994.619	-1681
994.697	156
994.776	-1223
994.854	-268
994.932	-806
995.011	-264
995.089	-1132
995.167	-745
995.245	-744
995.324	-453
995.402	-725
995.480	-768
995.558	-830
995.636	-529
995.714	-780
995.792	405
995.870	-1813
995.948	-695
996.026	-665
996.104	-1594
996.182	-736
996.260	-1526
996.338	-590
996.416	-1300
996.494	-1123
996.572	-677
996.649	-1102
996.727	-1613
996.805	-950
996.883	-1069
996.960	-1660
997.038	-507
997.116	-1746
997.193	-928
997.271	33
997.348	-1252
997.426	-1160
997.504	-1705
997.581	-320
997.658	-305
997.736	-2114
997.813	-1327
997.891	-593
997.968	-1175
998.046	-402
998.123	-1648
998.200	-801
998.277	-483
998.355	-278
998.432	-1534
998.509	-733
998.586	-667
998.663	-853
998.741	-1063
998.818	-1169
998.895	-1288
998.972	-884
999.049	94
999.126	-1388
999.203	-812
999.280	-1226
999.357	-1539
999.434	-1499
999.511	-637
999.587	-56
999.664	-1493
999.741	-915
999.818	45
999.895	-1398
999.971	-1211
1000.048	-2170
1000.125	-477
1000.202	-2526
1000.278	-1041
1000.355	-435
1000.431	-1794
1000.508	-1838
1000.584	-1325
1000.661	-1063
1000.738	-2209
1000.814	-1070
1000.890	-1264
1000.967	-1058
1001.043	-1007
1001.120	-2413
1001.196	-869
1001.272	-1923
1001.349	-924
1001.425	-882
1001.501	-1717
1001.577	-1455
1001.654	-1236
1001.730	-1889
1001.806	-1701
1001.882	-2231
1001.958	-1769
1002.034	-910
1002.110	-1136
1002.186	-1793
1002.262	-962
1002.338	-2395
1002.414	-603
1002.490	-953
1002.566	-1241
1002.642	-2577
1002.718	-327
1002.794	-1137
1002.870	-1147
1002.945	-1818
1003.021	-949
1003.097	-1697
1003.173	-1258
1003.248	-1901
1003.324	-978
1003.400	-1626
1003.475	-1148
1003.551	-1109
1003.626	-778
1003.702	-1633
1003.777	-1121
1003.853	-1472
1003.928	-1938
1004.004	-1593
1004.079	-1074
1004.155	-1935
1004.230	-2194
1004.305	-254
1004.381	-1520
1004.456	-1596
1004.531	-1588
1004.607	-1085
1004.682	-1582
1004.757	-1232
1004.832	-2034
1004.907	-1924
1004.982	-1199
1005.057	-1638
1005.133	-1077
1005.208	-2407
1005.283	-1718
1005.358	-1153
1005.433	-1284
1005.508	-1136
1005.583	-2369
1005.657	-1914
1005.732	-1610
1005.807	-2183
1005.882	-1517
1005.957	-890
1006.032	-1627
1006.106	-1876
1006.181	-1678
1006.256	-841
1006.331	-2090
1006.405	-1506
1006.480	-1057
1006.554	-1524
1006.629	-707
1006.704	-2328
1006.778	-1303
1006.853	-1232
1006.927	-1388
1007.002	-2860
1007.076	-1147
1007.150	-1860
1007.225	-980
1007.299	-1406
1007.373	-2452
1007.448	-1118
1007.522	-1371
1007.596	-1016
1007.671	-1480
1007.745	-1557
1007.819	-2444
1007.893	-1778
1007.967	-1282
1008.041	-2368
1008.115	-1376
1008.190	-2314
1008.264	-761
1008.338	-2573
1008.412	-1251
1008.486	-2279
1008.560	-1430
1008.633	-2649
1008.707	-1501
1008.781	-1932
1008.855	-1732
1008.929	-1821
1009.003	-1880
1009.076	-1792
1009.150	-1081
1009.224	-1842
1009.298	-1300
1009.371	-2088
1009.445	-1272
1009.519	-1282
1009.592	-2435
1009.666	-1958
1009.739	-1468
1009.813	-2402
1009.886	-1627
1009.960	-2833
1010.033	-1121
1010.107	-2424
1010.180	-2195
1010.253	-2408
1010.327	-2140
1010.400	-2040
1010.473	-1315
1010.547	-898
1010.620	-2142
1010.693	-1846
1010.766	-2616
1010.840	-2278
1010.913	-2156
1010.986	-2557
1011.059	-1570
1011.132	-2266
1011.205	-1133
1011.278	-1988
1011.351	-1800
1011.424	-1703
1011.497	-1929
1011.570	-2325
1011.643	-1579
1011.716	-1829
1011.789	-2174
1011.862	-1773
1011.934	-1258
1012.007	-2543
1012.080	-2145
1012.153	-3052
1012.225	-1186
1012.298	-1949
1012.371	-1846
1012.443	-1456
1012.516	-1978
1012.588	-1521
1012.661	-1620
1012.733	-3384
1012.806	-858
1012.879	-2430
1012.951	-1756
1013.023	-1350
1013.096	-2233
1013.168	-2731
1013.241	-1258
1013.313	-1628
1013.385	-2219
1013.458	-2804
1013.530	-1865
1013.602	-2335
1013.674	-1562
1013.746	-2282
1013.819	-2021
1013.891	-1714
1013.963	-1382
1014.035	-2076
1014.107	-2037
1014.179	-1905
1014.251	-2024
1014.323	-1890
1014.395	-1563
1014.467	-2192
1014.539	-1880
1014.611	-2244
1014.683	-1335
1014.754	-2551
1014.826	-1700
1014.898	-1733
1014.970	-2384
1015.042	-828
1015.113	-2085
1015.185	-2518
1015.257	-2732
1015.328	-2027
1015.400	-2086
1015.471	-2510
1015.543	-1932
1015.615	-1451
1015.686	-1915
1015.757	-2155
1015.829	-1422
1015.901	-1937
1015.972	-1870
1016.043	-2116
1016.115	-1948
1016.186	-1881
1016.257	-2497
1016.328	-2125
1016.400	-996
1016.471	-2134
1016.542	-2351
1016.613	-1852
1016.685	-2276
1016.756	-1944
1016.827	-3312
1016.898	-2188
1016.969	-1712
1017.040	-2942
1017.111	-2039
1017.182	-2167
1017.253	-1641
1017.324	-2547
1017.395	-1875
1017.466	-2112
1017.537	-2403
1017.608	-2300
1017.678	-2431
1017.749	-2209
1017.820	-2255
1017.891	-2143
1017.961	-1737
1018.032	-1931
1018.103	-2068
1018.173	-2508
1018.244	-2258
1018.315	-3139
1018.385	-1548
1018.456	-3020
1018.526	-2112
1018.597	-2786
1018.667	-1877
1018.738	-2785
1018.808	-1527
1018.878	-2144
1018.949	-2338
1019.019	-2575
1019.089	-2390
1019.160	-2573
1019.230	-2425
1019.300	-2134
1019.371	-2565
1019.441	-1638
1019.511	-2238
1019.581	-2246
1019.651	-2235
1019.721	-2171
1019.791	-2323
1019.861	-2575
1019.931	-1566
1020.001	-2286
1020.071	-1777
1020.141	-2362
1020.211	-1883
1020.281	-2063
1020.351	-2321
1020.421	-2083
1020.491	-1453
1020.560	-2938
1020.630	-1956
1020.700	-2111
1020.770	-2312
1020.839	-2596
1020.909	-3132
1020.979	-2575
1021.048	-2044
1021.118	-1933
1021.187	-2161
1021.257	-2899
1021.326	-2011
1021.396	-2004
1021.465	-1385
1021.535	-2001
1021.604	-2120
1021.674	-2764
1021.743	-1455
1021.812	-2260
1021.882	-2139
1021.951	-2086
1022.020	-2226
1022.089	-1841
1022.159	-2181
1022.228	-2258
1022.297	-2202
1022.366	-2278
1022.435	-2523
1022.504	-2199
1022.573	-2254
1022.642	-2321
1022.711	-2438
1022.781	-2629
1022.849	-1828
1022.918	-3377
1022.987	-1500
1023.056	-1826
1023.125	-1528
1023.194	-2459
1023.263	-2486
1023.331	-2248
1023.400	-2095
1023.469	-2437
1023.538	-1656
1023.606	-2856
1023.675	-2181
1023.744	-2684
1023.812	-2791
1023.881	-2009
1023.949	-1959
1024.018	-2311
1024.086	-2260
1024.155	-2598
1024.223	-2911
1024.292	-1949
1024.360	-1771
1024.429	-3093
1024.497	-2527
1024.565	-2472
1024.634	-1487
1024.702	-2021
1024.770	-2336
1024.838	-1714
1024.907	-1838
1024.975	-2405
1025.043	-2302
1025.111	-3213
1025.179	-2056
1025.247	-2854
1025.315	-1699
1025.383	-3862
1025.451	-2515
1025.519	-2802
1025.587	-1575
1025.655	-1921
1025.723	-1862
1025.791	-2295
1025.859	-1941
1025.927	-2074
1025.995	-2052
1026.062	-2789
1026.130	-1870
1026.198	-2538
1026.266	-2002
1026.333	-2161
1026.401	-1611
1026.469	-2221
1026.536	-2340
1026.604	-2839
1026.671	-2255
1026.739	-2624
1026.806	-2200
1026.874	-2902
1026.941	-1811
1027.009	-2871
1027.076	-2189
1027.144	-1916
1027.211	-2294
1027.278	-2266
1027.345	-1408
1027.413	-2812
1027.480	-1839
1027.547	-2162
1027.614	-1032
1027.682	-2346
1027.749	-1295
1027.816	-2403
1027.883	-1141
1027.950	-2815
1028.017	-2619
1028.084	-1578
1028.151	-3044
1028.218	-2188
1028.285	-2041
1028.352	-2683
1028.419	-2029
1028.486	-2991
1028.553	-2247
1028.619	-2479
1028.686	-2097
1028.753	-2557
1028.820	-2096
1028.886	-2414
1028.953	-2357
1029.020	-2632
1029.086	-1716
1029.153	-3069
1029.220	-2525
1029.286	-2495
1029.353	-1833
1029.419	-2922
1029.486	-2048
1029.552	-2477
1029.619	-1615
1029.685	-2605
1029.751	-2537
1029.818	-1455
1029.884	-2117
1029.951	-1488
1030.017	-1756
1030.083	-3144
1030.149	-2182
1030.216	-2638
1030.282	-2413
1030.348	-2585
1030.414	-2918
1030.480	-2694
1030.546	-2302
1030.612	-1784
1030.678	-2245
1030.744	-2315
1030.810	-1758
1030.876	-2573
1030.942	-2505
1031.008	-1754
1031.074	-3051
1031.140	-2457
1031.206	-1542
1031.272	-2474
1031.337	-2568
1031.403	-2343
1031.469	-2371
1031.534	-3195
1031.600	-1892
1031.666	-2064
1031.731	-2341
1031.797	-2683
1031.863	-3212
1031.928	-2229
1031.994	-1983
1032.059	-2818
1032.125	-2467
1032.190	-3023
1032.256	-2714
1032.321	-2294
1032.386	-2384
1032.452	-2168
1032.517	-2100
1032.582	-2406
1032.647	-1070
1032.713	-2545
1032.778	-1507
1032.843	-2323
1032.908	-2345
1032.974	-2567
1033.039	-2319
1033.104	-1991
1033.169	-3078
1033.234	-2613
1033.299	-1424
1033.364	-1300
1033.429	-1710
1033.494	-2556
1033.559	-1824
1033.624	-2590
1033.688	-1496
1033.753	-2953
1033.818	-2183
1033.883	-1226
1033.948	-2140
1034.013	-2366
1034.077	-992
1034.142	-1107
1034.207	-1141
1034.271	-1029
1034.336	-648
1034.400	-1480
1034.465	-1188
1034.530	-1784
1034.594	-1833
1034.658	-1778
1034.723	-2543
1034.787	-2546
1034.852	-2247
1034.916	-2790
1034.981	-2524
1035.045	-2814
1035.109	-1520
1035.173	-2101
1035.238	-2171
1035.302	-2662
1035.366	-2187
1035.430	-2009
1035.495	-2210
1035.559	-1615
1035.623	-2103
1035.687	-2995
1035.751	-1957
1035.815	-2243
1035.879	-2335
1035.943	-2406
1036.007	-3141
1036.071	-2854
1036.135	-2407
1036.198	-1913
1036.262	-2639
1036.326	-2553
1036.390	-2020
1036.454	-2629
1036.517	-1524
1036.581	-1913
1036.645	-1375
1036.709	-1026
1036.772	-1820
1036.836	-2742
1036.900	-2040
1036.963	-2054
1037.026	-1624
1037.090	-2887
1037.154	-2160
1037.217	-2246
1037.280	-3464
1037.344	-3359
1037.407	-2796
1037.471	-2033
1037.534	-1929
1037.597	-3472
1037.661	-2089
1037.724	-2914
1037.787	-2057
1037.850	-2048
1037.913	-2275
1037.977	-1971
1038.040	-2132
1038.103	-2602
1038.166	-1771
1038.229	-1963
1038.292	-2252
1038.355	-2034
1038.418	-2212
1038.481	-2071
1038.544	-2260
1038.607	-2266
1038.670	-1973
1038.732	-2571
1038.795	-2742
1038.858	-2545
1038.921	-2172
1038.984	-2842
1039.046	-2312
1039.109	-2315
1039.172	-1973
1039.234	-2441
1039.297	-1859
1039.360	-2412
1039.422	-2784
1039.485	-2261
1039.547	-1402
1039.610	-1857
1039.672	-2386
1039.734	-2049
1039.797	-1501
1039.859	-2621
1039.922	-2214
1039.984	-2508
1040.046	-2322
1040.109	-1879
1040.171	-3302
1040.233	-2464
1040.295	-1699
1040.358	-2316
1040.420	-1851
1040.482	-2655
1040.544	-1779
1040.606	-1629
1040.668	-2062
1040.730	-2257
1040.792	-2203
1040.854	-2624
1040.916	-2578
1040.978	-2141
1041.040	-1021
1041.102	-2083
1041.164	-2422
1041.225	-2961
1041.287	-2065
1041.349	-2337
1041.411	-2067
1041.472	-2529
1041.534	-2458
1041.596	-3326
1041.657	-2244
1041.719	-2214
1041.781	-2497
1041.842	-2042
1041.904	-1987
1041.965	-3006
1042.027	-2521
1042.088	-2378
1042.150	-1648
1042.211	-2612
1042.272	-1757
1042.334	-2556
1042.395	-2345
1042.456	-2475
1042.518	-2125
1042.579	-2306
1042.640	-2108
1042.701	-1701
1042.763	-2788
1042.824	-2738
1042.885	-1995
1042.946	-2773
1043.007	-2347
1043.068	-2198
1043.129	-1961
1043.190	-2850
1043.251	-1943
1043.312	-2921
1043.373	-1459
1043.434	-2251
1043.495	-1576
1043.556	-2271
1043.616	-1781
1043.677	-2850
1043.738	-1703
1043.799	-2132
1043.859	-2545
1043.920	-1769
1043.981	-1611
1044.041	-1882
1044.102	-2398
1044.162	-1966
1044.223	-2450
1044.284	-2865
1044.344	-1763
1044.405	-2059
1044.465	-1666
1044.525	-2095
1044.586	-1433
1044.646	-1844
1044.707	-1801
1044.767	-2072
1044.827	-1791
1044.887	-1528
1044.948	-1402
1045.008	-1786
1045.068	-2264
1045.128	-1637
1045.188	-2219
1045.249	-1578
1045.309	-1431
1045.369	-1973
1045.429	-1217
1045.489	-2089
1045.549	-2354
1045.609	-3129
1045.669	-2131
1045.729	-2131
1045.789	-2097
1045.848	-1634
1045.908	-1636
1045.968	-1850
1046.028	-1444
1046.088	-1745
1046.147	-1231
1046.207	-2039
1046.267	-1656
1046.326	-1521
1046.386	-1134
1046.446	-1525
1046.505	-457
1046.565	-1302
1046.624	-576
1046.684	-1486
1046.743	-949
1046.803	-844
1046.862	-259
1046.922	0
