'Start Wavelength	183.907
'End Wavelength	1046.922
'Gate Delay	5.000
'Gate Width (ms)	1.050
'Laser Output Level	0.000
'X Position	0.000
'Y Position	0.000
'Z Position	0.000
'Grid Point Number	1.000
'Shot Number	100.000
183.907	-67.000
183.977	26.000
184.047	-350
184.116	125
184.186	901
184.256	-139
184.325	353
184.395	-164
184.465	1535
184.534	-754
184.604	-34
184.674	122
184.743	116
184.813	-628
184.883	705
184.952	-538
185.022	317
185.092	-120
185.161	1060
185.231	184
185.301	-94
185.370	-54
185.440	393
185.509	-12
185.579	685
185.649	384
185.718	552
185.788	-29
185.857	415
185.927	-377
185.996	927
186.066	-103
186.136	389
186.205	197
186.275	693
186.344	74
186.414	652
186.483	-818
186.553	1278
186.622	717
186.692	251
186.761	-299
186.831	387
186.900	-300
186.970	356
187.039	-176
187.109	1198
187.178	-471
187.248	-79
187.317	-36
187.387	-144
187.456	463
187.526	615
187.595	456
187.664	753
187.734	836
187.803	471
187.873	303
187.942	878
188.012	-357
188.081	603
188.150	-699
188.220	1202
188.289	97
188.358	1249
188.428	353
188.497	644
188.567	429
188.636	361
188.705	219
188.775	210
188.844	-412
188.913	1016
188.983	162
189.052	386
189.121	440
189.191	89
189.260	99
189.329	228
189.399	412
189.468	465
189.537	80
189.606	309
189.676	641
189.745	322
189.814	810
189.883	719
189.953	553
190.022	482
190.091	650
190.161	757
190.230	621
190.299	954
190.368	81
190.437	488
190.507	-84
190.576	763
190.645	-284
190.714	-238
190.783	-587
190.853	607
190.922	-107
190.991	335
191.060	712
191.129	468
191.198	378
191.268	885
191.337	-53
191.406	1359
191.475	-107
191.544	-411
191.613	-101
191.682	449
191.752	-17
191.821	579
191.890	-268
191.959	-380
192.028	206
192.097	437
192.166	-4
192.235	379
192.304	-368
192.373	872
192.442	-325
192.511	631
192.580	-337
192.650	282
192.719	-321
192.788	306
192.857	373
192.926	442
192.995	202
193.064	-1
193.133	108
193.202	1093
193.271	212
193.340	761
193.409	375
193.478	728
193.547	21
193.615	820
193.684	1094
193.753	458
193.822	293
193.891	269
193.960	174
194.029	652
194.098	527
194.167	-150
194.236	154
194.305	-70
194.374	-43
194.443	662
194.512	338
194.580	1039
194.649	506
194.718	874
194.787	-27
194.856	-64
194.925	-122
194.994	899
195.062	618
195.131	772
195.200	1068
195.269	1228
195.338	359
195.407	402
195.475	-250
195.544	1162
195.613	1180
195.682	823
195.751	-132
195.819	1176
195.888	325
195.957	1087
196.026	480
196.094	1443
196.163	140
196.232	1773
196.301	804
196.369	1401
196.438	260
196.507	1165
196.576	622
196.644	463
196.713	-635
196.782	617
196.850	753
196.919	553
196.988	316
197.056	202
197.125	-106
197.194	976
197.262	12
197.331	-19
197.400	-306
197.468	898
197.537	-262
197.606	623
197.674	253
197.743	760
197.812	539
197.880	1626
197.949	649
198.017	1386
198.086	649
198.155	1348
198.223	288
198.292	1490
198.360	-1178
198.429	495
198.497	227
198.566	822
198.635	1427
198.703	1213
198.772	472
198.840	1180
198.909	1064
198.977	201
199.046	283
199.114	1048
199.183	529
199.251	531
199.320	122
199.388	420
199.457	583
199.525	554
199.594	595
199.662	1278
199.731	-406
199.799	714
199.867	522
199.936	970
200.004	-35
200.073	1065
200.141	76
200.210	465
200.278	-170
200.346	964
200.415	577
200.483	820
200.552	381
200.620	1137
200.688	710
200.757	459
200.825	-114
200.893	574
200.962	-826
201.030	297
201.098	365
201.167	812
201.235	648
201.303	1074
201.372	-560
201.440	897
201.508	315
201.577	564
201.645	32
201.713	225
201.781	-269
201.850	1291
201.918	346
201.986	651
202.055	377
202.123	405
202.191	120
202.259	729
202.327	-209
202.396	1467
202.464	-737
202.532	1002
202.600	2335
202.669	1641
202.737	169
202.805	250
202.873	302
202.941	982
203.009	-435
203.078	429
203.146	233
203.214	1027
203.282	-309
203.350	1120
203.418	1
203.487	683
203.555	18
203.623	102
203.691	187
203.759	155
203.827	-154
203.895	1316
203.963	380
204.031	380
204.099	74
204.168	257
204.236	865
204.304	628
204.372	1287
204.440	536
204.508	-717
204.576	-630
204.644	381
204.712	355
204.780	-434
204.848	840
204.916	194
204.984	621
205.052	-84
205.120	778
205.188	-138
205.256	438
205.324	344
205.392	170
205.460	159
205.528	1883
205.596	-550
205.664	292
205.732	-27
205.799	1587
205.867	1572
205.935	342
206.003	141
206.071	762
206.139	15
206.207	1181
206.275	266
206.343	654
206.411	129
206.478	-16
206.546	1052
206.614	539
206.682	-529
206.750	453
206.818	536
206.885	1447
206.953	-769
207.021	312
207.089	1292
207.157	184
207.225	210
207.292	-424
207.360	-338
207.428	784
207.496	-8
207.563	1001
207.631	159
207.699	415
207.767	96
207.834	70
207.902	416
207.970	465
208.038	-48
208.105	1127
208.173	423
208.241	1494
208.309	385
208.376	1007
208.444	1332
208.512	355
208.579	-219
208.647	1344
208.715	736
208.782	725
208.850	370
208.918	783
208.985	1352
209.053	134
209.120	-7
209.188	652
209.256	477
209.323	240
209.391	1627
209.459	1636
209.526	168
209.594	850
209.661	376
209.729	1115
209.796	450
209.864	1739
209.932	-198
209.999	1275
210.067	200
210.134	661
210.202	589
210.269	1355
210.337	1692
210.404	1196
210.472	167
210.539	845
210.607	574
210.674	1341
210.742	305
210.809	1146
210.877	803
210.944	1722
211.012	-178
211.079	1930
211.146	978
211.214	1320
211.281	876
211.349	1916
211.416	635
211.484	666
211.551	357
211.618	1676
211.686	868
211.753	80
211.821	571
211.888	1240
211.955	892
212.023	1096
212.090	50
212.157	323
212.225	918
212.292	1907
212.359	2734
212.427	6494
212.494	3360
212.561	1470
212.629	1110
212.696	1625
212.763	1122
212.831	735
212.898	1335
212.965	339
213.032	91
213.100	1966
213.167	670
213.234	1216
213.301	413
213.369	1173
213.436	398
213.503	974
213.570	724
213.638	632
213.705	-330
213.772	436
213.839	437
213.906	1785
213.973	673
214.041	497
214.108	1110
214.175	1360
214.242	-234
214.309	1032
214.376	1196
214.444	1422
214.511	1354
214.578	738
214.645	1153
214.712	2466
214.779	1347
214.846	1830
214.913	1418
214.980	2162
215.048	2229
215.115	2269
215.182	1256
215.249	2049
215.316	1171
215.383	1374
215.450	975
215.517	1731
215.584	1697
215.651	1278
215.718	1057
215.785	2643
215.852	1650
215.919	2641
215.986	1886
216.053	1271
216.120	1209
216.187	1989
216.254	1763
216.321	2398
216.388	1512
216.455	2516
216.522	1511
216.589	2754
216.656	3084
216.722	3045
216.789	2292
216.856	2029
216.923	1422
216.990	1875
217.057	917
217.124	2520
217.191	1502
217.258	2663
217.324	2398
217.391	1531
217.458	1127
217.525	1692
217.592	2104
217.659	1546
217.725	2000
217.792	2250
217.859	3021
217.926	1254
217.993	1407
218.059	1671
218.126	1082
218.193	1817
218.260	1124
218.327	1362
218.393	913
218.460	1668
218.527	986
218.594	1815
218.660	2641
218.727	3623
218.794	1438
218.860	2184
218.927	634
218.994	1483
219.061	1047
219.127	1978
219.194	1974
219.261	2255
219.327	1279
219.394	1579
219.461	181
219.527	1019
219.594	1848
219.661	1661
219.727	295
219.794	2383
219.860	808
219.927	2437
219.994	1536
220.060	4627
220.127	2915
220.193	2070
220.260	1361
220.326	2848
220.393	1717
220.460	2872
220.526	2327
220.593	1959
220.659	2489
220.726	3051
220.792	3791
220.859	3390
220.925	3326
220.992	4535
221.058	4943
221.125	5205
221.191	3920
221.258	2356
221.324	1645
221.391	1971
221.457	837
221.524	2006
221.590	2080
221.657	5645
221.723	3562
221.789	4706
221.856	3563
221.922	2714
221.989	2293
222.055	2175
222.121	1595
222.188	4669
222.254	2120
222.321	2090
222.387	1119
222.453	2035
222.520	1691
222.586	1552
222.652	1273
222.719	1568
222.785	1698
222.851	2124
222.918	1627
222.984	1808
223.050	1231
223.116	-9
223.183	2100
223.249	1487
223.315	712
223.382	1851
223.448	1405
223.514	1559
223.580	691
223.647	1567
223.713	889
223.779	1700
223.845	1600
223.911	2444
223.978	1105
224.044	1744
224.110	1242
224.176	1982
224.242	830
224.309	1398
224.375	1797
224.441	2007
224.507	361
224.573	1369
224.639	2256
224.705	1443
224.772	1597
224.838	1052
224.904	1660
224.970	1390
225.036	1108
225.102	1017
225.168	2404
225.234	2512
225.300	1265
225.366	1654
225.432	1725
225.499	1861
225.565	2248
225.631	2572
225.697	1352
225.763	3393
225.829	2303
225.895	2272
225.961	3559
226.027	3295
226.093	3151
226.159	4635
226.225	3612
226.291	4983
226.357	7413
226.423	6142
226.489	4270
226.554	2880
226.620	2722
226.686	4291
226.752	4972
226.818	4563
226.884	8629
226.950	9235
227.016	3526
227.082	3848
227.148	2929
227.214	4244
227.279	2711
227.345	2965
227.411	3462
227.477	4723
227.543	6887
227.609	7289
227.674	3519
227.740	3401
227.806	2410
227.872	2043
227.938	2027
228.003	3216
228.069	2076
228.135	2664
228.201	2066
228.267	1590
228.332	2724
228.398	2934
228.464	2317
228.530	1932
228.595	1306
228.661	1897
228.727	2717
228.792	3735
228.858	2042
228.924	1985
228.990	4064
229.055	2960
229.121	3622
229.187	3009
229.252	2447
229.318	1895
229.384	2102
229.449	1977
229.515	1329
229.581	1654
229.646	2970
229.712	1733
229.777	4164
229.843	3927
229.909	3671
229.974	4897
230.040	3470
230.105	3819
230.171	3921
230.236	4166
230.302	5731
230.368	5425
230.433	2769
230.499	3677
230.564	3733
230.630	2772
230.695	2897
230.761	3184
230.826	1899
230.892	4217
230.957	2806
231.023	2335
231.088	2817
231.154	3365
231.219	2112
231.284	3800
231.350	3976
231.415	2510
231.481	1909
231.546	3719
231.612	2526
231.677	2371
231.742	1320
231.808	3199
231.873	1511
231.939	1805
232.004	4070
232.069	3814
232.135	1762
232.200	2880
232.265	1943
232.331	2871
232.396	1510
232.461	1029
232.527	1346
232.592	2644
232.657	2535
232.723	3704
232.788	3011
232.853	2835
232.918	1809
232.984	2180
233.049	1192
233.114	2509
233.179	3455
233.245	4382
233.310	3492
233.375	2508
233.440	2441
233.506	1970
233.571	2339
233.636	2957
233.701	1937
233.766	3032
233.832	3566
233.897	2621
233.962	1633
234.027	4599
234.092	2524
234.157	3287
234.222	3437
234.288	3399
234.353	7639
234.418	7656
234.483	6307
234.548	5599
234.613	4395
234.678	4329
234.743	4231
234.808	8876
234.873	5979
234.938	5319
235.004	4269
235.069	4281
235.134	3623
235.199	3928
235.264	2713
235.329	2559
235.394	3063
235.459	4528
235.524	2519
235.589	3837
235.654	2252
235.719	2230
235.784	2702
235.849	3178
235.913	4512
235.978	5387
236.043	5471
236.108	3351
236.173	3118
236.238	4690
236.303	2488
236.368	2647
236.433	4119
236.498	5337
236.563	3590
236.627	5816
236.692	13676
236.757	11533
236.822	5677
236.887	6574
236.952	4830
237.017	4251
237.081	4628
237.146	5042
237.211	7167
237.276	13651
237.341	22134
237.405	11056
237.470	5693
237.535	6168
237.600	4629
237.664	4094
237.729	3397
237.794	3846
237.859	5117
237.923	4854
237.988	2669
238.053	6176
238.118	4491
238.182	9986
238.247	8791
238.312	5941
238.376	5293
238.441	3101
238.506	3722
238.570	2189
238.635	3910
238.700	3372
238.764	2894
238.829	6234
238.893	5138
238.958	5517
239.023	5057
239.087	3842
239.152	4023
239.216	3446
239.281	3541
239.346	3362
239.410	2907
239.475	3176
239.539	9675
239.604	7190
239.668	3981
239.733	3561
239.797	6595
239.862	14097
239.926	12261
239.991	5845
240.055	3713
240.120	3075
240.184	4027
240.249	2325
240.313	2740
240.378	2782
240.442	5463
240.507	9005
240.571	3650
240.635	5060
240.700	6381
240.764	4238
240.829	3079
240.893	2250
240.957	2791
241.022	6328
241.086	8957
241.151	5221
241.215	3125
241.279	4493
241.344	4772
241.408	5743
241.472	4834
241.537	5009
241.601	4900
241.665	4219
241.730	3911
241.794	5238
241.858	3574
241.922	4846
241.987	4776
242.051	4138
242.115	3058
242.179	4433
242.244	3465
242.308	4508
242.372	4001
242.436	3806
242.501	4121
242.565	3719
242.629	3263
242.693	4677
242.757	3417
242.822	3737
242.886	3433
242.950	4330
243.014	2575
243.078	5158
243.142	4752
243.206	3789
243.271	4055
243.335	3746
243.399	4682
243.463	11341
243.527	26758
243.591	10432
243.655	6895
243.719	4741
243.783	6058
243.847	7098
243.911	8035
243.975	10303
244.040	7383
244.104	5677
244.168	3996
244.232	7011
244.296	9094
244.360	9020
244.424	5264
244.488	4716
244.552	3906
244.615	2505
244.679	3585
244.743	4135
244.807	4543
244.871	3511
244.935	3186
244.999	2323
245.063	3404
245.127	5644
245.191	6196
245.255	6666
245.319	6130
245.383	4684
245.446	4531
245.510	3065
245.574	4193
245.638	5213
245.702	3295
245.766	8775
245.829	5529
245.893	4699
245.957	3590
246.021	5230
246.085	5179
246.149	5740
246.212	10982
246.276	15751
246.340	8111
246.404	7373
246.467	6539
246.531	7025
246.595	6775
246.659	6753
246.722	4984
246.786	8197
246.850	6433
246.913	7870
246.977	3597
247.041	4891
247.104	5472
247.168	6229
247.232	10796
247.295	18975
247.359	10423
247.423	6166
247.486	9296
247.550	7401
247.614	6032
247.677	8963
247.741	5169
247.804	4816
247.868	4668
247.932	11045
247.995	19974
248.059	9443
248.122	5547
248.186	7077
248.249	12410
248.313	28543
248.376	30048
248.440	22113
248.503	9720
248.567	10219
248.630	11331
248.694	15912
248.757	20418
248.821	31525
248.884	23651
248.948	22429
249.011	27020
249.075	35944
249.138	31660
249.202	17095
249.265	11221
249.328	11761
249.392	10330
249.455	10112
249.519	7944
249.582	9664
249.645	12371
249.709	9923
249.772	7639
249.835	7766
249.899	6729
249.962	6726
250.025	5802
250.089	15619
250.152	20195
250.215	11523
250.279	7799
250.342	8586
250.405	7793
250.468	6388
250.532	9039
250.595	13114
250.658	29261
250.721	42756
250.785	19167
250.848	12942
250.911	8883
250.974	8759
251.038	10983
251.101	20724
251.164	11449
251.227	13494
251.290	11520
251.354	14824
251.417	39002
251.480	38317
251.543	30181
251.606	62668
251.669	49002
251.732	25720
251.795	27400
251.859	26668
251.922	43455
251.985	28646
252.048	13437
252.111	11488
252.174	12483
252.237	21752
252.300	36501
252.363	38681
252.426	53163
252.489	28360
252.552	16546
252.615	11834
252.678	14872
252.741	28422
252.804	32868
252.867	56726
252.930	41741
252.993	24677
253.056	16821
253.119	12100
253.182	9538
253.245	14787
253.308	12439
253.371	13651
253.434	11869
253.497	11136
253.559	19729
253.622	15920
253.685	21631
253.748	23649
253.811	10207
253.874	12102
253.937	11103
254.000	9956
254.062	15582
254.125	21035
254.188	17718
254.251	15117
254.314	8757
254.376	15172
254.439	18329
254.502	17544
254.565	15449
254.628	26453
254.690	18339
254.753	11872
254.816	8870
254.878	10238
254.941	15140
255.004	15674
255.067	8093
255.129	9807
255.192	5531
255.255	5508
255.317	6310
255.380	5198
255.443	3694
255.505	4459
255.568	2894
255.631	4748
255.693	4574
255.756	3323
255.819	4328
255.881	4378
255.944	3091
256.006	3217
256.069	3509
256.132	3600
256.194	5179
256.257	8794
256.319	7260
256.382	6805
256.444	6281
256.507	6142
256.569	3989
256.632	4874
256.694	5431
256.757	10364
256.819	21092
256.882	9296
256.944	6630
257.007	7649
257.069	7445
257.132	5318
257.194	4690
257.257	5319
257.319	4438
257.381	4458
257.444	7565
257.506	26946
257.569	32110
257.631	24394
257.693	13822
257.756	7981
257.818	6661
257.880	5561
257.943	6560
258.005	5590
258.067	5443
258.130	4038
258.192	6204
258.254	12992
258.317	6784
258.379	5920
258.441	12415
258.503	11431
258.566	10441
258.628	14763
258.690	4332
258.753	7379
258.815	13274
258.877	7945
258.939	4988
259.001	6438
259.064	3852
259.126	5302
259.188	6859
259.250	6092
259.312	7471
259.375	17474
259.437	11602
259.499	5997
259.561	6214
259.623	6574
259.685	4390
259.747	5523
259.809	10489
259.872	17660
259.934	25097
259.996	21463
260.058	8113
260.120	5537
260.182	4673
260.244	5018
260.306	3683
260.368	4973
260.430	3613
260.492	6891
260.554	13135
260.616	11629
260.678	16295
260.740	18588
260.802	7014
260.864	6865
260.926	5474
260.988	6217
261.050	4699
261.112	7010
261.174	16579
261.236	13851
261.298	7744
261.359	10317
261.421	12861
261.483	5703
261.545	5688
261.607	2588
261.669	3594
261.731	7017
261.793	15609
261.854	8911
261.916	6902
261.978	4773
262.040	4388
262.102	5008
262.164	6023
262.225	5465
262.287	4254
262.349	11370
262.411	8800
262.472	5623
262.534	6796
262.596	13055
262.658	5622
262.719	4277
262.781	4880
262.843	10762
262.904	5667
262.966	6156
263.028	5501
263.090	20366
263.151	43155
263.213	16636
263.275	11373
263.336	5767
263.398	4539
263.459	3163
263.521	4238
263.583	10342
263.644	7216
263.706	4298
263.767	2007
263.829	2820
263.891	2278
263.952	1870
264.014	2161
264.075	3066
264.137	5831
264.198	5823
264.260	2164
264.321	2683
264.383	6189
264.444	10258
264.506	3449
264.567	4558
264.629	4551
264.690	5669
264.752	5031
264.813	4769
264.875	2651
264.936	3458
264.998	2479
265.059	3045
265.120	2957
265.182	4955
265.243	10184
265.305	10378
265.366	3489
265.427	4507
265.489	3797
265.550	2259
265.611	5162
265.673	4357
265.734	2668
265.795	2931
265.857	2250
265.918	2326
265.979	4665
266.040	15939
266.102	13251
266.163	6267
266.224	7230
266.286	4804
266.347	3158
266.408	3667
266.469	3407
266.530	3283
266.592	3023
266.653	8128
266.714	12746
266.775	5148
266.836	3867
266.898	3245
266.959	4529
267.020	4053
267.081	4231
267.142	3926
267.203	3047
267.264	3889
267.326	4894
267.387	3134
267.448	2799
267.509	3973
267.570	3475
267.631	3362
267.692	1411
267.753	4162
267.814	2461
267.875	7174
267.936	12826
267.997	6094
268.058	6513
268.119	5168
268.180	4531
268.241	3958
268.302	3237
268.363	3419
268.424	4228
268.485	4272
268.546	1850
268.607	3055
268.668	3172
268.729	2890
268.790	3336
268.851	4726
268.912	8369
268.972	12246
269.033	8118
269.094	4342
269.155	3129
269.216	3482
269.277	3162
269.338	4254
269.398	3141
269.459	5205
269.520	7397
269.581	10322
269.642	11813
269.702	8311
269.763	5492
269.824	4394
269.885	5767
269.945	10254
270.006	4206
270.067	2837
270.128	3771
270.188	3699
270.249	3851
270.310	3099
270.370	4016
270.431	3802
270.492	2807
270.553	4211
270.613	9134
270.674	14394
270.734	6715
270.795	5556
270.856	6863
270.916	5570
270.977	4186
271.038	5997
271.098	5588
271.159	9232
271.219	8270
271.280	4375
271.340	3762
271.401	4583
271.462	8249
271.522	7028
271.583	5046
271.643	4495
271.704	3905
271.764	5810
271.825	13056
271.885	34154
271.946	42248
272.006	18596
272.066	22746
272.127	34293
272.187	14553
272.248	8956
272.308	7944
272.369	22493
272.429	13258
272.489	12339
272.550	12625
272.610	14214
272.671	10434
272.731	8166
272.791	11172
272.852	9239
272.912	8533
272.972	5233
273.033	4469
273.093	7795
273.153	7617
273.214	5572
273.274	5384
273.334	15153
273.394	29588
273.455	18200
273.515	15083
273.575	27275
273.635	12673
273.696	18007
273.756	30680
273.816	15046
273.876	9176
273.936	12973
273.997	17991
274.057	6910
274.117	6768
274.177	10208
274.237	36789
274.297	30764
274.358	21314
274.418	26383
274.478	20898
274.538	9492
274.598	6513
274.658	16413
274.718	22032
274.778	10175
274.838	5652
274.898	10384
274.958	26807
275.018	30109
275.078	21569
275.138	11266
275.198	6143
275.258	4840
275.318	6379
275.378	13299
275.438	14347
275.498	9482
275.558	13875
275.618	29419
275.678	20676
275.738	16917
275.798	11116
275.858	6171
275.918	3934
275.978	6042
276.038	6404
276.098	5805
276.157	9279
276.217	26337
276.277	13412
276.337	11152
276.397	6185
276.457	8814
276.517	5190
276.576	4288
276.636	3633
276.696	9057
276.756	15441
276.815	12702
276.875	6526
276.935	7565
276.995	7366
277.055	4781
277.114	4945
277.174	6658
277.234	19363
277.293	9955
277.353	6723
277.413	4180
277.472	6191
277.532	5018
277.592	5833
277.651	15730
277.711	24770
277.771	10335
277.830	31982
277.890	25850
277.950	19425
278.009	43802
278.069	18115
278.128	20600
278.188	28737
278.248	14341
278.307	28702
278.367	17904
278.426	6978
278.486	5445
278.545	3730
278.605	4479
278.664	3779
278.724	5982
278.783	12954
278.843	27994
278.902	9243
278.962	8464
279.021	8144
279.081	7621
279.140	6820
279.199	8243
279.259	7150
279.318	7599
279.378	9861
279.437	17564
279.496	52895
279.556	101131
279.615	74142
279.675	25746
279.734	16831
279.793	28142
279.853	41420
279.912	17062
279.971	11020
280.031	10145
280.090	18405
280.149	29268
280.208	20311
280.268	63775
280.327	63700
280.386	20071
280.445	18364
280.505	17396
280.564	8515
280.623	7292
280.682	11140
280.742	17479
280.801	5974
280.860	6731
280.919	5056
280.978	4944
281.037	4570
281.097	4687
281.156	4746
281.215	4220
281.274	5144
281.333	19946
281.392	13911
281.451	5137
281.510	4338
281.569	4113
281.628	3202
281.688	3725
281.747	5251
281.806	5403
281.865	3442
281.924	3717
281.983	4002
282.042	3345
282.101	3736
282.160	4438
282.219	2947
282.278	4637
282.337	13649
282.396	9114
282.454	4464
282.513	6159
282.572	21511
282.631	13509
282.690	4703
282.749	4606
282.808	6444
282.867	5779
282.926	6067
282.985	4950
283.043	3832
283.102	4212
283.161	4459
283.220	8927
283.279	17805
283.338	7474
283.396	4023
283.455	5989
283.514	6280
283.573	10928
283.631	7285
283.690	5626
283.749	4987
283.808	11167
283.866	12347
283.925	6972
283.984	5604
284.043	8678
284.101	8853
284.160	5351
284.219	5789
284.277	7031
284.336	10253
284.395	28438
284.453	22373
284.512	11208
284.570	15875
284.629	14174
284.688	12524
284.746	14663
284.805	16534
284.863	22918
284.922	27244
284.981	32047
285.039	44715
285.098	73531
285.156	117061
285.215	109056
285.273	114245
285.332	122704
285.390	84689
285.449	55244
285.507	39427
285.566	29865
285.624	23196
285.683	18918
285.741	14730
285.799	13026
285.858	11245
285.916	11288
285.975	8854
286.033	8063
286.091	6292
286.150	6287
286.208	5613
286.267	7838
286.325	7799
286.383	12718
286.442	10260
286.500	6170
286.558	5102
286.616	5858
286.675	8067
286.733	7566
286.791	6297
286.850	6667
286.908	7822
286.966	14010
287.024	5177
287.083	4495
287.141	4091
287.199	5347
287.257	8700
287.315	6123
287.374	6260
287.432	14024
287.490	9406
287.548	6787
287.606	4268
287.664	4190
287.723	6216
287.781	7946
287.839	4630
287.897	5277
287.955	6493
288.013	8509
288.071	17573
288.129	58277
288.187	129864
288.245	62458
288.303	22574
288.361	14304
288.419	10355
288.477	7953
288.535	5469
288.593	5121
288.651	4999
288.709	3229
288.767	3783
288.825	4282
288.883	2730
288.941	3287
288.999	3233
289.057	3543
289.115	2402
289.173	3262
289.231	3417
289.289	4638
289.346	3030
289.404	4931
289.462	8059
289.520	9330
289.578	4511
289.636	2987
289.694	1965
289.751	2838
289.809	2857
289.867	3489
289.925	4814
289.983	6165
290.040	3582
290.098	3566
290.156	4463
290.214	5387
290.271	3409
290.329	3056
290.387	2599
290.444	2632
290.502	1862
290.560	2301
290.617	2796
290.675	3095
290.733	2397
290.790	5255
290.848	3116
290.906	3575
290.963	3841
291.021	2522
291.078	2600
291.136	3441
291.194	7962
291.251	16883
291.309	5533
291.366	3439
291.424	2864
291.481	4640
291.539	4161
291.596	3196
291.654	1932
291.711	2662
291.769	3694
291.826	9671
291.884	5618
291.941	3386
291.999	3314
292.056	4378
292.114	5655
292.171	3763
292.228	3386
292.286	5991
292.343	9975
292.401	12761
292.458	7198
292.515	5266
292.573	7172
292.630	7404
292.687	5739
292.745	4234
292.802	3268
292.859	8903
292.917	20928
292.974	14154
293.031	4772
293.089	3742
293.146	3184
293.203	3101
293.260	2809
293.318	4519
293.375	3877
293.432	2086
293.489	2420
293.546	3725
293.604	5190
293.661	14710
293.718	33271
293.775	17458
293.832	9677
293.889	8749
293.947	9059
294.004	6537
294.061	6328
294.118	11815
294.175	18606
294.232	14163
294.289	6271
294.346	6121
294.403	5620
294.460	5354
294.517	3991
294.574	4304
294.631	3684
294.688	5530
294.745	10999
294.802	33711
294.859	27046
294.916	13513
294.973	10414
295.030	9839
295.087	7591
295.144	5687
295.201	4477
295.258	4457
295.315	5709
295.372	16063
295.429	27083
295.486	13698
295.542	6096
295.599	8632
295.656	11949
295.713	13470
295.770	23836
295.827	9897
295.883	5056
295.940	6332
295.997	9889
296.054	9788
296.111	5358
296.167	4479
296.224	3723
296.281	4048
296.338	2878
296.394	3844
296.451	4444
296.508	10991
296.564	20628
296.621	15889
296.678	32334
296.734	43332
296.791	16765
296.848	10112
296.904	11439
296.961	27211
297.018	30962
297.074	19807
297.131	8788
297.187	8153
297.244	11200
297.301	28861
297.357	45966
297.414	18039
297.470	9085
297.527	6391
297.583	5545
297.640	5830
297.696	4624
297.753	3756
297.809	3342
297.866	2868
297.922	3207
297.979	2951
298.035	4038
298.092	8241
298.148	17335
298.204	17537
298.261	9926
298.317	15999
298.374	36673
298.430	23520
298.486	10923
298.543	8362
298.599	7199
298.656	10290
298.712	14812
298.768	31372
298.824	18656
298.881	8242
298.937	4985
298.993	5784
299.050	6838
299.106	7029
299.162	5395
299.218	6310
299.275	4508
299.331	6441
299.387	11836
299.443	35878
299.500	41211
299.556	19929
299.612	9602
299.668	10131
299.724	14214
299.780	16202
299.837	7857
299.893	11056
299.949	31080
300.005	38226
300.061	32430
300.117	48635
300.173	24245
300.229	13295
300.285	16026
300.341	19467
300.397	10733
300.453	6475
300.510	5331
300.566	6967
300.622	9066
300.678	26677
300.734	43286
300.790	33018
300.845	34620
300.901	27201
300.957	37715
301.013	26501
301.069	11394
301.125	8531
301.181	9124
301.237	7708
301.293	4462
301.349	5932
301.405	3961
301.461	6112
301.516	6803
301.572	7265
301.628	13932
301.684	11872
301.740	12750
301.796	22041
301.851	16379
301.907	25659
301.963	26383
302.019	37425
302.074	82371
302.130	85392
302.186	43977
302.242	19472
302.297	13881
302.353	12957
302.409	20713
302.464	19535
302.520	16523
302.576	37507
302.631	41255
302.687	26157
302.743	10837
302.798	6599
302.854	5606
302.910	5726
302.965	7549
303.021	14710
303.076	14021
303.132	19052
303.187	21458
303.243	10177
303.299	5938
303.354	5036
303.410	5062
303.465	4074
303.521	3077
303.576	4615
303.632	5793
303.687	11349
303.743	29396
303.798	26683
303.853	11360
303.909	5927
303.964	6630
304.020	10377
304.075	17935
304.130	15540
304.186	27900
304.241	28915
304.297	22715
304.352	11960
304.358	11468
304.407	7473
304.449	8035
304.463	8233
304.518	8880
304.539	8296
304.573	7332
304.629	6811
304.630	6876
304.684	10249
304.720	19165
304.739	23624
304.794	35720
304.811	30444
304.850	17408
304.902	8746
304.905	8214
304.960	5900
304.992	5623
305.015	5472
305.071	5214
305.083	5318
305.126	5623
305.173	3546
305.181	3225
305.236	3321
305.264	3661
305.292	4029
305.347	6909
305.354	7045
305.402	7783
305.445	7966
305.457	8066
305.512	8210
305.535	8903
305.567	9593
305.622	8794
305.626	8978
305.678	14713
305.716	25603
305.733	29285
305.788	35145
305.807	31197
305.843	24374
305.897	31565
305.898	31634
305.953	31669
305.988	22049
306.008	16826
306.063	12099
306.078	10942
306.118	8246
306.168	5061
306.173	4832
306.228	5079
306.259	4194
306.283	3458
306.338	3605
306.349	3578
306.393	3640
306.440	3723
306.448	3713
306.503	4296
306.530	4302
306.558	5439
306.613	11447
306.620	12540
306.668	22528
306.711	33393
306.723	34139
306.778	26914
306.801	21550
306.833	15374
306.888	7816
306.892	7400
306.943	5082
306.982	5086
306.997	5000
307.052	3860
307.072	3819
307.107	4086
307.162	3199
307.163	3209
307.217	4745
307.253	4642
307.272	4559
307.327	6173
307.343	6211
307.381	6072
307.434	7871
307.436	8188
307.491	13434
307.524	19736
307.546	22232
307.600	27973
307.614	26587
307.655	17060
307.704	6752
307.710	6333
307.765	6532
307.795	7333
307.819	8176
307.874	9714
307.885	9812
307.929	8835
307.975	8445
307.984	8743
308.038	10800
308.065	12614
308.093	22153
308.148	45731
308.156	50872
308.202	85383
308.246	111049
308.257	107003
308.312	59222
308.336	42649
308.366	36487
308.421	28140
308.426	26954
308.475	15989
308.517	9311
308.530	8704
308.585	7609
308.607	7425
308.639	7415
308.694	7380
308.697	7413
308.748	10601
308.787	13214
308.803	13052
308.857	11248
308.877	10420
308.912	10256
308.967	11505
308.967	11512
309.021	18528
309.058	24175
309.076	30834
309.130	54657
309.148	62712
309.185	99601
309.238	155602
309.239	156327
309.293	181386
309.328	179573
309.348	154818
309.402	76813
309.418	56652
309.457	42422
309.508	28302
309.511	28299
309.566	30462
309.598	32882
309.620	43325
309.674	72514
309.688	80086
309.729	77469
309.778	65969
309.783	64259
309.837	43298
309.868	32066
309.892	37109
309.946	52544
309.959	57189
310.001	76056
310.049	93356
310.055	89879
310.109	51610
310.139	30472
310.163	24435
310.218	14065
310.229	12238
310.272	9920
310.319	7535
310.326	7231
310.381	5677
310.409	4790
310.435	4562
310.489	4159
310.499	4108
310.543	4001
310.589	3921
310.598	3854
310.652	3671
310.679	3507
310.706	3644
310.760	3753
310.769	3780
310.814	3732
310.859	3689
310.868	3751
310.923	4146
310.948	4306
310.977	5166
311.031	6964
311.038	7185
311.085	6657
311.128	5862
311.139	5751
311.193	5327
311.218	5141
311.247	4844
311.301	4192
311.308	4112
311.356	4100
311.398	3974
311.410	3878
311.464	3469
311.488	3305
311.518	3690
311.572	4446
311.578	4514
311.626	8365
311.668	11889
311.680	11182
311.734	7564
311.758	5960
311.788	5735
311.842	5386
311.847	5344
311.896	6722
311.937	7880
311.950	7906
312.004	7941
312.027	7939
312.058	7289
312.112	6098
312.117	5970
312.165	5082
312.207	4316
312.297	4369
312.386	4322
312.476	6773
312.566	19260
312.656	9006
312.745	3998
312.835	4463
312.925	5031
313.015	4940
313.104	3957
313.194	4181
313.284	5756
313.374	9079
313.463	8463
313.553	4760
313.643	4302
313.732	3684
313.822	3824
313.912	5103
314.001	6860
314.091	6119
314.180	6563
314.270	9207
314.360	9659
314.449	9420
314.539	4979
314.628	4315
314.718	4453
314.808	6422
314.897	4361
314.987	6409
315.076	8970
315.166	12397
315.255	7598
315.345	9805
315.434	7622
315.524	7437
315.613	10503
315.703	17056
315.792	23102
315.881	68188
315.971	27326
316.060	19568
316.150	13842
316.239	12648
316.328	5258
316.418	5496
316.507	7000
316.597	10883
316.686	8341
316.775	7264
316.865	10398
316.954	5269
317.043	4578
317.133	6473
317.222	6487
317.311	5366
317.400	5461
317.490	10394
317.579	14520
317.668	8663
317.757	16349
317.847	34224
317.936	116694
318.025	57403
318.114	31144
318.203	18331
318.293	18724
318.382	40131
318.471	30656
318.560	28904
318.649	22935
318.738	8331
318.828	10985
318.917	12591
319.006	9088
319.095	16182
319.184	38216
319.273	40291
319.362	35388
319.451	11822
319.540	10752
319.629	25317
319.718	48831
319.807	14273
319.896	18759
319.985	52553
320.074	34240
320.163	8540
320.252	9301
320.341	7108
320.430	8021
320.519	21159
320.608	13210
320.697	8906
320.786	9043
320.875	15317
320.964	21561
321.053	34800
321.142	49351
321.230	55022
321.319	30976
321.408	77037
321.497	30051
321.586	31738
321.675	21267
321.764	23322
321.852	15884
321.941	44423
322.030	33247
322.119	26446
322.207	79082
322.296	28867
322.385	18145
322.474	30047
322.562	100296
322.651	49916
322.740	34890
322.829	50210
322.917	24011
323.006	25184
323.095	24122
323.183	11696
323.272	16746
323.361	26103
323.449	43509
323.538	18223
323.626	33844
323.715	23292
323.804	9884
323.892	30669
323.981	30899
324.069	9191
324.158	11333
324.246	13835
324.335	14871
324.424	32638
324.512	10877
324.601	12618
324.689	13555
324.778	16505
324.866	18733
324.954	7083
325.043	8732
325.131	11758
325.220	12108
325.308	15054
325.397	14229
325.485	11516
325.574	6615
325.662	7294
325.750	8599
325.839	7078
325.927	4879
326.015	8170
326.104	5566
326.192	7627
326.280	4848
326.369	6506
326.457	12914
326.545	24650
326.634	10193
326.722	4691
326.810	5625
326.898	5803
326.987	8457
327.075	19796
327.163	16879
327.251	5003
327.340	5255
327.428	6575
327.516	5153
327.604	5698
327.692	5093
327.781	4120
327.869	5887
327.957	6428
328.045	10174
328.133	4849
328.221	4322
328.309	5785
328.397	5411
328.485	9333
328.574	14311
328.662	51972
328.750	24123
328.838	5729
328.926	5544
329.014	4388
329.102	8342
329.190	15979
329.278	15531
329.366	4763
329.454	2946
329.542	3210
329.630	3320
329.718	4714
329.806	7319
329.893	5262
329.981	3864
330.069	8133
330.157	25338
330.245	77216
330.333	43978
330.421	10188
330.509	14708
330.597	63354
330.684	41600
330.772	10023
330.860	5282
330.948	6420
331.036	6047
331.123	3534
331.211	2857
331.299	3474
331.387	6331
331.475	14714
331.562	5861
331.650	3735
331.738	4099
331.825	3973
331.913	3892
332.001	3051
332.089	4254
332.176	5779
332.264	10631
332.352	11637
332.439	7890
332.527	4689
332.614	3080
332.702	4468
332.790	4006
332.877	10115
332.965	16126
333.052	10451
333.140	10461
333.228	29490
333.315	8855
333.403	5550
333.490	8397
333.578	14083
333.665	39667
333.753	20309
333.840	6627
333.928	5715
334.015	8901
334.103	13088
334.190	34790
334.278	14530
334.365	10419
334.452	10059
334.540	6773
334.627	6515
334.715	8819
334.802	14028
334.889	39414
334.977	52634
335.064	18830
335.151	9947
335.239	6988
335.326	7268
335.413	18487
335.501	27449
335.588	9221
335.675	7147
335.762	6986
335.850	9639
335.937	12376
336.024	21830
336.111	55263
336.199	41364
336.286	15137
336.373	8388
336.460	5753
336.547	5611
336.635	6640
336.722	6768
336.809	4527
336.896	8546
336.983	18596
337.070	33292
337.157	40394
337.245	23417
337.332	18004
337.419	4126
337.506	3557
337.593	4699
337.680	7339
337.767	20827
337.854	12185
337.941	13141
338.028	14986
338.115	6239
338.202	6661
338.289	8830
338.376	28747
338.463	12789
338.550	10304
338.637	13066
338.724	6198
338.811	8349
338.898	4088
338.984	3872
339.071	3838
339.158	7828
339.245	26654
339.332	15607
339.419	8516
339.506	9520
339.593	2869
339.679	5965
339.766	5176
339.853	7201
339.940	23679
340.027	7657
340.113	7148
340.200	12257
340.287	7782
340.374	10879
340.460	21714
340.547	7922
340.634	15045
340.720	55240
340.807	37078
340.894	5879
340.980	6219
341.067	6363
341.154	7482
341.240	12328
341.327	32418
341.414	9581
341.500	8682
341.587	6816
341.674	6068
341.760	19913
341.847	27046
341.933	8470
342.020	3085
342.106	4019
342.193	7407
342.279	17356
342.366	11365
342.452	22199
342.539	12212
342.625	25661
342.712	67194
342.798	28361
342.885	11881
342.971	4042
343.058	3435
343.144	4722
343.230	5371
343.317	5036
343.403	4598
343.490	3309
343.576	3503
343.662	5222
343.749	7566
343.835	8473
343.921	14612
344.008	70334
344.094	170509
344.180	45418
344.267	20190
344.353	46841
344.439	49910
344.525	31101
344.612	11571
344.698	10056
344.784	7778
344.870	4553
344.957	5978
345.043	12256
345.129	8787
345.215	21570
345.301	11266
345.387	6801
345.474	3149
345.560	3147
345.646	4057
345.732	4661
345.818	7018
345.904	6785
345.990	8886
346.076	4769
346.162	7234
346.249	5269
346.335	3690
346.421	5596
346.507	17464
346.593	68031
346.679	18289
346.765	5181
346.851	7358
346.937	7189
347.023	5266
347.108	8139
347.194	7728
347.280	5153
347.366	8147
347.452	23054
347.538	82732
347.624	63669
347.710	52351
347.796	8437
347.882	5435
347.967	4134
348.053	3877
348.139	4338
348.225	5049
348.311	5621
348.397	4743
348.482	7870
348.568	9905
348.654	5116
348.740	8645
348.825	10829
348.911	12147
348.997	34626
349.083	71699
349.168	12848
349.254	6368
349.340	5801
349.425	4167
349.511	9145
349.597	8903
349.682	18928
349.768	56296
349.854	28624
349.939	4700
350.025	4130
350.110	4055
350.196	4013
350.282	3171
350.367	2488
350.453	4572
350.538	5688
350.624	8021
350.709	7553
350.795	3811
350.880	5674
350.966	5742
351.051	7286
351.137	4634
351.222	6061
351.308	18283
351.393	58210
351.479	15902
351.564	5324
351.649	6187
351.735	4388
351.820	3876
351.906	4821
351.991	6667
352.076	32498
352.162	56749
352.247	13504
352.332	8461
352.418	18344
352.503	18643
352.588	81612
352.673	80915
352.759	19378
352.844	9209
352.929	10298
353.014	14800
353.100	10846
353.185	23813
353.270	30941
353.355	28515
353.441	7840
353.526	6755
353.611	21565
353.696	30480
353.781	16201
353.866	7595
353.952	8065
354.037	22180
354.122	54086
354.207	50279
354.292	19182
354.377	6871
354.462	6316
354.547	10581
354.632	9036
354.717	13179
354.802	28420
354.887	11200
354.972	6016
355.057	3831
355.142	4052
355.227	7255
355.312	14954
355.397	33850
355.482	84847
355.567	42576
355.652	26437
355.737	28912
355.822	62962
355.907	56621
355.991	10368
356.076	6198
356.161	4945
356.246	4735
356.331	5814
356.416	14211
356.501	84276
356.585	100039
356.670	18438
356.755	13212
356.840	19534
356.924	79565
357.009	252557
357.094	107155
357.179	29554
357.263	19204
357.348	16517
357.433	16368
357.517	15364
357.602	12575
357.687	10517
357.771	16606
357.856	31653
357.941	23386
358.025	49935
358.110	213597
358.195	117057
358.279	23362
358.364	16016
358.448	54259
358.533	141810
358.617	109468
358.702	98730
358.787	40621
358.871	25616
358.956	22571
359.040	7174
359.125	5357
359.209	5331
359.294	13326
359.378	24613
359.462	20046
359.547	12200
359.631	6256
359.716	4213
359.800	5231
359.885	7912
359.969	7690
360.053	5942
360.138	5379
360.222	12328
360.306	23568
360.391	18065
360.475	23814
360.559	59118
360.644	57469
360.728	44361
360.812	49479
360.896	139506
360.981	69251
361.065	41937
361.149	12422
361.233	11985
361.318	8829
361.402	10841
361.486	10509
361.570	7970
361.654	11335
361.739	27349
361.823	93219
361.907	141868
361.991	31611
362.075	21803
362.159	50410
362.243	36751
362.327	33474
362.411	44213
362.495	21442
362.580	11944
362.664	8045
362.748	8264
362.832	11956
362.916	19801
363.000	62190
363.084	156055
363.168	182512
363.252	52746
363.336	19474
363.420	21210
363.503	32692
363.587	35157
363.671	14819
363.755	13960
363.839	23332
363.923	11357
364.007	24066
364.091	26189
364.175	16587
364.258	55858
364.342	76599
364.426	139755
364.510	82070
364.594	31393
364.677	28832
364.761	116447
364.845	92032
364.929	41858
365.013	37165
365.096	27133
365.180	32881
365.264	15377
365.347	41240
365.431	19108
365.515	9707
365.598	9275
365.682	7171
365.766	6091
365.849	6850
365.933	9226
366.017	9354
366.100	5243
366.184	3460
366.267	5467
366.351	5654
366.435	6015
366.518	4579
366.602	4548
366.685	6005
366.769	7475
366.852	9000
366.936	21144
367.019	17005
367.103	6913
367.186	7141
367.270	5134
367.353	4222
367.436	6814
367.520	6299
367.603	10229
367.687	14497
367.770	30602
367.853	16091
367.937	35130
368.020	63654
368.104	20084
368.187	21747
368.270	31776
368.353	25418
368.437	23189
368.520	20616
368.603	29803
368.687	46396
368.770	93822
368.853	26992
368.936	23494
369.020	17069
369.103	10098
369.186	5109
369.269	7400
369.352	18861
369.436	26680
369.519	16561
369.602	7886
369.685	8760
369.768	10554
369.851	7614
369.934	5284
370.018	7959
370.101	25589
370.184	17650
370.267	9351
370.350	20370
370.433	29298
370.516	62785
370.599	90165
370.682	35775
370.765	60359
370.848	62711
370.931	102179
371.014	36721
371.097	10074
371.180	8619
371.263	4684
371.346	3459
371.429	4702
371.511	4850
371.594	14388
371.677	19582
371.760	13229
371.843	17653
371.926	72398
372.009	180222
372.091	66251
372.174	39021
372.257	85105
372.340	35864
372.423	23752
372.505	19781
372.588	11591
372.671	32614
372.754	105933
372.836	53622
372.919	16718
373.002	26222
373.085	18108
373.167	20639
373.250	49988
373.332	92126
373.415	113062
373.498	244900
373.580	103472
373.663	121213
373.746	169987
373.828	46629
373.911	19565
373.993	15367
374.076	24390
374.159	22961
374.241	24764
374.324	93366
374.406	65410
374.489	63040
374.571	186115
374.654	86643
374.736	38551
374.819	108999
374.901	163885
374.983	177823
375.066	37759
375.148	11324
375.231	19366
375.313	39268
375.395	23417
375.478	9001
375.560	8270
375.643	11165
375.725	34369
375.807	139520
375.890	99434
375.972	27728
376.054	23468
376.136	16424
376.219	11672
376.301	36408
376.383	126846
376.465	55337
376.548	43918
376.630	41400
376.712	108981
376.794	55292
376.877	8535
376.959	6081
377.041	7422
377.123	5445
377.205	6204
377.287	3621
377.369	4737
377.452	6058
377.534	6261
377.616	6062
377.698	6346
377.780	4647
377.862	7159
377.944	7216
378.026	3451
378.108	4232
378.190	4913
378.272	3935
378.354	3309
378.436	3346
378.518	5595
378.600	21908
378.682	24646
378.764	65394
378.846	54579
378.928	15182
379.010	27530
379.091	15405
379.173	6767
379.255	5510
379.337	10159
379.419	30285
379.501	90747
379.583	37250
379.664	10498
379.746	27472
379.828	68921
379.910	89793
379.991	79830
380.073	14056
380.155	9452
380.237	8409
380.318	5291
380.400	5999
380.482	16985
380.564	29767
380.645	31782
380.727	31902
380.809	16049
380.890	11332
380.972	8990
381.053	7656
381.135	8863
381.217	22964
381.298	74002
381.380	38243
381.461	26248
381.543	105827
381.624	142512
381.706	31619
381.787	15099
381.869	16173
381.951	44084
382.032	175771
382.113	130670
382.195	34479
382.276	21519
382.358	44762
382.439	103624
382.521	106469
382.602	170119
382.684	84484
382.765	152743
382.846	189761
382.928	309762
383.009	179666
383.090	114581
383.172	365880
383.253	564973
383.334	209415
383.416	173474
383.497	99899
383.578	56755
383.659	99789
383.741	305284
383.822	720908
383.903	418434
383.984	149991
384.066	209777
384.147	142138
384.228	34074
384.309	29490
384.390	22576
384.471	15696
384.553	16155
384.634	22088
384.715	24607
384.796	12617
384.877	14549
384.958	57708
385.039	81228
385.120	32824
385.201	14045
385.282	14072
385.363	12519
385.444	12531
385.525	23782
385.606	74561
385.687	67124
385.768	15989
385.849	19300
385.930	82364
386.011	146256
386.092	43519
386.173	12651
386.254	7712
386.335	8738
386.416	9692
386.496	39082
386.577	69158
386.658	21280
386.739	14015
386.820	9402
386.901	6181
386.981	8534
387.062	7058
387.143	16052
387.224	64302
387.304	63211
387.385	23824
387.466	12582
387.547	13249
387.627	12786
387.708	21120
387.789	101856
387.869	129017
387.950	36576
388.031	7080
388.111	4410
388.192	7861
388.273	11299
388.353	11062
388.434	10515
388.514	19807
388.595	82807
388.676	123881
388.756	69650
388.837	70528
388.917	46868
388.998	7874
389.078	8316
389.159	8114
389.239	7269
389.320	15170
389.400	13169
389.480	18516
389.561	60156
389.641	33079
389.722	12377
389.802	24944
389.883	25366
389.963	66459
390.043	41164
390.124	9726
390.204	21737
390.284	80972
390.365	51664
390.445	27854
390.525	104356
390.605	116873
390.686	46142
390.766	17232
390.846	9465
390.927	5434
391.007	7320
391.087	7674
391.167	8830
391.247	6299
391.328	8239
391.408	8582
391.488	6678
391.568	4584
391.648	11166
391.728	19328
391.808	16389
391.888	18188
391.969	34377
392.049	60300
392.129	22005
392.209	23739
392.289	70095
392.369	37623
392.449	16063
392.529	16036
392.609	20219
392.689	22856
392.769	68627
392.849	64223
392.929	38341
393.009	87789
393.089	88530
393.169	90592
393.248	239278
393.328	679535
393.408	753691
393.488	292638
393.568	99698
393.648	49538
393.728	30594
393.807	20719
393.887	17732
393.967	14800
394.047	14974
394.127	16608
394.206	19049
394.286	40511
394.366	200091
394.446	241595
394.525	52698
394.605	13912
394.685	13128
394.764	19724
394.844	31522
394.924	29367
395.003	16684
395.083	12903
395.163	12138
395.242	9920
395.322	11686
395.402	6413
395.481	9511
395.561	14305
395.640	47589
395.720	54602
395.799	36858
395.879	25600
395.958	18394
396.038	51307
396.117	257572
396.197	314812
396.276	80694
396.356	27691
396.435	22866
396.515	24748
396.594	40731
396.673	78015
396.753	232201
396.832	637055
396.912	545548
396.991	170378
397.070	52182
397.150	28319
397.229	19206
397.308	25565
397.388	48437
397.467	26075
397.546	10796
397.625	6847
397.705	12493
397.784	14843
397.863	7889
397.942	4928
398.022	5514
398.101	8261
398.180	22317
398.259	12598
398.338	7569
398.417	8277
398.497	5138
398.576	6338
398.655	4134
398.734	4455
398.813	3140
398.892	7719
398.971	22435
399.050	13795
399.129	3429
399.208	3091
399.287	4136
399.366	3106
399.445	2969
399.524	3481
399.603	4127
399.682	10979
399.761	22430
399.840	30736
399.919	21418
399.998	5256
400.077	2681
400.156	2558
400.235	5797
400.313	3109
400.392	5390
400.471	34739
400.550	65635
400.629	18019
400.708	7271
400.786	3307
400.865	4765
400.944	9380
401.023	9100
401.102	2073
401.180	2381
401.259	1625
401.338	3274
401.416	7156
401.495	7228
401.574	2707
401.652	3034
401.731	6222
401.810	8082
401.888	4170
401.967	1690
402.046	3908
402.124	5607
402.203	8906
402.281	5395
402.360	4683
402.438	7947
402.517	5108
402.596	3533
402.674	2935
402.753	2212
402.831	2164
402.910	4980
402.988	21085
403.066	85938
403.145	51599
403.223	27122
403.302	77011
403.380	59571
403.459	65004
403.537	27358
403.615	9364
403.694	2369
403.772	2898
403.850	2388
403.929	2184
404.007	3062
404.085	14472
404.164	21800
404.242	6771
404.320	5499
404.398	9852
404.477	25809
404.555	131997
404.633	125422
404.711	20773
404.789	7263
404.868	7987
404.946	4182
405.024	2583
405.102	2373
405.180	1690
405.258	2900
405.336	3225
405.415	2524
405.493	8638
405.571	11955
405.649	4077
405.727	1679
405.805	5504
405.883	7565
405.961	5207
406.039	3520
406.117	2110
406.195	8331
406.273	30368
406.351	123155
406.429	76498
406.507	10119
406.585	3001
406.663	6018
406.740	9766
406.818	8645
406.896	3260
406.974	4488
407.052	9598
407.130	69925
407.208	111052
407.285	23181
407.363	4883
407.441	3984
407.519	4277
407.596	4089
407.674	9576
407.752	14151
407.830	13177
407.907	10121
407.985	7520
408.063	3650
408.141	1505
408.218	4058
408.296	7894
408.373	8821
408.451	7303
408.529	7293
408.606	2992
408.684	1895
408.762	1187
408.839	1026
408.917	1064
408.994	2160
409.072	2316
409.149	3125
409.227	7566
409.304	9603
409.382	6818
409.459	7455
409.537	13240
409.614	11306
409.692	7273
409.769	7472
409.846	13660
409.924	16205
410.001	12744
410.079	8291
410.156	6165
410.233	5212
410.311	5113
410.388	4249
410.465	4914
410.543	5193
410.620	3261
410.697	5116
410.775	7914
410.852	2790
410.929	6380
411.006	10086
411.083	4539
411.161	11370
411.238	11113
411.315	4015
411.392	3052
411.469	7429
411.547	7716
411.624	3333
411.701	2784
411.778	5318
411.855	14722
411.932	7839
412.009	3400
412.086	3133
412.163	2938
412.240	3371
412.317	4262
412.394	3723
412.471	1541
412.548	1904
412.625	2988
412.702	3529
412.779	8561
412.856	5939
412.933	443
413.010	1503
413.087	4964
413.164	33767
413.241	56741
413.318	14480
413.395	8237
413.471	13231
413.548	5963
413.625	3196
413.702	3432
413.779	2072
413.855	1835
413.932	602
414.009	185
414.086	1458
414.162	1478
414.239	5885
414.316	30287
414.393	80643
414.469	29305
414.546	3308
414.623	2014
414.699	2493
414.776	3845
414.853	2369
414.929	3048
415.006	2239
415.082	1128
415.159	1175
415.236	2333
415.312	2804
415.389	9727
415.465	14220
415.542	6813
415.618	3549
415.695	9485
415.771	5474
415.848	4592
415.924	3271
416.000	1701
416.077	1490
416.153	338
416.230	-40
416.306	347
416.383	307
416.459	1367
416.535	854
416.612	1391
416.688	925
416.764	2249
416.841	1574
416.917	1046
416.993	2271
417.069	3100
417.146	4130
417.222	5729
417.298	4035
417.374	2081
417.451	3364
417.527	5345
417.603	7551
417.679	4631
417.755	3929
417.831	1347
417.908	1624
417.984	1675
418.060	918
418.136	9669
418.212	16370
418.288	4676
418.364	2215
418.440	2403
418.516	6328
418.592	4157
418.668	14787
418.744	30058
418.820	22449
418.896	4986
418.972	1532
419.048	3353
419.124	12742
419.200	10244
419.276	2153
419.352	815
419.428	1823
419.504	3738
419.579	5830
419.655	3836
419.731	3476
419.807	18007
419.883	35768
419.959	24582
420.034	5895
420.110	9901
420.186	48165
420.262	40348
420.337	6677
420.413	5824
420.489	3371
420.565	2961
420.640	2387
420.716	3750
420.792	1945
420.867	3596
420.943	3011
421.019	8683
421.094	6902
421.170	3213
421.245	2536
421.321	3461
421.397	3819
421.472	5375
421.548	9501
421.623	11492
421.699	7891
421.774	7413
421.850	6684
421.925	13275
422.001	13613
422.076	10159
422.152	12604
422.227	20688
422.302	23498
422.378	34441
422.453	61589
422.529	132749
422.604	294272
422.679	380240
422.755	334507
422.830	165664
422.905	72244
422.981	39309
423.056	26145
423.131	19025
423.207	14419
423.282	13123
423.357	24249
423.432	17138
423.508	15391
423.583	33644
423.658	26205
423.733	7933
423.808	8456
423.883	11865
423.959	9126
424.034	8789
424.109	6698
424.184	3357
424.259	3958
424.334	3479
424.409	1969
424.484	3184
424.559	4335
424.634	3568
424.709	6980
424.784	8605
424.859	5069
424.934	7020
425.009	35179
425.084	62151
425.159	22235
425.234	3721
425.309	1910
425.384	5842
425.459	9825
425.534	3902
425.609	1598
425.683	1513
425.758	1950
425.833	3221
425.908	4474
425.983	20283
426.058	67671
426.132	30548
426.207	3445
426.282	3843
426.357	1991
426.431	1394
426.506	1782
426.581	1984
426.655	2255
426.730	1834
426.805	3142
426.879	3502
426.954	2374
427.029	7213
427.103	46695
427.178	115430
427.253	51239
427.327	6236
427.402	3837
427.476	9889
427.551	5112
427.625	1797
427.700	1927
427.774	848
427.849	1341
427.923	1084
427.998	2648
428.072	1937
428.147	7806
428.221	35521
428.296	109122
428.370	60958
428.444	7579
428.519	3477
428.593	4261
428.667	3307
428.742	4550
428.816	8624
428.890	51795
428.965	99953
429.039	27440
429.113	6908
429.188	3883
429.262	2958
429.336	6567
429.410	27732
429.485	17125
429.559	4461
429.633	3717
429.707	2142
429.781	8243
429.855	55329
429.930	107214
430.004	35722
430.078	20071
430.152	31619
430.226	117918
430.300	133966
430.374	24474
430.448	6309
430.522	7643
430.596	19665
430.670	22835
430.744	107049
430.818	170781
430.892	37736
430.966	6568
431.040	2617
431.114	722
431.188	-24
431.262	524
431.336	493
431.410	3129
431.484	10078
431.557	11495
431.631	1827
431.705	3241
431.779	15871
431.853	87405
431.927	68167
432.000	8688
432.074	2139
432.148	1712
432.222	333
432.295	961
432.369	616
432.443	4273
432.516	33917
432.590	104662
432.664	39054
432.737	4741
432.811	1010
432.885	360
432.958	649
433.032	54
433.106	14
433.179	239
433.253	-112
433.326	632
433.400	754
433.473	509
433.547	-576
433.620	696
433.694	6082
433.767	5994
433.841	75
433.914	95
433.988	216
434.061	949
434.134	966
434.208	203
434.281	-567
434.355	-51
434.428	340
434.501	571
434.575	-510
434.648	167
434.721	-526
434.795	791
434.868	420
434.941	-107
435.014	-27
435.088	556
435.161	3472
435.234	5705
435.307	9649
435.381	4011
435.454	2753
435.527	4986
435.600	5716
435.673	4753
435.746	2501
435.819	1682
435.892	1386
435.966	1098
436.039	365
436.112	397
436.185	-379
436.258	-566
436.331	-683
436.404	-46
436.477	287
436.550	244
436.623	-250
436.696	-571
436.769	1833
436.842	1743
436.915	525
436.987	2014
437.060	354
437.133	-110
437.206	-143
437.279	673
437.352	-357
437.425	291
437.498	1331
437.570	6494
437.643	7431
437.716	2022
437.789	405
437.861	4118
437.934	15236
438.007	7582
438.080	1471
438.152	1874
438.225	6540
438.298	44585
438.370	136981
438.443	61306
438.516	16406
438.588	3632
438.661	813
438.734	1112
438.806	1769
438.879	2372
438.951	4291
439.024	8085
439.096	2900
439.169	1306
439.241	358
439.314	-224
439.386	113
439.459	1730
439.531	4312
439.604	1930
439.676	-187
439.749	311
439.821	12
439.893	863
439.966	383
440.038	2095
440.110	2593
440.183	1600
440.255	959
440.327	2895
440.400	16353
440.472	87450
440.544	61949
440.617	8043
440.689	6106
440.761	7914
440.833	13221
440.905	8661
440.978	539
441.050	1095
441.122	594
441.194	112
441.266	189
441.338	776
441.411	4694
441.483	32901
441.555	53988
441.627	10304
441.699	2224
441.771	936
441.843	926
441.915	341
441.987	1071
442.059	1076
442.131	1706
442.203	3081
442.275	3972
442.347	4850
442.419	7542
442.491	45552
442.563	125049
442.635	54379
442.706	14929
442.778	12324
442.850	3646
442.922	2055
442.994	2390
443.066	4369
443.137	3124
443.209	3155
443.281	6431
443.353	13775
443.425	52720
443.496	203150
443.568	216755
443.640	84309
443.711	15393
443.783	6005
443.855	3682
443.926	2161
443.998	1377
444.070	2393
444.141	1939
444.213	6608
444.285	9369
444.356	4578
444.428	2119
444.499	1649
444.571	190
444.642	1060
444.714	2347
444.785	6044
444.857	3800
444.928	3412
445.000	2767
445.071	3964
445.143	7360
445.214	8300
445.285	10597
445.357	27535
445.428	112353
445.500	282635
445.571	189200
445.642	112498
445.714	33176
445.785	13822
445.856	7298
445.928	10828
445.999	8013
446.070	6303
446.141	6150
446.213	10054
446.284	3730
446.355	1177
446.426	656
446.497	2106
446.569	1545
446.640	5985
446.711	7542
446.782	1782
446.853	1271
446.924	2922
446.995	2893
447.066	615
447.138	415
447.209	466
447.280	21
447.351	481
447.422	210
447.493	1327
447.564	2669
447.635	7442
447.706	1822
447.777	722
447.847	213
447.918	110
447.989	1266
448.060	1637
448.131	1658
448.202	5112
448.273	5532
448.344	1604
448.414	1272
448.485	1129
448.556	579
448.627	-369
448.698	-203
448.768	-40
448.839	-592
448.910	1365
448.981	1850
449.051	1407
449.122	202
449.193	-403
449.263	-401
449.334	198
449.405	1955
449.475	8151
449.546	4254
449.616	1777
449.687	252
449.758	253
449.828	-483
449.899	221
449.969	-12
450.040	238
450.110	-5
450.181	738
450.251	732
450.322	298
450.392	527
450.463	419
450.533	-302
450.604	-142
450.674	-201
450.744	40
450.815	-136
450.885	137
450.955	526
451.026	427
451.096	428
451.166	125
451.237	425
451.307	3248
451.377	1006
451.447	286
451.518	-71
451.588	-540
451.658	38
451.728	101
451.799	1898
451.869	2934
451.939	-385
452.009	530
452.079	-328
452.149	362
452.219	294
452.289	2183
452.360	2260
452.430	759
452.500	1230
452.570	2832
452.640	3933
452.710	12280
452.780	14874
452.850	15765
452.920	17619
452.990	4544
453.060	1311
453.129	3203
453.199	2822
453.269	3613
453.339	7935
453.409	12291
453.479	11174
453.549	15895
453.619	16392
453.688	5974
453.758	802
453.828	-556
453.898	-712
453.968	-518
454.037	223
454.087	-427
454.107	-721
454.168	-772
454.177	-812
454.247	-590
454.249	-536
454.316	4
454.330	58
454.386	167
454.411	540
454.456	979
454.492	1494
454.525	1917
454.574	1723
454.595	1600
454.655	211
454.665	-28
454.734	763
454.736	834
454.804	1912
454.817	2214
454.873	3214
454.898	3268
454.943	3226
454.979	1845
455.013	580
455.060	1061
455.082	1302
455.141	1013
455.152	919
455.221	2539
455.222	2605
455.291	4002
455.303	3785
455.360	2762
455.384	3586
455.430	4916
455.465	4145
455.499	3440
455.546	3209
455.569	2927
455.627	3720
455.638	3858
455.707	2118
455.708	2144
455.777	826
455.789	872
455.846	1055
455.869	1016
455.916	699
455.950	594
455.985	597
456.031	1240
456.054	1432
456.112	1415
456.124	1374
456.193	1649
456.193	1619
456.262	1509
456.274	1643
456.332	2128
456.355	1918
456.401	1319
456.436	1658
456.470	2040
456.516	1989
456.540	1856
456.597	1819
456.609	1796
456.678	1838
456.678	1807
456.747	1933
456.759	1830
456.817	1372
456.840	1600
456.886	1846
456.920	1992
456.955	2216
457.001	2470
457.024	2521
457.082	2996
457.093	3026
457.162	3531
457.163	3560
457.232	2555
457.243	2577
457.301	2707
457.324	2637
457.370	2517
457.405	2851
457.439	3144
457.485	3484
457.508	3613
457.566	3711
457.577	3804
457.646	4878
457.647	4931
457.715	9472
457.727	10377
457.784	16883
457.808	21491
457.853	27170
457.889	31910
457.922	30974
457.969	20782
457.991	20990
458.050	25798
458.060	26868
458.129	44457
458.130	45049
458.198	46730
458.211	42842
458.267	23616
458.292	16018
458.336	10640
458.372	9812
458.405	12547
458.453	18805
458.474	24668
458.533	44422
458.543	46284
458.611	75370
458.614	75993
458.680	48967
458.694	39266
458.749	18298
458.775	12623
458.818	7652
458.855	6841
458.887	6519
458.936	5931
458.955	5747
459.016	5483
459.024	5498
459.093	6385
459.097	6406
459.162	5927
459.177	6048
459.230	7449
459.257	8317
459.299	8767
459.338	8446
459.368	8209
459.418	8888
459.437	8569
459.499	6514
459.505	6429
459.574	5288
459.579	5336
459.643	5868
459.659	5653
459.711	5454
459.740	5874
459.780	6092
459.820	6066
459.849	6000
459.900	5903
459.917	5988
459.981	6565
459.986	6554
460.054	6270
460.061	6290
460.123	7167
460.141	7305
460.191	8422
460.222	9594
460.260	10489
460.302	11874
460.328	11362
460.382	8848
460.397	8444
460.462	6967
460.465	7000
460.534	8353
460.543	8502
460.602	13881
460.623	16012
460.671	22848
460.703	28751
460.739	27151
460.783	24058
460.808	20800
460.864	9377
460.876	8621
460.944	7159
460.945	7147
461.013	7969
461.024	7946
461.081	7701
461.104	8156
461.150	8782
461.184	8783
461.218	8336
461.264	7504
461.286	7612
461.345	7939
461.355	7840
461.423	7707
461.425	7693
461.491	7446
461.505	7513
461.559	8432
461.585	8828
461.628	9592
461.665	10456
461.696	11064
461.745	11926
461.764	11293
461.825	8430
461.832	8428
461.901	9056
461.905	9139
461.969	9243
461.985	9046
462.037	8657
462.065	8467
462.105	8423
462.145	8582
462.173	8592
462.225	8716
462.241	9120
462.305	10569
462.310	10499
462.378	9711
462.385	9519
462.446	9230
462.465	9405
462.514	9505
462.545	9314
462.582	9290
462.625	9420
462.650	9386
462.705	9320
462.718	9291
462.785	8976
462.786	8978
462.854	8404
462.865	8430
462.922	9674
462.945	10211
462.990	10133
463.025	9658
463.058	9304
463.104	8908
463.126	8890
463.184	9047
463.194	9242
463.262	10280
463.264	10326
463.330	9568
463.344	9252
463.398	9525
463.424	9739
463.466	9697
463.504	9766
463.533	9962
463.583	10230
463.601	10351
463.663	10354
463.669	10457
463.737	11976
463.743	12113
463.805	12888
463.823	13024
463.873	13696
463.903	14091
463.940	14001
463.982	13987
464.008	13412
464.062	11714
464.076	11439
464.142	10175
464.144	10194
464.211	10412
464.221	10444
464.279	10388
464.301	10403
464.347	11103
464.381	11672
464.414	11969
464.461	12137
464.482	12612
464.540	13886
464.550	14000
464.617	14566
464.620	14573
464.685	14288
464.699	14174
464.753	14796
464.779	15103
464.820	14951
464.859	14540
464.888	13790
464.938	12595
464.956	13043
465.018	14481
465.023	14411
465.091	13330
465.098	13199
465.158	13882
465.177	14089
465.226	14309
465.257	14311
465.293	14627
465.336	15034
465.361	15671
465.416	16887
465.428	16941
465.495	17457
465.496	17487
465.563	17358
465.575	17329
465.631	18609
465.654	19184
465.698	16890
465.734	14757
465.765	14548
465.813	14137
465.833	14073
465.893	14014
465.900	14071
465.968	14189
465.972	14175
466.035	13779
466.052	13638
466.102	14803
466.131	15422
466.170	15408
466.210	15287
466.237	15174
466.290	14872
466.304	15101
466.369	15915
466.372	15975
466.439	16876
466.449	16954
466.506	17145
466.528	17194
466.573	18830
466.607	19991
466.641	22329
466.687	25479
466.708	27111
466.766	31499
466.775	30548
466.842	22878
466.845	22469
466.909	20984
466.925	20572
466.977	19447
467.004	18807
467.044	18917
467.083	18981
467.111	19334
467.163	19857
467.178	20337
467.242	22125
467.245	22087
467.312	20322
467.321	20045
467.379	19796
467.400	19642
467.446	19795
467.480	19831
467.559	18378
467.638	18675
467.717	18591
467.796	20182
467.875	21600
467.955	19467
468.034	20276
468.113	24474
468.192	30073
468.271	21861
468.350	23003
468.429	25808
468.508	28352
468.588	22701
468.667	19500
468.746	17906
468.825	17309
468.904	17019
468.983	18787
469.062	20251
469.141	20640
469.220	16828
469.299	17596
469.378	16463
469.456	20353
469.535	18962
469.614	17874
469.693	17666
469.772	18195
469.851	19952
469.930	19481
470.009	18917
470.088	19336
470.166	20643
470.245	25842
470.324	30744
470.403	24573
470.482	20422
470.560	19857
470.639	20153
470.718	22546
470.797	19394
470.875	20088
470.954	20859
471.033	21258
471.111	17729
471.190	17942
471.269	16436
471.347	16518
471.426	18059
471.505	17850
471.583	18764
471.662	17788
471.740	16726
471.819	17731
471.898	17226
471.976	17560
472.055	16590
472.133	17167
472.212	18636
472.290	18010
472.369	16348
472.447	16955
472.526	16271
472.604	18138
472.683	19211
472.761	20237
472.839	18491
472.918	18462
472.996	16892
473.075	18874
473.153	17615
473.231	17909
473.310	18874
473.388	20990
473.466	18460
473.545	21404
473.623	25320
473.701	26085
473.780	19275
473.858	17730
473.936	19994
474.014	18585
474.093	19371
474.171	19962
474.249	20163
474.327	18989
474.405	17350
474.484	18693
474.562	17767
474.640	18090
474.718	18097
474.796	17946
474.874	17607
474.952	18416
475.030	17872
475.108	18942
475.187	19563
475.265	22177
475.343	32150
475.421	35082
475.499	19089
475.577	18851
475.655	18477
475.733	20823
475.811	22111
475.889	22051
475.966	21048
476.044	19349
476.122	23196
476.200	29899
476.278	26498
476.356	17999
476.434	17416
476.512	22048
476.590	27509
476.667	26124
476.745	17362
476.823	19090
476.901	17403
476.979	17184
477.056	17270
477.134	17754
477.212	18312
477.290	18156
477.367	16727
477.445	16745
477.523	16388
477.601	17579
477.678	16307
477.756	16673
477.834	16535
477.911	17384
477.989	17317
478.066	17718
478.144	17263
478.222	23515
478.299	37314
478.377	38901
478.454	17884
478.532	17176
478.609	17825
478.687	19761
478.764	17100
478.842	17252
478.919	19078
478.997	18707
479.074	16449
479.152	16798
479.229	17390
479.307	15915
479.384	15328
479.461	16842
479.539	15910
479.616	17200
479.694	16704
479.771	16618
479.848	15501
479.926	16089
480.003	17808
480.080	18185
480.157	15913
480.235	16639
480.312	16616
480.389	17028
480.467	16572
480.544	18378
480.621	17129
480.698	17944
480.775	18105
480.853	17957
480.930	16321
481.007	17141
481.084	17428
481.161	16743
481.238	16437
481.315	16565
481.392	15884
481.470	17279
481.547	16707
481.624	16084
481.701	16940
481.778	16781
481.855	17400
481.932	17948
482.009	19725
482.086	19174
482.163	20401
482.240	27615
482.317	47677
482.393	42081
482.470	18709
482.547	18533
482.624	17269
482.701	18185
482.778	17709
482.855	16369
482.932	16596
483.009	16764
483.085	18955
483.162	22243
483.239	21134
483.316	18887
483.393	17675
483.469	17101
483.546	17022
483.623	17369
483.699	15856
483.776	16799
483.853	17051
483.930	18829
484.006	22427
484.083	29057
484.160	26908
484.236	38589
484.313	34226
484.389	28289
484.466	26460
484.543	25971
484.619	27259
484.696	29762
484.772	26558
484.849	25716
484.925	25070
485.002	25941
485.078	25822
485.155	27878
485.231	24063
485.308	24061
485.384	22577
485.461	25312
485.537	25450
485.614	27880
485.690	24772
485.766	23457
485.843	25639
485.919	36613
485.995	41117
486.072	24832
486.148	22829
486.224	23560
486.301	24244
486.377	26257
486.453	28497
486.530	27450
486.606	27850
486.682	28964
486.758	29020
486.835	29613
486.911	27786
486.987	35926
487.063	57771
487.139	92172
487.215	66537
487.292	34608
487.368	27688
487.444	32502
487.520	42235
487.596	44686
487.672	60252
487.748	162272
487.824	269694
487.900	109176
487.976	37882
488.052	32451
488.128	39447
488.204	32825
488.280	25103
488.356	24640
488.432	27120
488.508	33676
488.584	27328
488.660	26019
488.736	26076
488.812	26825
488.888	31339
488.964	40394
489.039	83012
489.115	135168
489.191	88447
489.267	26949
489.343	23146
489.418	21946
489.494	22740
489.570	21093
489.646	22458
489.722	21396
489.797	21707
489.873	23040
489.949	26364
490.024	28170
490.100	21141
490.176	23374
490.251	27116
490.327	35936
490.403	25468
490.478	21830
490.554	20794
490.629	21355
490.705	19741
490.781	22102
490.856	20659
490.932	23112
491.007	24600
491.083	23188
491.158	21281
491.234	21838
491.309	25576
491.385	25163
491.460	21766
491.536	22561
491.611	23294
491.686	25972
491.762	30557
491.837	58915
491.913	90736
491.988	112618
492.063	164422
492.139	44385
492.214	23938
492.289	22310
492.365	20629
492.440	23601
492.515	22258
492.590	21542
492.666	19434
492.741	21814
492.816	22201
492.891	19711
492.967	20072
493.042	20547
493.117	19220
493.192	20890
493.267	21961
493.342	26551
493.418	28186
493.493	22016
493.568	20448
493.643	19808
493.718	21139
493.793	25474
493.868	33766
493.943	32459
494.018	23782
494.093	20570
494.168	20048
494.243	19834
494.318	20485
494.393	20773
494.468	20741
494.543	21594
494.618	23062
494.693	21999
494.768	19853
494.842	20855
494.917	21324
494.992	22610
495.067	19646
495.142	20490
495.217	21329
495.292	22117
495.366	23741
495.441	26417
495.516	30746
495.591	38509
495.665	102760
495.740	266315
495.815	137247
495.890	27571
495.964	21837
496.039	23880
496.114	22075
496.188	23588
496.263	23417
496.338	22807
496.412	21103
496.487	23976
496.561	27249
496.636	28888
496.710	23125
496.785	22799
496.860	22965
496.934	22264
497.009	22935
497.083	23157
497.158	23941
497.232	25501
497.307	26463
497.381	27070
497.455	26114
497.530	26048
497.604	23392
497.679	25368
497.753	28966
497.827	36550
497.902	36807
497.976	35455
498.050	43493
498.125	95794
498.199	118422
498.273	59518
498.348	52585
498.422	44215
498.496	41043
498.570	41108
498.645	28104
498.719	25171
498.793	24221
498.867	27521
498.941	28392
499.016	43160
499.090	96073
499.164	54100
499.238	23834
499.312	23475
499.386	31544
499.460	29379
499.534	23831
499.609	26586
499.683	26073
499.757	22144
499.831	25619
499.905	60646
499.979	67363
500.053	24686
500.127	29457
500.201	34744
500.275	25143
500.349	23509
500.422	24029
500.496	32390
500.570	58635
500.644	72722
500.718	77046
500.792	32635
500.866	19350
500.940	20675
501.013	18952
501.087	21696
501.161	40196
501.235	44643
501.309	30112
501.382	53054
501.456	60733
501.530	28748
501.603	26663
501.677	21736
501.751	16577
501.825	19306
501.898	18825
501.972	28467
502.046	25905
502.119	17970
502.193	23928
502.266	33376
502.340	23846
502.413	21131
502.487	29482
502.561	22358
502.634	18211
502.708	20579
502.781	18937
502.855	18158
502.928	16186
503.002	16127
503.075	15746
503.149	15997
503.222	16709
503.295	17022
503.369	16941
503.442	17368
503.516	24075
503.589	40229
503.662	34883
503.736	22540
503.809	29481
503.882	31394
503.956	40318
504.029	53590
504.102	101100
504.175	157729
504.249	66724
504.322	29362
504.395	22747
504.468	19468
504.542	16751
504.615	16727
504.688	17438
504.761	16530
504.834	18942
504.907	24585
504.980	37220
505.053	23262
505.127	27561
505.200	31141
505.273	16167
505.346	15128
505.419	14158
505.492	16060
505.565	14730
505.638	15826
505.711	15166
505.784	15008
505.857	14684
505.930	15923
506.003	13924
506.076	16543
506.149	14637
506.221	14835
506.294	16262
506.367	18520
506.440	36229
506.513	32776
506.586	18324
506.659	15965
506.731	16192
506.804	16978
506.877	23763
506.950	18512
507.022	15389
507.095	15192
507.168	16684
507.241	17509
507.313	15462
507.386	16565
507.459	22578
507.531	17980
507.604	15870
507.677	16720
507.749	14142
507.822	18796
507.894	26403
507.967	31384
508.040	19604
508.112	18457
508.185	18018
508.257	19781
508.330	29914
508.402	19617
508.475	15236
508.547	16459
508.620	15927
508.692	18214
508.765	17472
508.837	15595
508.909	14826
508.982	17110
509.054	16807
509.127	16835
509.199	15249
509.271	15339
509.344	15694
509.416	14903
509.488	15063
509.560	16487
509.633	15570
509.705	18173
509.777	17908
509.849	24896
509.922	18749
509.994	16104
510.066	15867
510.138	15280
510.210	21196
510.283	20181
510.355	19729
510.427	18719
510.499	17618
510.571	17041
510.643	17350
510.715	31176
510.787	30279
510.859	20123
510.931	20241
511.003	32465
511.076	32262
511.148	16974
511.219	16227
511.291	17125
511.363	17887
511.435	16173
511.507	15432
511.579	16765
511.651	16273
511.723	16360
511.795	15298
511.867	16153
511.939	15593
512.010	17702
512.082	17609
512.154	16831
512.226	17143
512.298	21173
512.369	29300
512.441	22980
512.513	22703
512.585	19235
512.656	20941
512.728	22922
512.800	19018
512.871	17848
512.943	17983
513.015	16897
513.086	18589
513.158	19949
513.230	18082
513.301	24225
513.373	29577
513.444	20403
513.516	18437
513.588	18407
513.659	19108
513.731	23309
513.802	21247
513.874	34447
513.945	65641
514.016	30778
514.088	18410
514.159	19582
514.231	23369
514.302	29492
514.374	20821
514.445	18072
514.516	21135
514.588	18302
514.659	17277
514.730	19781
514.802	22747
514.873	22317
514.944	22456
515.016	21422
515.087	25188
515.158	23037
515.229	23791
515.301	20647
515.372	24880
515.443	20480
515.514	17204
515.585	16802
515.656	18667
515.728	17136
515.799	17269
515.870	20135
515.941	18943
516.012	18222
516.083	21225
516.154	23518
516.225	30435
516.296	29903
516.367	26519
516.438	30773
516.509	35383
516.580	49308
516.651	109007
516.722	412760
516.793	259285
516.864	53954
516.935	45361
517.006	42976
517.077	57409
517.148	121089
517.219	333623
517.289	620780
517.360	141193
517.431	43119
517.502	25205
517.573	23782
517.643	22478
517.714	23754
517.785	23693
517.856	25993
517.926	30101
517.997	35501
518.068	42442
518.138	53286
518.209	68786
518.280	199540
518.350	751916
518.421	439328
518.492	65477
518.562	39260
518.633	36821
518.703	39237
518.774	62265
518.845	151179
518.915	177702
518.986	61407
519.056	36936
519.127	49622
519.197	62301
519.268	70078
519.338	39071
519.408	25204
519.479	40423
519.549	33289
519.620	22567
519.690	19540
519.760	18303
519.831	20059
519.901	21579
519.971	18019
520.042	18141
520.112	18518
520.182	23819
520.253	29487
520.323	21109
520.393	27951
520.463	47619
520.534	27709
520.604	57087
520.674	28637
520.744	23582
520.814	58651
520.885	55273
520.955	23990
521.025	41443
521.095	27781
521.165	18335
521.235	16650
521.305	16334
521.375	17293
521.445	18733
521.515	23901
521.585	29052
521.655	30604
521.725	21840
521.795	20435
521.865	14001
521.935	18853
522.005	16624
522.075	16471
522.145	17222
522.215	17021
522.285	19833
522.355	20265
522.424	23634
522.494	25173
522.564	25312
522.634	44593
522.704	148241
522.774	78188
522.843	21143
522.913	20055
522.983	24675
523.053	20936
523.122	19445
523.192	25686
523.262	69767
523.331	86270
523.401	23051
523.471	18002
523.540	19071
523.610	16855
523.680	16883
523.749	15978
523.819	16654
523.888	17222
523.958	15881
524.027	16561
524.097	17693
524.166	16910
524.236	18154
524.305	18947
524.375	16338
524.444	15645
524.514	17765
524.583	15658
524.653	16134
524.722	19844
524.791	16747
524.861	17550
524.930	15861
524.999	18446
525.069	23781
525.138	18999
525.207	16979
525.277	17570
525.346	18919
525.415	18912
525.484	19933
525.554	19780
525.623	19377
525.692	21200
525.761	22489
525.830	26517
525.900	30416
525.969	40310
526.038	60426
526.107	100831
526.176	307681
526.245	302836
526.314	99025
526.383	154361
526.452	240661
526.522	304902
526.591	387515
526.660	117337
526.729	65919
526.797	62626
526.867	97166
526.935	369674
527.004	677519
527.073	474912
527.142	65237
527.211	30570
527.280	27055
527.349	28975
527.418	19144
527.487	20134
527.555	16431
527.624	17614
527.693	16083
527.762	18227
527.831	17092
527.899	16843
527.968	16421
528.037	16296
528.106	20188
528.174	29381
528.243	24117
528.312	25592
528.380	37685
528.449	19454
528.518	17349
528.586	15203
528.655	15643
528.723	16378
528.792	14275
528.861	15527
528.929	14482
528.998	16250
529.066	16384
529.135	18555
529.203	18167
529.272	19213
529.340	22706
529.409	22469
529.477	20490
529.545	19429
529.614	22801
529.682	22855
529.751	24479
529.819	27853
529.887	26252
529.956	23600
530.024	24781
530.092	22457
530.161	24351
530.229	32254
530.297	27594
530.365	24829
530.434	24204
530.502	25196
530.570	24257
530.638	21718
530.707	22525
530.775	24650
530.843	21381
530.911	23843
530.979	22611
531.047	24446
531.115	24274
531.183	23542
531.252	23326
531.320	22969
531.388	22045
531.456	22952
531.524	21962
531.592	24836
531.660	26997
531.728	25100
531.796	24569
531.864	24069
531.932	25070
532.000	24149
532.067	24904
532.135	28873
532.203	29753
532.271	31676
532.339	37939
532.407	71919
532.475	58361
532.542	36652
532.610	35633
532.678	43188
532.746	102372
532.814	301744
532.881	110965
532.949	34121
533.017	28399
533.084	27104
533.152	25157
533.220	25895
533.287	28485
533.355	27459
533.423	26028
533.490	24859
533.558	25033
533.625	25880
533.693	25262
533.761	24259
533.828	25686
533.896	26173
533.963	34801
534.031	42266
534.098	58294
534.166	39254
534.233	26094
534.300	28208
534.368	27055
534.435	25728
534.503	27463
534.570	32622
534.637	30022
534.705	32405
534.772	33689
534.840	43955
534.907	130827
534.974	218663
535.041	46768
535.109	28039
535.176	24309
535.243	25601
535.310	25720
535.378	25520
535.445	22810
535.512	24011
535.579	22721
535.646	21868
535.714	23736
535.781	24605
535.848	24815
535.915	25469
535.982	23623
536.049	23944
536.116	24860
536.183	24027
536.250	23001
536.317	22992
536.384	25034
536.451	32077
536.518	32499
536.585	26913
536.652	30174
536.719	36348
536.786	33669
536.853	29622
536.920	34049
536.987	46374
537.053	48095
537.120	143319
537.187	163337
537.254	34485
537.321	25783
537.388	26522
537.454	23110
537.521	23566
537.588	23451
537.654	24771
537.721	25649
537.788	26719
537.855	23759
537.921	24365
537.988	24305
538.055	24048
538.121	23569
538.188	24052
538.254	27628
538.321	45395
538.388	36551
538.454	26902
538.521	25679
538.587	24511
538.654	23967
538.720	24121
538.787	24184
538.853	24398
538.920	24727
538.986	25054
539.053	22865
539.119	24286
539.185	24309
539.252	27687
539.318	35390
539.385	33285
539.451	29836
539.517	30428
539.583	30866
539.650	49810
539.716	137198
539.782	56101
539.849	26733
539.915	26989
539.981	25348
540.047	28767
540.114	27105
540.180	28531
540.246	28847
540.312	32384
540.378	44922
540.444	52971
540.510	51843
540.576	150532
540.643	66647
540.709	28021
540.775	26730
540.841	25563
540.907	26515
540.973	32875
541.039	31891
541.105	34181
541.171	28052
541.237	26980
541.303	26497
541.369	29272
541.435	30015
541.500	42303
541.566	34530
541.632	24046
541.698	22738
541.764	25168
541.830	22981
541.896	23139
541.961	24291
542.027	25781
542.093	25652
542.159	26423
542.224	24700
542.290	29929
542.356	37908
542.421	49354
542.487	31390
542.553	26417
542.618	26249
542.684	26626
542.750	28222
542.815	30253
542.881	38853
542.947	117201
543.012	115210
543.078	29984
543.143	25563
543.209	27275
543.274	28557
543.340	29436
543.405	50967
543.471	95211
543.536	34587
543.602	26075
543.667	24063
543.732	26260
543.798	23307
543.863	24943
543.928	23871
543.994	23526
544.059	23415
544.124	25619
544.190	24947
544.255	26173
544.320	26621
544.386	27574
544.451	31573
544.516	36308
544.581	35472
544.646	73546
544.712	139255
544.777	40274
544.842	27684
544.907	26631
544.972	26477
545.037	27285
545.102	27588
545.168	28128
545.233	29046
545.298	31155
545.363	30539
545.428	34038
545.493	48680
545.558	110099
545.623	59517
545.688	29545
545.753	28282
545.818	28038
545.883	28964
545.947	29048
546.012	30348
546.077	30790
546.142	31933
546.207	32219
546.272	36536
546.337	38111
546.401	34607
546.466	35384
546.531	33777
546.596	36968
546.661	37261
546.725	38938
546.790	37533
546.855	42105
546.919	41899
546.984	46953
547.049	49375
547.113	54640
547.178	57863
547.243	63480
547.307	71607
547.372	79895
547.436	78930
547.501	81429
547.565	88443
547.630	87070
547.695	83054
547.759	80961
547.823	78976
547.888	81511
547.952	83568
548.017	84112
548.081	88865
548.146	87676
548.210	88329
548.274	92245
548.339	94519
548.403	86295
548.468	81272
548.532	81434
548.596	81450
548.660	81946
548.725	86739
548.789	97089
548.853	95710
548.917	88969
548.982	89184
549.046	82067
549.110	74155
549.174	75113
549.238	82308
549.303	91494
549.367	95415
549.431	91969
549.495	86232
549.559	85967
549.623	95037
549.687	109621
549.751	117103
549.815	123527
549.879	123707
549.943	118806
550.007	123807
550.071	125491
550.135	123103
550.199	110836
550.263	106768
550.327	98743
550.391	100481
550.455	109914
550.519	115090
550.582	122306
550.646	145837
550.710	153298
550.774	138004
550.838	138176
550.901	140254
550.965	148467
551.029	150528
551.093	160708
551.156	167634
551.220	180291
551.284	201606
551.347	171176
551.411	149348
551.475	144893
551.538	146869
551.602	140518
551.666	132129
551.729	125599
551.793	121251
551.856	119073
551.920	116591
551.983	117540
552.047	115981
552.110	116697
552.174	115348
552.237	120030
552.301	112900
552.364	108352
552.428	103196
552.491	106927
552.554	111139
552.618	109220
552.681	113358
552.745	109239
552.808	118221
552.871	137904
552.934	121079
552.998	111793
553.061	108962
553.124	105533
553.187	103767
553.251	106821
553.314	107160
553.377	106718
553.440	112320
553.503	118411
553.567	123364
553.630	114204
553.693	112227
553.756	114017
553.819	110718
553.882	106314
553.945	106591
554.008	106835
554.071	107839
554.134	109961
554.197	103727
554.260	101083
554.323	104210
554.386	104811
554.449	108240
554.512	110115
554.575	103542
554.638	101882
554.701	99915
554.764	101824
554.827	96949
554.889	94374
554.952	89206
555.015	88437
555.078	88836
555.141	92770
555.203	89362
555.266	89356
555.329	90426
555.391	86754
555.454	86421
555.517	81745
555.580	78360
555.642	77301
555.705	75497
555.768	75179
555.830	74421
555.893	71278
555.955	69059
556.018	70339
556.080	68864
556.143	70071
556.206	69297
556.268	68270
556.330	67864
556.393	67697
556.455	64346
556.518	65725
556.580	63025
556.643	60405
556.705	60088
556.767	58015
556.830	58653
556.892	59888
556.955	67808
557.017	62187
557.079	55482
557.142	55240
557.204	56512
557.266	70174
557.328	67374
557.391	50171
557.453	46016
557.515	48495
557.577	50594
557.639	54125
557.701	48149
557.764	47275
557.826	48942
557.888	50834
557.950	50384
558.012	54486
558.074	59921
558.136	97617
558.198	246554
558.260	128723
558.322	55195
558.384	53613
558.446	58668
558.508	63725
558.570	72059
558.632	92985
558.694	124826
558.756	129118
558.818	280822
558.880	762544
558.942	361757
559.003	257552
559.065	167356
559.127	70436
559.189	66699
559.251	69950
559.312	84317
559.374	154907
559.436	516179
559.498	366900
559.559	82060
559.621	67013
559.683	68846
559.744	92366
559.806	240585
559.868	456147
559.929	129042
559.991	68232
560.052	84709
560.114	219730
560.176	179349
560.237	122595
560.299	234939
560.360	78945
560.422	38314
560.483	34584
560.545	32451
560.606	31617
560.667	29603
560.729	30257
560.790	29125
560.852	30010
560.913	28941
560.974	29119
561.036	29010
561.097	30407
561.158	28900
561.220	30536
561.281	29756
561.342	30958
561.403	33080
561.465	36759
561.526	58435
561.587	82293
561.648	36375
561.709	31139
561.771	29303
561.832	29094
561.893	29966
561.954	28684
562.015	28741
562.076	28329
562.137	28742
562.198	29364
562.259	29354
562.320	30063
562.381	31826
562.442	37901
562.503	35075
562.564	29393
562.625	28071
562.686	28925
562.747	29304
562.808	30744
562.869	27429
562.930	28250
562.991	27636
563.051	28301
563.112	26992
563.173	27852
563.234	25571
563.294	28326
563.355	27055
563.416	27156
563.477	27028
563.537	27618
563.598	26879
563.659	26792
563.720	27102
563.780	27958
563.841	27668
563.901	27384
563.962	25506
564.023	26963
564.083	27079
564.144	26250
564.204	26148
564.265	26873
564.325	25052
564.386	28455
564.446	28490
564.507	26681
564.567	25896
564.628	26311
564.688	27185
564.749	27440
564.809	28672
564.869	28270
564.930	27761
564.990	28443
565.050	28252
565.111	28768
565.171	27006
565.231	27471
565.292	27228
565.352	27054
565.412	26295
565.472	27607
565.532	28053
565.593	28803
565.653	27064
565.713	28850
565.773	28799
565.833	31658
565.893	35091
565.953	28164
566.013	27324
566.074	27407
566.134	27675
566.194	30236
566.254	32595
566.314	29206
566.374	27128
566.434	27896
566.494	28475
566.554	28222
566.614	28202
566.673	29165
566.733	28250
566.793	29302
566.853	30795
566.913	29451
566.973	30243
567.033	30100
567.092	30440
567.152	30309
567.212	29031
567.272	29944
567.331	29040
567.391	29979
567.451	29751
567.511	31237
567.570	31336
567.630	29858
567.690	29150
567.749	29886
567.809	29677
567.868	32777
567.928	32408
567.988	34629
568.047	37012
568.107	40013
568.166	47754
568.226	66312
568.285	91097
568.345	75394
568.404	57647
568.464	51527
568.523	47673
568.582	48423
568.642	52657
568.701	60275
568.761	83369
568.820	134928
568.879	127259
568.939	86732
568.998	64523
569.057	53039
569.116	43793
569.176	39270
569.235	35322
569.294	33655
569.353	31545
569.413	30954
569.472	29189
569.531	29317
569.590	28736
569.649	28073
569.708	26523
569.767	28479
569.827	30267
569.886	30721
569.945	26562
570.004	26909
570.063	26346
570.122	28542
570.181	28912
570.240	28344
570.299	27981
570.358	31277
570.417	27797
570.475	26352
570.534	26655
570.593	27675
570.652	28077
570.711	29697
570.770	25068
570.829	26329
570.887	26514
570.946	29569
571.005	26216
571.064	26314
571.122	26230
571.181	24935
571.240	24873
571.299	23603
571.357	24147
571.416	24997
571.475	24083
571.533	25401
571.592	24859
571.650	24034
571.709	23947
571.768	25794
571.826	25084
571.885	24801
571.943	23261
572.002	24331
572.060	23263
572.119	22897
572.177	23657
572.236	23442
572.294	22673
572.352	24863
572.411	23309
572.469	23994
572.528	22929
572.586	23998
572.644	25242
572.703	29599
572.761	24538
572.819	23493
572.877	22316
572.936	22334
572.994	21162
573.052	22540
573.110	21848
573.169	22811
573.227	22001
573.285	22444
573.343	21730
573.401	21419
573.459	21238
573.517	22060
573.576	21862
573.634	22275
573.692	21993
573.750	22336
573.808	21250
573.866	20634
573.924	21444
573.982	21921
574.040	21264
574.098	21346
574.155	20865
574.213	20399
574.271	21531
574.329	22363
574.387	21728
574.445	20694
574.503	20513
574.560	20751
574.618	19749
574.676	19745
574.734	19984
574.792	21275
574.849	20995
574.907	19542
574.965	19255
575.022	19629
575.080	18459
575.138	20296
575.195	20060
575.253	20178
575.311	20834
575.368	19809
575.426	19690
575.483	19712
575.541	19457
575.598	19047
575.656	19235
575.713	19806
575.771	19052
575.828	20022
575.886	19063
575.943	19779
576.001	19461
576.058	19059
576.115	18328
576.173	19947
576.230	20176
576.287	23691
576.345	20169
576.402	19524
576.459	18935
576.517	18654
576.574	19134
576.631	19334
576.688	18786
576.746	18675
576.803	19034
576.860	19904
576.917	17753
576.974	18848
577.031	19085
577.089	18362
577.146	18657
577.203	18674
577.260	17873
577.317	19221
577.374	18515
577.431	18039
577.488	18023
577.545	18378
577.602	18042
577.659	19319
577.716	17730
577.773	18254
577.830	17674
577.886	17812
577.943	17926
578.000	17902
578.057	18708
578.114	19007
578.171	17232
578.227	18669
578.284	17619
578.341	19008
578.398	18323
578.454	18556
578.511	18807
578.568	19127
578.625	17807
578.681	18217
578.738	18070
578.794	18544
578.851	20687
578.908	21633
578.964	22604
579.021	23795
579.077	21043
579.134	20937
579.190	19844
579.247	20073
579.303	19318
579.360	19376
579.416	20798
579.473	19896
579.529	18410
579.586	19749
579.642	20000
579.698	19584
579.755	19441
579.811	19829
579.867	20329
579.924	19447
579.980	18647
580.036	19988
580.093	20138
580.149	21250
580.205	19264
580.261	21155
580.317	20118
580.374	21032
580.430	20673
580.486	22023
580.542	20537
580.598	20149
580.619	20368
580.654	20779
580.692	20871
580.710	20957
580.765	21075
580.767	21109
580.823	21107
580.838	20956
580.879	20642
580.911	20730
580.935	20848
580.984	21151
580.991	21222
581.047	20260
581.057	20253
581.103	20337
581.130	20141
581.159	19986
581.203	19887
581.215	19890
581.270	20367
581.276	20242
581.326	19269
581.349	19600
581.382	20142
581.422	20308
581.438	20399
581.494	19691
581.494	19668
581.550	19361
581.567	19875
581.606	20987
581.640	20111
581.661	19650
581.713	21098
581.717	21224
581.773	20895
581.786	20746
581.829	20295
581.859	20406
581.885	20563
581.932	21975
581.940	22268
581.996	21270
582.004	21264
582.052	21226
582.077	20607
582.107	19970
582.150	20739
582.163	20946
582.219	20883
582.223	20825
582.274	20411
582.296	20350
582.330	20262
582.368	20979
582.386	21346
582.441	20860
582.441	20868
582.497	19964
582.514	20193
582.552	20980
582.587	21055
582.608	21042
582.659	20622
582.663	20592
582.719	21087
582.732	20928
582.774	20591
582.805	20615
582.830	20610
582.877	20783
582.885	20792
582.941	20584
582.950	20582
582.996	20865
583.023	21960
583.052	23061
583.095	21643
583.107	21283
583.162	21398
583.168	21360
583.218	20897
583.240	20849
583.273	20925
583.313	20854
583.328	20789
583.384	20955
583.385	20891
583.439	18910
583.458	19264
583.494	20045
583.531	19724
583.549	19632
583.603	20778
583.605	20801
583.660	19722
583.676	19810
583.715	20075
583.748	19513
583.770	19096
583.820	19927
583.825	20022
583.881	19922
583.893	19851
583.936	19540
583.965	19365
583.991	19142
584.038	19844
584.046	19956
584.101	18858
584.110	18969
584.156	19672
584.183	19568
584.211	19313
584.255	19609
584.266	19689
584.321	18990
584.328	19076
584.376	19916
584.400	19857
584.431	19662
584.472	19469
584.486	19381
584.541	20828
584.545	20808
584.596	20351
584.617	20448
584.651	20540
584.689	20810
584.706	20961
584.761	21214
584.762	21228
584.816	21195
584.834	21132
584.871	20867
584.906	21456
584.926	21894
584.978	21504
584.980	21475
585.035	22677
585.051	23180
585.090	24473
585.123	25071
585.145	25458
585.195	25639
585.200	25682
585.254	27257
585.267	28120
585.309	30846
585.340	32531
585.364	33899
585.412	36641
585.419	37106
585.473	41457
585.484	42569
585.528	49066
585.556	55936
585.583	70437
585.628	105199
585.637	119635
585.692	242092
585.700	267720
585.747	376383
585.772	342367
585.801	232871
585.845	89395
585.856	70781
585.910	42124
585.917	39387
585.965	33839
585.989	31501
586.019	29620
586.061	28530
586.074	28377
586.128	28127
586.133	28101
586.183	28224
586.205	28550
586.237	28133
586.277	26717
586.292	26285
586.346	26532
586.349	26565
586.401	26807
586.421	26536
586.455	26452
586.493	26652
586.509	26609
586.564	27612
586.565	27660
586.618	30047
586.637	31053
586.672	31677
586.709	31691
586.727	31976
586.781	34247
586.781	34216
586.835	31024
586.853	30438
586.889	30170
586.925	29639
586.944	29230
586.996	29563
586.998	29561
587.052	30416
587.068	30774
587.106	31255
587.140	31347
587.161	31389
587.212	31718
587.215	31689
587.269	33058
587.284	33141
587.323	33262
587.356	33851
587.377	34325
587.427	36464
587.431	36572
587.485	37228
587.499	37606
587.539	38269
587.571	38535
587.593	39012
587.643	41345
587.648	41459
587.702	42546
587.715	43022
587.755	44790
587.786	45826
587.810	46594
587.858	49003
587.864	49240
587.917	53253
587.930	53992
587.971	56497
588.001	58535
588.025	60443
588.073	65212
588.079	65956
588.133	73771
588.145	75643
588.187	81980
588.217	87078
588.241	91668
588.288	101547
588.295	103147
588.348	118933
588.360	122832
588.402	138067
588.431	149035
588.456	158959
588.503	181447
588.510	185420
588.564	220444
588.575	229283
588.617	269683
588.646	300322
588.671	337048
588.718	416822
588.725	436572
588.778	609945
588.789	649576
588.832	898282
588.861	1074660
588.886	1224623
588.932	1466178
588.939	1464453
588.993	1344914
589.004	1341266
589.047	1329697
589.075	1268238
589.100	1096099
589.147	731582
589.154	701854
589.207	508525
589.218	474670
589.261	427471
589.290	404211
589.314	412466
589.361	444833
589.368	460476
589.421	610487
589.433	647721
589.475	915313
589.504	1108152
589.528	1213332
589.576	1345532
589.582	1328541
589.635	1177932
589.647	1129167
589.689	798540
589.718	556336
589.742	453749
589.790	281412
589.795	271682
589.849	198901
589.861	183929
589.902	155298
589.932	136435
589.955	125436
590.004	105166
590.009	103749
590.062	91266
590.075	88509
590.115	80668
590.146	75193
590.168	72467
590.218	67039
590.222	66561
590.275	62153
590.289	61046
590.328	57812
590.360	55551
590.381	54088
590.431	51155
590.435	50947
590.488	48715
590.503	48292
590.541	47255
590.574	46479
590.594	45573
590.645	43550
590.647	43400
590.700	41373
590.716	40851
590.753	40360
590.787	40289
590.806	39767
590.859	38508
590.859	38430
590.912	38177
590.930	38304
590.965	37887
591.001	37640
591.018	37221
591.071	36180
591.072	36246
591.124	35045
591.143	34782
591.177	35008
591.214	35150
591.230	35152
591.283	35942
591.285	36030
591.336	36012
591.356	36241
591.389	35768
591.427	35093
591.442	34449
591.495	32455
591.498	32384
591.547	31159
591.569	30709
591.600	30665
591.640	30795
591.653	30614
591.706	30152
591.711	30185
591.759	30065
591.782	30135
591.811	30188
591.853	30440
591.864	30325
591.917	30165
591.924	30195
591.969	29652
591.995	29580
592.022	29461
592.066	29424
592.075	29389
592.127	29642
592.137	29757
592.180	29936
592.208	30261
592.233	29627
592.279	28558
592.285	28603
592.338	29739
592.350	30059
592.390	29265
592.421	28843
592.443	28901
592.491	29264
592.495	29128
592.548	28368
592.562	28239
592.600	28099
592.633	28154
592.653	28044
592.704	27826
592.705	27999
592.775	28853
592.846	29593
592.916	31637
592.987	33529
593.058	31348
593.128	28411
593.199	27873
593.270	28347
593.341	29262
593.411	29862
593.482	30851
593.553	30100
593.623	29850
593.694	29818
593.764	29028
593.835	28839
593.906	29598
593.976	30548
594.047	31689
594.117	32526
594.188	33242
594.258	31247
594.329	31681
594.399	32276
594.470	33709
594.540	33485
594.611	33523
594.681	33903
594.751	34412
594.822	35668
594.892	37295
594.963	36534
595.033	37568
595.103	37893
595.174	39322
595.244	40904
595.314	43156
595.384	39546
595.455	41702
595.525	40849
595.595	42866
595.665	43419
595.736	41416
595.806	41799
595.876	42543
595.946	42727
596.016	44954
596.087	46243
596.157	45407
596.227	46421
596.297	46637
596.367	50294
596.437	53260
596.507	54891
596.577	53922
596.647	54101
596.717	57620
596.787	57151
596.857	57691
596.927	57179
596.997	57482
597.067	57584
597.137	59600
597.207	60848
597.277	61047
597.347	57362
597.417	56516
597.487	57512
597.557	59383
597.626	60035
597.696	60882
597.766	58964
597.836	57934
597.906	54322
597.975	51435
598.045	52793
598.115	55424
598.185	58074
598.254	65927
598.324	72636
598.394	75366
598.464	72894
598.533	69301
598.603	64312
598.672	63259
598.742	64435
598.812	64905
598.881	65493
598.951	64126
599.020	64472
599.090	67621
599.159	68836
599.229	66320
599.299	64246
599.368	66833
599.437	64601
599.507	60767
599.576	59176
599.646	58030
599.715	57568
599.785	55766
599.854	54955
599.924	54182
599.993	53466
600.062	54615
600.132	55599
600.201	60575
600.270	71155
600.340	74999
600.409	70409
600.478	70339
600.547	71186
600.617	67412
600.686	53389
600.755	50904
600.824	50138
600.894	47571
600.963	44392
601.032	44915
601.101	43866
601.170	41821
601.239	41418
601.308	44794
601.378	42874
601.447	41938
601.516	41543
601.585	44646
601.654	49890
601.723	43335
601.792	43423
601.861	45230
601.930	49385
601.999	53154
602.068	51048
602.137	57259
602.206	55709
602.275	53068
602.343	55953
602.412	58416
602.481	51021
602.550	49707
602.619	51196
602.688	52869
602.756	51868
602.825	53322
602.894	52568
602.963	53316
603.032	54682
603.100	54686
603.169	54249
603.238	55646
603.307	55858
603.375	56476
603.444	56299
603.513	58409
603.581	57715
603.650	61074
603.719	56248
603.787	58852
603.856	61263
603.924	63851
603.993	65382
604.061	66918
604.130	69853
604.198	73180
604.267	72258
604.335	75032
604.404	73494
604.472	75364
604.541	75061
604.609	77090
604.678	77702
604.746	76898
604.815	79531
604.883	81759
604.951	80914
605.020	81617
605.088	82456
605.156	84515
605.225	86340
605.293	86013
605.361	86470
605.429	86863
605.498	89599
605.566	93827
605.634	96521
605.702	98636
605.771	101549
605.839	103285
605.907	98851
605.975	96450
606.043	94322
606.111	93478
606.180	93957
606.248	93265
606.316	91994
606.384	94609
606.452	96625
606.520	106106
606.588	101246
606.656	97401
606.724	95978
606.792	91693
606.860	80654
606.928	73755
606.996	69599
607.064	70207
607.132	70607
607.200	75109
607.267	78139
607.335	78550
607.403	81786
607.471	79291
607.539	76144
607.607	78623
607.674	68946
607.742	70271
607.810	69419
607.878	68808
607.946	69099
608.013	74066
608.081	74024
608.149	76258
608.216	76877
608.284	80535
608.352	78244
608.419	78191
608.487	78333
608.555	75687
608.622	77145
608.690	82286
608.757	91115
608.825	94709
608.893	93118
608.960	90600
609.028	87375
609.095	84351
609.163	82172
609.230	74277
609.298	66847
609.365	70520
609.432	75999
609.500	82223
609.567	94219
609.635	108793
609.702	116164
609.769	110923
609.837	88279
609.904	73394
609.971	78005
610.039	89353
610.106	120645
610.173	242369
610.241	585569
610.308	373710
610.375	112801
610.442	83523
610.509	77375
610.577	76355
610.644	76487
610.711	79868
610.778	82003
610.845	84930
610.912	89165
610.980	94082
611.047	93726
611.114	92376
611.181	89522
611.248	87398
611.315	92909
611.382	95122
611.449	99161
611.516	100520
611.583	100078
611.650	99428
611.717	101533
611.784	106165
611.851	111999
611.918	123650
611.984	146028
612.051	215700
612.118	456321
612.185	1154179
612.252	838559
612.319	198143
612.386	142794
612.452	125783
612.519	117369
612.586	114057
612.653	115425
612.719	120440
612.786	115138
612.853	105664
612.919	103002
612.986	104811
613.053	97397
613.120	92067
613.186	87858
613.253	90507
613.319	88162
613.386	90225
613.453	91370
613.519	97041
613.586	101338
613.652	119511
613.719	107876
613.785	105126
613.852	94358
613.918	90930
613.985	92135
614.051	97737
614.118	100243
614.184	97835
614.250	90950
614.317	93691
614.383	90359
614.449	94025
614.516	93248
614.582	92211
614.648	92742
614.715	90202
614.781	89394
614.847	89393
614.914	88202
614.980	87019
615.046	86268
615.112	89259
615.179	89542
615.245	91642
615.311	94012
615.377	102754
615.443	107684
615.509	97111
615.575	98078
615.642	97070
615.708	99322
615.774	106854
615.840	113109
615.906	129853
615.972	168556
616.038	276560
616.104	580242
616.170	1347254
616.236	1303762
616.302	304643
616.368	197997
616.434	141383
616.500	123594
616.565	135495
616.631	174900
616.697	144482
616.763	143864
616.829	218448
616.895	411273
616.961	418323
617.026	173757
617.092	107164
617.158	96210
617.224	94192
617.289	86910
617.355	82655
617.421	79043
617.487	80053
617.552	76972
617.618	74126
617.684	72859
617.749	76433
617.815	71612
617.880	70095
617.946	68310
618.012	71330
618.077	73200
618.143	69366
618.208	69008
618.274	76076
618.339	76776
618.405	63279
618.470	60598
618.536	61827
618.601	62280
618.667	56623
618.732	52373
618.798	54625
618.863	52186
618.928	52727
618.994	55026
619.059	58307
619.124	70807
619.190	60877
619.255	51165
619.320	51518
619.386	52570
619.451	51870
619.516	48378
619.581	50562
619.647	51311
619.712	52968
619.777	50235
619.842	50803
619.907	51041
619.972	51751
620.038	53262
620.103	50611
620.168	48851
620.233	49931
620.298	49480
620.363	50580
620.428	52758
620.493	53497
620.558	54149
620.623	54825
620.688	53375
620.753	54641
620.818	54458
620.883	56585
620.948	55179
621.013	55028
621.078	55220
621.143	54574
621.207	56484
621.272	55854
621.337	55160
621.402	52618
621.467	53574
621.532	53864
621.596	53209
621.661	51975
621.726	49704
621.791	50547
621.855	52962
621.920	53947
621.985	51106
622.049	53599
622.114	53015
622.179	53188
622.243	53312
622.308	55762
622.373	59161
622.437	58248
622.502	53652
622.566	53889
622.631	52141
622.695	54232
622.760	54049
622.824	54528
622.889	55441
622.953	60118
623.018	76314
623.082	80049
623.147	59139
623.211	58098
623.276	58678
623.340	53721
623.404	51708
623.469	51283
623.533	52739
623.597	50570
623.662	51390
623.726	46823
623.790	44322
623.854	42852
623.919	43785
623.983	44616
624.047	46060
624.111	46166
624.176	47365
624.240	49783
624.304	53522
624.368	48301
624.432	47621
624.496	49546
624.560	54872
624.625	59256
624.689	52588
624.753	53784
624.817	50269
624.881	48883
624.945	45099
625.009	43748
625.073	45174
625.137	49416
625.201	58115
625.265	59576
625.329	47695
625.393	49420
625.456	47797
625.520	49951
625.584	49134
625.648	52385
625.712	54015
625.776	61168
625.839	61325
625.903	44956
625.967	38402
626.031	44037
626.095	54349
626.158	47098
626.222	35716
626.286	34019
626.349	31314
626.413	29999
626.477	32738
626.540	31101
626.604	30664
626.668	30268
626.731	29248
626.795	29615
626.858	28762
626.922	28406
626.986	28131
627.049	28676
627.113	29247
627.176	29406
627.240	27019
627.303	28051
627.366	27853
627.430	28302
627.493	28534
627.557	27334
627.620	28874
627.684	29664
627.747	30251
627.810	26115
627.874	25248
627.937	23195
628.000	26614
628.064	24658
628.127	21148
628.190	22545
628.253	21511
628.317	19736
628.380	19889
628.443	19180
628.506	19968
628.569	18981
628.632	17448
628.696	18666
628.759	17550
628.822	16483
628.885	16290
628.948	17889
629.011	16659
629.074	17050
629.137	16202
629.200	15273
629.263	17523
629.326	15054
629.389	14690
629.452	15320
629.515	15278
629.578	15317
629.641	15884
629.704	16108
629.767	16209
629.830	14827
629.892	14867
629.955	14862
630.018	17033
630.081	18630
630.144	24394
630.207	18177
630.269	17673
630.332	13135
630.395	13319
630.458	13882
630.520	13316
630.583	14972
630.646	13176
630.708	13910
630.771	13376
630.834	15685
630.896	14383
630.959	14831
631.021	13759
631.084	14336
631.146	14253
631.209	15109
631.272	13992
631.334	14709
631.397	14395
631.459	15885
631.522	17731
631.584	17454
631.646	18426
631.709	20647
631.771	24121
631.834	20871
631.896	17250
631.958	16261
632.021	15311
632.083	13908
632.145	14699
632.208	14743
632.270	15514
632.332	12673
632.395	12645
632.457	14515
632.519	12901
632.581	14476
632.643	12451
632.706	13562
632.768	12039
632.830	13153
632.892	13053
632.954	13085
633.016	13896
633.078	13654
633.141	12580
633.203	13533
633.265	13246
633.327	13678
633.389	12867
633.451	16050
633.513	19229
633.575	16954
633.637	18031
633.698	18780
633.760	15517
633.822	15429
633.884	16371
633.946	16155
634.008	16061
634.070	18339
634.132	18424
634.193	20530
634.255	23416
634.317	23920
634.379	23346
634.441	19559
634.502	16966
634.564	16419
634.626	15289
634.687	14652
634.749	13551
634.811	13704
634.873	13072
634.934	12863
634.996	12620
635.057	13481
635.119	12842
635.181	14098
635.242	14260
635.304	12406
635.365	15335
635.427	14132
635.488	14186
635.550	13691
635.611	14702
635.673	12466
635.734	15203
635.796	16721
635.857	19283
635.918	18513
635.980	21843
636.041	22686
636.102	25855
636.164	25723
636.225	24521
636.286	20718
636.348	18519
636.409	16265
636.470	14894
636.531	14132
636.593	12688
636.654	12844
636.715	12210
636.776	12414
636.838	10693
636.899	13144
636.960	11299
637.021	10716
637.082	9857
637.143	11143
637.204	10052
637.265	10536
637.326	10901
637.387	11295
637.448	9275
637.509	11294
637.570	10116
637.631	11599
637.692	9527
637.753	9030
637.814	9581
637.875	10041
637.936	10726
637.997	9394
638.058	10195
638.119	10520
638.179	9616
638.240	9092
638.301	9168
638.362	8903
638.423	7958
638.483	9984
638.544	8067
638.605	8785
638.666	8643
638.726	8487
638.787	8518
638.848	8667
638.908	8118
638.969	9374
639.030	8720
639.090	8424
639.151	8565
639.211	10548
639.272	13829
639.332	24815
639.393	15187
639.453	9622
639.514	10093
639.574	9441
639.635	8331
639.695	8743
639.756	8237
639.816	10162
639.877	12683
639.937	22443
639.997	31660
640.058	11914
640.118	7494
640.178	9394
640.239	8370
640.299	7786
640.359	8244
640.420	9024
640.480	9812
640.540	11912
640.600	12538
640.661	11846
640.721	10370
640.781	14997
640.841	8301
640.901	8636
640.961	9240
641.021	10520
641.082	13629
641.142	19349
641.202	12815
641.262	7222
641.322	8137
641.382	7077
641.442	7310
641.502	7440
641.562	8257
641.622	7876
641.682	9083
641.742	10894
641.802	9193
641.861	9938
641.921	8919
641.981	10722
642.041	10531
642.101	13217
642.161	9376
642.221	7144
642.280	6384
642.340	7457
642.400	6018
642.460	8243
642.519	6776
642.579	6835
642.639	7949
642.698	5866
642.758	9127
642.818	8541
642.877	7215
642.937	8654
642.997	10318
643.056	15353
643.116	9760
643.175	8167
643.235	8140
643.294	8269
643.354	8476
643.414	11264
643.473	12783
643.532	17597
643.592	24656
643.651	41313
643.711	75969
643.770	154889
643.830	372866
643.889	866845
643.948	245991
644.008	37278
644.067	20627
644.126	14282
644.186	12110
644.245	11091
644.304	8178
644.363	10002
644.423	7577
644.482	8667
644.541	9216
644.600	8567
644.659	12122
644.719	15354
644.778	25269
644.837	45039
644.896	94489
644.955	241676
645.014	91787
645.073	17165
645.132	11210
645.191	10662
645.250	8841
645.309	10206
645.368	10299
645.427	15109
645.486	22981
645.545	48628
645.604	15869
645.663	9168
645.722	7509
645.781	10091
645.840	11419
645.898	14976
645.957	23094
646.016	37488
646.075	72619
646.134	149271
646.192	389800
646.251	662643
646.310	111939
646.369	24646
646.427	19009
646.486	12639
646.545	9133
646.603	9136
646.662	8346
646.721	8754
646.779	7766
646.838	7683
646.896	11655
646.955	16011
647.014	26214
647.072	51336
647.131	149250
647.189	83873
647.248	10950
647.306	8771
647.365	7088
647.423	5329
647.481	6973
647.540	4784
647.598	5837
647.657	5138
647.715	5679
647.773	4730
647.832	5472
647.890	4435
647.948	4560
648.007	5757
648.065	4011
648.123	4791
648.181	5770
648.240	5001
648.298	3466
648.356	3751
648.414	5436
648.472	4373
648.531	4067
648.589	4309
648.647	4000
648.705	5073
648.763	4401
648.821	5816
648.879	4887
648.937	6375
648.995	7210
649.053	10925
649.111	18443
649.169	32644
649.227	61121
649.285	129191
649.343	394347
649.401	225247
649.459	45704
649.516	27430
649.574	10792
649.632	12175
649.690	11424
649.748	13685
649.806	17975
649.863	34657
649.921	101536
649.979	80766
650.037	10381
650.094	4342
650.152	5065
650.210	3850
650.268	4795
650.325	5110
650.383	4291
650.440	3552
650.498	3521
650.556	3920
650.613	3268
650.671	3734
650.728	3624
650.786	3937
650.843	4744
650.901	3987
650.958	3377
651.016	3335
651.073	2817
651.131	2627
651.188	2188
651.246	3263
651.303	2163
651.360	3080
651.418	1710
651.475	2925
651.532	1480
651.590	3291
651.647	1736
651.704	2433
651.762	2100
651.819	3433
651.876	2533
651.933	2395
651.990	3181
652.048	1433
652.105	1657
652.162	2627
652.219	2273
652.276	3765
652.333	3351
652.390	2400
652.448	2436
652.505	2046
652.562	2385
652.619	2450
652.676	2880
652.733	4216
652.790	1653
652.847	1685
652.904	2094
652.961	1151
653.017	552
653.074	3575
653.131	2747
653.188	1769
653.245	3173
653.302	2288
653.359	2155
653.415	3102
653.472	1977
653.529	3012
653.586	1223
653.642	2299
653.699	2056
653.756	2865
653.813	1916
653.869	3204
653.926	1569
653.983	2561
654.039	2594
654.096	2183
654.152	3029
654.209	1496
654.266	2818
654.322	1605
654.379	2775
654.435	3419
654.492	3055
654.548	4811
654.605	7033
654.661	4329
654.717	1620
654.774	2399
654.830	2318
654.887	2240
654.943	1613
655.000	1844
655.056	2396
655.112	2226
655.168	805
655.225	2681
655.281	2257
655.337	2826
655.394	2307
655.450	2556
655.506	1860
655.562	1824
655.618	3722
655.675	1535
655.731	2593
655.787	1626
655.843	2509
655.899	1662
655.955	2014
656.011	2278
656.067	1138
656.123	2712
656.179	2087
656.235	2542
656.291	575
656.347	4277
656.403	1060
656.459	2357
656.515	2362
656.571	2153
656.627	2167
656.683	2565
656.739	2735
656.795	2315
656.850	2071
656.906	4109
656.962	3584
657.018	2640
657.074	2783
657.129	3863
657.185	5719
657.241	11405
657.297	7517
657.352	3060
657.408	2084
657.464	3838
657.519	1768
657.575	1228
657.630	1281
657.686	1440
657.742	818
657.797	1905
657.853	1323
657.908	3185
657.964	1033
658.019	1404
658.075	731
658.130	2570
658.186	882
658.241	1985
658.297	1227
658.352	1867
658.407	1470
658.463	1356
658.518	1829
658.573	2157
658.629	404
658.684	1443
658.739	2129
658.795	1410
658.850	1798
658.905	1346
658.960	2131
659.016	984
659.071	1622
659.126	2567
659.181	2023
659.236	7353
659.291	7865
659.346	4107
659.401	2229
659.457	2672
659.512	1582
659.567	2893
659.622	1302
659.677	1651
659.732	1009
659.787	2145
659.842	797
659.897	1638
659.952	1795
660.007	1414
660.061	1978
660.116	529
660.171	844
660.226	2402
660.281	1791
660.336	902
660.391	2268
660.445	1269
660.500	1463
660.555	2210
660.610	663
660.664	2519
660.719	576
660.774	2680
660.828	1995
660.883	2793
660.938	1417
660.992	159
661.047	1771
661.101	1053
661.156	619
661.211	1625
661.265	1445
661.320	1476
661.374	1571
661.429	1422
661.483	1375
661.538	1376
661.592	1125
661.647	2192
661.701	958
661.755	1834
661.810	833
661.864	1164
661.919	1469
661.973	1693
662.027	981
662.081	65
662.136	950
662.190	1138
662.244	705
662.299	1518
662.353	1595
662.407	1136
662.461	2033
662.515	1401
662.569	1131
662.624	2279
662.678	-152
662.732	1581
662.786	642
662.840	1701
662.894	1777
662.948	1981
663.002	1142
663.056	1496
663.110	1050
663.164	966
663.218	1606
663.272	3064
663.326	2496
663.380	2437
663.434	1363
663.488	1624
663.542	1080
663.595	2267
663.649	1070
663.703	2202
663.757	1422
663.811	518
663.864	842
663.918	1614
663.972	680
664.026	1755
664.079	971
664.133	1347
664.187	1710
664.240	1945
664.294	1298
664.348	2274
664.401	2515
664.455	1158
664.508	489
664.562	2107
664.615	1406
664.669	1204
664.722	1392
664.776	1724
664.829	1769
664.883	1582
664.936	1484
664.990	952
665.043	1663
665.097	678
665.150	1527
665.203	355
665.257	1814
665.310	1971
665.363	1574
665.417	1756
665.470	1664
665.523	1570
665.576	1213
665.630	1668
665.683	1686
665.736	1520
665.789	1701
665.842	1121
665.895	1310
665.949	2056
666.002	1112
666.055	1630
666.108	1469
666.161	1501
666.214	1400
666.267	2492
666.320	3214
666.373	2062
666.426	1181
666.479	1424
666.532	1518
666.585	1512
666.638	2234
666.691	1656
666.744	1982
666.796	1466
666.849	1101
666.902	2253
666.955	2180
667.008	1843
667.060	1729
667.113	1665
667.166	1840
667.219	1472
667.271	1762
667.324	1557
667.377	819
667.430	2161
667.482	1208
667.535	2340
667.587	1326
667.640	2462
667.693	2417
667.745	7063
667.798	7875
667.850	2112
667.903	1399
667.955	1616
668.008	1388
668.060	2709
668.113	1059
668.165	1842
668.218	1641
668.270	1925
668.322	1256
668.375	1617
668.427	1292
668.479	1949
668.532	1624
668.584	1979
668.636	1524
668.689	2117
668.741	1448
668.793	1776
668.845	1046
668.898	1369
668.950	2298
669.002	2463
669.054	843
669.106	1105
669.158	1989
669.211	1094
669.263	1734
669.315	2384
669.367	1565
669.419	1836
669.471	2123
669.523	2302
669.575	2220
669.627	2477
669.679	1068
669.731	1733
669.783	1698
669.835	2293
669.886	1216
669.938	1426
669.990	1470
670.042	1847
670.094	1787
670.146	1793
670.197	1731
670.249	2739
670.301	2479
670.353	4227
670.404	4112
670.456	6293
670.508	10392
670.560	17768
670.611	29382
670.663	51913
670.715	121773
670.766	230584
670.818	80357
670.869	12435
670.921	5976
670.972	4841
671.024	3152
671.075	2756
671.127	2030
671.178	2955
671.230	2280
671.281	2745
671.333	2395
671.384	3264
671.436	3949
671.487	5774
671.538	7306
671.590	11664
671.641	18526
671.692	33900
671.744	67646
671.795	49625
671.846	14998
671.897	7024
671.949	4107
672.000	2794
672.051	2771
672.102	2660
672.153	1940
672.204	2008
672.256	2334
672.307	2129
672.358	1813
672.409	2249
672.460	1287
672.511	1428
672.562	1207
672.613	1485
672.664	1317
672.715	1927
672.766	1673
672.817	1526
672.868	927
672.919	1461
672.970	659
673.021	1480
673.071	287
673.122	1540
673.173	1670
673.224	1481
673.275	1279
673.326	1173
673.376	707
673.427	317
673.478	812
673.528	1441
673.579	1693
673.630	1081
673.680	1975
673.731	608
673.782	1184
673.832	1352
673.883	1167
673.934	1335
673.984	805
674.035	1236
674.085	1132
674.136	1445
674.186	731
674.237	1645
674.287	1159
674.338	1512
674.388	802
674.438	1669
674.489	867
674.539	1120
674.589	1564
674.640	2012
674.690	577
674.740	179
674.791	747
674.841	1483
674.891	942
674.942	1059
674.992	1652
675.042	1151
675.092	942
675.142	1297
675.193	1200
675.243	2084
675.293	1862
675.343	1237
675.393	619
675.443	1321
675.493	1020
675.543	880
675.593	398
675.643	818
675.693	94
675.743	955
675.793	870
675.843	1589
675.893	1210
675.943	1418
675.993	1116
676.043	910
676.093	1156
676.142	1441
676.192	498
676.242	1005
676.292	224
676.341	1152
676.391	892
676.441	357
676.491	746
676.540	721
676.590	1424
676.640	1283
676.689	184
676.739	558
676.789	309
676.838	713
676.888	535
676.937	1227
676.987	492
677.037	706
677.086	36
677.136	120
677.185	-67
677.235	883
677.284	1039
677.333	1195
677.383	816
677.432	532
677.482	938
677.531	1253
677.580	475
677.630	675
677.679	440
677.728	1139
677.778	896
677.827	986
677.876	703
677.925	909
677.975	654
678.024	954
678.073	-500
678.122	791
678.171	614
678.220	828
678.269	1166
678.319	1889
678.368	328
678.417	1372
678.466	146
678.515	1749
678.564	1112
678.613	801
678.662	510
678.711	245
678.760	704
678.809	526
678.857	1016
678.906	1276
678.955	837
679.004	1591
679.053	477
679.102	435
679.151	416
679.199	737
679.248	263
679.297	846
679.346	552
679.394	-45
679.443	-127
679.492	610
679.540	448
679.589	937
679.638	677
679.686	951
679.735	1132
679.784	915
679.832	814
679.881	62
679.929	590
679.978	690
680.026	608
680.075	973
680.123	-530
680.172	426
680.220	-138
680.268	214
680.317	815
680.365	320
680.414	782
680.462	580
680.510	934
680.559	724
680.607	126
680.655	1274
680.703	-562
680.752	-221
680.800	624
680.848	624
680.896	556
680.945	428
680.993	456
681.041	1074
681.089	157
681.137	321
681.185	191
681.233	22
681.258	382
681.281	712
681.329	749
681.377	371
681.380	387
681.425	509
681.473	926
681.502	655
681.521	442
681.569	142
681.617	1113
681.624	977
681.665	40
681.713	1026
681.745	1115
681.761	1138
681.809	205
681.857	473
681.867	509
681.904	600
681.952	690
681.989	1028
682.000	1113
682.048	1261
682.096	692
682.111	741
682.143	816
682.191	852
682.233	857
682.239	845
682.286	951
682.334	1033
682.354	769
682.382	393
682.430	1157
682.476	1620
682.477	1622
682.525	120
682.572	822
682.598	829
682.620	834
682.667	1202
682.715	1434
682.720	1418
682.763	1139
682.810	1690
682.841	1769
682.857	1780
682.905	673
682.952	1972
682.963	1757
683.000	977
683.047	1346
683.085	2041
683.095	2227
683.142	1459
683.190	1382
683.206	1284
683.237	1051
683.284	1066
683.328	1216
683.332	1224
683.379	1080
683.426	716
683.449	1027
683.473	1372
683.521	1740
683.568	1599
683.571	1639
683.615	1898
683.662	1915
683.693	1865
683.709	1874
683.757	828
683.804	1585
683.814	1593
683.851	1501
683.898	1688
683.936	1754
683.945	1788
683.992	1769
684.039	1790
684.057	2115
684.086	2603
684.133	2113
684.179	2613
684.180	2616
684.227	2118
684.274	2716
684.300	2769
684.321	2786
684.368	2207
684.415	2253
684.422	2247
684.462	2186
684.509	1487
684.543	1378
684.556	1359
684.603	2259
684.649	2175
684.665	2162
684.696	2072
684.743	2218
684.786	1811
684.790	1771
684.837	2291
684.883	1420
684.908	1512
684.930	1615
684.977	1821
685.023	2400
685.029	2355
685.070	1955
685.117	2296
685.150	2378
685.164	2403
685.210	2683
685.257	2413
685.272	2425
685.303	2452
685.350	2940
685.393	3070
685.396	3086
685.443	2712
685.490	3315
685.514	3431
685.536	3360
685.583	2739
685.629	2164
685.636	2285
685.675	3094
685.722	2668
685.757	2614
685.768	2611
685.815	2773
685.861	3247
685.878	2849
685.908	2111
685.954	2450
686.000	2687
686.000	2687
686.047	2825
686.093	3452
686.121	2852
686.139	2490
686.185	2356
686.232	2583
686.242	2541
686.278	2397
686.324	2696
686.363	2175
686.370	2075
686.416	2949
686.463	2346
686.484	2506
686.509	2690
686.555	2707
686.601	2765
686.606	2728
686.647	2382
686.693	3063
686.727	2768
686.739	2674
686.785	2851
686.831	2324
686.848	2624
686.877	3119
686.923	2765
686.969	3631
686.969	3635
687.015	2707
687.061	2627
687.090	2652
687.107	2693
687.153	2866
687.199	2709
687.211	2757
687.245	2876
687.291	3054
687.332	2779
687.336	2760
687.382	2931
687.428	2869
687.453	2903
687.474	2882
687.520	3177
687.565	2786
687.574	2848
687.611	3209
687.657	2969
687.695	3292
687.702	3332
687.748	3440
687.794	3858
687.816	3318
687.839	2795
687.885	3234
687.931	2854
687.937	2938
687.976	3563
688.022	3481
688.058	3662
688.067	3675
688.113	3774
688.158	3788
688.179	3770
688.204	3645
688.249	3545
688.295	2894
688.300	2905
688.340	3246
688.386	3497
688.421	3663
688.431	3705
688.477	3569
688.522	4327
688.542	4133
688.567	3905
688.613	3774
688.658	3760
688.663	3783
688.703	3843
688.749	3736
688.784	3928
688.794	4008
688.839	3478
688.884	3582
688.905	3519
688.930	3416
688.975	3619
689.020	3140
689.026	3184
689.065	3653
689.110	3297
689.146	3680
689.155	3765
689.201	3528
689.246	3225
689.267	3299
689.291	3404
689.336	4072
689.381	3543
689.388	3585
689.426	3761
689.471	3620
689.509	3863
689.516	3944
689.561	3628
689.606	4121
689.630	4039
689.651	3856
689.696	3753
689.741	3731
689.750	3808
689.785	4165
689.830	3681
689.871	3659
689.875	3665
689.920	3755
689.965	4109
689.992	3885
690.010	3754
690.054	3730
690.099	3698
690.112	3732
690.144	3909
690.189	3663
690.233	4296
690.233	4305
690.278	4016
690.323	4091
690.354	4064
690.367	4094
690.412	4286
690.457	4212
690.474	4327
690.501	4442
690.546	4266
690.590	4412
690.595	4360
690.635	4095
690.680	4240
690.716	4305
690.724	4318
690.769	4481
690.813	4175
690.836	4118
690.857	4176
690.902	4397
690.946	5024
690.957	5009
690.991	4939
691.035	5208
691.077	5211
691.080	5212
691.124	5629
691.168	5098
691.198	5147
691.213	5139
691.257	4772
691.301	4638
691.318	4611
691.346	4746
691.390	4884
691.434	4755
691.439	4778
691.478	4994
691.522	4652
691.559	4719
691.567	4774
691.611	5289
691.655	5559
691.680	5426
691.699	5150
691.743	5471
691.787	4929
691.800	4800
691.831	4664
691.875	4547
691.919	4982
691.921	4959
691.964	4462
692.008	4734
692.041	4416
692.052	4425
692.096	5072
692.139	5132
692.162	5224
692.183	5136
692.227	5103
692.271	4911
692.282	4841
692.315	4666
692.359	4788
692.402	4263
692.403	4271
692.447	4626
692.490	4556
692.523	4528
692.534	4529
692.578	4556
692.622	4775
692.643	4770
692.666	4721
692.709	4797
692.753	4550
692.763	4519
692.797	4709
692.840	4995
692.884	5219
692.884	5230
692.928	5055
692.971	5110
693.004	4942
693.015	4918
693.059	4976
693.102	4819
693.124	4870
693.146	5062
693.189	5149
693.233	5424
693.245	5430
693.276	5292
693.320	5369
693.363	5259
693.365	5251
693.407	5356
693.450	4880
693.485	5068
693.493	5145
693.537	5065
693.580	4982
693.605	4923
693.624	4979
693.667	5236
693.710	5612
693.725	5589
693.753	5898
693.797	6670
693.840	7542
693.845	7603
693.883	7355
693.926	7089
693.966	6649
693.970	6592
694.013	6218
694.056	5434
694.086	5158
694.099	5301
694.142	5579
694.185	5673
694.206	5797
694.229	5874
694.272	5925
694.315	6107
694.326	6091
694.358	6376
694.401	6881
694.444	7400
694.446	7394
694.487	7170
694.530	7199
694.566	7164
694.573	7073
694.616	6408
694.659	5529
694.686	5163
694.702	5272
694.745	5354
694.787	5513
694.806	5546
694.830	5681
694.873	5961
694.916	6085
694.926	6169
694.959	6411
695.002	6364
695.044	6433
695.046	6424
695.087	6500
695.130	6486
695.166	6360
695.172	6337
695.215	6228
695.258	5950
695.286	5872
695.301	5936
695.343	5983
695.386	6060
695.406	5952
695.428	5812
695.471	6021
695.514	6040
695.526	5955
695.556	6146
695.599	6734
695.641	7076
695.646	7104
695.684	6953
695.726	6824
695.766	6679
695.769	6691
695.811	6507
695.854	6365
695.886	6345
695.896	6408
695.938	6353
695.981	6539
696.005	6505
696.023	6514
696.065	6695
696.108	6650
696.125	6743
696.150	6921
696.192	6891
696.235	6960
696.245	7004
696.277	7224
696.319	7186
696.361	7333
696.365	7320
696.404	7208
696.446	7125
696.485	7054
696.488	7087
696.530	7127
696.572	7314
696.604	7389
696.614	7336
696.656	7021
696.698	6734
696.724	6547
696.740	6708
696.783	7007
696.825	7451
696.844	7555
696.867	7444
696.909	7374
696.951	7085
696.964	7074
696.992	7372
697.034	7488
697.076	7717
697.083	7732
697.118	7738
697.160	7794
697.202	7641
697.203	7620
697.244	7577
697.286	7432
697.323	7356
697.327	7401
697.369	7571
697.411	7784
697.442	7742
697.453	7767
697.494	8070
697.536	8326
697.562	8400
697.578	8407
697.620	8347
697.661	8414
697.682	8409
697.703	8729
697.744	9207
697.786	9924
697.801	10076
697.828	10079
697.869	10068
697.911	10083
697.921	10064
697.952	9454
697.994	8619
698.035	7790
698.040	7664
698.077	8025
698.118	8445
698.160	8841
698.160	8818
698.201	8850
698.243	8857
698.279	8832
698.284	8866
698.325	8980
698.367	9089
698.399	9109
698.408	9143
698.449	9205
698.491	9296
698.518	9311
698.532	9376
698.573	9503
698.614	9650
698.638	9697
698.656	9719
698.697	9721
698.738	9721
698.757	9684
698.779	9620
698.820	9479
698.862	9314
698.877	9234
698.903	9290
698.944	9330
698.985	9383
698.996	9371
699.026	9397
699.067	9404
699.116	9388
699.235	8371
699.354	8868
699.474	8347
699.593	8473
699.713	8898
699.832	9553
699.951	9837
700.070	10183
700.190	8494
700.309	8900
700.428	8291
700.547	8094
700.667	8088
700.786	9251
700.905	8961
701.024	8021
701.143	7348
701.262	8260
701.381	8645
701.500	8964
701.619	10149
701.738	9209
701.857	7779
701.976	8083
702.095	8129
702.214	9364
702.333	9948
702.452	7786
702.571	7866
702.690	8399
702.809	8175
702.928	8427
703.047	8176
703.165	8174
703.284	8016
703.403	7690
703.522	7685
703.640	8035
703.759	8845
703.878	9411
703.997	7816
704.115	7704
704.234	8045
704.353	7326
704.471	7011
704.590	7068
704.708	6460
704.827	6859
704.946	7097
705.064	6855
705.183	6530
705.301	6991
705.420	7267
705.538	7215
705.656	5923
705.775	6881
705.893	7405
706.012	7592
706.130	6295
706.249	7061
706.367	7087
706.485	6446
706.604	6977
706.722	7703
706.840	7768
706.958	7708
707.077	7167
707.195	6981
707.313	6374
707.431	6472
707.549	6071
707.668	5995
707.786	6541
707.904	6876
708.022	6060
708.140	6645
708.258	6342
708.376	6804
708.494	6364
708.612	6921
708.730	6844
708.848	7278
708.966	7159
709.084	7627
709.202	7498
709.320	6148
709.438	5948
709.556	6577
709.674	5504
709.791	5987
709.909	6720
710.027	6203
710.145	6264
710.263	5467
710.380	5319
710.498	5581
710.616	6683
710.733	6196
710.851	5962
710.969	6360
711.086	5617
711.204	6231
711.322	6184
711.439	6174
711.557	6892
711.674	5681
711.792	5498
711.909	5641
712.027	4673
712.144	5565
712.262	6540
712.379	5831
712.497	6565
712.614	6179
712.732	6681
712.849	6107
712.966	6710
713.084	10077
713.201	6640
713.318	6767
713.436	6547
713.553	6151
713.670	6149
713.787	6727
713.905	6658
714.022	6361
714.139	6523
714.256	9945
714.373	14090
714.490	26347
714.608	69786
714.725	323081
714.842	378049
714.959	25620
715.076	9972
715.193	8569
715.310	7188
715.427	6482
715.544	6507
715.661	6520
715.778	5463
715.895	6015
716.011	5792
716.128	6123
716.245	6108
716.362	9010
716.479	9231
716.596	6564
716.713	5598
716.829	6031
716.946	4767
717.063	5330
717.180	4847
717.296	5749
717.413	5794
717.530	5308
717.646	5857
717.763	5294
717.880	4778
717.996	4892
718.113	5986
718.229	5880
718.346	5183
718.462	5256
718.579	7892
718.695	16962
718.812	10131
718.928	5930
719.045	4278
719.161	4332
719.277	5214
719.394	5652
719.510	5499
719.626	6458
719.743	6864
719.859	10898
719.975	22668
720.092	93003
720.208	238784
720.324	29274
720.440	6842
720.557	7905
720.673	11728
720.789	10932
720.905	8361
721.021	5702
721.137	4982
721.253	4235
721.369	3967
721.486	4694
721.602	5132
721.718	4231
721.834	3986
721.950	5204
722.066	4393
722.181	4602
722.297	5058
722.413	5599
722.529	4814
722.645	4931
722.761	3952
722.877	4202
722.993	4545
723.108	4747
723.224	5050
723.340	4662
723.456	4252
723.571	4396
723.687	4266
723.803	4352
723.918	3843
724.034	4388
724.150	3741
724.265	4094
724.381	4668
724.497	5124
724.612	4128
724.728	4548
724.843	3646
724.959	3980
725.074	4316
725.190	5055
725.305	4157
725.421	3424
725.536	4252
725.651	4009
725.767	3500
725.882	4191
725.997	3915
726.113	4174
726.228	3964
726.343	3712
726.459	3639
726.574	3794
726.689	4143
726.804	4381
726.920	3128
727.035	3351
727.150	3572
727.265	3712
727.380	4034
727.495	4932
727.610	3160
727.725	4239
727.841	3623
727.956	3744
728.071	4185
728.186	3690
728.301	3706
728.416	3769
728.531	4026
728.645	3720
728.760	4631
728.875	5319
728.990	4381
729.105	4116
729.220	4275
729.335	4196
729.449	3976
729.564	3324
729.679	2935
729.794	3524
729.908	3495
730.023	2958
730.138	3866
730.253	4183
730.367	3323
730.482	2794
730.596	4104
730.711	3885
730.826	4980
730.940	4358
731.055	4132
731.169	5212
731.284	4200
731.398	3915
731.513	4125
731.627	4627
731.742	4894
731.856	4865
731.970	5012
732.085	6649
732.199	8377
732.313	14314
732.428	38245
732.542	129599
732.656	84408
732.771	13004
732.885	7915
732.999	6414
733.113	6285
733.227	6026
733.342	5598
733.456	5326
733.570	5079
733.684	5008
733.798	4828
733.912	5501
734.026	5135
734.140	5393
734.254	5667
734.368	4882
734.482	5557
734.596	5181
734.710	4914
734.824	4718
734.938	3520
735.052	5730
735.166	4906
735.280	5185
735.393	4582
735.507	4526
735.621	5003
735.735	5747
735.849	4380
735.962	4659
736.076	4723
736.190	4662
736.303	4684
736.417	5178
736.531	4329
736.644	4143
736.758	3812
736.872	3685
736.985	4394
737.099	4772
737.212	4616
737.326	4443
737.439	4461
737.553	3640
737.666	4484
737.780	4441
737.893	4550
738.007	4930
738.120	3742
738.233	4661
738.347	4746
738.460	4906
738.573	4474
738.687	4722
738.800	4887
738.913	5969
739.026	4549
739.140	3463
739.253	3292
739.366	3456
739.479	3439
739.592	4002
739.705	3579
739.818	3945
739.932	3683
740.045	4230
740.158	4595
740.271	4428
740.384	4240
740.497	4176
740.610	4567
740.723	4407
740.836	4216
740.949	4302
741.062	6705
741.174	5532
741.287	3945
741.400	4139
741.513	3333
741.626	4624
741.739	3595
741.851	4105
741.964	4036
742.077	3418
742.189	3275
742.302	4000
742.415	4689
742.527	3589
742.640	3656
742.753	4003
742.865	3184
742.978	3565
743.090	3239
743.203	3183
743.316	3920
743.428	3327
743.541	2976
743.653	3196
743.766	2979
743.878	3182
743.990	3755
744.103	4295
744.215	4062
744.327	4176
744.440	5072
744.552	8821
744.664	4304
744.777	3552
744.889	3257
745.001	3574
745.113	3260
745.226	2928
745.338	3445
745.450	3643
745.562	3168
745.674	2755
745.786	2535
745.898	3294
746.010	2783
746.122	3290
746.234	2818
746.347	3050
746.459	2919
746.570	2842
746.682	2858
746.794	3809
746.906	3371
747.018	2357
747.130	3676
747.242	2614
747.354	2652
747.466	3236
747.577	2988
747.689	3171
747.801	2895
747.913	2639
748.024	2180
748.136	3136
748.248	3220
748.359	3048
748.471	2502
748.583	2485
748.694	2650
748.806	3319
748.918	2679
749.029	3266
749.141	3888
749.252	4220
749.364	3285
749.475	8753
749.587	4909
749.698	2657
749.809	2525
749.921	2652
750.032	2570
750.144	1897
750.255	3009
750.366	1903
750.478	2773
750.589	3153
750.700	2513
750.811	3356
750.923	4004
751.034	10183
751.145	10146
751.256	3445
751.367	2708
751.479	3562
751.590	2439
751.701	3003
751.812	2601
751.923	2879
752.034	2959
752.145	2512
752.256	2618
752.367	2729
752.478	2269
752.589	2774
752.700	2383
752.811	2259
752.922	2310
753.032	3518
753.143	3690
753.254	2577
753.365	2791
753.476	2350
753.586	2298
753.697	1515
753.808	2227
753.919	2638
754.029	1796
754.140	2197
754.251	2237
754.361	2060
754.472	3040
754.582	2575
754.693	2199
754.804	2988
754.914	1757
755.025	1706
755.135	1936
755.246	2136
755.356	1934
755.466	2497
755.577	3001
755.687	2535
755.798	2843
755.908	2270
756.018	2491
756.129	2318
756.239	2051
756.349	2268
756.460	2165
756.570	3018
756.680	1919
756.790	2432
756.900	3299
757.011	1884
757.121	2329
757.231	2460
757.341	2410
757.451	2331
757.561	1114
757.671	2299
757.781	1658
757.891	2655
758.001	1945
758.111	2793
758.221	2110
758.331	2649
758.441	2662
758.551	4261
758.661	3571
758.771	2289
758.880	2961
758.990	2403
759.100	2419
759.210	2217
759.320	1795
759.429	3231
759.539	1425
759.649	2917
759.758	3290
759.868	3834
759.978	2504
760.087	3299
760.197	2425
760.307	4169
760.416	2902
760.526	3125
760.635	2619
760.745	2834
760.854	2995
760.964	3681
761.073	3770
761.182	3279
761.292	2696
761.401	3186
761.511	2490
761.620	2140
761.729	1734
761.839	1790
761.948	2682
762.057	2420
762.166	2143
762.276	1053
762.385	2595
762.494	1683
762.603	2231
762.712	1937
762.822	1299
762.931	2448
763.040	1174
763.149	2056
763.258	1930
763.367	1882
763.476	1890
763.585	1908
763.694	2193
763.803	2254
763.912	1835
764.021	2496
764.130	1520
764.238	2748
764.347	1912
764.456	2360
764.565	2629
764.674	2521
764.783	1359
764.891	1660
765.000	2338
765.109	2858
765.217	2260
765.326	2859
765.435	3851
765.543	3403
765.652	3438
765.761	3426
765.869	6330
765.978	8646
766.086	15937
766.195	31720
766.303	85217
766.412	283139
766.520	246290
766.629	45285
766.737	15252
766.846	8846
766.954	6605
767.062	5763
767.171	4357
767.279	3223
767.387	2387
767.496	2919
767.604	2524
767.712	3097
767.820	2901
767.928	2643
768.037	2185
768.145	2043
768.253	3309
768.361	1634
768.469	2241
768.577	2310
768.685	2717
768.793	2454
768.901	1728
769.009	2568
769.117	2091
769.225	3912
769.333	4816
769.441	7203
769.549	12925
769.657	29880
769.765	107028
769.873	250438
769.981	72937
770.088	12636
770.196	5914
770.304	5615
770.412	4576
770.519	3586
770.627	2508
770.735	2773
770.842	2800
770.950	2001
771.058	3033
771.165	3051
771.273	2492
771.380	2499
771.488	2885
771.595	3316
771.703	2490
771.810	3292
771.918	2779
772.025	3684
772.133	3387
772.240	3429
772.348	3173
772.455	3452
772.562	2944
772.670	2564
772.777	3478
772.884	3584
772.991	3261
773.099	3203
773.206	2354
773.313	2539
773.420	3516
773.528	2463
773.635	2537
773.742	3518
773.849	2910
773.956	3078
774.063	3281
774.170	2789
774.277	3385
774.384	2570
774.491	3533
774.598	3558
774.705	2585
774.812	4553
774.919	2731
775.026	2651
775.133	2990
775.239	2656
775.346	2383
775.453	2461
775.560	2096
775.667	2326
775.773	2121
775.880	2463
775.987	1926
776.093	2490
776.200	2849
776.307	1969
776.413	3027
776.520	2731
776.627	3331
776.733	1785
776.840	1250
776.946	2969
777.053	2063
777.159	4002
777.266	1631
777.372	4238
777.478	3931
777.585	3965
777.691	1794
777.798	2835
777.904	3194
778.010	4969
778.117	4048
778.223	2487
778.329	2510
778.435	1837
778.542	2232
778.648	1661
778.754	1555
778.860	2556
778.966	1682
779.072	1832
779.178	3205
779.284	2188
779.391	1934
779.497	1712
779.603	3360
779.708	1517
779.815	3233
779.920	6026
780.026	8140
780.132	3146
780.238	1477
780.344	1831
780.450	2585
780.556	1851
780.661	1671
780.767	2557
780.873	1979
780.979	1573
781.085	2382
781.190	2136
781.296	1289
781.402	1741
781.507	1321
781.613	1884
781.719	2224
781.824	2207
781.930	2462
782.035	1583
782.141	1887
782.246	1482
782.352	989
782.457	1913
782.563	1393
782.668	1567
782.773	1301
782.879	1420
782.984	2700
783.090	2794
783.195	4794
783.300	3246
783.405	2141
783.511	1687
783.616	1366
783.721	1827
783.826	1157
783.932	1847
784.037	1469
784.142	1108
784.247	1756
784.352	1831
784.457	1202
784.562	2392
784.667	1854
784.772	1382
784.877	1423
784.982	2012
785.087	1184
785.192	1611
785.297	1481
785.402	1209
785.507	1498
785.611	1306
785.716	1039
785.821	1587
785.926	1404
786.031	1602
786.135	1084
786.240	1499
786.345	-84
786.450	1913
786.554	819
786.659	662
786.763	422
786.868	1770
786.973	2681
787.077	938
787.182	1081
787.286	1600
787.391	1418
787.495	1332
787.600	847
787.704	1271
787.809	1485
787.913	1213
788.017	1858
788.122	1409
788.226	1476
788.330	631
788.435	889
788.539	853
788.643	678
788.747	1307
788.852	1764
788.956	1548
789.060	1165
789.164	1063
789.268	195
789.372	576
789.476	1307
789.580	321
789.684	1034
789.788	1457
789.892	1407
789.996	1601
790.100	749
790.204	1336
790.308	1199
790.412	608
790.516	1529
790.620	783
790.724	1338
790.828	725
790.931	907
791.035	1728
791.139	1087
791.242	684
791.346	938
791.450	1141
791.554	1007
791.657	1039
791.761	2018
791.864	1336
791.968	662
792.072	1326
792.175	552
792.279	467
792.382	908
792.486	1635
792.589	618
792.693	1741
792.796	313
792.899	1540
793.003	1442
793.106	86
793.209	1188
793.313	2280
793.416	152
793.519	1805
793.623	3204
793.726	4666
793.829	2095
793.932	1301
794.035	231
794.138	2799
794.242	1017
794.345	1048
794.448	1950
794.551	3361
794.654	4702
794.757	4191
794.860	797
794.963	1267
795.066	-324
795.169	1068
795.272	539
795.375	1731
795.477	736
795.580	484
795.683	144
795.786	1567
795.889	-82
795.991	1992
796.094	1034
796.197	-235
796.300	1063
796.402	1436
796.505	320
796.608	813
796.710	1841
796.813	226
796.915	38
797.018	1173
797.120	1016
797.223	277
797.326	1007
797.428	409
797.530	896
797.633	821
797.735	1352
797.838	273
797.940	1659
798.042	753
798.145	446
798.247	622
798.349	-165
798.452	1209
798.554	773
798.656	94
798.758	997
798.860	1068
798.962	587
799.065	498
799.167	-467
799.269	1432
799.371	820
799.473	1475
799.575	544
799.677	1237
799.779	2609
799.881	2910
799.983	1675
800.085	461
800.187	398
800.289	775
800.390	-81
800.492	1001
800.594	1748
800.696	175
800.798	479
800.899	329
801.001	774
801.103	179
801.205	655
801.306	33
801.408	149
801.509	631
801.611	1012
801.713	1208
801.814	610
801.916	9
802.017	-200
802.119	294
802.220	1208
802.322	-736
802.423	1326
802.525	-282
802.626	206
802.727	1321
802.829	107
802.930	-240
803.031	1552
803.133	1405
803.234	-213
803.335	584
803.436	-516
803.538	363
803.639	-444
803.740	1184
803.841	327
803.942	421
804.043	569
804.144	-515
804.245	98
804.346	570
804.447	-537
804.548	2036
804.649	2546
804.750	664
804.851	856
804.952	311
805.053	459
805.154	-114
805.255	577
805.355	168
805.456	59
805.557	12
805.658	-113
805.758	1330
805.859	240
805.960	720
806.061	-186
806.161	443
806.262	227
806.362	208
806.463	259
806.564	367
806.664	-360
806.765	1040
806.865	182
806.966	997
807.066	-398
807.166	1485
807.267	955
807.367	-18
807.468	684
807.568	-563
807.668	549
807.769	553
807.869	213
807.969	533
808.069	752
808.170	567
808.270	612
808.370	1611
808.470	893
808.570	192
808.670	-56
808.770	1200
808.870	-158
808.970	151
809.070	257
809.170	773
809.271	806
809.370	329
809.470	518
809.570	-10
809.670	-421
809.770	-346
809.870	415
809.970	-31
810.070	-36
810.169	616
810.269	-841
810.369	796
810.469	-77
810.568	215
810.668	-170
810.768	-388
810.867	131
810.967	343
811.066	-342
811.166	453
811.265	491
811.365	-379
811.464	429
811.564	686
811.663	485
811.763	-628
811.862	686
811.962	-50
812.061	-43
812.160	314
812.260	82
812.359	-473
812.458	-342
812.557	1476
812.657	371
812.756	1000
812.855	232
812.954	685
813.053	422
813.153	491
813.252	-618
813.351	766
813.450	36
813.549	-923
813.648	306
813.747	87
813.846	206
813.945	-239
814.044	0
814.143	721
814.242	1125
814.341	-140
814.439	156
814.538	742
814.637	398
814.736	384
814.835	828
814.933	658
815.032	342
815.131	668
815.229	994
815.328	2195
815.427	1441
815.525	1746
815.624	1929
815.722	1113
815.821	836
815.919	2027
816.018	1029
816.116	1983
816.215	391
816.313	1801
816.412	2382
816.510	1680
816.609	2843
816.707	2691
816.805	1890
816.904	1932
817.002	1936
817.100	2628
817.198	3026
817.296	2516
817.395	2142
817.493	3709
817.591	3179
817.689	4290
817.787	5090
817.885	8264
817.983	13676
818.081	29976
818.179	71620
818.277	178755
818.375	164254
818.473	43460
818.571	14787
818.669	10565
818.767	8692
818.865	8623
818.963	10526
819.061	15167
819.158	26597
819.256	59390
819.354	136084
819.452	296346
819.549	206316
819.647	56139
819.745	21967
819.842	12922
819.940	7965
820.038	7145
820.135	5066
820.233	5780
820.330	2832
820.428	2535
820.525	2778
820.623	2840
820.720	1748
820.818	2997
820.915	1976
821.012	2370
821.110	1649
821.207	2151
821.304	1464
821.402	1446
821.499	2897
821.596	2211
821.693	1392
821.791	3001
821.888	3829
821.985	5626
822.082	4646
822.179	1682
822.276	1808
822.373	1065
822.470	1559
822.567	1327
822.664	1262
822.761	1656
822.858	225
822.955	919
823.052	898
823.149	1526
823.246	596
823.343	261
823.440	746
823.536	875
823.633	880
823.730	973
823.827	1090
823.923	690
824.020	688
824.117	616
824.213	161
824.310	2005
824.407	1092
824.503	721
824.600	921
824.696	969
824.793	1317
824.889	647
824.986	182
825.082	381
825.179	1372
825.275	655
825.371	443
825.468	235
825.564	-776
825.660	821
825.757	1337
825.853	807
825.949	-495
826.045	1406
826.142	349
826.238	1140
826.334	1641
826.430	-467
826.526	390
826.622	8
826.718	626
826.814	991
826.910	1458
827.006	-38
827.102	-531
827.198	492
827.294	637
827.390	937
827.486	1302
827.582	-1069
827.678	-709
827.774	1442
827.869	364
827.965	1425
828.061	-230
828.157	667
828.252	78
828.348	225
828.444	319
828.539	348
828.635	302
828.731	443
828.826	-25
828.922	985
829.017	-62
829.113	472
829.208	288
829.304	426
829.399	1285
829.495	246
829.590	1104
829.685	-176
829.781	268
829.876	-18
829.971	325
830.066	22
830.162	218
830.257	145
830.352	507
830.447	1241
830.543	530
830.638	158
830.733	1269
830.828	136
830.923	621
831.018	175
831.113	405
831.208	269
831.303	351
831.398	354
831.493	-341
831.588	762
831.683	146
831.778	653
831.873	470
831.967	446
832.062	-1057
832.157	-386
832.252	476
832.346	208
832.441	349
832.536	1849
832.631	3883
832.725	4277
832.820	242
832.914	808
833.009	-217
833.104	1230
833.198	1313
833.293	342
833.387	254
833.482	847
833.576	-288
833.670	681
833.765	158
833.859	124
833.954	1572
834.048	270
834.142	1076
834.237	-136
834.331	38
834.425	627
834.519	343
834.613	1075
834.708	-283
834.802	54
834.896	-271
834.990	-9
835.084	-248
835.178	-344
835.272	-643
835.366	185
835.460	608
835.554	562
835.648	540
835.742	-219
835.836	549
835.930	-766
836.024	821
836.117	560
836.211	-556
836.305	416
836.399	580
836.493	-573
836.586	877
836.680	-367
836.774	-680
836.867	515
836.961	-1318
837.055	-394
837.148	-538
837.242	293
837.335	22
837.429	15
837.522	38
837.616	445
837.709	703
837.803	-43
837.896	175
837.989	-58
838.083	940
838.176	205
838.269	-606
838.363	595
838.456	160
838.549	769
838.642	1571
838.735	4201
838.829	2233
838.922	-32
839.015	215
839.108	-174
839.201	727
839.294	299
839.387	450
839.480	303
839.573	167
839.666	-39
839.759	-172
839.852	-43
839.945	406
840.038	-301
840.131	-563
840.223	-682
840.316	516
840.409	779
840.502	-701
840.594	753
840.687	-252
840.780	-55
840.873	-732
840.965	31
841.058	48
841.150	1003
841.243	-1233
841.336	-58
841.428	-18
841.521	-18
841.613	272
841.706	843
841.798	-255
841.890	-546
841.983	-979
842.075	481
842.167	110
842.260	542
842.352	253
842.444	-160
842.537	213
842.629	291
842.721	-349
842.813	158
842.905	-753
842.997	-703
843.090	-313
843.182	159
843.274	-1032
843.366	686
843.458	755
843.550	1391
843.642	34
843.734	27
843.826	-213
843.918	294
844.009	-74
844.101	74
844.193	-352
844.285	-33
844.377	-694
844.469	510
844.560	-797
844.652	326
844.744	51
844.835	-777
844.927	-436
845.019	-902
845.110	-697
845.202	-288
845.293	-145
845.385	-201
845.476	20
845.568	133
845.659	460
845.751	432
845.842	668
845.934	-464
846.025	-719
846.116	487
846.208	0
846.299	-211
846.390	-250
846.482	766
846.573	210
846.664	148
846.755	255
846.846	1260
846.937	-50
847.029	-801
847.120	-978
847.211	-508
847.302	-817
847.393	-1446
847.484	-478
847.575	-910
847.666	-171
847.757	-800
847.847	-137
847.938	892
848.029	-409
848.120	-451
848.211	-214
848.302	-840
848.392	197
848.483	360
848.574	-535
848.664	-1134
848.755	529
848.846	-354
848.936	-490
849.027	372
849.118	-110
849.208	-612
849.299	530
849.389	1274
849.480	3006
849.570	9549
849.661	18093
849.751	36090
849.841	14169
849.932	1143
850.022	-199
850.112	212
850.203	-292
850.293	-947
850.383	-1122
850.474	-334
850.564	-745
850.654	-527
850.744	-777
850.834	103
850.924	-1042
851.014	361
851.104	-282
851.194	256
851.284	632
851.374	124
851.464	478
851.554	151
851.644	-421
851.734	-28
851.824	158
851.914	-164
852.004	-449
852.094	-731
852.183	-33
852.273	40
852.363	-172
852.452	-592
852.542	-348
852.632	-793
852.721	-309
852.811	-682
852.901	-11
852.990	148
853.080	763
853.169	2
853.259	-175
853.348	230
853.438	886
853.527	1737
853.617	1663
853.706	5282
853.795	11079
853.885	27393
853.974	53275
854.063	95565
854.152	167887
854.242	71747
854.331	11447
854.420	3563
854.509	2204
854.598	2267
854.687	633
854.777	2020
854.866	558
854.955	1575
855.044	41
855.133	185
855.222	-423
855.311	-33
855.400	682
855.488	340
855.577	-617
855.666	-212
855.755	-300
855.844	264
855.933	-1111
856.021	-20
856.110	12
856.199	-274
856.288	198
856.376	-436
856.465	253
856.554	118
856.642	-526
856.731	848
856.819	-225
856.908	-344
856.996	-1009
857.085	-587
857.173	240
857.262	220
857.350	251
857.438	421
857.527	58
857.615	278
857.703	724
857.792	57
857.880	-725
857.968	-264
858.056	-276
858.145	335
858.233	-560
858.321	-1152
858.409	-191
858.497	-2
858.585	-138
858.673	117
858.761	-251
858.849	-346
858.937	-175
859.025	44
859.113	702
859.201	-1207
859.289	438
859.377	355
859.465	212
859.552	347
859.640	-573
859.728	-275
859.816	107
859.903	842
859.991	-155
860.079	-714
860.166	-356
860.254	358
860.342	264
860.429	-156
860.517	-930
860.604	-24
860.692	233
860.779	-688
860.867	-434
860.954	-429
861.042	-140
861.129	6
861.216	-10
861.304	-231
861.391	-669
861.478	-175
861.565	508
861.653	605
861.740	-1214
861.827	-561
861.914	302
862.001	-413
862.089	-12
862.176	-331
862.263	-84
862.350	-932
862.437	318
862.524	-338
862.611	-205
862.698	-770
862.785	120
862.871	248
862.958	-540
863.045	-14
863.132	321
863.219	-427
863.306	-967
863.392	-55
863.479	205
863.566	-290
863.652	-297
863.739	-841
863.826	399
863.912	-239
863.999	-1271
864.086	307
864.172	-805
864.259	-56
864.345	-381
864.432	-166
864.518	97
864.604	380
864.691	-160
864.777	851
864.863	974
864.950	892
865.036	603
865.122	1649
865.209	2047
865.295	2410
865.381	1558
865.467	2127
865.553	2524
865.639	4316
865.726	6599
865.812	14030
865.898	27824
865.984	41994
866.070	78488
866.156	99567
866.242	27570
866.328	5357
866.414	2365
866.499	1817
866.585	850
866.671	1762
866.757	1212
866.843	638
866.928	678
867.014	807
867.100	983
867.186	409
867.271	1377
867.357	2224
867.442	1926
867.528	984
867.614	988
867.699	292
867.785	702
867.870	851
867.956	962
868.041	1599
868.127	664
868.212	1287
868.297	8
868.383	1265
868.468	961
868.553	3385
868.639	3277
868.724	6052
868.809	6128
868.894	1645
868.979	1227
869.065	793
869.150	-90
869.235	687
869.320	457
869.405	291
869.490	490
869.575	884
869.660	608
869.745	1229
869.830	478
869.915	-481
870.000	91
870.085	475
870.169	1257
870.254	1005
870.339	390
870.424	-293
870.509	-34
870.593	955
870.678	727
870.763	404
870.847	293
870.932	663
871.016	697
871.101	-368
871.186	-156
871.270	951
871.355	391
871.439	-105
871.523	-19
871.608	-9
871.692	-14
871.777	929
871.861	596
871.945	-329
872.030	478
872.114	710
872.198	-1231
872.282	652
872.367	333
872.451	443
872.535	392
872.619	-174
872.703	-704
872.787	-128
872.871	965
872.955	-75
873.039	-773
873.123	-158
873.207	431
873.291	-23
873.375	-146
873.459	48
873.543	537
873.627	232
873.711	385
873.794	747
873.878	-155
873.962	-436
874.045	-284
874.129	640
874.137	596
874.213	157
874.245	147
874.296	132
874.352	-575
874.380	-927
874.460	581
874.464	642
874.547	-122
874.568	-31
874.631	200
874.676	256
874.714	324
874.784	892
874.798	997
874.881	1354
874.892	1226
874.965	376
874.999	385
875.048	367
875.107	308
875.131	267
875.215	-22
875.215	-22
875.298	-89
875.323	9
875.381	209
875.430	570
875.465	795
875.538	246
875.548	180
875.631	246
875.646	185
875.714	-177
875.753	-22
875.798	216
875.861	-373
875.881	-601
875.964	283
875.968	256
876.047	-81
876.076	300
876.130	950
876.183	843
876.213	848
876.291	906
876.296	899
876.379	239
876.398	246
876.462	232
876.506	410
876.545	661
876.613	578
876.628	566
876.711	430
876.721	509
876.794	994
876.828	888
876.877	725
876.935	515
876.960	472
877.043	277
877.043	279
877.125	860
877.150	828
877.208	644
877.258	737
877.291	867
877.365	568
877.374	536
877.456	646
877.472	604
877.539	333
877.579	556
877.622	938
877.687	1058
877.704	1054
877.787	532
877.794	539
877.869	613
877.901	780
877.952	1065
878.008	913
878.034	766
878.115	2
878.117	-1
878.199	780
878.222	854
878.282	911
878.329	1398
878.364	1708
878.437	1304
878.447	1219
878.529	257
878.544	226
878.611	500
878.651	728
878.694	1041
878.758	1496
878.776	1552
878.858	1757
878.865	1769
878.941	1928
878.972	1583
879.023	983
879.078	974
879.105	1090
879.185	1483
879.187	1492
879.269	1403
879.292	1356
879.351	963
879.399	672
879.433	647
879.506	927
879.516	939
879.598	963
879.613	1020
879.680	1402
879.720	1232
879.762	997
879.827	1164
879.844	1245
879.926	1298
879.933	1321
880.007	1470
880.040	1322
880.089	1231
880.147	1679
880.171	1859
880.253	2728
880.254	2727
880.335	2873
880.360	3275
880.417	4666
880.467	6367
880.499	7601
880.574	9875
880.580	9870
880.662	4288
880.680	3532
880.744	1528
880.787	1227
880.825	1378
880.893	1718
880.907	1724
880.989	1541
881.000	1544
881.070	1802
881.106	1824
881.152	1697
881.213	1574
881.233	1569
881.315	1647
881.319	1594
881.396	1322
881.426	1561
881.478	1534
881.532	1784
881.559	1977
881.639	1343
881.641	1338
881.722	1821
881.745	1897
881.803	2174
881.852	2282
881.885	2112
881.958	1827
881.966	1833
882.047	1647
882.064	1654
882.129	1960
882.171	2120
882.210	2457
882.277	3221
882.291	3254
882.372	3108
882.383	2992
882.454	2186
882.489	1916
882.535	1753
882.596	2079
882.616	2182
882.697	1967
882.702	1948
882.778	1342
882.808	1162
882.859	1413
882.914	1438
882.940	1253
883.020	1188
883.021	1201
883.102	1712
883.127	1955
883.183	2438
883.233	2480
883.264	2122
883.339	1745
883.345	1755
883.426	1333
883.445	1332
883.507	1881
883.551	2157
883.587	2062
883.657	1982
883.668	2008
883.749	1910
883.763	1890
883.830	1898
883.869	1875
883.910	1873
883.975	1884
883.991	1854
884.072	1992
884.081	1969
884.152	2133
884.187	2235
884.233	2263
884.292	2236
884.314	2228
884.394	1806
884.398	1791
884.475	1455
884.504	1404
884.555	1829
884.610	2169
884.636	2144
884.716	1998
884.716	2008
884.797	2483
884.821	2496
884.877	2366
884.927	2451
884.958	2329
885.033	1683
885.038	1659
885.118	1435
885.139	1409
885.199	1752
885.244	1851
885.279	2057
885.350	2388
885.359	2473
885.439	3392
885.456	3484
885.520	2787
885.561	2647
885.600	2679
885.667	2073
885.680	2032
885.760	2280
885.773	2267
885.840	2153
885.878	2111
885.920	2197
885.984	2267
886.000	2295
886.080	2460
886.089	2473
886.160	2323
886.195	2164
886.240	2409
886.300	2718
886.320	2709
886.400	2794
886.406	2787
886.480	2651
886.511	2532
886.560	2442
886.616	2318
886.640	2276
886.720	2170
886.722	2159
886.800	2643
886.827	2765
886.879	2744
886.932	2850
886.959	2855
887.038	2566
887.039	2572
887.119	2220
887.143	2131
887.198	2491
887.248	2771
887.278	2910
887.354	3235
887.358	3221
887.437	2706
887.459	2544
887.517	2853
887.564	3019
887.596	2936
887.669	2834
887.676	2827
887.755	2399
887.774	2338
887.835	2368
887.880	2347
887.914	2617
887.985	3088
887.994	3099
888.073	3124
888.090	3116
888.153	3653
888.195	3952
888.232	3283
888.300	2034
888.311	2082
888.391	2345
888.405	2397
888.470	2711
888.510	2878
888.549	3024
888.615	3245
888.628	3223
888.708	2944
888.720	2905
888.787	3374
888.825	3577
888.866	3007
888.930	2146
888.945	2306
889.024	3093
889.035	3182
889.103	3359
889.140	3461
889.182	3435
889.245	3347
889.261	3289
889.340	2955
889.349	2908
889.419	3235
889.454	3380
889.498	3009
889.559	2478
889.577	2696
889.656	3615
889.664	3697
889.735	3218
889.768	2972
889.814	3190
889.873	3457
889.978	2463
890.083	3353
890.187	3175
890.292	3731
890.397	2773
890.501	3412
890.606	2903
890.710	3772
890.815	2691
890.919	3320
891.024	2853
891.128	2828
891.233	3136
891.337	3637
891.442	3761
891.546	2921
891.650	2454
891.755	3728
891.859	3748
891.963	3061
892.068	2763
892.172	3298
892.276	2438
892.380	3284
892.484	2855
892.589	3142
892.693	3099
892.797	2867
892.901	2451
893.005	2663
893.109	3632
893.213	3985
893.317	3204
893.421	3021
893.525	2653
893.629	2850
893.733	2746
893.837	2609
893.941	3060
894.045	2837
894.148	2690
894.252	3543
894.356	3024
894.460	4104
894.564	2260
894.667	2497
894.771	2338
894.875	2092
894.978	3152
895.082	2708
895.186	3388
895.289	2614
895.393	3072
895.496	3358
895.600	2954
895.703	2633
895.807	3179
895.910	3406
896.014	2660
896.117	3264
896.221	3729
896.324	2571
896.427	2620
896.531	2545
896.634	2866
896.737	2218
896.840	2592
896.944	3055
897.047	2851
897.150	3334
897.253	2420
897.356	2812
897.460	2173
897.563	2518
897.666	2617
897.769	3060
897.872	2963
897.975	2605
898.078	2912
898.181	3198
898.284	2530
898.387	3613
898.490	3432
898.593	3399
898.695	1645
898.798	3190
898.901	2538
899.004	2110
899.107	2686
899.209	2959
899.312	3136
899.415	3688
899.518	2700
899.620	3315
899.723	3194
899.826	3006
899.928	3340
900.031	2971
900.133	3218
900.236	2356
900.338	1579
900.441	2783
900.543	1942
900.646	3171
900.748	2805
900.851	2841
900.953	2437
901.055	2848
901.158	1822
901.260	2297
901.362	2469
901.465	2783
901.567	2989
901.669	2356
901.771	2532
901.873	2685
901.976	2345
902.078	2592
902.180	2376
902.282	3005
902.384	1679
902.486	3532
902.588	2249
902.690	1881
902.792	1995
902.894	1598
902.996	2703
903.098	2651
903.200	2757
903.302	2627
903.404	2214
903.505	2400
903.607	2150
903.709	2727
903.811	2967
903.913	2381
904.014	1904
904.116	1858
904.218	1544
904.319	2776
904.421	3438
904.523	3438
904.624	2070
904.726	2184
904.827	1537
904.929	2304
905.030	1654
905.132	2721
905.233	2617
905.335	2144
905.436	2078
905.537	2222
905.639	2176
905.740	2639
905.841	3104
905.943	2833
906.044	2740
906.145	2513
906.247	2180
906.348	2067
906.449	2286
906.550	3492
906.651	2295
906.752	2416
906.854	1635
906.955	1504
907.056	2026
907.157	3534
907.258	2941
907.359	2832
907.460	2300
907.561	2314
907.662	1762
907.762	2401
907.863	2829
907.964	2579
908.065	3565
908.166	2143
908.267	2732
908.367	2543
908.468	2488
908.569	2609
908.670	2960
908.770	2772
908.871	3149
908.971	2578
909.072	1940
909.173	2623
909.273	3135
909.374	2971
909.474	1474
909.575	2096
909.675	2559
909.776	2803
909.876	2425
909.977	2643
910.077	3054
910.177	2813
910.278	3081
910.378	2036
910.478	3204
910.579	2968
910.679	2726
910.779	2899
910.879	3464
910.980	2518
911.080	2523
911.180	2474
911.280	1933
911.380	1756
911.480	2670
911.580	3081
911.680	3516
911.780	1579
911.880	2703
911.980	2291
912.080	2450
912.180	2700
912.280	3096
912.380	2418
912.480	2549
912.580	2304
912.679	1916
912.779	2461
912.879	2277
912.979	2425
913.078	2245
913.178	2010
913.278	1879
913.377	2752
913.477	2826
913.577	2495
913.676	2095
913.776	2790
913.875	2483
913.975	2869
914.074	2377
914.174	2855
914.273	1582
914.373	2919
914.472	2960
914.572	2676
914.671	1486
914.770	2144
914.870	2155
914.969	2304
915.068	3010
915.167	2195
915.267	2025
915.366	2685
915.465	2649
915.564	2597
915.663	3161
915.763	2556
915.862	2230
915.961	3512
916.060	2811
916.159	1740
916.258	1986
916.357	2612
916.456	2676
916.555	2694
916.654	2040
916.752	2748
916.851	3216
916.950	3194
917.049	2488
917.148	2100
917.247	2109
917.345	2046
917.444	1866
917.543	2315
917.642	3239
917.740	1876
917.839	3763
917.937	3269
918.036	2992
918.135	2213
918.233	2316
918.332	2340
918.430	1697
918.529	1993
918.627	2061
918.726	2976
918.824	2755
918.923	2418
919.021	2027
919.119	2518
919.218	2221
919.316	3060
919.414	2704
919.512	2556
919.611	3405
919.709	2086
919.807	2068
919.905	3306
920.003	2827
920.102	3550
920.200	3425
920.298	2550
920.396	3170
920.494	3056
920.592	2455
920.690	3447
920.788	2478
920.886	3661
920.984	3709
921.082	3863
921.180	4220
921.277	3083
921.375	3168
921.473	4599
921.571	3145
921.669	4245
921.766	3352
921.864	3980
921.962	4171
922.060	4025
922.157	3786
922.255	4628
922.352	3846
922.450	4953
922.548	3745
922.645	4521
922.743	5142
922.840	6991
922.938	8063
923.035	7156
923.133	7001
923.230	7413
923.327	9126
923.425	8990
923.522	8644
923.619	8051
923.717	6827
923.814	7575
923.911	6614
924.008	7527
924.106	8219
924.203	6381
924.300	6843
924.397	7835
924.494	7034
924.591	7407
924.688	7140
924.786	7643
924.883	7458
924.979	7632
925.077	7283
925.173	7198
925.270	6959
925.367	6270
925.464	7757
925.561	8213
925.658	7578
925.755	6515
925.852	7492
925.948	6877
926.045	6766
926.142	7214
926.239	7361
926.335	6035
926.432	6877
926.529	6458
926.625	7738
926.722	6364
926.818	7186
926.915	7361
927.011	6294
927.108	6722
927.204	5979
927.301	6040
927.397	6654
927.494	7365
927.590	5808
927.687	5452
927.783	7041
927.879	7322
927.976	6154
928.072	6033
928.168	7212
928.264	6722
928.361	5919
928.457	6425
928.553	6108
928.649	6683
928.745	7718
928.841	5483
928.937	7003
929.033	6419
929.129	5915
929.225	6064
929.321	6923
929.417	6162
929.513	6997
929.609	5014
929.705	4659
929.801	7092
929.897	5873
929.993	5526
930.089	5655
930.184	4668
930.280	6377
930.376	6722
930.471	5061
930.567	5335
930.663	5585
930.758	4666
930.854	5722
930.950	5667
931.045	4803
931.141	5271
931.236	6809
931.332	6035
931.427	4557
931.523	6889
931.618	5982
931.714	4053
931.809	5892
931.905	6163
932.000	4662
932.095	3881
932.191	5102
932.286	6409
932.381	5156
932.476	3461
932.572	5292
932.667	5576
932.762	4742
932.857	5863
932.952	6032
933.047	5116
933.142	4280
933.237	4903
933.332	4891
933.427	6768
933.522	5007
933.617	4740
933.712	5000
933.807	5302
933.902	6274
933.997	6741
934.092	4522
934.187	4289
934.282	5086
934.376	5617
934.471	5952
934.566	4365
934.661	4900
934.755	5042
934.850	4876
934.945	5351
935.039	4283
935.134	4522
935.228	4504
935.323	6475
935.417	4498
935.512	4114
935.606	3445
935.701	5255
935.795	5161
935.890	5711
935.984	4877
936.079	3573
936.173	4889
936.267	4535
936.362	3646
936.456	3923
936.550	6364
936.644	5117
936.738	4326
936.833	4528
936.927	3884
937.021	4105
937.115	4808
937.209	4016
937.303	5222
937.397	3668
937.491	4263
937.585	4690
937.679	4783
937.773	4221
937.867	3866
937.961	3022
938.055	4995
938.149	5148
938.243	3455
938.337	2996
938.430	3856
938.524	4816
938.618	4644
938.712	3867
938.805	3990
938.899	4632
938.993	5370
939.086	4623
939.180	2677
939.274	3968
939.367	4140
939.461	4980
939.554	3652
939.648	3982
939.741	2578
939.835	4742
939.928	5209
940.022	4679
940.115	3859
940.208	4138
940.302	5140
940.395	5971
940.488	3319
940.582	4439
940.675	3375
940.768	3615
940.861	4421
940.954	4970
941.048	3424
941.141	3649
941.234	3574
941.327	3822
941.420	4428
941.513	4329
941.606	3093
941.699	3702
941.792	4303
941.885	4220
941.978	4126
942.071	4385
942.164	3072
942.257	3937
942.349	3936
942.442	4418
942.535	3216
942.628	3677
942.721	2615
942.813	3132
942.906	3737
942.999	4067
943.091	3176
943.184	3414
943.277	3327
943.369	3992
943.462	4118
943.554	3951
943.647	3106
943.739	3978
943.832	4405
943.924	2033
944.017	2771
944.109	3098
944.201	2593
944.294	3497
944.386	3798
944.478	2528
944.571	2526
944.663	3543
944.755	2762
944.847	3828
944.940	4003
945.032	2592
945.124	3137
945.216	3961
945.308	4273
945.400	3530
945.492	3559
945.584	4190
945.676	3891
945.768	3868
945.860	3413
945.952	4271
946.044	3320
946.136	3693
946.228	2891
946.320	3114
946.412	3525
946.503	3979
946.595	4820
946.687	3401
946.779	3091
946.870	2954
946.962	2239
947.054	3410
947.145	3410
947.237	3192
947.329	2922
947.420	2739
947.512	3153
947.603	2561
947.695	3674
947.786	3145
947.878	2522
947.969	2564
948.061	2361
948.152	3026
948.243	2911
948.335	2706
948.426	2705
948.517	3694
948.609	2939
948.700	3144
948.791	2365
948.882	3146
948.973	2937
949.065	2383
949.156	3597
949.247	2493
949.338	3149
949.429	2129
949.520	2366
949.611	2353
949.702	3228
949.793	2826
949.884	2490
949.975	2736
950.066	2595
950.157	1482
950.247	2894
950.338	2477
950.429	2198
950.520	2731
950.611	2038
950.701	2649
950.792	2830
950.883	3167
950.973	2530
951.064	3282
951.155	2648
951.245	4136
951.336	2507
951.427	3050
951.517	3150
951.608	2946
951.698	2504
951.788	2558
951.879	1414
951.969	2270
952.060	1472
952.150	2710
952.240	3039
952.331	1468
952.421	3137
952.511	1853
952.602	2016
952.692	2171
952.782	2612
952.872	2299
952.962	2352
953.052	2534
953.143	2408
953.233	2952
953.323	2048
953.413	2864
953.503	2455
953.593	2243
953.683	2493
953.773	2456
953.863	1585
953.953	1882
954.042	2059
954.132	3090
954.222	2404
954.312	1540
954.402	2176
954.492	2084
954.581	2319
954.671	2664
954.761	2116
954.850	2463
954.940	1416
955.030	1678
955.119	1342
955.209	2026
955.298	2567
955.388	2356
955.477	2198
955.567	1761
955.656	1814
955.746	2847
955.835	2007
955.925	1217
956.014	1766
956.103	2149
956.193	3771
956.282	3439
956.371	2309
956.461	1864
956.550	2234
956.639	2218
956.728	2559
956.817	2098
956.906	1759
956.995	3062
957.085	1802
957.174	2232
957.263	1598
957.352	1806
957.441	2601
957.530	3362
957.619	1789
957.708	2865
957.796	1971
957.885	2373
957.974	1616
958.063	2336
958.152	2217
958.241	2087
958.329	2205
958.418	1769
958.507	1392
958.596	3445
958.684	1246
958.773	2344
958.861	1066
958.950	2267
959.039	1807
959.127	1307
959.216	2617
959.304	1880
959.393	2682
959.481	1816
959.570	2226
959.658	1670
959.746	1432
959.835	2348
959.923	1840
960.011	1627
960.100	1753
960.188	2457
960.276	1964
960.365	1652
960.453	1836
960.541	1640
960.629	1858
960.717	1484
960.805	1216
960.893	2343
960.981	1900
961.069	3055
961.158	2299
961.245	3377
961.333	2414
961.421	1637
961.509	1907
961.597	2166
961.685	1517
961.773	2064
961.861	681
961.949	1641
962.036	1622
962.124	2637
962.212	1374
962.299	1439
962.387	1732
962.475	1590
962.562	1791
962.650	2250
962.738	2093
962.825	1961
962.913	2103
963.000	2217
963.088	2315
963.175	1845
963.263	970
963.350	1744
963.438	2073
963.525	1646
963.612	1261
963.700	1417
963.787	2310
963.874	1890
963.962	2017
964.049	2088
964.136	1004
964.223	857
964.310	1354
964.398	1916
964.485	1001
964.572	2434
964.659	1996
964.746	2430
964.833	1514
964.920	1884
965.007	1523
965.094	1466
965.181	1596
965.268	1961
965.355	1301
965.441	2018
965.528	794
965.615	2502
965.702	1825
965.789	667
965.875	1085
965.962	1700
966.049	783
966.136	2456
966.222	2237
966.309	2340
966.395	1559
966.482	2694
966.569	929
966.655	1613
966.742	1867
966.828	1286
966.915	1324
967.001	1140
967.087	-5
967.174	1302
967.260	1470
967.347	1552
967.433	1598
967.519	2453
967.605	1820
967.692	1933
967.778	1776
967.864	1279
967.950	1151
968.036	1885
968.123	1938
968.209	925
968.295	816
968.381	2109
968.467	1456
968.553	760
968.639	2190
968.725	1085
968.811	1918
968.897	2573
968.983	1896
969.069	1504
969.154	2031
969.240	1087
969.326	749
969.412	1193
969.497	1277
969.583	1243
969.669	1418
969.755	909
969.840	1089
969.926	2723
970.012	2028
970.097	2778
970.183	2104
970.268	1209
970.354	1652
970.439	576
970.525	1680
970.610	1353
970.696	3199
970.781	1555
970.866	190
970.952	722
971.037	905
971.122	1811
971.208	1820
971.293	1278
971.378	313
971.463	1840
971.549	1164
971.634	1520
971.719	981
971.804	2079
971.889	1594
971.974	1209
972.059	1522
972.144	2031
972.229	837
972.314	950
972.399	1666
972.484	909
972.569	1520
972.654	915
972.739	868
972.824	1095
972.908	645
972.993	1937
973.078	921
973.163	711
973.247	815
973.332	-232
973.417	2127
973.501	537
973.586	1888
973.671	1955
973.755	1145
973.840	1810
973.924	2258
974.009	1651
974.093	1249
974.178	2144
974.262	964
974.346	1046
974.431	907
974.515	1063
974.600	1226
974.684	1457
974.768	1255
974.852	1687
974.937	809
975.021	1378
975.105	1361
975.189	1083
975.273	1107
975.358	1032
975.442	937
975.526	2040
975.610	389
975.694	740
975.778	2134
975.862	824
975.946	-210
976.030	2398
976.114	1024
976.198	1595
976.281	1120
976.365	2657
976.449	1363
976.533	1792
976.617	589
976.700	819
976.784	569
976.868	1101
976.951	1143
977.035	124
977.119	1446
977.202	1577
977.286	1721
977.369	2067
977.453	1846
977.536	1977
977.620	957
977.703	2633
977.787	1117
977.870	2588
977.953	1711
978.037	411
978.120	1487
978.203	601
978.287	1079
978.370	1382
978.453	913
978.536	874
978.620	1686
978.703	1032
978.786	1057
978.869	1423
978.952	344
979.035	2320
979.118	1120
979.201	431
979.284	2074
979.367	412
979.450	1413
979.533	837
979.616	2105
979.699	641
979.782	1149
979.865	1120
979.948	766
980.030	600
980.113	1245
980.196	1105
980.279	845
980.361	681
980.444	1537
980.526	1849
980.609	1244
980.692	2859
980.774	2039
980.857	747
980.939	1874
981.022	1375
981.104	625
981.187	1058
981.269	1183
981.352	1641
981.434	1008
981.516	780
981.599	1889
981.681	1435
981.763	898
981.846	1103
981.928	1194
982.010	815
982.092	1342
982.174	1872
982.256	625
982.339	1682
982.421	620
982.503	752
982.585	539
982.667	1305
982.749	1202
982.831	1614
982.913	465
982.995	1708
983.077	665
983.158	1888
983.240	727
983.322	1741
983.404	2395
983.486	1121
983.568	1311
983.649	1904
983.731	1734
983.813	661
983.894	1702
983.976	2176
984.058	1759
984.139	1138
984.221	537
984.302	3175
984.384	2018
984.465	1251
984.547	1751
984.628	1101
984.710	1717
984.791	924
984.872	688
984.954	587
985.035	1166
985.116	1400
985.198	778
985.279	2064
985.360	1077
985.441	793
985.522	1450
985.604	2150
985.685	-73
985.766	1790
985.847	1663
985.928	1206
986.009	1522
986.090	654
986.171	1631
986.252	466
986.333	1529
986.414	417
986.495	1559
986.576	1189
986.656	1398
986.737	2730
986.818	2025
986.899	2088
986.980	1898
987.060	2342
987.141	1268
987.222	1983
987.302	2567
987.383	2465
987.464	2263
987.544	2710
987.625	1832
987.705	2595
987.786	2341
987.866	1445
987.947	1596
988.027	1928
988.108	1604
988.188	1872
988.268	1194
988.349	1550
988.429	1270
988.509	1087
988.589	1341
988.670	904
988.750	2609
988.830	1347
988.910	1507
988.990	1953
989.070	668
989.151	1047
989.231	987
989.311	1809
989.391	938
989.471	1706
989.551	1736
989.631	771
989.711	1496
989.791	677
989.870	1808
989.950	2278
990.030	1017
990.110	2196
990.190	957
990.269	317
990.349	1110
990.429	1652
990.509	1485
990.588	842
990.668	1752
990.747	1496
990.827	1658
990.907	1172
990.986	2183
991.066	1441
991.145	1214
991.225	1497
991.304	1284
991.383	1859
991.463	1485
991.542	1831
991.622	302
991.701	1392
991.780	1163
991.859	1922
991.939	828
992.018	1468
992.097	1043
992.176	1063
992.256	693
992.335	622
992.414	1455
992.493	529
992.572	-25
992.651	1254
992.730	1022
992.809	65
992.888	577
992.967	730
993.046	1110
993.125	519
993.203	397
993.282	1325
993.361	1222
993.440	879
993.519	105
993.597	1616
993.676	993
993.755	1029
993.834	1442
993.912	-111
993.991	1878
994.069	1107
994.148	777
994.226	146
994.305	612
994.384	587
994.462	1264
994.540	4
994.619	-186
994.697	1150
994.776	346
994.854	1622
994.932	636
995.011	1139
995.089	420
995.167	1316
995.245	915
995.324	488
995.402	1127
995.480	508
995.558	933
995.636	-290
995.714	400
995.792	1251
995.870	199
995.948	774
996.026	260
996.104	482
996.182	613
996.260	474
996.338	50
996.416	62
996.494	205
996.572	1674
996.649	537
996.727	-101
996.805	1059
996.883	442
996.960	829
997.038	292
997.116	536
997.193	435
997.271	564
997.348	157
997.426	771
997.504	18
997.581	764
997.658	-204
997.736	-734
997.813	181
997.891	1420
997.968	254
998.046	281
998.123	431
998.200	850
998.277	60
998.355	146
998.432	-356
998.509	228
998.586	493
998.663	629
998.741	215
998.818	-715
998.895	-112
998.972	553
999.049	269
999.126	-581
999.203	826
999.280	-6
999.357	483
999.434	-203
999.511	731
999.587	545
999.664	-458
999.741	-209
999.818	363
999.895	-307
999.971	-15
1000.048	-176
1000.125	788
1000.202	119
1000.278	371
1000.355	-608
1000.431	-225
1000.508	-861
1000.584	-205
1000.661	31
1000.738	-366
1000.814	-500
1000.890	635
1000.967	-572
1001.043	-48
1001.120	-340
1001.196	317
1001.272	-663
1001.349	-73
1001.425	793
1001.501	68
1001.577	-756
1001.654	478
1001.730	-634
1001.806	-71
1001.882	-667
1001.958	1469
1002.034	643
1002.110	344
1002.186	-1119
1002.262	263
1002.338	-333
1002.414	269
1002.490	-306
1002.566	-386
1002.642	-207
1002.718	738
1002.794	60
1002.870	-251
1002.945	152
1003.021	185
1003.097	-1249
1003.173	195
1003.248	-272
1003.324	-743
1003.400	-37
1003.475	-351
1003.551	68
1003.626	165
1003.702	-735
1003.777	-165
1003.853	-763
1003.928	-80
1004.004	-528
1004.079	512
1004.155	102
1004.230	-797
1004.305	711
1004.381	-240
1004.456	-107
1004.531	46
1004.607	-441
1004.682	113
1004.757	-207
1004.832	189
1004.907	-790
1004.982	-410
1005.057	-117
1005.133	-241
1005.208	-550
1005.283	-60
1005.358	589
1005.433	-695
1005.508	-993
1005.583	-599
1005.657	-552
1005.732	303
1005.807	-949
1005.882	-297
1005.957	-530
1006.032	382
1006.106	-699
1006.181	-1073
1006.256	-268
1006.331	-1042
1006.405	-316
1006.480	-574
1006.554	-1154
1006.629	-617
1006.704	-1001
1006.778	207
1006.853	309
1006.927	-727
1007.002	-1787
1007.076	-223
1007.150	-596
1007.225	-614
1007.299	-798
1007.373	-1366
1007.448	-719
1007.522	11
1007.596	-594
1007.671	-833
1007.745	-617
1007.819	-377
1007.893	-259
1007.967	-9
1008.041	-1480
1008.115	136
1008.190	-927
1008.264	-481
1008.338	-958
1008.412	-557
1008.486	-251
1008.560	-504
1008.633	-853
1008.707	-668
1008.781	-32
1008.855	-261
1008.929	-138
1009.003	-632
1009.076	-866
1009.150	-739
1009.224	-565
1009.298	-706
1009.371	-1715
1009.445	45
1009.519	-533
1009.592	-1204
1009.666	76
1009.739	-921
1009.813	-1355
1009.886	477
1009.960	-991
1010.033	56
1010.107	-893
1010.180	-720
1010.253	-309
1010.327	-761
1010.400	-987
1010.473	-870
1010.547	-287
1010.620	-552
1010.693	-1130
1010.766	-833
1010.840	310
1010.913	-688
1010.986	-887
1011.059	-892
1011.132	-1098
1011.205	-253
1011.278	32
1011.351	-564
1011.424	-728
1011.497	-785
1011.570	-499
1011.643	-1137
1011.716	-713
1011.789	-641
1011.862	-584
1011.934	-302
1012.007	-1738
1012.080	-523
1012.153	-629
1012.225	-733
1012.298	-1435
1012.371	-20
1012.443	-951
1012.516	-1666
1012.588	-43
1012.661	-682
1012.733	-1627
1012.806	-190
1012.879	-663
1012.951	-1078
1013.023	-1426
1013.096	-627
1013.168	-650
1013.241	-331
1013.313	-657
1013.385	-800
1013.458	-350
1013.530	-105
1013.602	-610
1013.674	-851
1013.746	-1574
1013.819	-1107
1013.891	-301
1013.963	-1575
1014.035	-1217
1014.107	-699
1014.179	-458
1014.251	-1041
1014.323	-734
1014.395	-23
1014.467	-1592
1014.539	-307
1014.611	-817
1014.683	-230
1014.754	-889
1014.826	-1757
1014.898	-1019
1014.970	-1004
1015.042	-122
1015.113	286
1015.185	-1447
1015.257	-1423
1015.328	52
1015.400	-799
1015.471	-875
1015.543	-2259
1015.615	-803
1015.686	-790
1015.757	-1322
1015.829	-696
1015.901	-316
1015.972	-809
1016.043	-1672
1016.115	-171
1016.186	-287
1016.257	-1036
1016.328	-1247
1016.400	-330
1016.471	-1264
1016.542	-1131
1016.613	-640
1016.685	-357
1016.756	-830
1016.827	-127
1016.898	-1287
1016.969	264
1017.040	-1583
1017.111	-1065
1017.182	-1231
1017.253	-1075
1017.324	-1038
1017.395	-957
1017.466	-1193
1017.537	-1415
1017.608	-339
1017.678	-577
1017.749	-401
1017.820	-1012
1017.891	-951
1017.961	-1099
1018.032	-1171
1018.103	-864
1018.173	-1029
1018.244	-653
1018.315	-774
1018.385	-705
1018.456	-1657
1018.526	-1024
1018.597	-489
1018.667	-810
1018.738	-424
1018.808	-862
1018.878	-846
1018.949	-1076
1019.019	-1133
1019.089	-1005
1019.160	-1519
1019.230	-1402
1019.300	-777
1019.371	-1333
1019.441	-1301
1019.511	-1008
1019.581	-1224
1019.651	-873
1019.721	-763
1019.791	-836
1019.861	-1293
1019.931	-260
1020.001	-1127
1020.071	-554
1020.141	-1435
1020.211	-1019
1020.281	-1039
1020.351	-931
1020.421	-1139
1020.491	-794
1020.560	-1098
1020.630	-855
1020.700	-850
1020.770	-1319
1020.839	-1543
1020.909	-290
1020.979	-1244
1021.048	-1091
1021.118	-870
1021.187	-974
1021.257	-872
1021.326	-752
1021.396	-835
1021.465	-619
1021.535	-936
1021.604	-813
1021.674	-898
1021.743	-1078
1021.812	-434
1021.882	-1166
1021.951	-633
1022.020	-687
1022.089	-574
1022.159	-828
1022.228	-765
1022.297	-321
1022.366	-385
1022.435	-552
1022.504	-516
1022.573	-774
1022.642	-1393
1022.711	-930
1022.781	-922
1022.849	-610
1022.918	-1506
1022.987	-1233
1023.056	-633
1023.125	-1734
1023.194	-890
1023.263	-684
1023.331	-838
1023.400	-1476
1023.469	-1444
1023.538	-309
1023.606	-1173
1023.675	-865
1023.744	-1491
1023.812	-693
1023.881	-340
1023.949	-357
1024.018	-1476
1024.086	-849
1024.155	-1594
1024.223	-1408
1024.292	-967
1024.360	-841
1024.429	-1449
1024.497	-1123
1024.565	-1448
1024.634	-1226
1024.702	-968
1024.770	-1213
1024.838	-1169
1024.907	-576
1024.975	-753
1025.043	-973
1025.111	-1578
1025.179	-1039
1025.247	-1749
1025.315	-590
1025.383	-1728
1025.451	-966
1025.519	-1274
1025.587	-1091
1025.655	-1504
1025.723	-1420
1025.791	-1957
1025.859	-1191
1025.927	-336
1025.995	-1520
1026.062	-1076
1026.130	-1053
1026.198	-1722
1026.266	-1971
1026.333	-1008
1026.401	-838
1026.469	-1541
1026.536	-1042
1026.604	-1231
1026.671	-562
1026.739	-1211
1026.806	-416
1026.874	-1288
1026.941	-1243
1027.009	-1011
1027.076	-1213
1027.144	-567
1027.211	-304
1027.278	-1367
1027.345	-967
1027.413	-2001
1027.480	-1599
1027.547	-1054
1027.614	-1289
1027.682	-1223
1027.749	-1243
1027.816	-1638
1027.883	-802
1027.950	-1321
1028.017	-1300
1028.084	-198
1028.151	-1087
1028.218	-1706
1028.285	-1413
1028.352	-1589
1028.419	-532
1028.486	-1946
1028.553	-1369
1028.619	-1383
1028.686	-905
1028.753	-1125
1028.820	-754
1028.886	-1218
1028.953	-1038
1029.020	-1606
1029.086	-1516
1029.153	-1739
1029.220	-901
1029.286	-1484
1029.353	-731
1029.419	-471
1029.486	-848
1029.552	-1343
1029.619	-292
1029.685	-693
1029.751	-2123
1029.818	-1701
1029.884	-790
1029.951	-606
1030.017	-806
1030.083	-1732
1030.149	-475
1030.216	-1191
1030.282	-1185
1030.348	-1146
1030.414	-1351
1030.480	-1135
1030.546	-1456
1030.612	-1176
1030.678	-467
1030.744	-1839
1030.810	-1104
1030.876	-1175
1030.942	-1424
1031.008	-1465
1031.074	-1419
1031.140	-1718
1031.206	-782
1031.272	-1240
1031.337	-1289
1031.403	-382
1031.469	-1181
1031.534	-1703
1031.600	-515
1031.666	-2300
1031.731	-1197
1031.797	-1236
1031.863	-1920
1031.928	-1873
1031.994	-1944
1032.059	-974
1032.125	-850
1032.190	-1458
1032.256	-846
1032.321	-1773
1032.386	-1877
1032.452	-1060
1032.517	-1266
1032.582	-1031
1032.647	-589
1032.713	-1676
1032.778	-2229
1032.843	-1401
1032.908	-1103
1032.974	-1511
1033.039	-911
1033.104	-846
1033.169	-1674
1033.234	-1176
1033.299	-802
1033.364	-1395
1033.429	-1256
1033.494	-1207
1033.559	-1979
1033.624	-1055
1033.688	-1570
1033.753	-1338
1033.818	-1395
1033.883	-829
1033.948	-1281
1034.013	-1297
1034.077	-1035
1034.142	-1001
1034.207	-706
1034.271	-913
1034.336	-25
1034.400	-331
1034.465	-154
1034.530	-814
1034.594	-661
1034.658	-1316
1034.723	-1180
1034.787	-684
1034.852	-1030
1034.916	-2302
1034.981	-1412
1035.045	-1416
1035.109	-1357
1035.173	-794
1035.238	-1534
1035.302	-1048
1035.366	-543
1035.430	-1793
1035.495	-1240
1035.559	-1157
1035.623	-507
1035.687	-1853
1035.751	-1154
1035.815	-2178
1035.879	-1899
1035.943	-900
1036.007	-936
1036.071	-1913
1036.135	-1256
1036.198	-912
1036.262	-1132
1036.326	-985
1036.390	-1490
1036.454	-1159
1036.517	-871
1036.581	-1665
1036.645	-734
1036.709	-1206
1036.772	-1381
1036.836	-340
1036.900	-1256
1036.963	-1757
1037.026	-1414
1037.090	-1656
1037.154	-1353
1037.217	-1550
1037.280	-1178
1037.344	-2113
1037.407	-1520
1037.471	-1339
1037.534	-1476
1037.597	-1709
1037.661	-1069
1037.724	-1200
1037.787	-1342
1037.850	-1214
1037.913	-1642
1037.977	-1970
1038.040	-1191
1038.103	-1686
1038.166	-1418
1038.229	-1375
1038.292	-1712
1038.355	-1075
1038.418	-1520
1038.481	-1025
1038.544	-1506
1038.607	-1747
1038.670	-1478
1038.732	-1189
1038.795	-1456
1038.858	-1598
1038.921	-1171
1038.984	-1246
1039.046	-1602
1039.109	-1951
1039.172	-1523
1039.234	-1798
1039.297	-1010
1039.360	-1303
1039.422	-1011
1039.485	-2143
1039.547	-2362
1039.610	-603
1039.672	-1898
1039.734	-1006
1039.797	-1303
1039.859	-1010
1039.922	-1299
1039.984	-1366
1040.046	-1121
1040.109	-776
1040.171	-1409
1040.233	-2013
1040.295	-1254
1040.358	-1989
1040.420	-748
1040.482	-1569
1040.544	-1351
1040.606	-1201
1040.668	-1235
1040.730	-1945
1040.792	-1083
1040.854	-1530
1040.916	-1203
1040.978	-1669
1041.040	-1069
1041.102	-1861
1041.164	-882
1041.225	-2267
1041.287	-1765
1041.349	-1004
1041.411	-1327
1041.472	-1680
1041.534	-1551
1041.596	-2065
1041.657	-1430
1041.719	-1899
1041.781	-1265
1041.842	-1774
1041.904	-1936
1041.965	-1772
1042.027	-1444
1042.088	-1313
1042.150	-1174
1042.211	-1044
1042.272	-2328
1042.334	-1359
1042.395	-989
1042.456	-1361
1042.518	-975
1042.579	-1653
1042.640	-1128
1042.701	-1267
1042.763	-2538
1042.824	-2322
1042.885	-1547
1042.946	-2139
1043.007	-1742
1043.068	-1639
1043.129	-1000
1043.190	-1483
1043.251	-559
1043.312	-1820
1043.373	-1870
1043.434	-2002
1043.495	-1432
1043.556	-1235
1043.616	-1153
1043.677	-1306
1043.738	-1671
1043.799	-2284
1043.859	-1530
1043.920	-1651
1043.981	-1375
1044.041	-1665
1044.102	-1563
1044.162	-1809
1044.223	-1802
1044.284	-2092
1044.344	-1466
1044.405	-1813
1044.465	-1187
1044.525	-1130
1044.586	-698
1044.646	-2015
1044.707	-893
1044.767	-1582
1044.827	-1502
1044.887	-1406
1044.948	-1039
1045.008	-1371
1045.068	-1234
1045.128	-1510
1045.188	-1902
1045.249	-1277
1045.309	-1149
1045.369	-1694
1045.429	-1424
1045.489	-1075
1045.549	-799
1045.609	-1840
1045.669	-1061
1045.729	-1146
1045.789	-887
1045.848	-2163
1045.908	-1481
1045.968	-1207
1046.028	-1371
1046.088	-1259
1046.147	-1207
1046.207	-990
1046.267	-1081
1046.326	-1492
1046.386	-638
1046.446	-994
1046.505	-643
1046.565	-626
1046.624	-693
1046.684	-885
1046.743	-833
1046.803	-73
1046.862	-159
1046.922	0
