'Start Wavelength	183.907
'End Wavelength	1046.922
'Gate Delay	5.000
'Gate Width (ms)	1.050
'Laser Output Level	0.000
'X Position	0.000
'Y Position	0.000
'Z Position	0.000
'Grid Point Number	1.000
'Shot Number	100.000
183.907	686.000
183.977	99.000
184.047	175
184.116	407
184.186	29
184.256	-686
184.325	-871
184.395	-196
184.465	652
184.534	-275
184.604	-46
184.674	-165
184.743	-373
184.813	504
184.883	-46
184.952	618
185.022	-62
185.092	671
185.161	-265
185.231	328
185.301	289
185.370	417
185.440	-482
185.509	-13
185.579	78
185.649	-107
185.718	696
185.788	17
185.857	-130
185.927	-419
185.996	-184
186.066	-74
186.136	-106
186.205	123
186.275	366
186.344	-210
186.414	981
186.483	-295
186.553	1076
186.622	2027
186.692	355
186.761	422
186.831	110
186.900	398
186.970	958
187.039	1116
187.109	939
187.178	117
187.248	-53
187.317	1077
187.387	441
187.456	465
187.526	1259
187.595	164
187.664	-667
187.734	1253
187.803	-110
187.873	656
187.942	1004
188.012	515
188.081	104
188.150	514
188.220	1652
188.289	1114
188.358	253
188.428	281
188.497	-168
188.567	772
188.636	329
188.705	1133
188.775	595
188.844	182
188.913	916
188.983	1230
189.052	12
189.121	695
189.191	392
189.260	772
189.329	524
189.399	971
189.468	387
189.537	139
189.606	658
189.676	-42
189.745	459
189.814	398
189.883	751
189.953	617
190.022	950
190.091	3065
190.161	3296
190.230	1715
190.299	-57
190.368	1147
190.437	319
190.507	1093
190.576	252
190.645	1037
190.714	910
190.783	166
190.853	571
190.922	283
190.991	475
191.060	1187
191.129	-69
191.198	1141
191.268	-96
191.337	394
191.406	1301
191.475	-70
191.544	792
191.613	990
191.682	339
191.752	1027
191.821	726
191.890	567
191.959	610
192.028	936
192.097	1031
192.166	448
192.235	51
192.304	1540
192.373	378
192.442	973
192.511	353
192.580	786
192.650	1260
192.719	1014
192.788	1371
192.857	905
192.926	1192
192.995	1280
193.064	1710
193.133	1819
193.202	3059
193.271	2341
193.340	2654
193.409	2566
193.478	2433
193.547	3986
193.615	4690
193.684	4510
193.753	3149
193.822	2005
193.891	746
193.960	2106
194.029	583
194.098	1808
194.167	1197
194.236	701
194.305	749
194.374	463
194.443	482
194.512	1285
194.580	989
194.649	1397
194.718	1337
194.787	943
194.856	155
194.925	1237
194.994	1000
195.062	838
195.131	1126
195.200	1703
195.269	1967
195.338	1041
195.407	754
195.475	1555
195.544	1250
195.613	1836
195.682	1047
195.751	1980
195.819	1463
195.888	1956
195.957	971
196.026	1662
196.094	1624
196.163	1923
196.232	2422
196.301	1714
196.369	1556
196.438	1860
196.507	1379
196.576	1285
196.644	1371
196.713	543
196.782	1301
196.850	1443
196.919	1427
196.988	1968
197.056	1013
197.125	1130
197.194	1410
197.262	1138
197.331	445
197.400	1401
197.468	935
197.537	759
197.606	1196
197.674	2224
197.743	4102
197.812	2160
197.880	3867
197.949	3022
198.017	3435
198.086	3081
198.155	1921
198.223	1852
198.292	4114
198.360	2440
198.429	1320
198.497	1539
198.566	2952
198.635	3825
198.703	2164
198.772	2637
198.840	5071
198.909	4913
198.977	1573
199.046	2312
199.114	2103
199.183	1991
199.251	1611
199.320	1268
199.388	1033
199.457	754
199.525	1683
199.594	1726
199.662	1327
199.731	1685
199.799	1385
199.867	1675
199.936	1358
200.004	1329
200.073	1526
200.141	1073
200.210	1779
200.278	1909
200.346	2146
200.415	1825
200.483	1988
200.552	1095
200.620	2166
200.688	2602
200.757	965
200.825	1981
200.893	1686
200.962	2151
201.030	1061
201.098	1597
201.167	1519
201.235	1748
201.303	1573
201.372	2454
201.440	1229
201.508	1968
201.577	1317
201.645	2465
201.713	1864
201.781	965
201.850	1753
201.918	1760
201.986	1581
202.055	2087
202.123	2041
202.191	2342
202.259	1996
202.327	1859
202.396	1484
202.464	1832
202.532	1432
202.600	5439
202.669	3520
202.737	1759
202.805	1894
202.873	2347
202.941	2219
203.009	1769
203.078	1227
203.146	1528
203.214	1776
203.282	1096
203.350	2104
203.418	1858
203.487	1948
203.555	2038
203.623	1651
203.691	1589
203.759	1519
203.827	1604
203.895	2030
203.963	1142
204.031	1537
204.099	2067
204.168	2668
204.236	2205
204.304	2397
204.372	1987
204.440	2098
204.508	2619
204.576	1514
204.644	1707
204.712	1513
204.780	2187
204.848	2352
204.916	1996
204.984	1912
205.052	2664
205.120	2273
205.188	1539
205.256	2085
205.324	1819
205.392	1291
205.460	2047
205.528	1675
205.596	2237
205.664	2012
205.732	1662
205.799	5162
205.867	8179
205.935	3035
206.003	3118
206.071	2529
206.139	2305
206.207	2614
206.275	1405
206.343	2173
206.411	2239
206.478	1717
206.546	2724
206.614	2227
206.682	2877
206.750	2367
206.818	2224
206.885	3400
206.953	1926
207.021	3118
207.089	2816
207.157	1755
207.225	2101
207.292	2117
207.360	2333
207.428	2715
207.496	2650
207.563	2024
207.631	2860
207.699	2068
207.767	2398
207.834	2240
207.902	2599
207.970	1936
208.038	2523
208.105	2474
208.173	2680
208.241	3293
208.309	3957
208.376	3699
208.444	5479
208.512	3954
208.579	2128
208.647	3481
208.715	4609
208.782	2501
208.850	2714
208.918	2390
208.985	2745
209.053	3599
209.120	3235
209.188	2218
209.256	2536
209.323	2634
209.391	3407
209.459	3770
209.526	3023
209.594	2303
209.661	3062
209.729	3504
209.796	2943
209.864	3503
209.932	2272
209.999	3481
210.067	4219
210.134	3076
210.202	3461
210.269	4463
210.337	5087
210.404	2741
210.472	3866
210.539	3859
210.607	3259
210.674	3747
210.742	3367
210.809	2741
210.877	3645
210.944	4520
211.012	3051
211.079	4344
211.146	2750
211.214	3187
211.281	3970
211.349	5141
211.416	4154
211.484	3714
211.551	3016
211.618	3780
211.686	3406
211.753	3086
211.821	3225
211.888	3228
211.955	3769
212.023	3530
212.090	3490
212.157	4465
212.225	4444
212.292	6736
212.359	10392
212.427	21113
212.494	12124
212.561	5521
212.629	4718
212.696	4258
212.763	3952
212.831	2833
212.898	4203
212.965	3224
213.032	4287
213.100	3510
213.167	4120
213.234	5112
213.301	3971
213.369	4212
213.436	3821
213.503	3721
213.570	4086
213.638	4340
213.705	3126
213.772	3136
213.839	4271
213.906	4521
213.973	4198
214.041	3641
214.108	3839
214.175	3896
214.242	3435
214.309	4243
214.376	4421
214.444	4326
214.511	4974
214.578	4151
214.645	4344
214.712	5217
214.779	4431
214.846	3942
214.913	5029
214.980	5076
215.048	6034
215.115	5655
215.182	6017
215.249	4922
215.316	3939
215.383	4325
215.450	3806
215.517	3352
215.584	3896
215.651	2802
215.718	2722
215.785	4662
215.852	4321
215.919	4651
215.986	4549
216.053	3764
216.120	2392
216.187	3813
216.254	4052
216.321	3278
216.388	4048
216.455	4425
216.522	4602
216.589	4946
216.656	7693
216.722	8690
216.789	7166
216.856	7270
216.923	6644
216.990	5933
217.057	5405
217.124	7294
217.191	6802
217.258	8104
217.324	10545
217.391	10769
217.458	8459
217.525	5431
217.592	5509
217.659	5046
217.725	5746
217.792	6266
217.859	6899
217.926	3411
217.993	3780
218.059	3220
218.126	3386
218.193	3826
218.260	3348
218.327	2609
218.393	2882
218.460	2729
218.527	2205
218.594	2850
218.660	6053
218.727	6569
218.794	3103
218.860	3689
218.927	2893
218.994	2558
219.061	2356
219.127	3211
219.194	4909
219.261	2447
219.327	2259
219.394	1927
219.461	1884
219.527	2253
219.594	4445
219.661	3114
219.727	2086
219.794	3427
219.860	2564
219.927	3607
219.994	4934
220.060	9414
220.127	7278
220.193	5480
220.260	4897
220.326	8346
220.393	13358
220.460	15577
220.526	10927
220.593	7612
220.659	7765
220.726	7737
220.792	13848
220.859	15168
220.925	20933
220.992	26358
221.058	22850
221.125	19550
221.191	15445
221.258	6958
221.324	6324
221.391	4203
221.457	4009
221.524	3156
221.590	6207
221.657	13626
221.723	10923
221.789	9006
221.856	9444
221.922	5232
221.989	5065
222.055	4050
222.121	2542
222.188	4800
222.254	3002
222.321	3107
222.387	2340
222.453	2558
222.520	2514
222.586	2535
222.652	2679
222.719	2144
222.785	3288
222.851	2386
222.918	2501
222.984	2752
223.050	2136
223.116	763
223.183	3437
223.249	1187
223.315	1372
223.382	1543
223.448	2429
223.514	1568
223.580	2352
223.647	1189
223.713	1976
223.779	2377
223.845	2386
223.911	2622
223.978	1627
224.044	2019
224.110	1841
224.176	2622
224.242	2381
224.309	1833
224.375	2515
224.441	2162
224.507	1336
224.573	1268
224.639	2485
224.705	1217
224.772	2193
224.838	2192
224.904	3284
224.970	2168
225.036	1997
225.102	1228
225.168	2354
225.234	1591
225.300	2013
225.366	1828
225.432	2122
225.499	2067
225.565	2279
225.631	2927
225.697	2732
225.763	3084
225.829	4897
225.895	4743
225.961	6621
226.027	5577
226.093	5097
226.159	7557
226.225	11507
226.291	24805
226.357	39361
226.423	22485
226.489	12241
226.554	8804
226.620	6938
226.686	8826
226.752	13829
226.818	23434
226.884	47421
226.950	42930
227.016	20173
227.082	11769
227.148	8187
227.214	7195
227.279	6208
227.345	4295
227.411	4059
227.477	5214
227.543	11486
227.609	12742
227.674	6930
227.740	4660
227.806	3882
227.872	3386
227.938	4034
228.003	5309
228.069	3191
228.135	2289
228.201	2871
228.267	3088
228.332	4435
228.398	3527
228.464	4145
228.530	2578
228.595	3087
228.661	2572
228.727	5121
228.792	4720
228.858	2310
228.924	1852
228.990	5099
229.055	2715
229.121	4500
229.187	2924
229.252	2930
229.318	2038
229.384	2354
229.449	3737
229.515	1443
229.581	1385
229.646	3552
229.712	3185
229.777	7158
229.843	7790
229.909	6253
229.974	5867
230.040	6098
230.105	4009
230.171	4063
230.236	5947
230.302	8268
230.368	8095
230.433	3953
230.499	4171
230.564	4592
230.630	2591
230.695	2983
230.761	4042
230.826	1644
230.892	6055
230.957	2991
231.023	3271
231.088	2813
231.154	2588
231.219	3809
231.284	4298
231.350	5666
231.415	2173
231.481	3202
231.546	2208
231.612	3450
231.677	1843
231.742	1979
231.808	3210
231.873	2580
231.939	1527
232.004	4707
232.069	6202
232.135	2260
232.200	2260
232.265	2471
232.331	2114
232.396	1609
232.461	1523
232.527	1642
232.592	1659
232.657	2538
232.723	3765
232.788	3770
232.853	2580
232.918	1396
232.984	2026
233.049	2355
233.114	2501
233.179	3763
233.245	5314
233.310	6287
233.375	1704
233.440	2781
233.506	1262
233.571	1551
233.636	2625
233.701	2897
233.766	4118
233.832	4879
233.897	2736
233.962	1728
234.027	4490
234.092	3691
234.157	2661
234.222	2537
234.288	4526
234.353	11163
234.418	10514
234.483	6653
234.548	4331
234.613	3679
234.678	4509
234.743	4372
234.808	12471
234.873	7751
234.938	4813
235.004	3747
235.069	3398
235.134	3445
235.199	3973
235.264	3954
235.329	1411
235.394	2718
235.459	4301
235.524	3501
235.589	3589
235.654	2863
235.719	2303
235.784	3442
235.849	3747
235.913	6401
235.978	7560
236.043	7311
236.108	5150
236.173	3433
236.238	4940
236.303	3214
236.368	3549
236.433	5740
236.498	9379
236.563	8912
236.627	17772
236.692	56254
236.757	51788
236.822	20225
236.887	14211
236.952	12008
237.017	8229
237.081	9878
237.146	12408
237.211	29129
237.276	56856
237.341	88270
237.405	48082
237.470	19784
237.535	12883
237.600	9265
237.664	7433
237.729	5042
237.794	7908
237.859	19416
237.923	10539
237.988	6059
238.053	7350
238.118	7477
238.182	16172
238.247	15587
238.312	7193
238.376	5836
238.441	3674
238.506	5429
238.570	2368
238.635	4786
238.700	3252
238.764	2752
238.829	7009
238.893	8630
238.958	5613
239.023	5271
239.087	4305
239.152	3719
239.216	2693
239.281	3765
239.346	2993
239.410	2477
239.475	3262
239.539	14312
239.604	12329
239.668	5409
239.733	3576
239.797	6610
239.862	18083
239.926	16134
239.991	6998
240.055	4664
240.120	3649
240.184	3430
240.249	3031
240.313	2562
240.378	3231
240.442	8580
240.507	14783
240.571	5718
240.635	5970
240.700	9460
240.764	4240
240.829	3050
240.893	1149
240.957	2703
241.022	8184
241.086	14425
241.151	6850
241.215	1879
241.279	5132
241.344	7732
241.408	5468
241.472	4567
241.537	5143
241.601	3980
241.665	2711
241.730	3241
241.794	4281
241.858	3713
241.922	4201
241.987	4079
242.051	3572
242.115	1899
242.179	4088
242.244	2570
242.308	3527
242.372	3699
242.436	3680
242.501	4502
242.565	2715
242.629	2439
242.693	3123
242.757	2322
242.822	2731
242.886	4269
242.950	3871
243.014	3364
243.078	3836
243.142	4858
243.206	3589
243.271	4450
243.335	4036
243.399	8142
243.463	25817
243.527	70866
243.591	25297
243.655	9868
243.719	5606
243.783	6539
243.847	9694
243.911	12897
243.975	13776
244.040	10249
244.104	6155
244.168	4761
244.232	6200
244.296	10770
244.360	12047
244.424	6741
244.488	4617
244.552	4485
244.615	1863
244.679	4312
244.743	4578
244.807	5439
244.871	3893
244.935	3636
244.999	2351
245.063	3669
245.127	3966
245.191	8412
245.255	8412
245.319	5821
245.383	5319
245.446	5741
245.510	2518
245.574	4875
245.638	4611
245.702	3729
245.766	12642
245.829	7511
245.893	3975
245.957	4006
246.021	5478
246.085	4101
246.149	5327
246.212	15506
246.276	24471
246.340	10988
246.404	6560
246.467	8070
246.531	11182
246.595	7757
246.659	6557
246.722	5125
246.786	6833
246.850	8315
246.913	11275
246.977	4948
247.041	4372
247.104	5275
247.168	5585
247.232	14220
247.295	32422
247.359	16852
247.423	7667
247.486	12884
247.550	8901
247.614	6438
247.677	7668
247.741	5147
247.804	4588
247.868	5437
247.932	11768
247.995	29249
248.059	10755
248.122	5021
248.186	7978
248.249	12166
248.313	47240
248.376	52827
248.440	33431
248.503	12128
248.567	10097
248.630	13168
248.694	18479
248.757	23341
248.821	53055
248.884	31864
248.948	26183
249.011	40131
249.075	60392
249.138	53118
249.202	19414
249.265	12101
249.328	13491
249.392	10941
249.455	8858
249.519	7417
249.582	8635
249.645	15639
249.709	11921
249.772	8323
249.835	7399
249.899	7708
249.962	7768
250.025	7261
250.089	17737
250.152	26720
250.215	12513
250.279	9483
250.342	9010
250.405	9210
250.468	8194
250.532	10181
250.595	17473
250.658	62349
250.721	108157
250.785	41135
250.848	22579
250.911	13166
250.974	11662
251.038	14959
251.101	31566
251.164	16050
251.227	16120
251.290	14011
251.354	21925
251.417	85732
251.480	94865
251.543	62292
251.606	158750
251.669	129326
251.732	50760
251.795	48809
251.859	50223
251.922	101933
251.985	65537
252.048	24773
252.111	17716
252.174	15096
252.237	26616
252.300	63799
252.363	65555
252.426	133386
252.489	60982
252.552	27812
252.615	19251
252.678	18169
252.741	45371
252.804	61400
252.867	135012
252.930	83373
252.993	44844
253.056	26585
253.119	18202
253.182	13825
253.245	24927
253.308	19045
253.371	15032
253.434	14030
253.497	13549
253.559	28839
253.622	20559
253.685	21275
253.748	24315
253.811	10846
253.874	13023
253.937	11973
254.000	10825
254.062	18171
254.125	30795
254.188	24149
254.251	22527
254.314	10486
254.376	17734
254.439	22513
254.502	17591
254.565	18477
254.628	36478
254.690	19851
254.753	11173
254.816	9137
254.878	9684
254.941	20009
255.004	23281
255.067	9314
255.129	9176
255.192	5479
255.255	4390
255.317	6482
255.380	5635
255.443	3928
255.505	3546
255.568	3744
255.631	4282
255.693	4297
255.756	3569
255.819	4640
255.881	3839
255.944	3989
256.006	3445
256.069	4090
256.132	3592
256.194	5169
256.257	12367
256.319	8948
256.382	8990
256.444	7756
256.507	5351
256.569	4876
256.632	5046
256.694	9120
256.757	30018
256.819	93802
256.882	40998
256.944	15565
257.007	12310
257.069	11529
257.132	8001
257.194	7196
257.257	5646
257.319	6656
257.381	8721
257.444	22655
257.506	100297
257.569	119974
257.631	49129
257.693	26868
257.756	13373
257.818	10515
257.880	7325
257.943	6724
258.005	5474
258.067	5837
258.130	4628
258.192	6904
258.254	12372
258.317	7935
258.379	5856
258.441	17457
258.503	18240
258.566	16028
258.628	22547
258.690	6579
258.753	6283
258.815	12017
258.877	7407
258.939	5417
259.001	4634
259.064	4301
259.126	5293
259.188	7496
259.250	5483
259.312	6771
259.375	14669
259.437	11324
259.499	5006
259.561	4902
259.623	5657
259.685	4747
259.747	6406
259.809	14223
259.872	28865
259.934	40464
259.996	42914
260.058	12817
260.120	6007
260.182	5146
260.244	3998
260.306	4044
260.368	4151
260.430	3950
260.492	7588
260.554	16088
260.616	12702
260.678	25144
260.740	32325
260.802	9039
260.864	7047
260.926	5745
260.988	5501
261.050	6307
261.112	11244
261.174	30066
261.236	25756
261.298	9540
261.359	12065
261.421	18860
261.483	6171
261.545	5776
261.607	2359
261.669	4223
261.731	7847
261.793	21560
261.854	10374
261.916	6547
261.978	5118
262.040	5854
262.102	5159
262.164	6765
262.225	6649
262.287	5194
262.349	13782
262.411	12264
262.472	5591
262.534	8501
262.596	17865
262.658	7462
262.719	3693
262.781	6172
262.843	16335
262.904	9247
262.966	6627
263.028	7324
263.090	35461
263.151	103681
263.213	34783
263.275	16910
263.336	8392
263.398	5482
263.459	3786
263.521	4943
263.583	13181
263.644	10517
263.706	4859
263.767	2839
263.829	3931
263.891	2907
263.952	2243
264.014	2507
264.075	4584
264.137	13747
264.198	7983
264.260	2832
264.321	3927
264.383	9431
264.444	23996
264.506	7666
264.567	5149
264.629	7931
264.690	16797
264.752	7887
264.813	5524
264.875	3599
264.936	4529
264.998	3323
265.059	3048
265.120	4232
265.182	8448
265.243	48546
265.305	55520
265.366	13066
265.427	7619
265.489	6216
265.550	3452
265.611	5636
265.673	4986
265.734	4234
265.795	3320
265.857	3067
265.918	5074
265.979	12935
266.040	77881
266.102	71900
266.163	19501
266.224	12636
266.286	8376
266.347	5377
266.408	4815
266.469	4831
266.530	4025
266.592	3614
266.653	7616
266.714	15088
266.775	5555
266.836	4402
266.898	2620
266.959	6311
267.020	4380
267.081	4646
267.142	3724
267.203	3309
267.264	2308
267.326	4107
267.387	2774
267.448	2266
267.509	2830
267.570	3011
267.631	2384
267.692	2780
267.753	2649
267.814	2739
267.875	7704
267.936	20287
267.997	8009
268.058	7797
268.119	4757
268.180	4476
268.241	2854
268.302	3396
268.363	2978
268.424	4424
268.485	3921
268.546	2509
268.607	3268
268.668	2577
268.729	2497
268.790	2660
268.851	2831
268.912	10507
268.972	13968
269.033	6734
269.094	3334
269.155	3685
269.216	4224
269.277	3456
269.338	3184
269.398	3137
269.459	3888
269.520	5991
269.581	7247
269.642	9633
269.702	6360
269.763	4820
269.824	4509
269.885	5477
269.945	8990
270.006	5070
270.067	2934
270.128	2594
270.188	2860
270.249	3222
270.310	1982
270.370	3425
270.431	2235
270.492	2727
270.553	3364
270.613	7672
270.674	18899
270.734	9375
270.795	4976
270.856	6505
270.916	5840
270.977	4187
271.038	5133
271.098	5267
271.159	7880
271.219	8695
271.280	3942
271.340	3759
271.401	3523
271.462	9422
271.522	6106
271.583	4328
271.643	4402
271.704	4763
271.764	4701
271.825	12229
271.885	43685
271.946	64277
272.006	20498
272.066	25941
272.127	49786
272.187	16174
272.248	8985
272.308	9061
272.369	34954
272.429	20527
272.489	11983
272.550	13054
272.610	12231
272.671	9999
272.731	8070
272.791	13502
272.852	8511
272.912	6873
272.972	4570
273.033	4309
273.093	6365
273.153	7815
273.214	4886
273.274	5810
273.334	22057
273.394	50760
273.455	19265
273.515	16770
273.575	42270
273.635	16921
273.696	18832
273.756	46546
273.816	18602
273.876	8962
273.936	16400
273.997	29714
274.057	8570
274.117	7549
274.177	11176
274.237	53405
274.297	49614
274.358	27180
274.418	37510
274.478	29047
274.538	10565
274.598	8057
274.658	21926
274.718	28004
274.778	12615
274.838	7145
274.898	13012
274.958	39860
275.018	44320
275.078	31056
275.138	12053
275.198	6480
275.258	5448
275.318	6666
275.378	11962
275.438	13517
275.498	8966
275.558	20203
275.618	43425
275.678	35516
275.738	19109
275.798	13933
275.858	7711
275.918	4517
275.978	5733
276.038	5787
276.098	4958
276.157	9611
276.217	30436
276.277	14565
276.337	9557
276.397	6028
276.457	7551
276.517	5726
276.576	3942
276.636	4039
276.696	6984
276.756	17371
276.815	13082
276.875	6379
276.935	6854
276.995	6052
277.055	4366
277.114	4506
277.174	7595
277.234	26854
277.293	12296
277.353	5964
277.413	4221
277.472	4416
277.532	5605
277.592	4995
277.651	16296
277.711	32220
277.771	11326
277.830	39645
277.890	34472
277.950	21250
278.009	68132
278.069	26133
278.128	22047
278.188	32437
278.248	14555
278.307	33740
278.367	22119
278.426	7566
278.486	5731
278.545	4790
278.605	4420
278.664	4531
278.724	5885
278.783	16074
278.843	48467
278.902	14548
278.962	7002
279.021	7677
279.081	7845
279.140	7231
279.199	7000
279.259	6568
279.318	7805
279.378	9223
279.437	16045
279.496	62841
279.556	149734
279.615	123517
279.675	32546
279.734	20117
279.793	29227
279.853	52719
279.912	20990
279.971	9850
280.031	10085
280.090	20288
280.149	41094
280.208	23971
280.268	96256
280.327	110890
280.386	26175
280.445	21389
280.505	22937
280.564	10421
280.623	8786
280.682	13731
280.742	22999
280.801	6904
280.860	5041
280.919	4692
280.978	4237
281.037	4069
281.097	4274
281.156	4571
281.215	3651
281.274	6565
281.333	29656
281.392	25594
281.451	5512
281.510	3974
281.569	4598
281.628	4198
281.688	3722
281.747	5251
281.806	4005
281.865	4140
281.924	3111
281.983	3512
282.042	2938
282.101	2808
282.160	2548
282.219	3165
282.278	3403
282.337	16184
282.396	11730
282.454	4058
282.513	6514
282.572	23281
282.631	14855
282.690	4659
282.749	3531
282.808	5036
282.867	4254
282.926	4886
282.985	3640
283.043	3157
283.102	3631
283.161	3846
283.220	10902
283.279	29623
283.338	8192
283.396	3995
283.455	5352
283.514	4749
283.573	7563
283.631	6246
283.690	4483
283.749	4631
283.808	8600
283.866	12951
283.925	3923
283.984	4487
284.043	5070
284.101	6355
284.160	3337
284.219	6243
284.277	4866
284.336	8619
284.395	30673
284.453	29292
284.512	9199
284.570	11816
284.629	9062
284.688	6489
284.746	8095
284.805	8965
284.863	10902
284.922	12690
284.981	13620
285.039	20234
285.098	37912
285.156	101672
285.215	264888
285.273	264935
285.332	118725
285.390	57566
285.449	36056
285.507	24727
285.566	17475
285.624	12650
285.683	10394
285.741	7754
285.799	5880
285.858	6015
285.916	5774
285.975	4764
286.033	4363
286.091	4289
286.150	3395
286.208	3937
286.267	4673
286.325	5440
286.383	8252
286.442	7716
286.500	3254
286.558	3617
286.616	2333
286.675	5054
286.733	4553
286.791	4436
286.850	4411
286.908	6970
286.966	12135
287.024	4689
287.083	3844
287.141	3391
287.199	4336
287.257	6892
287.315	4566
287.374	5307
287.432	13917
287.490	9936
287.548	6128
287.606	4117
287.664	4949
287.723	6675
287.781	8140
287.839	6157
287.897	6551
287.955	8604
288.013	13708
288.071	34123
288.129	121579
288.187	325171
288.245	160913
288.303	53780
288.361	30996
288.419	21896
288.477	16303
288.535	10524
288.593	8397
288.651	6123
288.709	4717
288.767	5212
288.825	3769
288.883	4066
288.941	2961
288.999	3011
289.057	2663
289.115	3070
289.173	3154
289.231	3750
289.289	3245
289.346	2746
289.404	4551
289.462	7557
289.520	7864
289.578	3841
289.636	2283
289.694	2809
289.751	2765
289.809	2502
289.867	3163
289.925	4400
289.983	5091
290.040	2599
290.098	2610
290.156	3267
290.214	3985
290.271	2864
290.329	3299
290.387	1745
290.444	2161
290.502	1861
290.560	2117
290.617	1704
290.675	2061
290.733	1962
290.790	3306
290.848	2418
290.906	2242
290.963	2575
291.021	2692
291.078	2177
291.136	2718
291.194	10677
291.251	27421
291.309	8012
291.366	3080
291.424	2514
291.481	2402
291.539	2812
291.596	2264
291.654	2092
291.711	2659
291.769	3298
291.826	7574
291.884	5839
291.941	2852
291.999	2919
292.056	3758
292.114	4367
292.171	2968
292.228	3489
292.286	4502
292.343	8091
292.401	9123
292.458	4615
292.515	3672
292.573	4740
292.630	4397
292.687	4865
292.745	2806
292.802	5172
292.859	12852
292.917	27620
292.974	18097
293.031	5498
293.089	4262
293.146	2624
293.203	3326
293.260	2675
293.318	2153
293.375	5391
293.432	2981
293.489	2919
293.546	3355
293.604	5861
293.661	16222
293.718	50225
293.775	23305
293.832	10691
293.889	7622
293.947	6813
294.004	5218
294.061	6881
294.118	11647
294.175	25210
294.232	27151
294.289	10866
294.346	6032
294.403	6021
294.460	4840
294.517	3693
294.574	3681
294.631	3117
294.688	5398
294.745	13380
294.802	52094
294.859	53222
294.916	18541
294.973	10404
295.030	8744
295.087	8147
295.144	4949
295.201	4354
295.258	3881
295.315	6653
295.372	19700
295.429	43696
295.486	17084
295.542	9385
295.599	19082
295.656	34056
295.713	24200
295.770	39829
295.827	15678
295.883	7399
295.940	5763
295.997	10391
296.054	9739
296.111	5150
296.167	4049
296.224	2932
296.281	1900
296.338	2486
296.394	3643
296.451	5412
296.508	15212
296.564	32508
296.621	20060
296.678	40043
296.734	62095
296.791	21387
296.848	10300
296.904	11706
296.961	24869
297.018	43205
297.074	33662
297.131	12027
297.187	8660
297.244	13955
297.301	43418
297.357	84747
297.414	28798
297.470	11667
297.527	7450
297.583	6319
297.640	6543
297.696	4396
297.753	3844
297.809	2761
297.866	3524
297.922	3439
297.979	3251
298.035	4347
298.092	8471
298.148	24407
298.204	25610
298.261	11937
298.317	17878
298.374	51626
298.430	31255
298.486	12255
298.543	9379
298.599	8149
298.656	8827
298.712	15339
298.768	43853
298.824	33619
298.881	10122
298.937	6386
298.993	5501
299.050	6492
299.106	5940
299.162	4399
299.218	4704
299.275	4075
299.331	5522
299.387	11406
299.443	44075
299.500	52774
299.556	21187
299.612	9888
299.668	9478
299.724	12687
299.780	15347
299.837	8004
299.893	11682
299.949	38798
300.005	50438
300.061	37226
300.117	67697
300.173	33675
300.229	13682
300.285	13944
300.341	17582
300.397	9448
300.453	4948
300.510	5031
300.566	5359
300.622	9012
300.678	25742
300.734	48050
300.790	39851
300.845	50775
300.901	31222
300.957	41600
301.013	32487
301.069	12962
301.125	8641
301.181	8807
301.237	6550
301.293	4030
301.349	3525
301.405	2959
301.461	3060
301.516	3371
301.572	4011
301.628	9154
301.684	9042
301.740	14027
301.796	23807
301.851	17068
301.907	26265
301.963	29021
302.019	45027
302.074	127595
302.130	124658
302.186	51405
302.242	20996
302.297	15078
302.353	15461
302.409	26636
302.464	24194
302.520	18591
302.576	43622
302.631	53333
302.687	27776
302.743	11760
302.798	7564
302.854	6164
302.910	5919
302.965	8354
303.021	13027
303.076	12236
303.132	15468
303.187	18378
303.243	10379
303.299	5996
303.354	3639
303.410	4184
303.465	3509
303.521	2898
303.576	4240
303.632	6810
303.687	11938
303.743	39858
303.798	36202
303.853	13537
303.909	6595
303.964	6544
304.020	8921
304.075	14518
304.130	11897
304.186	22110
304.241	23673
304.297	18225
304.352	9272
304.358	8967
304.407	6495
304.449	6237
304.463	6158
304.518	5679
304.539	5416
304.573	4981
304.629	6529
304.630	6616
304.684	10976
304.720	22198
304.739	27798
304.794	47868
304.811	40232
304.850	21982
304.902	9434
304.905	8635
304.960	7163
304.992	7709
305.015	8093
305.071	7400
305.083	6621
305.126	3841
305.173	2963
305.181	2833
305.236	2951
305.264	3359
305.292	3756
305.347	4567
305.354	4559
305.402	4604
305.445	6165
305.457	6580
305.512	8413
305.535	8048
305.567	7591
305.622	7680
305.626	8053
305.678	16254
305.716	35129
305.733	42115
305.788	50389
305.807	42989
305.843	30209
305.897	38424
305.898	38491
305.953	41938
305.988	27295
306.008	19221
306.063	10505
306.078	9308
306.118	6882
306.168	4492
306.173	4255
306.228	4296
306.259	3728
306.283	3511
306.338	3345
306.349	3623
306.393	4532
306.440	5593
306.448	5814
306.503	6206
306.530	6447
306.558	7348
306.613	14222
306.620	15342
306.668	23884
306.711	34694
306.723	36163
306.778	30378
306.801	22674
306.833	13669
306.888	7577
306.892	7325
306.943	5226
306.982	4083
306.997	3781
307.052	4513
307.072	4413
307.107	4313
307.162	5326
307.163	5357
307.217	8666
307.253	9853
307.272	9960
307.327	10850
307.343	10061
307.381	8562
307.434	8202
307.436	8402
307.491	16833
307.524	25373
307.546	28387
307.600	31246
307.614	27853
307.655	16306
307.704	8910
307.710	8570
307.765	8749
307.795	10800
307.819	12906
307.874	20551
307.885	20671
307.929	17735
307.975	14763
307.984	15041
308.038	21372
308.065	28514
308.093	48088
308.148	103386
308.156	116756
308.202	182821
308.246	222423
308.257	220524
308.312	121601
308.336	86244
308.366	61315
308.421	38751
308.426	36898
308.475	23508
308.517	17090
308.530	15671
308.585	12353
308.607	11548
308.639	11087
308.694	11293
308.697	11415
308.748	17420
308.787	25147
308.803	25562
308.857	21018
308.877	17919
308.912	14453
308.967	13465
308.967	13502
309.021	18935
309.058	24446
309.076	31348
309.130	59419
309.148	72176
309.185	133418
309.238	241166
309.239	241674
309.293	265299
309.328	237998
309.348	206916
309.402	97919
309.418	72752
309.457	47872
309.508	29905
309.511	29167
309.566	24040
309.598	22424
309.620	23178
309.674	27592
309.688	29085
309.729	27201
309.778	21948
309.783	21443
309.837	15538
309.868	13620
309.892	17285
309.946	27875
309.959	31654
310.001	42135
310.049	50608
310.055	49147
310.109	29066
310.139	17375
310.163	12484
310.218	6508
310.229	5545
310.272	4797
310.319	4512
310.326	4399
310.381	3884
310.409	3644
310.435	3666
310.489	3508
310.499	3577
310.543	3567
310.589	3311
310.598	3257
310.652	3508
310.679	3470
310.706	3193
310.760	2432
310.769	2337
310.814	2244
310.859	2262
310.868	2291
310.923	2525
310.948	2653
310.977	2751
311.031	3046
311.038	3079
311.085	2756
311.128	2418
311.139	2503
311.193	2980
311.218	3203
311.247	2996
311.301	2523
311.308	2485
311.356	2969
311.398	3414
311.410	3193
311.464	2055
311.488	1584
311.518	1880
311.572	2377
311.578	2449
311.626	3725
311.668	4866
311.680	4793
311.734	4290
311.758	4117
311.788	3745
311.842	3033
311.847	2969
311.896	4621
311.937	6089
311.950	5790
312.004	4476
312.027	3872
312.058	3411
312.112	2668
312.117	2603
312.165	2478
312.207	2394
312.297	3716
312.386	2600
312.476	3651
312.566	6422
312.656	4091
312.745	2028
312.835	2266
312.925	3090
313.015	3513
313.104	3066
313.194	2550
313.284	2961
313.374	3395
313.463	3469
313.553	3471
313.643	1917
313.732	2248
313.822	1351
313.912	3126
314.001	3388
314.091	4451
314.180	4031
314.270	4429
314.360	4527
314.449	4270
314.539	1862
314.628	2840
314.718	2415
314.808	4327
314.897	2547
314.987	3066
315.076	4748
315.166	6137
315.255	4132
315.345	4500
315.434	3661
315.524	4185
315.613	4940
315.703	7050
315.792	11390
315.881	33184
315.971	10638
316.060	9987
316.150	11433
316.239	12048
316.328	4124
316.418	2908
316.507	2309
316.597	5128
316.686	3933
316.775	5962
316.865	12999
316.954	3562
317.043	2595
317.133	3129
317.222	2276
317.311	2861
317.400	1716
317.490	5218
317.579	4468
317.668	3702
317.757	7043
317.847	17831
317.936	56800
318.025	21236
318.114	11621
318.203	6325
318.293	5927
318.382	9574
318.471	9551
318.560	14087
318.649	30427
318.738	5978
318.828	4785
318.917	5784
319.006	6321
319.095	16027
319.184	41052
319.273	22653
319.362	11795
319.451	4029
319.540	3893
319.629	9931
319.718	15257
319.807	7690
319.896	14504
319.985	50222
320.074	17604
320.163	4788
320.252	6793
320.341	6206
320.430	4868
320.519	7095
320.608	3575
320.697	3566
320.786	2902
320.875	6018
320.964	6845
321.053	11681
321.142	15520
321.230	16297
321.319	12094
321.408	27018
321.497	11642
321.586	11907
321.675	12510
321.764	12124
321.852	7145
321.941	16610
322.030	10120
322.119	11297
322.207	28121
322.296	19337
322.385	10062
322.474	14077
322.562	36713
322.651	18791
322.740	12161
322.829	17014
322.917	16629
323.006	10456
323.095	8560
323.183	5659
323.272	9319
323.361	19855
323.449	55001
323.538	18428
323.626	37444
323.715	22239
323.804	9104
323.892	33289
323.981	18784
324.069	7031
324.158	17687
324.246	17360
324.335	6423
324.424	10197
324.512	4094
324.601	7146
324.689	18550
324.778	32288
324.866	12496
324.954	4362
325.043	3610
325.131	7183
325.220	13929
325.308	14726
325.397	10624
325.485	6800
325.574	2619
325.662	2753
325.750	2372
325.839	2270
325.927	2287
326.015	4108
326.104	4760
326.192	7315
326.280	2108
326.369	2409
326.457	4730
326.545	8450
326.634	3255
326.722	1885
326.810	1898
326.898	3045
326.987	3166
327.075	7118
327.163	7433
327.251	5779
327.340	13263
327.428	17174
327.516	3625
327.604	2252
327.692	2850
327.781	3592
327.869	5428
327.957	4475
328.045	2934
328.133	2419
328.221	2624
328.309	2652
328.397	2539
328.485	4143
328.574	5982
328.662	19290
328.750	9246
328.838	3565
328.926	2413
329.014	2259
329.102	3380
329.190	9340
329.278	5631
329.366	2264
329.454	1232
329.542	2404
329.630	1364
329.718	2714
329.806	2308
329.893	2522
329.981	2182
330.069	6166
330.157	20433
330.245	55149
330.333	24150
330.421	4628
330.509	5124
330.597	22104
330.684	12809
330.772	4292
330.860	4879
330.948	6756
331.036	3527
331.123	1864
331.211	1936
331.299	3259
331.387	5328
331.475	10362
331.562	2924
331.650	1909
331.738	2316
331.825	4125
331.913	1906
332.001	1759
332.089	2347
332.176	5644
332.264	15696
332.352	11108
332.439	3635
332.527	3223
332.614	2073
332.702	3847
332.790	1419
332.877	8514
332.965	15005
333.052	4374
333.140	3464
333.228	7821
333.315	2488
333.403	3315
333.490	8641
333.578	7302
333.665	8898
333.753	4644
333.840	1881
333.928	4282
334.015	10400
334.103	19301
334.190	52367
334.278	12734
334.365	6643
334.452	5626
334.540	2739
334.627	3421
334.715	6346
334.802	14380
334.889	65850
334.977	67530
335.064	11716
335.151	4831
335.239	4366
335.326	6976
335.413	27082
335.501	35267
335.588	4757
335.675	3990
335.762	3871
335.850	6577
335.937	7624
336.024	18897
336.111	72181
336.199	35333
336.286	7690
336.373	3430
336.460	2621
336.547	2791
336.635	3328
336.722	3294
336.809	2319
336.896	4829
336.983	14662
337.070	37890
337.157	55944
337.245	42669
337.332	28361
337.419	4044
337.506	1557
337.593	4221
337.680	11236
337.767	31773
337.854	8832
337.941	9535
338.028	12474
338.115	4128
338.202	5139
338.289	12058
338.376	40340
338.463	13388
338.550	19412
338.637	18892
338.724	7718
338.811	11942
338.898	2026
338.984	2188
339.071	1803
339.158	3978
339.245	9703
339.332	6483
339.419	7522
339.506	7935
339.593	992
339.679	2183
339.766	1461
339.853	3202
339.940	6885
340.027	2551
340.113	2642
340.200	3955
340.287	2402
340.374	3846
340.460	6272
340.547	3273
340.634	6694
340.720	23045
340.807	11836
340.894	2759
340.980	2101
341.067	2115
341.154	2795
341.240	5333
341.327	10870
341.414	2899
341.500	1143
341.587	2642
341.674	1460
341.760	7621
341.847	7754
341.933	2667
342.020	850
342.106	1391
342.193	1969
342.279	4967
342.366	3419
342.452	7022
342.539	4248
342.625	9992
342.712	23295
342.798	9564
342.885	2764
342.971	1430
343.058	1384
343.144	2447
343.230	1187
343.317	2025
343.403	792
343.490	1395
343.576	1039
343.662	2407
343.749	2352
343.835	4718
343.921	10657
344.008	68640
344.094	142438
344.180	28770
344.267	10176
344.353	37242
344.439	33327
344.525	12406
344.612	3677
344.698	3911
344.784	2076
344.870	2852
344.957	1452
345.043	4286
345.129	2919
345.215	6550
345.301	2483
345.387	3085
345.474	956
345.560	1504
345.646	1277
345.732	2016
345.818	1674
345.904	2625
345.990	1888
346.076	3166
346.162	3662
346.249	2407
346.335	639
346.421	4157
346.507	16925
346.593	55521
346.679	9826
346.765	2790
346.851	2431
346.937	2171
347.023	1723
347.108	3385
347.194	1901
347.280	2143
347.366	4048
347.452	17494
347.538	69344
347.624	45161
347.710	30848
347.796	4431
347.882	1494
347.967	2451
348.053	1947
348.139	2466
348.225	1437
348.311	1760
348.397	712
348.482	3139
348.568	2769
348.654	2244
348.740	3802
348.825	3248
348.911	7625
348.997	32883
349.083	59792
349.168	8353
349.254	1833
349.340	2804
349.425	1259
349.511	3594
349.597	3060
349.682	10410
349.768	32605
349.854	14362
349.939	2106
350.025	2057
350.110	1288
350.196	1482
350.282	546
350.367	2081
350.453	2701
350.538	3813
350.624	2271
350.709	2584
350.795	831
350.880	1038
350.966	2446
351.051	3751
351.137	1988
351.222	2843
351.308	9692
351.393	26292
351.479	4548
351.564	1210
351.649	1721
351.735	2039
351.820	1286
351.906	2077
351.991	3472
352.076	17791
352.162	22869
352.247	4866
352.332	2201
352.418	4298
352.503	7910
352.588	38000
352.673	27646
352.759	5764
352.844	1426
352.929	3161
353.014	3774
353.100	3614
353.185	4813
353.270	8097
353.355	7757
353.441	2685
353.526	1951
353.611	6986
353.696	7934
353.781	5545
353.866	791
353.952	3492
354.037	6834
354.122	17863
354.207	13710
354.292	4736
354.377	1914
354.462	2720
354.547	2466
354.632	3941
354.717	4344
354.802	5748
354.887	1702
354.972	1601
355.057	1340
355.142	1032
355.227	2359
355.312	4533
355.397	10474
355.482	27254
355.567	11217
355.652	9135
355.737	10763
355.822	39469
355.907	27187
355.991	4371
356.076	1836
356.161	2095
356.246	1307
356.331	3711
356.416	9904
356.501	72362
356.585	65686
356.670	6947
356.755	5095
356.840	8632
356.924	46202
357.009	158555
357.094	51928
357.179	9336
357.263	5362
357.348	6120
357.433	5968
357.517	5324
357.602	3203
357.687	2677
357.771	3844
357.856	4161
357.941	7179
358.025	37283
358.110	154818
358.195	61522
358.279	8189
358.364	6848
358.448	24127
358.533	66728
358.617	45885
358.702	47763
358.787	14851
358.871	8285
358.956	5478
359.040	2515
359.125	1765
359.209	2247
359.294	1894
359.378	3337
359.462	5681
359.547	3958
359.631	1898
359.716	857
359.800	1988
359.885	4152
359.969	2125
360.053	3074
360.138	2316
360.222	3891
360.306	7053
360.391	5542
360.475	6295
360.559	14949
360.644	21649
360.728	16259
360.812	40145
360.896	103251
360.981	33214
361.065	14618
361.149	4221
361.233	4079
361.318	2632
361.402	3743
361.486	3269
361.570	3283
361.654	4644
361.739	12897
361.823	68834
361.907	99943
361.991	13766
362.075	7741
362.159	14625
362.243	11605
362.327	13196
362.411	19669
362.495	8093
362.580	4457
362.664	2736
362.748	1947
362.832	3063
362.916	7674
363.000	32906
363.084	99448
363.168	120668
363.252	23041
363.336	6376
363.420	11452
363.503	40339
363.587	42501
363.671	7297
363.755	4628
363.839	7775
363.923	3460
364.007	8802
364.091	9762
364.175	15869
364.258	65283
364.342	48938
364.426	71812
364.510	34851
364.594	12939
364.677	20354
364.761	93909
364.845	57713
364.929	15340
365.013	11094
365.096	10508
365.180	11522
365.264	19023
365.347	63788
365.431	22848
365.515	4545
365.598	2466
365.682	3364
365.766	4782
365.849	5220
365.933	3450
366.017	5197
366.100	3206
366.184	-52
366.267	3452
366.351	1852
366.435	2242
366.518	570
366.602	1803
366.685	2296
366.769	2855
366.852	4485
366.936	9344
367.019	5288
367.103	3314
367.186	6036
367.270	2133
367.353	504
367.436	2263
367.520	1566
367.603	3754
367.687	4224
367.770	10051
367.853	6731
367.937	28011
368.020	41842
368.104	7810
368.187	6668
368.270	10555
368.353	8494
368.437	12292
368.520	25752
368.603	16606
368.687	28078
368.770	50485
368.853	9577
368.936	9838
369.020	7298
369.103	2866
369.186	530
369.269	1838
369.352	6157
369.436	8379
369.519	5025
369.602	1370
369.685	3775
369.768	2966
369.851	2157
369.934	2024
370.018	2345
370.101	7400
370.184	6260
370.267	4401
370.350	6477
370.433	13597
370.516	49902
370.599	60056
370.682	14297
370.765	24227
370.848	34277
370.931	66392
371.014	20300
371.097	3269
371.180	2871
371.263	2564
371.346	55
371.429	1888
371.511	1490
371.594	4848
371.677	7355
371.760	7926
371.843	9749
371.926	57890
372.009	124302
372.091	34401
372.174	25771
372.257	68982
372.340	22315
372.423	12174
372.505	12226
372.588	6096
372.671	19879
372.754	66374
372.836	27447
372.919	18601
373.002	30537
373.085	9023
373.167	9302
373.250	28260
373.332	65956
373.415	88798
373.498	169739
373.580	56181
373.663	93271
373.746	115744
373.828	21206
373.911	8455
373.993	9055
374.076	32707
374.159	27762
374.241	16108
374.324	51780
374.406	32934
374.489	58083
374.571	158345
374.654	56221
374.736	30143
374.819	98839
374.901	131749
374.983	123931
375.066	19304
375.148	7697
375.231	30567
375.313	49825
375.395	16264
375.478	4199
375.560	4120
375.643	5785
375.725	28121
375.807	117531
375.890	77878
375.972	24255
376.054	14394
376.136	21201
376.219	10749
376.301	34795
376.383	98696
376.465	31963
376.548	17619
376.630	25938
376.712	80911
376.794	32262
376.877	3566
376.959	1824
377.041	2903
377.123	5601
377.205	6698
377.287	1188
377.369	3442
377.452	1735
377.534	1973
377.616	2071
377.698	2656
377.780	498
377.862	2066
377.944	2931
378.026	877
378.108	2399
378.190	1760
378.272	1334
378.354	807
378.436	632
378.518	3241
378.600	12453
378.682	13459
378.764	35529
378.846	24986
378.928	5613
379.010	8331
379.091	4609
379.173	3262
379.255	1559
379.337	3164
379.419	16829
379.501	51728
379.583	16555
379.664	4840
379.746	10449
379.828	34716
379.910	46265
379.991	39118
380.073	5251
380.155	2867
380.237	1450
380.318	1880
380.400	1754
380.482	6894
380.564	8472
380.645	9046
380.727	8186
380.809	4917
380.890	2879
380.972	1580
381.053	2194
381.135	3996
381.217	12547
381.298	35522
381.380	14283
381.461	15826
381.543	80785
381.624	88602
381.706	12631
381.787	5530
381.869	7195
381.951	37697
382.032	139540
382.113	74688
382.195	11367
382.276	8921
382.358	24738
382.439	76987
382.521	84286
382.602	126806
382.684	48691
382.765	89367
382.846	69315
382.928	72438
383.009	35331
383.090	24449
383.172	107339
383.253	166472
383.334	65161
383.416	104288
383.497	45273
383.578	12454
383.659	20869
383.741	93801
383.822	264274
383.903	122522
383.984	60576
384.066	122600
384.147	67210
384.228	11551
384.309	8383
384.390	6327
384.471	3774
384.553	4722
384.634	6063
384.715	7346
384.796	3032
384.877	6613
384.958	31503
385.039	35856
385.120	10078
385.201	5732
385.282	4617
385.363	5828
385.444	3939
385.525	13587
385.606	60526
385.687	47436
385.768	8295
385.849	11621
385.930	66338
386.011	108242
386.092	23733
386.173	5452
386.254	3187
386.335	4788
386.416	4232
386.496	20743
386.577	32526
386.658	9851
386.739	4667
386.820	5659
386.901	2645
386.981	4256
387.062	2883
387.143	8139
387.224	35113
387.304	29575
387.385	9436
387.466	4200
387.547	6402
387.627	5502
387.708	15182
387.789	68324
387.869	81814
387.950	20151
388.031	3149
388.111	1590
388.192	7250
388.273	10883
388.353	5604
388.434	5074
388.514	15350
388.595	75346
388.676	84342
388.756	32718
388.837	29918
388.917	16307
388.998	2155
389.078	3403
389.159	2931
389.239	2050
389.320	5359
389.400	3935
389.480	13858
389.561	39561
389.641	17484
389.722	5436
389.802	7999
389.883	18397
389.963	50833
390.043	26197
390.124	5172
390.204	12025
390.284	36969
390.365	21465
390.445	25670
390.525	74375
390.605	61704
390.686	17650
390.766	5921
390.846	3214
390.927	1246
391.007	1902
391.087	2730
391.167	2807
391.247	1748
391.328	6099
391.408	6731
391.488	5235
391.568	856
391.648	4066
391.728	6383
391.808	7053
391.888	6929
391.969	22681
392.049	32290
392.129	13530
392.209	18575
392.289	47699
392.369	22173
392.449	13315
392.529	9008
392.609	10265
392.689	15582
392.769	50132
392.849	36976
392.929	28032
393.009	65736
393.089	50822
393.169	50646
393.248	178232
393.328	609823
393.408	589620
393.488	151460
393.568	43400
393.648	20283
393.728	13875
393.807	10019
393.887	10228
393.967	8106
394.047	9534
394.127	11041
394.206	20873
394.286	85861
394.366	340443
394.446	308889
394.525	60619
394.605	14845
394.685	11973
394.764	21250
394.844	34951
394.924	23264
395.003	8795
395.083	5571
395.163	5561
395.242	4406
395.322	6512
395.402	3305
395.481	8022
395.561	16149
395.640	42910
395.720	36181
395.799	47028
395.879	35709
395.958	28884
396.038	123809
396.117	448073
396.197	414966
396.276	100249
396.356	30686
396.435	21133
396.515	17013
396.594	21483
396.673	45899
396.753	189738
396.832	545430
396.912	360654
396.991	79207
397.070	24344
397.150	11514
397.229	10027
397.308	14715
397.388	22826
397.467	9943
397.546	4978
397.625	2519
397.705	6450
397.784	5579
397.863	2993
397.942	2478
398.022	3841
398.101	12833
398.180	35420
398.259	15406
398.338	5054
398.417	2544
398.497	1920
398.576	2711
398.655	1942
398.734	2307
398.813	3175
398.892	12354
398.971	40341
399.050	16279
399.129	2009
399.208	1594
399.287	1274
399.366	945
399.445	1578
399.524	693
399.603	1015
399.682	4660
399.761	14691
399.840	45484
399.919	30485
399.998	3077
400.077	618
400.156	-718
400.235	3573
400.313	1181
400.392	2527
400.471	16941
400.550	27037
400.629	4572
400.708	3125
400.786	1508
400.865	6958
400.944	6851
401.023	5380
401.102	470
401.180	311
401.259	945
401.338	2067
401.416	2980
401.495	1819
401.574	1363
401.652	828
401.731	2784
401.810	1669
401.888	787
401.967	799
402.046	721
402.124	3020
402.203	2718
402.281	2815
402.360	2259
402.438	8415
402.517	4165
402.596	1891
402.674	1996
402.753	1855
402.831	724
402.910	3257
402.988	11087
403.066	39690
403.145	19153
403.223	12747
403.302	29826
403.380	20809
403.459	19887
403.537	7317
403.615	2327
403.694	502
403.772	1586
403.850	1012
403.929	337
404.007	1131
404.085	3885
404.164	2988
404.242	708
404.320	4549
404.398	9339
404.477	23655
404.555	103873
404.633	79300
404.711	11822
404.789	4219
404.868	1266
404.946	653
405.024	-338
405.102	1067
405.180	-336
405.258	160
405.336	852
405.415	900
405.493	3215
405.571	3824
405.649	437
405.727	182
405.805	2949
405.883	1978
405.961	1873
406.039	2773
406.117	-17
406.195	4228
406.273	21568
406.351	84642
406.429	42061
406.507	4889
406.585	1148
406.663	3300
406.740	2407
406.818	2200
406.896	965
406.974	2493
407.052	5627
407.130	48785
407.208	60477
407.285	10949
407.363	219
407.441	1496
407.519	525
407.596	3058
407.674	10659
407.752	35541
407.830	26307
407.907	6908
407.985	1771
408.063	1218
408.141	507
408.218	2650
408.296	876
408.373	2212
408.451	1560
408.529	1915
408.606	825
408.684	655
408.762	269
408.839	1045
408.917	882
408.994	-129
409.072	-530
409.149	320
409.227	2498
409.304	3344
409.382	2767
409.459	3925
409.537	5231
409.614	4192
409.692	2102
409.769	2610
409.846	6757
409.924	8506
410.001	1934
410.079	1920
410.156	1662
410.233	1692
410.311	465
410.388	898
410.465	224
410.543	681
410.620	463
410.697	2127
410.775	2191
410.852	189
410.929	1775
411.006	2571
411.083	899
411.161	2646
411.238	3257
411.315	1184
411.392	-153
411.469	2438
411.547	763
411.624	97
411.701	50
411.778	1394
411.855	3994
411.932	1773
412.009	57
412.086	1015
412.163	936
412.240	1199
412.317	1513
412.394	758
412.471	-230
412.548	681
412.625	-32
412.702	1095
412.779	2542
412.856	1024
412.933	-726
413.010	430
413.087	2523
413.164	15626
413.241	19791
413.318	3653
413.395	1826
413.471	3950
413.548	1541
413.625	1274
413.702	-89
413.779	1362
413.855	291
413.932	-175
414.009	-994
414.086	923
414.162	101
414.239	3273
414.316	15744
414.393	35680
414.469	9669
414.546	763
414.623	-453
414.699	1249
414.776	849
414.853	363
414.929	713
415.006	215
415.082	982
415.159	898
415.236	130
415.312	1345
415.389	3037
415.465	3546
415.542	585
415.618	523
415.695	2196
415.771	1381
415.848	576
415.924	1498
416.000	489
416.077	1148
416.153	-1438
416.230	-870
416.306	-419
416.383	209
416.459	-362
416.535	397
416.612	-978
416.688	353
416.764	-767
416.841	78
416.917	-327
416.993	592
417.069	599
417.146	2309
417.222	2626
417.298	1339
417.374	-80
417.451	1239
417.527	1107
417.603	1685
417.679	764
417.755	653
417.831	-910
417.908	310
417.984	-321
418.060	-294
418.136	3544
418.212	4115
418.288	655
418.364	1172
418.440	670
418.516	2237
418.592	2062
418.668	5746
418.744	8877
418.820	5813
418.896	750
418.972	-75
419.048	371
419.124	4308
419.200	1348
419.276	36
419.352	-849
419.428	149
419.504	663
419.579	1899
419.655	786
419.731	967
419.807	5906
419.883	11051
419.959	6535
420.034	2669
420.110	4891
420.186	22419
420.262	14418
420.337	2373
420.413	1112
420.489	358
420.565	792
420.640	567
420.716	230
420.792	-189
420.867	1601
420.943	712
421.019	2031
421.094	1712
421.170	497
421.245	613
421.321	993
421.397	1521
421.472	6679
421.548	20060
421.623	10518
421.699	3418
421.774	2498
421.850	2085
421.925	4333
422.001	4979
422.076	3225
422.152	5025
422.227	7047
422.302	10586
422.378	15090
422.453	31524
422.529	89324
422.604	265449
422.679	401262
422.755	227558
422.830	69641
422.905	27955
422.981	14787
423.056	9241
423.131	6202
423.207	4506
423.282	3767
423.357	7896
423.432	4582
423.508	5198
423.583	10087
423.658	7142
423.733	2258
423.808	3023
423.883	4330
423.959	3144
424.034	1715
424.109	1812
424.184	322
424.259	1234
424.334	766
424.409	257
424.484	210
424.559	1196
424.634	301
424.709	2219
424.784	2437
424.859	1490
424.934	2150
425.009	15433
425.084	22968
425.159	6966
425.234	1035
425.309	-303
425.384	-144
425.459	-197
425.534	12
425.609	-35
425.683	496
425.758	129
425.833	330
425.908	2002
425.983	8170
426.058	24742
426.132	8732
426.207	893
426.282	2382
426.357	1216
426.431	127
426.506	1422
426.581	319
426.655	653
426.730	-124
426.805	-551
426.879	980
426.954	592
427.029	2868
427.103	27727
427.178	67847
427.253	24096
427.327	2889
427.402	1084
427.476	1967
427.551	619
427.625	223
427.700	1137
427.774	-500
427.849	1330
427.923	-200
427.998	671
428.072	20
428.147	5657
428.221	27737
428.296	77749
428.370	32990
428.444	3411
428.519	2865
428.593	6197
428.667	4353
428.742	6620
428.816	10151
428.890	49319
428.965	61912
429.039	15308
429.113	6709
429.188	2535
429.262	1087
429.336	3341
429.410	10645
429.485	5994
429.559	4745
429.633	3774
429.707	1472
429.781	8370
429.855	48874
429.930	62704
430.004	24423
430.078	34113
430.152	40438
430.226	109712
430.300	90318
430.374	12200
430.448	4274
430.522	12301
430.596	31910
430.670	27532
430.744	90272
430.818	106278
430.892	17017
430.966	3159
431.040	644
431.114	-216
431.188	-790
431.262	480
431.336	262
431.410	3840
431.484	7584
431.557	6737
431.631	459
431.705	2170
431.779	17544
431.853	69516
431.927	38327
432.000	3709
432.074	342
432.148	802
432.222	740
432.295	319
432.369	-219
432.443	2983
432.516	28029
432.590	68052
432.664	19902
432.737	2870
432.811	-535
432.885	119
432.958	-198
433.032	-53
433.106	-514
433.179	-282
433.253	-743
433.326	-737
433.400	-1103
433.473	242
433.547	-737
433.620	132
433.694	1710
433.767	1786
433.841	-1159
433.914	102
433.988	-661
434.061	-140
434.134	-584
434.208	-678
434.281	-1433
434.355	-242
434.428	-1049
434.501	-1514
434.575	-612
434.648	-505
434.721	-1071
434.795	-747
434.868	-554
434.941	-46
435.014	-1357
435.088	-484
435.161	-184
435.234	840
435.307	1548
435.381	1436
435.454	1545
435.527	2791
435.600	2665
435.673	2072
435.746	-368
435.819	180
435.892	57
435.966	-83
436.039	-851
436.112	310
436.185	-896
436.258	-1101
436.331	-1755
436.404	-376
436.477	-821
436.550	-442
436.623	-28
436.696	-179
436.769	-210
436.842	176
436.915	-464
436.987	147
437.060	-689
437.133	-748
437.206	-1157
437.279	-184
437.352	-867
437.425	-310
437.498	1015
437.570	2844
437.643	1541
437.716	-148
437.789	-987
437.861	529
437.934	1099
438.007	947
438.080	-1378
438.152	958
438.225	4880
438.298	40741
438.370	100446
438.443	31047
438.516	3357
438.588	358
438.661	-663
438.734	225
438.806	-66
438.879	796
438.951	-195
439.024	760
439.096	-981
439.169	-140
439.241	-1175
439.314	152
439.386	-113
439.459	1169
439.531	1293
439.604	303
439.676	-671
439.749	76
439.821	-1235
439.893	-318
439.966	-172
440.038	-508
440.110	128
440.183	45
440.255	-496
440.327	2333
440.400	14640
440.472	59060
440.544	30218
440.617	2537
440.689	1161
440.761	858
440.833	1311
440.905	760
440.978	-1131
441.050	-503
441.122	233
441.194	-527
441.266	-910
441.338	-924
441.411	1506
441.483	16538
441.555	19568
441.627	3500
441.699	1188
441.771	1374
441.843	-1110
441.915	-384
441.987	-227
442.059	329
442.131	-317
442.203	1278
442.275	1311
442.347	2657
442.419	4218
442.491	34208
442.563	70399
442.635	23399
442.706	8953
442.778	6509
442.850	121
442.922	354
442.994	-179
443.066	1457
443.137	1036
443.209	1265
443.281	2196
443.353	7965
443.425	42140
443.496	144387
443.568	116345
443.640	34958
443.711	5383
443.783	1642
443.855	238
443.926	1017
443.998	46
444.070	528
444.141	376
444.213	1402
444.285	1957
444.356	1561
444.428	484
444.499	312
444.571	-996
444.642	-499
444.714	-670
444.785	2093
444.857	2207
444.928	5310
445.000	1697
445.071	4094
445.143	3164
445.214	2407
445.285	6116
445.357	20640
445.428	97712
445.500	201337
445.571	107752
445.642	51723
445.714	16061
445.785	9373
445.856	1835
445.928	2332
445.999	1108
446.070	6
446.141	691
446.213	1584
446.284	242
446.355	660
446.426	-314
446.497	199
446.569	724
446.640	2202
446.711	1426
446.782	277
446.853	302
446.924	1035
446.995	185
447.066	466
447.138	626
447.209	482
447.280	-1546
447.351	-154
447.422	-1884
447.493	218
447.564	-99
447.635	1486
447.706	-1075
447.777	-183
447.847	-1302
447.918	-526
447.989	148
448.060	680
448.131	3370
448.202	2241
448.273	1459
448.344	662
448.414	-362
448.485	-284
448.556	-656
448.627	-1339
448.698	-883
448.768	-1184
448.839	-1086
448.910	669
448.981	186
449.051	-185
449.122	-847
449.193	-1131
449.263	-867
449.334	-239
449.405	222
449.475	2646
449.546	409
449.616	1659
449.687	16
449.758	170
449.828	-609
449.899	-935
449.969	-951
450.040	-526
450.110	-496
450.181	476
450.251	-1275
450.322	-341
450.392	-241
450.463	-993
450.533	-736
450.604	-450
450.674	-726
450.744	186
450.815	-994
450.885	-115
450.955	-675
451.026	-388
451.096	-1080
451.166	162
451.237	1052
451.307	5102
451.377	672
451.447	-1038
451.518	-1819
451.588	-186
451.658	-277
451.728	654
451.799	5027
451.869	5334
451.939	-301
452.009	-83
452.079	-1163
452.149	70
452.219	779
452.289	5879
452.360	2874
452.430	490
452.500	203
452.570	1771
452.640	2461
452.710	9544
452.780	9492
452.850	7181
452.920	4256
452.990	1159
453.060	137
453.129	937
453.199	1713
453.269	9540
453.339	17460
453.409	25430
453.479	27139
453.549	36965
453.619	37053
453.688	12350
453.758	604
453.828	413
453.898	-404
453.968	-42
454.037	-130
454.087	7
454.107	41
454.168	-526
454.177	-636
454.247	55
454.249	58
454.316	-467
454.330	-248
454.386	471
454.411	1506
454.456	2819
454.492	3456
454.525	3992
454.574	1832
454.595	901
454.655	280
454.665	201
454.734	428
454.736	539
454.804	2716
454.817	3685
454.873	6494
454.898	6572
454.943	6291
454.979	3725
455.013	1616
455.060	1472
455.082	1653
455.141	1822
455.152	1811
455.221	7034
455.222	7195
455.291	11341
455.303	12099
455.360	13711
455.384	16549
455.430	18434
455.465	14531
455.499	11233
455.546	8114
455.569	6565
455.627	4449
455.638	4195
455.707	624
455.708	651
455.777	754
455.789	778
455.846	835
455.869	929
455.916	914
455.950	895
455.985	903
456.031	735
456.054	557
456.112	484
456.124	502
456.193	950
456.193	927
456.262	1025
456.274	1272
456.332	2309
456.355	2166
456.401	1516
456.436	1758
456.470	1961
456.516	732
456.540	106
456.597	667
456.609	796
456.678	905
456.678	883
456.747	749
456.759	657
456.817	269
456.840	483
456.886	794
456.920	698
456.955	683
457.001	1095
457.024	1410
457.082	1561
457.093	1555
457.162	3300
457.163	3332
457.232	2778
457.243	2732
457.301	2277
457.324	1615
457.370	661
457.405	1222
457.439	1838
457.485	2244
457.508	2506
457.566	2697
457.577	2744
457.646	3126
457.647	3174
457.715	8354
457.727	9117
457.784	15635
457.808	20165
457.853	24652
457.889	26532
457.922	22400
457.969	13585
457.991	15462
458.050	23924
458.060	25585
458.129	43277
458.130	43770
458.198	33377
458.211	29525
458.267	13396
458.292	7938
458.336	6620
458.372	6935
458.405	11674
458.453	18924
458.474	25292
458.533	47081
458.543	48634
458.611	67058
458.614	67496
458.680	30013
458.694	21258
458.749	9778
458.775	6567
458.818	4502
458.855	3474
458.887	3294
458.936	3267
458.955	3158
459.016	2871
459.024	2833
459.093	3240
459.097	3219
459.162	2908
459.177	3100
459.230	3944
459.257	4237
459.299	4155
459.338	4176
459.368	4165
459.418	3602
459.437	3352
459.499	3429
459.505	3447
459.574	2987
459.579	3020
459.643	3349
459.659	3309
459.711	3559
459.740	3989
459.780	4139
459.820	3556
459.849	3383
459.900	4294
459.917	4413
459.981	3489
459.986	3380
460.054	3148
460.061	3095
460.123	3810
460.141	4241
460.191	5813
460.222	6224
460.260	6507
460.302	7231
460.328	6479
460.382	4829
460.397	4887
460.462	5247
460.465	5438
460.534	9891
460.543	10572
460.602	35846
460.623	45072
460.671	71051
460.703	92370
460.739	81725
460.783	61262
460.808	46310
460.864	8134
460.876	6798
460.944	4808
460.945	4786
461.013	5170
461.024	5032
461.081	4567
461.104	4955
461.150	4965
461.184	4319
461.218	4132
461.264	4446
461.286	4562
461.345	4399
461.355	4289
461.423	4066
461.425	4050
461.491	4431
461.505	4635
461.559	7799
461.585	9065
461.628	14272
461.665	19491
461.696	21450
461.745	25171
461.764	21465
461.825	6892
461.832	6744
461.901	5343
461.905	5363
461.969	4986
461.985	4770
462.037	4994
462.065	5188
462.105	5251
462.145	5308
462.173	7477
462.225	11571
462.241	12691
462.305	17658
462.310	17173
462.378	9366
462.385	8333
462.446	6019
462.465	5583
462.514	5543
462.545	5399
462.582	5321
462.625	5555
462.650	5580
462.705	5256
462.718	5300
462.785	5582
462.786	5610
462.854	6814
462.865	7163
462.922	9402
462.945	10065
462.990	7395
463.025	5242
463.058	4808
463.104	4362
463.126	4529
463.184	5043
463.194	5103
463.262	5173
463.264	5192
463.330	6320
463.344	6453
463.398	6479
463.424	6530
463.466	5954
463.504	5442
463.533	5769
463.583	6234
463.601	6429
463.663	7075
463.669	7202
463.737	8590
463.743	8718
463.805	12713
463.823	13891
463.873	20092
463.903	23913
463.940	25188
463.982	26817
464.008	21647
464.062	9640
464.076	9084
464.142	6255
464.144	6240
464.211	5937
464.221	5896
464.279	6129
464.301	6231
464.347	6752
464.381	7194
464.414	7813
464.461	8429
464.482	8665
464.540	9449
464.550	9174
464.617	6900
464.620	6817
464.685	9724
464.699	10328
464.753	12790
464.779	14098
464.820	15324
464.859	16275
464.888	15764
464.938	14804
464.956	14735
465.018	14262
465.023	14103
465.091	12028
465.098	11756
465.158	11672
465.177	11704
465.226	11813
465.257	11768
465.293	12043
465.336	12470
465.361	13324
465.416	14983
465.428	15555
465.495	18654
465.496	18746
465.563	27805
465.575	29410
465.631	34160
465.654	36060
465.698	24664
465.734	14999
465.765	13794
465.813	11704
465.833	11504
465.893	11288
465.900	11353
465.968	11562
465.972	11567
466.035	11727
466.052	11684
466.102	11487
466.131	11409
466.170	11867
466.210	12253
466.237	12448
466.290	12764
466.304	12860
466.369	13092
466.372	13148
466.439	14097
466.449	14187
466.506	15203
466.528	15569
466.573	19422
466.607	22263
466.641	30322
466.687	41393
466.708	45117
466.766	55261
466.775	51610
466.842	23245
466.845	21847
466.909	18111
466.925	17218
466.977	16451
467.004	15998
467.044	17328
467.083	18598
467.111	20308
467.163	23386
467.178	24058
467.242	26638
467.245	26547
467.312	23487
467.321	23032
467.379	21596
467.400	21004
467.446	21343
467.480	21507
467.559	19876
467.638	18201
467.717	17867
467.796	20523
467.875	22025
467.955	19820
468.034	25175
468.113	48895
468.192	66647
468.271	26988
468.350	22808
468.429	27308
468.508	28854
468.588	22053
468.667	21110
468.746	24785
468.825	22230
468.904	16210
468.983	18303
469.062	22798
469.141	25169
469.220	15568
469.299	14666
469.378	17747
469.456	23638
469.535	20100
469.614	17852
469.693	18838
469.772	21932
469.851	27125
469.930	21439
470.009	18070
470.088	16525
470.166	18280
470.245	20502
470.324	21884
470.403	19362
470.482	16248
470.560	15795
470.639	17273
470.718	20042
470.797	16575
470.875	18857
470.954	24782
471.033	26946
471.111	15197
471.190	14746
471.269	12833
471.347	13305
471.426	14493
471.505	16976
471.583	18562
471.662	17851
471.740	16155
471.819	15948
471.898	14880
471.976	15316
472.055	15292
472.133	17462
472.212	21013
472.290	19349
472.369	14768
472.447	14148
472.526	13605
472.604	14684
472.683	14649
472.761	15445
472.839	14661
472.918	14348
472.996	13972
473.075	15340
473.153	15870
473.231	13817
473.310	15492
473.388	16090
473.466	15082
473.545	17520
473.623	21948
473.701	21181
473.780	15871
473.858	15390
473.936	20690
474.014	15761
474.093	15961
474.171	20557
474.249	24623
474.327	17182
474.405	13640
474.484	13994
474.562	13478
474.640	13473
474.718	12994
474.796	15027
474.874	13283
474.952	12267
475.030	12233
475.108	13292
475.187	15802
475.265	14842
475.343	17573
475.421	19669
475.499	14770
475.577	13806
475.655	16486
475.733	26992
475.811	42436
475.889	38111
475.966	27497
476.044	12367
476.122	13598
476.200	16603
476.278	14963
476.356	11727
476.434	13271
476.512	14079
476.590	15909
476.667	15037
476.745	10757
476.823	12059
476.901	11960
476.979	12019
477.056	12190
477.134	14061
477.212	15287
477.290	13389
477.367	11098
477.445	10440
477.523	10541
477.601	10451
477.678	10310
477.756	12793
477.834	13770
477.911	11292
477.989	11103
478.066	10271
478.144	11641
478.222	13374
478.299	17095
478.377	16962
478.454	11621
478.532	9582
478.609	10572
478.687	11566
478.764	10024
478.842	11369
478.919	11233
478.997	10757
479.074	10198
479.152	11225
479.229	13077
479.307	9873
479.384	9151
479.461	9126
479.539	9216
479.616	10576
479.694	9015
479.771	10343
479.848	11128
479.926	13263
480.003	15741
480.080	10233
480.157	9008
480.235	9161
480.312	10025
480.389	9945
480.467	14593
480.544	19247
480.621	11970
480.698	10347
480.775	10112
480.853	11718
480.930	9865
481.007	10003
481.084	12503
481.161	16207
481.238	13508
481.315	8991
481.392	9184
481.470	10805
481.547	12369
481.624	9766
481.701	8709
481.778	10081
481.855	10428
481.932	14700
482.009	22641
482.086	17721
482.163	10827
482.240	13948
482.317	21020
482.393	18014
482.470	10838
482.547	9960
482.624	9627
482.701	9811
482.778	10590
482.855	9438
482.932	8670
483.009	8220
483.085	11334
483.162	13145
483.239	14055
483.316	10734
483.393	12003
483.469	10496
483.546	10985
483.623	11303
483.699	9619
483.776	10069
483.853	11536
483.930	15191
484.006	34380
484.083	61187
484.160	44245
484.236	72462
484.313	57116
484.389	41995
484.466	36293
484.543	35549
484.619	37272
484.696	39998
484.772	37001
484.849	36031
484.925	32254
485.002	31220
485.078	31891
485.155	31707
485.231	29844
485.308	28870
485.384	29916
485.461	33606
485.537	46426
485.614	52714
485.690	30052
485.766	26641
485.843	29119
485.919	38150
485.995	38734
486.072	27716
486.148	26118
486.224	25385
486.301	25226
486.377	29087
486.453	27733
486.530	30153
486.606	40233
486.682	45347
486.758	46715
486.835	50899
486.911	41787
486.987	58069
487.063	65836
487.139	82852
487.215	64001
487.292	37866
487.368	31839
487.444	35091
487.520	40954
487.596	47132
487.672	71668
487.748	193631
487.824	296683
487.900	96453
487.976	38939
488.052	32199
488.128	32849
488.204	30047
488.280	28339
488.356	31636
488.432	48795
488.508	71654
488.584	33653
488.660	25898
488.736	26736
488.812	27601
488.888	32961
488.964	40498
489.039	73714
489.115	111106
489.191	67683
489.267	25893
489.343	24834
489.418	21689
489.494	22026
489.570	20243
489.646	23139
489.722	21672
489.797	22447
489.873	27786
489.949	53557
490.024	46685
490.100	20587
490.176	19739
490.251	23526
490.327	30297
490.403	19571
490.478	20104
490.554	16314
490.629	18458
490.705	17134
490.781	19129
490.856	17980
490.932	21827
491.007	21623
491.083	20236
491.158	18506
491.234	22709
491.309	39067
491.385	41344
491.460	19163
491.536	19615
491.611	17946
491.686	20852
491.762	26102
491.837	45664
491.913	75096
491.988	100444
492.063	131913
492.139	35798
492.214	23098
492.289	15885
492.365	14273
492.440	18235
492.515	16097
492.590	16605
492.666	12887
492.741	19196
492.816	24542
492.891	16458
492.967	16010
493.042	13894
493.117	15753
493.192	16692
493.267	26301
493.342	78695
493.418	108026
493.493	22070
493.568	11799
493.643	12356
493.718	16070
493.793	21058
493.868	26309
493.943	16856
494.018	13520
494.093	11755
494.168	12015
494.243	11334
494.318	9611
494.393	10735
494.468	10976
494.543	10255
494.618	13519
494.693	10764
494.768	10382
494.842	11180
494.917	9590
494.992	11982
495.067	10367
495.142	9663
495.217	12065
495.292	11422
495.366	13057
495.441	16237
495.516	20552
495.591	26122
495.665	88385
495.740	220552
495.815	87506
495.890	16740
495.964	10475
496.039	14410
496.114	13211
496.188	17702
496.263	15935
496.338	10550
496.412	13040
496.487	15687
496.561	16591
496.636	17390
496.710	13960
496.785	13845
496.860	17394
496.934	13421
497.009	14063
497.083	12494
497.158	12677
497.232	14603
497.307	19707
497.381	15546
497.455	19045
497.530	25909
497.604	19288
497.679	19544
497.753	32234
497.827	42205
497.902	40840
497.976	46597
498.050	87155
498.125	349682
498.199	361680
498.273	64942
498.348	48202
498.422	38060
498.496	34179
498.570	28353
498.645	22667
498.719	22194
498.793	26115
498.867	36704
498.941	44550
499.016	124825
499.090	369487
499.164	129282
499.238	17515
499.312	14061
499.386	19152
499.460	17029
499.534	13807
499.609	17991
499.683	26823
499.757	26780
499.831	51978
499.905	229635
499.979	219965
500.053	32464
500.127	31668
500.201	24675
500.275	16072
500.349	15135
500.422	17027
500.496	24939
500.570	53751
500.644	120646
500.718	235828
500.792	55672
500.866	15027
500.940	17482
501.013	15693
501.087	15942
501.161	27699
501.235	34155
501.309	65945
501.382	191963
501.456	174592
501.530	36788
501.603	59382
501.677	26138
501.751	11264
501.825	15140
501.898	24685
501.972	74953
502.046	47389
502.119	14665
502.193	33555
502.266	81477
502.340	38758
502.413	34585
502.487	67714
502.561	40078
502.634	14516
502.708	12455
502.781	10654
502.855	11070
502.928	7952
503.002	8418
503.075	8012
503.149	8755
503.222	10472
503.295	10606
503.369	13919
503.442	16540
503.516	51912
503.589	139723
503.662	89210
503.736	29082
503.809	65729
503.882	55142
503.956	79908
504.029	84094
504.102	100814
504.175	148954
504.249	48370
504.322	20005
504.395	15003
504.468	11108
504.542	10808
504.615	8732
504.688	9057
504.761	6657
504.834	10965
504.907	12844
504.980	21167
505.053	10482
505.127	12473
505.200	16044
505.273	12683
505.346	8830
505.419	6919
505.492	7436
505.565	5733
505.638	5985
505.711	6001
505.784	5866
505.857	4903
505.930	7027
506.003	6584
506.076	8322
506.149	9056
506.221	10313
506.294	12098
506.367	25379
506.440	101060
506.513	56057
506.586	13725
506.659	8089
506.731	7380
506.804	8899
506.877	13258
506.950	9289
507.022	7156
507.095	7507
507.168	11570
507.241	8388
507.313	6606
507.386	7513
507.459	12103
507.531	7754
507.604	6017
507.677	7119
507.749	5194
507.822	11391
507.894	21561
507.967	29633
508.040	17772
508.112	13789
508.185	12291
508.257	10715
508.330	16768
508.402	11612
508.475	10854
508.547	11953
508.620	11856
508.692	17217
508.765	12008
508.837	8120
508.909	9554
508.982	9505
509.054	12126
509.127	9888
509.199	8481
509.271	8534
509.344	8577
509.416	8206
509.488	8659
509.560	9823
509.633	9576
509.705	11278
509.777	10865
509.849	14983
509.922	10854
509.994	8865
510.066	9692
510.138	11809
510.210	26321
510.283	24793
510.355	19164
510.427	16924
510.499	15914
510.571	16491
510.643	13569
510.715	20632
510.787	18901
510.859	15182
510.931	16288
511.003	19709
511.076	18464
511.148	12318
511.219	12049
511.291	18305
511.363	20189
511.435	12251
511.507	11019
511.579	11246
511.651	11982
511.723	11041
511.795	10507
511.867	11883
511.939	13028
512.010	21103
512.082	19820
512.154	11441
512.226	12218
512.298	20582
512.369	29277
512.441	23637
512.513	21827
512.585	16618
512.656	16975
512.728	16794
512.800	14341
512.871	14233
512.943	15180
513.015	11904
513.086	14929
513.158	15253
513.230	15098
513.301	20566
513.373	23084
513.444	14055
513.516	13348
513.588	13034
513.659	14112
513.731	16821
513.802	14472
513.874	27432
513.945	47151
514.016	17273
514.088	12814
514.159	14077
514.231	18731
514.302	27357
514.374	20842
514.445	17154
514.516	27733
514.588	20991
514.659	16897
514.730	24375
514.802	21743
514.873	17931
514.944	19850
515.016	17395
515.087	17567
515.158	19406
515.229	26058
515.301	18523
515.372	23871
515.443	14934
515.514	14697
515.585	11701
515.656	14309
515.728	12580
515.799	11987
515.870	13059
515.941	13002
516.012	13393
516.083	19299
516.154	20085
516.225	24924
516.296	23070
516.367	19291
516.438	19976
516.509	25040
516.580	29560
516.651	69473
516.722	253966
516.793	123750
516.864	30136
516.935	28482
517.006	32116
517.077	40831
517.148	78818
517.219	241412
517.289	391097
517.360	129709
517.431	47660
517.502	17449
517.573	16700
517.643	16545
517.714	20401
517.785	20226
517.856	19239
517.926	24453
517.997	25976
518.068	31325
518.138	40309
518.209	48544
518.280	157888
518.350	636339
518.421	239929
518.492	36885
518.562	28058
518.633	29900
518.703	32060
518.774	61133
518.845	169072
518.915	173468
518.986	48130
519.056	30401
519.127	43145
519.197	58796
519.268	115930
519.338	72835
519.408	23040
519.479	26491
519.549	20840
519.620	15913
519.690	11548
519.760	11765
519.831	13131
519.901	13161
519.971	11209
520.042	11372
520.112	13511
520.182	14430
520.253	16949
520.323	11468
520.393	11598
520.463	15733
520.534	8533
520.604	16092
520.674	13049
520.744	13887
520.814	17691
520.885	21853
520.955	32968
521.025	128424
521.095	52535
521.165	12964
521.235	11421
521.305	10602
521.375	10656
521.445	11602
521.515	14476
521.585	17232
521.655	15182
521.725	14916
521.795	14609
521.865	9554
521.935	16178
522.005	13051
522.075	9347
522.145	11359
522.215	10766
522.285	14539
522.355	19245
522.424	35039
522.494	29735
522.564	18436
522.634	32416
522.704	98789
522.774	38689
522.843	12292
522.913	11404
522.983	14942
523.053	11856
523.122	12481
523.192	13502
523.262	51637
523.331	49537
523.401	11977
523.471	8608
523.540	9707
523.610	7417
523.680	7760
523.749	8223
523.819	11433
523.888	10466
523.958	7798
524.027	7996
524.097	9380
524.166	7743
524.236	9171
524.305	10593
524.375	7913
524.444	6961
524.514	9918
524.583	7256
524.653	11010
524.722	12036
524.791	7166
524.861	9978
524.930	7258
524.999	8349
525.069	12687
525.138	10150
525.207	11323
525.277	9208
525.346	9445
525.415	9620
525.484	10722
525.554	11807
525.623	13511
525.692	14417
525.761	14800
525.830	19071
525.900	22335
525.969	34844
526.038	56028
526.107	109581
526.176	347348
526.245	285990
526.314	84325
526.383	171830
526.452	235783
526.522	388805
526.591	397328
526.660	91062
526.729	53263
526.797	55557
526.867	91498
526.935	366549
527.004	841383
527.073	485072
527.142	46562
527.211	19961
527.280	17424
527.349	15146
527.418	8407
527.487	10192
527.555	7420
527.624	7970
527.693	6329
527.762	9260
527.831	6775
527.899	7746
527.968	8068
528.037	6434
528.106	9657
528.174	16573
528.243	13661
528.312	16745
528.380	24235
528.449	7374
528.518	7485
528.586	4768
528.655	6898
528.723	5448
528.792	5579
528.861	5480
528.929	4979
528.998	6572
529.066	5693
529.135	4619
529.203	4612
529.272	4532
529.340	6426
529.409	7737
529.477	4501
529.545	6269
529.614	9056
529.682	7189
529.751	9244
529.819	10076
529.887	6575
529.956	5625
530.024	6087
530.092	4535
530.161	7483
530.229	11583
530.297	6000
530.365	5804
530.434	4358
530.502	4399
530.570	5532
530.638	2972
530.707	6223
530.775	7615
530.843	4550
530.911	5103
530.979	4646
531.047	4131
531.115	5382
531.183	5348
531.252	5742
531.320	5424
531.388	3925
531.456	5865
531.524	3716
531.592	5828
531.660	6905
531.728	4750
531.796	4248
531.864	5813
531.932	5606
532.000	4817
532.067	6141
532.135	6866
532.203	8467
532.271	7707
532.339	14089
532.407	39194
532.475	23398
532.542	11917
532.610	12808
532.678	15290
532.746	66994
532.814	187040
532.881	44216
532.949	9275
533.017	7131
533.084	5831
533.152	5799
533.220	5778
533.287	6011
533.355	5266
533.423	6173
533.490	4793
533.558	5321
533.625	6724
533.693	7751
533.761	7918
533.828	7558
533.896	6277
533.963	13882
534.031	17066
534.098	25045
534.166	11146
534.233	7060
534.300	8758
534.368	8701
534.435	8247
534.503	10116
534.570	10161
534.637	12137
534.705	13757
534.772	16775
534.840	28847
534.907	146872
534.974	196260
535.041	23258
535.109	12471
535.176	8227
535.243	8371
535.310	7449
535.378	6730
535.445	7241
535.512	6098
535.579	7663
535.646	6264
535.714	8081
535.781	11049
535.848	10122
535.915	9629
535.982	8319
536.049	8392
536.116	8507
536.183	7917
536.250	7553
536.317	8112
536.384	9858
536.451	14605
536.518	15098
536.585	9385
536.652	14522
536.719	18993
536.786	14785
536.853	12175
536.920	18457
536.987	26373
537.053	23862
537.120	88705
537.187	81250
537.254	11998
537.321	9213
537.388	9658
537.454	7905
537.521	7488
537.588	7377
537.654	10186
537.721	12120
537.788	12527
537.855	9050
537.921	9936
537.988	9931
538.055	10259
538.121	8538
538.188	8973
538.254	13663
538.321	27221
538.388	17729
538.454	10756
538.521	10828
538.587	8914
538.654	8642
538.720	8672
538.787	9327
538.853	9370
538.920	11284
538.986	11739
539.053	9366
539.119	9671
539.185	10383
539.252	12154
539.318	17013
539.385	15052
539.451	13639
539.517	13063
539.583	15161
539.650	25714
539.716	67855
539.782	21349
539.849	9919
539.915	11255
539.981	10038
540.047	12303
540.114	11583
540.180	12418
540.246	12112
540.312	15366
540.378	27337
540.444	27834
540.510	25695
540.576	76349
540.643	26195
540.709	9572
540.775	10151
540.841	9561
540.907	12668
540.973	17320
541.039	17768
541.105	19271
541.171	10869
541.237	10568
541.303	11480
541.369	13154
541.435	14398
541.500	25386
541.566	15621
541.632	9796
541.698	9300
541.764	10331
541.830	8568
541.896	8816
541.961	10086
542.027	9274
542.093	10790
542.159	11615
542.224	11805
542.290	16682
542.356	24879
542.421	28477
542.487	13854
542.553	10559
542.618	12488
542.684	11706
542.750	10822
542.815	12901
542.881	17871
542.947	64024
543.012	49650
543.078	11526
543.143	9531
543.209	11774
543.274	11255
543.340	12318
543.405	24700
543.471	40772
543.536	14127
543.602	10441
543.667	8350
543.732	10530
543.798	9101
543.863	10934
543.928	8955
543.994	9164
544.059	10130
544.124	9712
544.190	10214
544.255	10539
544.320	11224
544.386	10472
544.451	15306
544.516	16543
544.581	15670
544.646	40122
544.712	66550
544.777	17241
544.842	13415
544.907	11865
544.972	11904
545.037	11887
545.102	13475
545.168	12793
545.233	12911
545.298	15260
545.363	15814
545.428	17627
545.493	26135
545.558	53337
545.623	26313
545.688	13191
545.753	12825
545.818	13104
545.883	14502
545.947	13013
546.012	15273
546.077	14228
546.142	14942
546.207	15207
546.272	18618
546.337	19391
546.401	16766
546.466	16890
546.531	16121
546.596	17269
546.661	18015
546.725	18301
546.790	16870
546.855	19554
546.919	18654
546.984	20401
547.049	22171
547.113	26266
547.178	25397
547.243	29837
547.307	33846
547.372	38604
547.436	39344
547.501	37212
547.565	41156
547.630	41004
547.695	39087
547.759	39449
547.823	37586
547.888	35634
547.952	37001
548.017	39669
548.081	44014
548.146	44392
548.210	42578
548.274	41601
548.339	41744
548.403	40259
548.468	36134
548.532	35554
548.596	36611
548.660	35782
548.725	40287
548.789	44617
548.853	45304
548.917	39770
548.982	42087
549.046	40206
549.110	32878
549.174	32443
549.238	37487
549.303	41777
549.367	41995
549.431	40807
549.495	38695
549.559	38279
549.623	43906
549.687	48299
549.751	52387
549.815	54741
549.879	55608
549.943	51560
550.007	55853
550.071	56196
550.135	52692
550.199	49122
550.263	46809
550.327	45693
550.391	49747
550.455	51204
550.519	51925
550.582	56080
550.646	65632
550.710	69015
550.774	62021
550.838	62476
550.901	66161
550.965	70458
551.029	71580
551.093	78150
551.156	88843
551.220	117891
551.284	143380
551.347	97011
551.411	90705
551.475	90228
551.538	68061
551.602	63547
551.666	57948
551.729	53719
551.793	53372
551.856	51231
551.920	51035
551.983	50527
552.047	50525
552.110	49858
552.174	52184
552.237	52476
552.301	48569
552.364	45969
552.428	44407
552.491	45119
552.554	47050
552.618	46809
552.681	48137
552.745	47666
552.808	53201
552.871	58982
552.934	51951
552.998	48708
553.061	47515
553.124	44148
553.187	44884
553.251	46945
553.314	47275
553.377	46639
553.440	54405
553.503	76647
553.567	97196
553.630	53541
553.693	47888
553.756	48187
553.819	47560
553.882	43718
553.945	44952
554.008	43380
554.071	44209
554.134	45722
554.197	41749
554.260	40317
554.323	43992
554.386	43229
554.449	44464
554.512	44979
554.575	40837
554.638	43058
554.701	41510
554.764	40803
554.827	40263
554.889	38696
554.952	34832
555.015	34310
555.078	36394
555.141	37007
555.203	35666
555.266	36392
555.329	37092
555.391	35106
555.454	34458
555.517	35646
555.580	32468
555.642	30624
555.705	29943
555.768	30926
555.830	30464
555.893	28193
555.955	29073
556.018	28902
556.080	27928
556.143	28400
556.206	27754
556.268	27420
556.330	28212
556.393	27547
556.455	26075
556.518	29465
556.580	29245
556.643	23776
556.705	23742
556.767	22948
556.830	24249
556.892	25094
556.955	29477
557.017	24686
557.079	22084
557.142	21632
557.204	24217
557.266	34646
557.328	29138
557.391	20462
557.453	19144
557.515	19427
557.577	22029
557.639	23100
557.701	20883
557.764	20081
557.826	22042
557.888	23947
557.950	26373
558.012	29483
558.074	36134
558.136	85311
558.198	227522
558.260	78422
558.322	30082
558.384	31807
558.446	36453
558.508	43427
558.570	54296
558.632	73168
558.694	97251
558.756	124263
558.818	394595
558.880	1039209
558.942	315972
559.003	244830
559.065	117627
559.127	47722
559.189	46759
559.251	51256
559.312	72139
559.374	180823
559.436	675572
559.498	319740
559.559	55752
559.621	46596
559.683	51060
559.744	82999
559.806	295844
559.868	470177
559.929	82620
559.991	46723
560.052	70045
560.114	215721
560.176	134216
560.237	118152
560.299	203896
560.360	41949
560.422	16403
560.483	15132
560.545	13104
560.606	13355
560.667	13122
560.729	12102
560.790	10601
560.852	11109
560.913	11612
560.974	10712
561.036	10627
561.097	10973
561.158	11107
561.220	11753
561.281	11204
561.342	11565
561.403	13211
561.465	15247
561.526	32076
561.587	40861
561.648	13530
561.709	11155
561.771	10692
561.832	9680
561.893	9326
561.954	10536
562.015	9579
562.076	9252
562.137	9965
562.198	9519
562.259	9625
562.320	9663
562.381	10383
562.442	13705
562.503	11296
562.564	9628
562.625	9748
562.686	9420
562.747	9457
562.808	9177
562.869	8990
562.930	11316
562.991	10162
563.051	8931
563.112	9712
563.173	9622
563.234	9404
563.294	8782
563.355	8290
563.416	9556
563.477	9114
563.537	9620
563.598	9996
563.659	10002
563.720	8091
563.780	9732
563.841	10418
563.901	9047
563.962	9350
564.023	8512
564.083	9170
564.144	10009
564.204	8831
564.265	8991
564.325	10456
564.386	16977
564.446	14897
564.507	8930
564.567	8674
564.628	8372
564.688	8365
564.749	8494
564.809	9765
564.869	10694
564.930	9031
564.990	9322
565.050	7670
565.111	8494
565.171	8011
565.231	8768
565.292	8537
565.352	7088
565.412	8880
565.472	8477
565.532	9296
565.593	8699
565.653	7652
565.713	8522
565.773	8733
565.833	10088
565.893	13838
565.953	8679
566.013	8066
566.074	9238
566.134	11282
566.194	16183
566.254	16378
566.314	11961
566.374	8525
566.434	8383
566.494	9522
566.554	9342
566.614	9244
566.673	8809
566.733	10467
566.793	11280
566.853	9875
566.913	10703
566.973	11148
567.033	10894
567.092	9757
567.152	10574
567.212	10569
567.272	11128
567.331	11553
567.391	12504
567.451	12836
567.511	16953
567.570	16153
567.630	10647
567.690	10781
567.749	11621
567.809	12658
567.868	14439
567.928	16428
567.988	17677
568.047	18716
568.107	23684
568.166	33099
568.226	55332
568.285	82537
568.345	64923
568.404	44829
568.464	35220
568.523	32634
568.582	34209
568.642	36900
568.701	47431
568.761	76383
568.820	135930
568.879	129918
568.939	81747
568.998	53625
569.057	37278
569.116	28488
569.176	22596
569.235	19264
569.294	16209
569.353	14446
569.413	13504
569.472	11649
569.531	11702
569.590	10472
569.649	10308
569.708	9416
569.767	10057
569.827	9614
569.886	9420
569.945	8723
570.004	8737
570.063	8497
570.122	9380
570.181	9826
570.240	9842
570.299	9496
570.358	8702
570.417	9016
570.475	8293
570.534	8663
570.593	8793
570.652	8165
570.711	8710
570.770	7827
570.829	9962
570.887	9135
570.946	10169
571.005	8073
571.064	7857
571.122	9241
571.181	8780
571.240	7623
571.299	6869
571.357	8234
571.416	7769
571.475	8694
571.533	9351
571.592	7573
571.650	8478
571.709	7455
571.768	8109
571.826	8036
571.885	7601
571.943	6943
572.002	6451
572.060	7425
572.119	6609
572.177	6238
572.236	6378
572.294	5802
572.352	7684
572.411	7897
572.469	7043
572.528	6065
572.586	5440
572.644	6279
572.703	7168
572.761	6702
572.819	6421
572.877	6559
572.936	5520
572.994	6009
573.052	6282
573.110	5503
573.169	7652
573.227	6261
573.285	5965
573.343	5575
573.401	6752
573.459	6556
573.517	5203
573.576	6454
573.634	6228
573.692	6124
573.750	6083
573.808	6128
573.866	6579
573.924	7069
573.982	8677
574.040	6365
574.098	6008
574.155	6056
574.213	6348
574.271	6041
574.329	6507
574.387	5058
574.445	5295
574.503	5172
574.560	5612
574.618	5228
574.676	5375
574.734	4762
574.792	5980
574.849	5187
574.907	5152
574.965	4696
575.022	5333
575.080	5423
575.138	5139
575.195	5617
575.253	5321
575.311	6543
575.368	4757
575.426	4788
575.483	5581
575.541	5150
575.598	5355
575.656	4811
575.713	5818
575.771	5644
575.828	5700
575.886	5402
575.943	5947
576.001	5105
576.058	6050
576.115	6295
576.173	6788
576.230	7623
576.287	8742
576.345	6490
576.402	6011
576.459	5833
576.517	5380
576.574	6285
576.631	6358
576.688	5114
576.746	4690
576.803	5050
576.860	4969
576.917	6291
576.974	5864
577.031	4902
577.089	4783
577.146	4499
577.203	4837
577.260	5610
577.317	5160
577.374	6337
577.431	5237
577.488	5236
577.545	4945
577.602	5257
577.659	4594
577.716	5378
577.773	5520
577.830	5367
577.886	5231
577.943	4497
578.000	4887
578.057	4735
578.114	6353
578.171	6334
578.227	5724
578.284	5714
578.341	5896
578.398	5080
578.454	5647
578.511	6192
578.568	6883
578.625	6045
578.681	5907
578.738	4987
578.794	4782
578.851	5167
578.908	4284
578.964	4582
579.021	5363
579.077	5304
579.134	4643
579.190	4594
579.247	5046
579.303	4307
579.360	4190
579.416	4622
579.473	4355
579.529	4574
579.586	5062
579.642	4621
579.698	4471
579.755	4835
579.811	5963
579.867	5915
579.924	4223
579.980	5131
580.036	6493
580.093	5765
580.149	6877
580.205	6203
580.261	5364
580.317	6141
580.374	5637
580.430	7030
580.486	6534
580.542	6069
580.598	4730
580.619	4757
580.654	4810
580.692	4516
580.710	4379
580.765	5658
580.767	5704
580.823	5320
580.838	5421
580.879	5725
580.911	5440
580.935	5238
580.984	4703
580.991	4642
581.047	5488
581.057	5475
581.103	5384
581.130	5596
581.159	5855
581.203	5372
581.215	5245
581.270	5596
581.276	5511
581.326	4784
581.349	4792
581.382	4758
581.422	4967
581.438	5090
581.494	5281
581.494	5271
581.550	4519
581.567	4708
581.606	5132
581.640	5678
581.661	5989
581.713	5969
581.717	5979
581.773	5690
581.786	5570
581.829	5152
581.859	5465
581.885	5770
581.932	5867
581.940	5899
581.996	5346
582.004	5383
582.052	5439
582.077	5176
582.107	4922
582.150	5178
582.163	5266
582.219	4912
582.223	4936
582.274	5067
582.296	5034
582.330	5147
582.368	5865
582.386	6187
582.441	4648
582.441	4647
582.497	5597
582.514	5465
582.552	5383
582.587	5271
582.608	5152
582.659	5639
582.663	5677
582.719	5351
582.732	5408
582.774	5612
582.805	5215
582.830	4959
582.877	5381
582.885	5439
582.941	5168
582.950	5144
582.996	4803
583.023	4873
583.052	5216
583.095	5402
583.107	5398
583.162	6458
583.168	6407
583.218	5867
583.240	5566
583.273	5120
583.313	4794
583.328	4742
583.384	5540
583.385	5542
583.439	5323
583.458	5237
583.494	5085
583.531	5053
583.549	5161
583.603	5419
583.605	5416
583.660	5842
583.676	5637
583.715	5149
583.748	5488
583.770	5808
583.820	5975
583.825	5959
583.881	5231
583.893	5196
583.936	5376
583.965	5261
583.991	5020
584.038	5088
584.046	5109
584.101	5555
584.110	5540
584.156	5644
584.183	5654
584.211	5460
584.255	5492
584.266	5557
584.321	5095
584.328	5171
584.376	5748
584.400	6083
584.431	6548
584.472	5768
584.486	5459
584.541	5849
584.545	5842
584.596	5412
584.617	5384
584.651	5797
584.689	6270
584.706	6292
584.761	5538
584.762	5543
584.816	6214
584.834	6390
584.871	6716
584.906	7191
584.926	7402
584.978	7189
584.980	7184
585.035	8145
585.051	8355
585.090	8819
585.123	9247
585.145	9563
585.195	10196
585.200	10277
585.254	11940
585.267	12604
585.309	14623
585.340	15952
585.364	16877
585.412	17222
585.419	17283
585.473	20242
585.484	20879
585.528	24213
585.556	29624
585.583	38474
585.628	63490
585.637	70961
585.692	155189
585.700	171519
585.747	240414
585.772	186038
585.801	105294
585.845	37384
585.856	26579
585.910	16134
585.917	15264
585.965	12321
585.989	11573
586.019	10836
586.061	10261
586.074	10096
586.128	9865
586.133	9882
586.183	9970
586.205	9931
586.237	10083
586.277	10229
586.292	10157
586.346	9730
586.349	9725
586.401	9624
586.421	9865
586.455	10335
586.493	10566
586.509	10944
586.564	12587
586.565	12714
586.618	18842
586.637	19033
586.672	16828
586.709	14187
586.727	13307
586.781	13247
586.781	13234
586.835	11647
586.853	11516
586.889	11057
586.925	10345
586.944	10262
586.996	10974
586.998	10977
587.052	11135
587.068	11240
587.106	11484
587.140	11584
587.161	11593
587.212	11585
587.215	11596
587.269	12600
587.284	12843
587.323	13037
587.356	13160
587.377	13323
587.427	13680
587.431	13698
587.485	14297
587.499	14358
587.539	14330
587.571	14650
587.593	15271
587.643	16973
587.648	17061
587.702	18050
587.715	18187
587.755	18403
587.786	19078
587.810	19711
587.858	20863
587.864	21032
587.917	23223
587.930	23813
587.971	25547
588.001	26651
588.025	27544
588.073	30395
588.079	30852
588.133	34864
588.145	36001
588.187	39456
588.217	42264
588.241	44818
588.288	50267
588.295	51086
588.348	60172
588.360	62546
588.402	72512
588.431	80016
588.456	86014
588.503	99887
588.510	102064
588.564	123492
588.575	128932
588.617	150853
588.646	168535
588.671	189058
588.718	238498
588.725	249373
588.778	356336
588.789	385304
588.832	573152
588.861	729864
588.886	904299
588.932	1232287
588.939	1248030
588.993	1212295
589.004	1212787
589.047	1001409
589.075	783519
589.100	620044
589.147	362564
589.154	342305
589.207	248790
589.218	235037
589.261	215562
589.290	210962
589.314	217306
589.361	242188
589.368	252002
589.421	359256
589.433	389767
589.475	605687
589.504	785929
589.528	920641
589.576	1107878
589.582	1082932
589.635	785398
589.647	705230
589.689	420538
589.718	254106
589.742	197493
589.790	121411
589.795	116448
589.849	85286
589.861	79604
589.902	67289
589.932	59200
589.955	53392
590.004	43140
590.009	42437
590.062	37637
590.075	36549
590.115	33221
590.146	31049
590.168	29708
590.218	27258
590.222	27043
590.275	25222
590.289	24820
590.328	23471
590.360	22559
590.381	21794
590.431	19979
590.435	19890
590.488	19251
590.503	19132
590.541	18377
590.574	17851
590.594	17389
590.645	16385
590.647	16347
590.700	16073
590.716	16051
590.753	15552
590.787	15154
590.806	15006
590.859	14960
590.859	14936
590.912	14733
590.930	14803
590.965	14895
591.001	14879
591.018	14430
591.071	13092
591.072	13105
591.124	13298
591.143	13372
591.177	13288
591.214	13358
591.230	13613
591.283	14563
591.285	14607
591.336	13761
591.356	13536
591.389	13872
591.427	14057
591.442	13613
591.495	12152
591.498	12058
591.547	11048
591.569	10686
591.600	11209
591.640	11901
591.653	11891
591.706	11851
591.711	11868
591.759	11388
591.782	11210
591.811	11916
591.853	12903
591.864	12609
591.917	11237
591.924	11059
591.969	11265
591.995	11402
592.022	11341
592.066	11320
592.075	11495
592.127	12745
592.137	12986
592.180	13418
592.208	13726
592.233	12848
592.279	11173
592.285	11174
592.338	11459
592.350	11535
592.390	11354
592.421	11291
592.443	11239
592.491	11171
592.495	11153
592.548	11235
592.562	11284
592.600	11000
592.633	10798
592.653	10842
592.704	10976
592.705	11047
592.775	11534
592.846	11808
592.916	11782
592.987	11717
593.058	12234
593.128	11252
593.199	11971
593.270	11258
593.341	10805
593.411	11500
593.482	12036
593.553	11973
593.623	11279
593.694	12235
593.764	11900
593.835	11648
593.906	11750
593.976	12151
594.047	11774
594.117	13720
594.188	13644
594.258	13308
594.329	11940
594.399	11551
594.470	12176
594.540	13505
594.611	12854
594.681	13124
594.751	12598
594.822	14120
594.892	14979
594.963	13805
595.033	14290
595.103	15240
595.174	14837
595.244	18801
595.314	20233
595.384	14743
595.455	14899
595.525	16065
595.595	16086
595.665	17240
595.736	16103
595.806	16002
595.876	16362
595.946	16699
596.016	16288
596.087	17569
596.157	16141
596.227	17294
596.297	17397
596.367	19610
596.437	21377
596.507	22661
596.577	24546
596.647	20851
596.717	21490
596.787	21397
596.857	20551
596.927	21396
596.997	21572
597.067	22146
597.137	22355
597.207	23573
597.277	22214
597.347	21166
597.417	20094
597.487	21802
597.557	21588
597.626	22685
597.696	23458
597.766	23536
597.836	25544
597.906	21031
597.975	19269
598.045	19292
598.115	20756
598.185	21994
598.254	24871
598.324	26699
598.394	26242
598.464	27238
598.533	25091
598.603	24175
598.672	23523
598.742	24533
598.812	23354
598.881	24595
598.951	22999
599.020	24408
599.090	25606
599.159	25865
599.229	24770
599.299	23110
599.368	24007
599.437	23517
599.507	22299
599.576	21560
599.646	21297
599.715	22333
599.785	20261
599.854	20903
599.924	21218
599.993	20567
600.062	20490
600.132	20317
600.201	22031
600.270	26204
600.340	26871
600.409	26018
600.478	25264
600.547	25376
600.617	22683
600.686	20126
600.755	17566
600.824	17384
600.894	16466
600.963	16667
601.032	16435
601.101	16273
601.170	15228
601.239	14072
601.308	15649
601.378	14946
601.447	14445
601.516	14528
601.585	15955
601.654	15913
601.723	14528
601.792	15562
601.861	15344
601.930	17457
601.999	17724
602.068	16253
602.137	17929
602.206	17338
602.275	17148
602.343	18837
602.412	19216
602.481	17203
602.550	17293
602.619	17449
602.688	18325
602.756	16987
602.825	18054
602.894	19074
602.963	18607
603.032	18513
603.100	17939
603.169	19690
603.238	19604
603.307	19493
603.375	19563
603.444	19781
603.513	20324
603.581	19615
603.650	19770
603.719	20082
603.787	19989
603.856	21406
603.924	21686
603.993	22719
604.061	23216
604.130	24127
604.198	25406
604.267	25768
604.335	24385
604.404	26287
604.472	26612
604.541	26639
604.609	26931
604.678	26685
604.746	27069
604.815	27294
604.883	28273
604.951	28169
605.020	28593
605.088	28714
605.156	29307
605.225	30528
605.293	29368
605.361	30512
605.429	31406
605.498	32118
605.566	32900
605.634	33697
605.702	34485
605.771	36274
605.839	36024
605.907	34949
605.975	33708
606.043	32670
606.111	32938
606.180	33981
606.248	33012
606.316	33243
606.384	32622
606.452	36282
606.520	37101
606.588	35733
606.656	34280
606.724	33141
606.792	32540
606.860	28491
606.928	26512
606.996	25358
607.064	24616
607.132	25829
607.200	27587
607.267	28424
607.335	28173
607.403	29784
607.471	27666
607.539	27682
607.607	27589
607.674	23589
607.742	24772
607.810	24633
607.878	24811
607.946	24952
608.013	26814
608.081	26337
608.149	26620
608.216	26600
608.284	28639
608.352	28293
608.419	27947
608.487	30492
608.555	27067
608.622	28737
608.690	29329
608.757	32542
608.825	33856
608.893	32579
608.960	29688
609.028	31381
609.095	32179
609.163	29355
609.230	25492
609.298	24616
609.365	25224
609.432	28292
609.500	30145
609.567	34698
609.635	39488
609.702	40338
609.769	38364
609.837	31171
609.904	26897
609.971	27401
610.039	33480
610.106	46052
610.173	94291
610.241	222865
610.308	106583
610.375	35984
610.442	28636
610.509	27441
610.577	27944
610.644	27105
610.711	28149
610.778	29507
610.845	29873
610.912	32578
610.980	33841
611.047	33922
611.114	33524
611.181	31757
611.248	30942
611.315	34173
611.382	33701
611.449	35447
611.516	36107
611.583	35843
611.650	36240
611.717	36341
611.784	36741
611.851	40953
611.918	45275
611.984	55610
612.051	88282
612.118	195811
612.185	498648
612.252	263061
612.319	60502
612.386	48459
612.452	44470
612.519	42669
612.586	43774
612.653	42982
612.719	43038
612.786	40555
612.853	37646
612.919	36347
612.986	38128
613.053	35608
613.120	31625
613.186	30816
613.253	33070
613.319	32383
613.386	31710
613.453	32711
613.519	34567
613.586	35876
613.652	39738
613.719	36841
613.785	35083
613.852	33321
613.918	31759
613.985	35055
614.051	38615
614.118	45170
614.184	41959
614.250	33305
614.317	34386
614.383	32903
614.449	33371
614.516	33996
614.582	33710
614.648	32918
614.715	33002
614.781	31182
614.847	32084
614.914	32521
614.980	30444
615.046	31670
615.112	31977
615.179	31794
615.245	33207
615.311	34035
615.377	38260
615.443	39188
615.509	34012
615.575	36843
615.642	35660
615.708	37202
615.774	38692
615.840	42700
615.906	49212
615.972	68394
616.038	116157
616.104	255731
616.170	629622
616.236	459562
616.302	92514
616.368	66369
616.434	45632
616.500	43984
616.565	50284
616.631	60820
616.697	48403
616.763	52116
616.829	83416
616.895	152595
616.961	130893
617.026	50797
617.092	35454
617.158	35202
617.224	33591
617.289	31592
617.355	29128
617.421	27440
617.487	29749
617.552	27145
617.618	27252
617.684	25799
617.749	28543
617.815	25545
617.880	24874
617.946	24746
618.012	26317
618.077	25434
618.143	25649
618.208	25618
618.274	27080
618.339	27396
618.405	22941
618.470	23287
618.536	22657
618.601	23397
618.667	20432
618.732	19930
618.798	19772
618.863	19807
618.928	20123
618.994	22093
619.059	22480
619.124	24968
619.190	22416
619.255	19739
619.320	20595
619.386	19437
619.451	18890
619.516	18854
619.581	19063
619.647	19983
619.712	19008
619.777	18629
619.842	18311
619.907	19987
619.972	19635
620.038	19200
620.103	17905
620.168	17865
620.233	19757
620.298	18663
620.363	19095
620.428	20149
620.493	20551
620.558	20897
620.623	20587
620.688	19919
620.753	19979
620.818	21751
620.883	21103
620.948	19875
621.013	20638
621.078	19953
621.143	19780
621.207	23244
621.272	20620
621.337	20541
621.402	20224
621.467	22279
621.532	21904
621.596	20514
621.661	19625
621.726	19020
621.791	18852
621.855	20660
621.920	19838
621.985	20902
622.049	21788
622.114	20690
622.179	20080
622.243	20126
622.308	21814
622.373	23168
622.437	21993
622.502	20398
622.566	20415
622.631	19100
622.695	21331
622.760	21239
622.824	20858
622.889	21139
622.953	21153
623.018	27956
623.082	27150
623.147	23062
623.211	21134
623.276	21365
623.340	20340
623.404	20440
623.469	19096
623.533	19954
623.597	19234
623.662	18668
623.726	17606
623.790	16456
623.854	16749
623.919	17284
623.983	16485
624.047	17891
624.111	18123
624.176	17754
624.240	17650
624.304	18976
624.368	17708
624.432	18642
624.496	19077
624.560	20039
624.625	21174
624.689	19569
624.753	20518
624.817	18598
624.881	18019
624.945	16716
625.009	15760
625.073	16470
625.137	16806
625.201	20984
625.265	19625
625.329	17532
625.393	18837
625.456	18156
625.520	17809
625.584	18957
625.648	21143
625.712	25141
625.776	37990
625.839	39918
625.903	20305
625.967	15419
626.031	22016
626.095	28380
626.158	18067
626.222	12356
626.286	12830
626.349	11372
626.413	10734
626.477	12701
626.540	11594
626.604	10448
626.668	12421
626.731	10386
626.795	11707
626.858	11497
626.922	10453
626.986	11426
627.049	9081
627.113	11098
627.176	10257
627.240	10613
627.303	10238
627.366	10701
627.430	10380
627.493	10609
627.557	9184
627.620	11374
627.684	9796
627.747	10425
627.810	8590
627.874	9993
627.937	8346
628.000	10458
628.064	9766
628.127	5912
628.190	8739
628.253	9002
628.317	7163
628.380	8073
628.443	6700
628.506	7195
628.569	6621
628.632	6112
628.696	6240
628.759	6258
628.822	5889
628.885	5939
628.948	6081
629.011	6636
629.074	5351
629.137	4639
629.200	4498
629.263	6955
629.326	4953
629.389	5154
629.452	5585
629.515	5030
629.578	4955
629.641	5762
629.704	4773
629.767	5410
629.830	4866
629.892	5572
629.955	4624
630.018	7470
630.081	6149
630.144	7781
630.207	5029
630.269	6891
630.332	5511
630.395	5561
630.458	5070
630.520	3052
630.583	5876
630.646	4666
630.708	4218
630.771	4324
630.834	5638
630.896	4613
630.959	5141
631.021	4955
631.084	4553
631.146	4875
631.209	5646
631.272	4295
631.334	5234
631.397	5624
631.459	4105
631.522	6189
631.584	6069
631.646	6240
631.709	6530
631.771	7720
631.834	5939
631.896	5523
631.958	4403
632.021	5202
632.083	3832
632.145	4894
632.208	4372
632.270	5737
632.332	4311
632.395	4133
632.457	4914
632.519	3892
632.581	5733
632.643	3880
632.706	4981
632.768	3306
632.830	3784
632.892	4475
632.954	3515
633.016	5743
633.078	4535
633.141	4975
633.203	4163
633.265	4921
633.327	4601
633.389	4505
633.451	5417
633.513	5251
633.575	5968
633.637	5109
633.698	4773
633.760	4835
633.822	5543
633.884	5047
633.946	5536
634.008	4700
634.070	6063
634.132	6283
634.193	6660
634.255	8314
634.317	7527
634.379	8953
634.441	6006
634.502	5542
634.564	5884
634.626	4908
634.687	4772
634.749	5132
634.811	4728
634.873	3532
634.934	4417
634.996	4330
635.057	2850
635.119	3385
635.181	4778
635.242	4808
635.304	3037
635.365	6641
635.427	3560
635.488	4445
635.550	3428
635.611	5367
635.673	2764
635.734	5721
635.796	4416
635.857	6947
635.918	5977
635.980	7358
636.041	6774
636.102	9232
636.164	8900
636.225	9548
636.286	5233
636.348	6190
636.409	4796
636.470	4306
636.531	4300
636.593	4212
636.654	3850
636.715	3827
636.776	3612
636.838	2764
636.899	4011
636.960	3509
637.021	2505
637.082	2569
637.143	3479
637.204	2871
637.265	2042
637.326	3010
637.387	3327
637.448	1747
637.509	3320
637.570	3060
637.631	3535
637.692	1342
637.753	2458
637.814	2531
637.875	2792
637.936	3238
637.997	2054
638.058	3245
638.119	3724
638.179	2826
638.240	2308
638.301	2241
638.362	1867
638.423	2396
638.483	3636
638.544	826
638.605	2779
638.666	1007
638.726	2848
638.787	3755
638.848	1610
638.908	2373
638.969	3184
639.030	1816
639.090	1796
639.151	2334
639.211	2432
639.272	4586
639.332	6383
639.393	3727
639.453	1578
639.514	2882
639.574	2695
639.635	2107
639.695	3463
639.756	1930
639.816	3073
639.877	3019
639.937	7403
639.997	8075
640.058	2104
640.118	1006
640.178	3593
640.239	1515
640.299	1329
640.359	1836
640.420	2025
640.480	3504
640.540	3710
640.600	3528
640.661	3057
640.721	2195
640.781	4754
640.841	2221
640.901	3558
640.961	2451
641.021	2965
641.082	3281
641.142	4542
641.202	3800
641.262	385
641.322	3188
641.382	953
641.442	2873
641.502	2004
641.562	2529
641.622	2103
641.682	2451
641.742	2308
641.802	2171
641.861	2548
641.921	1891
641.981	3361
642.041	2703
642.101	3326
642.161	1698
642.221	1117
642.280	1613
642.340	1446
642.400	1485
642.460	3425
642.519	2245
642.579	1860
642.639	3040
642.698	-865
642.758	4190
642.818	2156
642.877	1032
642.937	1950
642.997	2889
643.056	3985
643.116	1588
643.175	3365
643.235	2313
643.294	2160
643.354	3019
643.414	3519
643.473	4345
643.532	6166
643.592	9951
643.651	18970
643.711	36216
643.770	75492
643.830	192415
643.889	395391
643.948	76089
644.008	11688
644.067	5800
644.126	3666
644.186	4337
644.245	3422
644.304	959
644.363	4137
644.423	846
644.482	1940
644.541	3962
644.600	1056
644.659	4148
644.719	4416
644.778	8869
644.837	17043
644.896	37938
644.955	86977
645.014	22950
645.073	4841
645.132	2299
645.191	2965
645.250	2109
645.309	4373
645.368	3459
645.427	4659
645.486	7631
645.545	15118
645.604	3097
645.663	1738
645.722	2284
645.781	3389
645.840	4015
645.898	5982
645.957	10332
646.016	15620
646.075	33105
646.134	67389
646.192	193134
646.251	262352
646.310	30763
646.369	7149
646.427	5902
646.486	2511
646.545	3290
646.603	3134
646.662	2662
646.721	2468
646.779	2194
646.838	1615
646.896	3708
646.955	5575
647.014	9086
647.072	18240
647.131	54813
647.189	21148
647.248	2069
647.306	2613
647.365	2067
647.423	-815
647.481	2848
647.540	271
647.598	614
647.657	1543
647.715	1646
647.773	650
647.832	1223
647.890	-700
647.948	-57
648.007	1116
648.065	670
648.123	427
648.181	2030
648.240	1001
648.298	-21
648.356	1310
648.414	1174
648.472	518
648.531	889
648.589	862
648.647	429
648.705	972
648.763	497
648.821	1530
648.879	367
648.937	1521
648.995	1709
649.053	3092
649.111	6866
649.169	11898
649.227	24935
649.285	54611
649.343	160738
649.401	65702
649.459	13556
649.516	7035
649.574	3442
649.632	7950
649.690	8297
649.748	4613
649.806	5381
649.863	12986
649.921	37529
649.979	20615
650.037	2943
650.094	217
650.152	1747
650.210	610
650.268	387
650.325	425
650.383	875
650.440	-321
650.498	747
650.556	-241
650.613	-258
650.671	697
650.728	193
650.786	297
650.843	1068
650.901	-1534
650.958	196
651.016	-325
651.073	475
651.131	29
651.188	-810
651.246	312
651.303	-959
651.360	398
651.418	-184
651.475	-669
651.532	-254
651.590	-128
651.647	-121
651.704	-474
651.762	268
651.819	-148
651.876	-475
651.933	-684
651.990	584
652.048	-1165
652.105	-373
652.162	-135
652.219	-93
652.276	359
652.333	-27
652.390	-1051
652.448	335
652.505	-775
652.562	-58
652.619	-518
652.676	552
652.733	660
652.790	36
652.847	-782
652.904	-16
652.961	-1594
653.017	-1172
653.074	309
653.131	-307
653.188	-1998
653.245	68
653.302	-1116
653.359	-957
653.415	43
653.472	-940
653.529	-136
653.586	-724
653.642	-120
653.699	52
653.756	-1630
653.813	-829
653.869	-445
653.926	-1217
653.983	-482
654.039	268
654.096	-336
654.152	324
654.209	-1756
654.266	-552
654.322	-1425
654.379	-123
654.435	726
654.492	-127
654.548	975
654.605	1791
654.661	979
654.717	-134
654.774	-215
654.830	-161
654.887	-104
654.943	-1238
655.000	-312
655.056	-491
655.112	-437
655.168	-423
655.225	-197
655.281	-101
655.337	-173
655.394	688
655.450	-558
655.506	832
655.562	1255
655.618	1279
655.675	-1072
655.731	-506
655.787	-470
655.843	-329
655.899	-794
655.955	183
656.011	-914
656.067	-1596
656.123	-254
656.179	-451
656.235	669
656.291	-1429
656.347	263
656.403	-1293
656.459	-810
656.515	402
656.571	-274
656.627	-23
656.683	-783
656.739	333
656.795	-963
656.850	171
656.906	-418
656.962	1243
657.018	-601
657.074	-173
657.129	156
657.185	1453
657.241	3011
657.297	1292
657.352	9
657.408	-1399
657.464	361
657.519	165
657.575	-842
657.630	-938
657.686	209
657.742	-795
657.797	-737
657.853	-895
657.908	-793
657.964	-1239
658.019	-466
658.075	-568
658.130	115
658.186	-2036
658.241	-544
658.297	-371
658.352	-703
658.407	-166
658.463	-1270
658.518	-268
658.573	-544
658.629	-1910
658.684	-1193
658.739	84
658.795	-787
658.850	-383
658.905	-1030
658.960	-885
659.016	-761
659.071	-536
659.126	-208
659.181	132
659.236	963
659.291	1963
659.346	86
659.401	-18
659.457	-90
659.512	-520
659.567	-167
659.622	-848
659.677	-603
659.732	-1605
659.787	-1090
659.842	-294
659.897	-537
659.952	760
660.007	-1011
660.061	-790
660.116	-1246
660.171	-570
660.226	-1274
660.281	-84
660.336	-1729
660.391	-203
660.445	-1329
660.500	1
660.555	-1016
660.610	-609
660.664	-1113
660.719	-1252
660.774	-425
660.828	-624
660.883	-619
660.938	164
660.992	-1606
661.047	-173
661.101	-1122
661.156	-1342
661.211	-2479
661.265	77
661.320	-1400
661.374	-341
661.429	-1104
661.483	338
661.538	-1627
661.592	-1269
661.647	-885
661.701	80
661.755	-777
661.810	-224
661.864	-1572
661.919	-834
661.973	152
662.027	-955
662.081	-1233
662.136	-997
662.190	-550
662.244	-356
662.299	-1378
662.353	-186
662.407	-956
662.461	-1587
662.515	-240
662.569	-790
662.624	-1035
662.678	-782
662.732	-290
662.786	-725
662.840	-953
662.894	-855
662.948	-1576
663.002	-339
663.056	-966
663.110	-763
663.164	-762
663.218	-919
663.272	-889
663.326	19
663.380	-997
663.434	-859
663.488	-1327
663.542	-1692
663.595	-1318
663.649	-1243
663.703	-10
663.757	-722
663.811	-1526
663.864	-684
663.918	-300
663.972	-1068
664.026	-1113
664.079	-1491
664.133	-283
664.187	-768
664.240	-1855
664.294	-883
664.348	-1297
664.401	-845
664.455	-276
664.508	-439
664.562	-932
664.615	-252
664.669	-1036
664.722	-815
664.776	-669
664.829	-1004
664.883	-176
664.936	-1906
664.990	-1211
665.043	-252
665.097	-510
665.150	102
665.203	-1245
665.257	-225
665.310	-609
665.363	-685
665.417	-710
665.470	-1152
665.523	-1453
665.576	-566
665.630	-1147
665.683	-668
665.736	-477
665.789	-764
665.842	-555
665.895	-647
665.949	-483
666.002	-756
666.055	39
666.108	-47
666.161	-589
666.214	-204
666.267	-456
666.320	-45
666.373	-23
666.426	-405
666.479	-1627
666.532	306
666.585	-319
666.638	-675
666.691	-648
666.744	336
666.796	-309
666.849	-1153
666.902	-311
666.955	-517
667.008	-1249
667.060	-1192
667.113	-1465
667.166	-465
667.219	-752
667.271	-578
667.324	-763
667.377	-1035
667.430	-1057
667.482	-492
667.535	-1255
667.587	-275
667.640	-768
667.693	33
667.745	952
667.798	1552
667.850	-388
667.903	-843
667.955	-1728
668.008	-629
668.060	-1835
668.113	-814
668.165	-400
668.218	365
668.270	-930
668.322	-802
668.375	-320
668.427	-101
668.479	-384
668.532	-645
668.584	-781
668.636	-723
668.689	-194
668.741	-748
668.793	-862
668.845	-1408
668.898	-1243
668.950	-168
669.002	-145
669.054	-1449
669.106	-950
669.158	205
669.211	-658
669.263	-256
669.315	501
669.367	-128
669.419	-560
669.471	708
669.523	181
669.575	1515
669.627	76
669.679	-131
669.731	-690
669.783	191
669.835	-37
669.886	565
669.938	-799
669.990	-302
670.042	-1133
670.094	-570
670.146	-837
670.197	-264
670.249	-66
670.301	-422
670.353	881
670.404	1130
670.456	970
670.508	3776
670.560	6160
670.611	11221
670.663	19175
670.715	53377
670.766	90248
670.818	26770
670.869	3037
670.921	1269
670.972	954
671.024	-631
671.075	-370
671.127	429
671.178	-644
671.230	761
671.281	149
671.333	-547
671.384	206
671.436	-57
671.487	1319
671.538	1790
671.590	3038
671.641	6123
671.692	14018
671.744	30041
671.795	17865
671.846	4149
671.897	471
671.949	695
672.000	-232
672.051	-191
672.102	-702
672.153	-470
672.204	-787
672.256	35
672.307	135
672.358	-597
672.409	-1008
672.460	-59
672.511	-1271
672.562	-1504
672.613	-472
672.664	-1158
672.715	-795
672.766	-4
672.817	-760
672.868	-957
672.919	-566
672.970	-1127
673.021	-1270
673.071	-1712
673.122	-1317
673.173	-370
673.224	-403
673.275	-1322
673.326	-494
673.376	-863
673.427	-1951
673.478	-610
673.528	-1099
673.579	-1126
673.630	-1120
673.680	-264
673.731	-953
673.782	-437
673.832	-1817
673.883	-1210
673.934	-1178
673.984	-1006
674.035	-1108
674.085	-449
674.136	-123
674.186	-1284
674.237	-516
674.287	-384
674.338	-1287
674.388	-1441
674.438	-1272
674.489	-864
674.539	-641
674.589	-1078
674.640	-998
674.690	-477
674.740	-1080
674.791	-45
674.841	-757
674.891	-481
674.942	-863
674.992	-1357
675.042	-1379
675.092	-659
675.142	-2272
675.193	-1169
675.243	-1057
675.293	-326
675.343	-1813
675.393	-431
675.443	-561
675.493	-785
675.543	-1296
675.593	-891
675.643	-1074
675.693	-198
675.743	-566
675.793	-960
675.843	-1914
675.893	-597
675.943	-40
675.993	-403
676.043	-1458
676.093	-834
676.142	-864
676.192	-798
676.242	-1231
676.292	-1142
676.341	-792
676.391	-1052
676.441	-1300
676.491	-866
676.540	-1155
676.590	-248
676.640	-1231
676.689	-906
676.739	-1777
676.789	-1134
676.838	-1119
676.888	-1276
676.937	-926
676.987	-1051
677.037	-330
677.086	-1211
677.136	-1295
677.185	-1540
677.235	-1489
677.284	-796
677.333	-1541
677.383	-1264
677.432	-1474
677.482	-385
677.531	-308
677.580	-936
677.630	-1397
677.679	-1898
677.728	-1179
677.778	-1089
677.827	-1127
677.876	-893
677.925	-1527
677.975	-1063
678.024	-1386
678.073	-1062
678.122	-1128
678.171	-1455
678.220	-1126
678.269	-728
678.319	-606
678.368	-2049
678.417	-985
678.466	-1125
678.515	-1268
678.564	-1180
678.613	-722
678.662	-1190
678.711	-704
678.760	-1344
678.809	-1789
678.857	-1550
678.906	-1135
678.955	-878
679.004	-568
679.053	-692
679.102	-1297
679.151	-895
679.199	-1865
679.248	-759
679.297	-1846
679.346	-498
679.394	-1731
679.443	-1295
679.492	-2295
679.540	-2059
679.589	-1191
679.638	-1317
679.686	-173
679.735	-922
679.784	-1204
679.832	-812
679.881	-1567
679.929	-918
679.978	-1843
680.026	-1657
680.075	-1516
680.123	-1525
680.172	-603
680.220	-1183
680.268	-1157
680.317	-1804
680.365	-517
680.414	-2201
680.462	-1268
680.510	-331
680.559	-1033
680.607	-1030
680.655	-1496
680.703	-1836
680.752	-896
680.800	-985
680.848	-1097
680.896	-1075
680.945	-1783
680.993	-1126
681.041	-999
681.089	-1222
681.137	-966
681.185	-1502
681.233	-1986
681.258	-1506
681.281	-1059
681.329	-1848
681.377	-890
681.380	-910
681.425	-1395
681.473	-957
681.502	-1023
681.521	-1081
681.569	-1124
681.617	-1770
681.624	-1635
681.665	-801
681.713	-959
681.745	-802
681.761	-738
681.809	-1380
681.857	-791
681.867	-895
681.904	-1283
681.952	-418
681.989	-1123
682.000	-1334
682.048	-1461
682.096	-1494
682.111	-1214
682.143	-674
682.191	-1783
682.233	-762
682.239	-611
682.286	-1265
682.334	-1278
682.354	-1139
682.382	-961
682.430	-954
682.476	-1234
682.477	-1246
682.525	-1768
682.572	-1489
682.598	-1292
682.620	-1135
682.667	-1394
682.715	-195
682.720	-197
682.763	-204
682.810	-784
682.841	-1121
682.857	-1319
682.905	-945
682.952	-485
682.963	-470
683.000	-447
683.047	-614
683.085	-260
683.095	-168
683.142	-1228
683.190	-247
683.206	-485
683.237	-933
683.284	-877
683.328	-372
683.332	-334
683.379	-625
683.426	-1074
683.449	-809
683.473	-535
683.521	-510
683.568	-994
683.571	-1018
683.615	-1424
683.662	-265
683.693	-907
683.709	-1243
683.757	-152
683.804	-824
683.814	-818
683.851	-950
683.898	-648
683.936	-987
683.945	-1045
683.992	-1159
684.039	-1110
684.057	-1153
684.086	-1222
684.133	-1114
684.179	-399
684.180	-383
684.227	-126
684.274	-397
684.300	-29
684.321	256
684.368	-693
684.415	-452
684.422	-471
684.462	-573
684.509	-1280
684.543	-550
684.556	-290
684.603	-477
684.649	-432
684.665	-443
684.696	-512
684.743	-227
684.786	-167
684.790	-155
684.837	-973
684.883	-142
684.908	-205
684.930	-308
684.977	-90
685.023	-381
685.029	-398
685.070	-487
685.117	-58
685.150	160
685.164	222
685.210	-293
685.257	-8
685.272	53
685.303	196
685.350	126
685.393	-907
685.396	-995
685.443	429
685.490	149
685.514	-214
685.536	-529
685.583	-33
685.629	-801
685.636	-667
685.675	96
685.722	-12
685.757	-98
685.768	-136
685.815	-224
685.861	-82
685.878	-116
685.908	-107
685.954	-171
686.000	-393
686.000	-399
686.047	115
686.093	-172
686.121	-84
686.139	-70
686.185	181
686.232	104
686.242	-16
686.278	-312
686.324	-64
686.363	-181
686.370	-216
686.416	-452
686.463	-306
686.484	-466
686.509	-612
686.555	-412
686.601	-384
686.606	-311
686.647	257
686.693	-676
686.727	-396
686.739	-268
686.785	157
686.831	57
686.848	-43
686.877	-228
686.923	151
686.969	398
686.969	399
687.015	125
687.061	335
687.090	401
687.107	386
687.153	171
687.199	112
687.211	-83
687.245	-457
687.291	346
687.332	-49
687.336	-91
687.382	149
687.428	258
687.453	166
687.474	80
687.520	233
687.565	132
687.574	182
687.611	365
687.657	255
687.695	185
687.702	199
687.748	1003
687.794	511
687.816	613
687.839	562
687.885	866
687.931	445
687.937	359
687.976	17
688.022	356
688.058	503
688.067	526
688.113	366
688.158	215
688.179	6
688.204	-167
688.249	-163
688.295	391
688.300	445
688.340	794
688.386	511
688.421	162
688.431	68
688.477	338
688.522	228
688.542	362
688.567	581
688.613	270
688.658	747
688.663	720
688.703	313
688.749	642
688.784	573
688.794	596
688.839	112
688.884	-70
688.905	115
688.930	363
688.975	476
689.020	623
689.026	559
689.065	60
689.110	511
689.146	303
689.155	284
689.201	618
689.246	925
689.267	826
689.291	522
689.336	741
689.381	215
689.388	113
689.426	-90
689.471	350
689.509	474
689.516	471
689.561	1013
689.606	467
689.630	299
689.651	276
689.696	968
689.741	835
689.750	874
689.785	841
689.830	840
689.871	677
689.875	654
689.920	542
689.965	337
689.992	329
690.010	459
690.054	429
690.099	285
690.112	596
690.144	1159
690.189	422
690.233	243
690.233	246
690.278	196
690.323	436
690.354	654
690.367	834
690.412	941
690.457	1305
690.474	1385
690.501	1190
690.546	865
690.590	848
690.595	815
690.635	892
690.680	772
690.716	549
690.724	494
690.769	832
690.813	1452
690.836	1165
690.857	920
690.902	810
690.946	1018
690.957	1112
690.991	1635
691.035	1963
691.077	2855
691.080	2877
691.124	1842
691.168	1394
691.198	1165
691.213	1130
691.257	1348
691.301	1070
691.318	959
691.346	791
691.390	848
691.434	1198
691.439	1141
691.478	841
691.522	1094
691.559	1044
691.567	1070
691.611	1543
691.655	1394
691.680	1420
691.699	1235
691.743	1296
691.787	1228
691.800	1018
691.831	704
691.875	729
691.919	1008
691.921	1000
691.964	974
692.008	969
692.041	1088
692.052	1157
692.096	968
692.139	1460
692.162	1509
692.183	1419
692.227	1446
692.271	1069
692.282	1010
692.315	1111
692.359	1126
692.402	1867
692.403	1877
692.447	1581
692.490	1663
692.523	1692
692.534	1682
692.578	1830
692.622	1472
692.643	1338
692.666	1186
692.709	1039
692.753	985
692.763	923
692.797	935
692.840	1238
692.884	1092
692.884	1098
692.928	1066
692.971	1372
693.004	1236
693.015	1251
693.059	1339
693.102	1374
693.124	1514
693.146	1526
693.189	1316
693.233	1167
693.245	1130
693.276	1251
693.320	1607
693.363	1864
693.365	1853
693.407	1716
693.450	1838
693.485	1873
693.493	1881
693.537	2112
693.580	1884
693.605	2029
693.624	2176
693.667	2215
693.710	2476
693.725	2557
693.753	3135
693.797	3994
693.840	4640
693.845	4726
693.883	4280
693.926	3334
693.966	2917
693.970	2900
694.013	2587
694.056	2213
694.086	1806
694.099	1778
694.142	1792
694.185	2018
694.206	1991
694.229	1847
694.272	1747
694.315	1412
694.326	1330
694.358	1387
694.401	1605
694.444	1871
694.446	1864
694.487	1983
694.530	2241
694.566	2410
694.573	2358
694.616	1973
694.659	1730
694.686	1474
694.702	1450
694.745	1248
694.787	1227
694.806	1269
694.830	1423
694.873	1327
694.916	1422
694.926	1454
694.959	1511
695.002	1432
695.044	1306
695.046	1307
695.087	1603
695.130	1466
695.166	1550
695.172	1590
695.215	1557
695.258	1932
695.286	1979
695.301	1970
695.343	1971
695.386	2091
695.406	2032
695.428	1954
695.471	1770
695.514	1884
695.526	1854
695.556	1833
695.599	1806
695.641	1789
695.646	1793
695.684	1980
695.726	1854
695.766	1927
695.769	1923
695.811	1728
695.854	1366
695.886	1264
695.896	1342
695.938	1465
695.981	1630
696.005	1668
696.023	1675
696.065	1895
696.108	1991
696.125	1986
696.150	1885
696.192	1864
696.235	1561
696.245	1530
696.277	1630
696.319	1739
696.361	1729
696.365	1731
696.404	1844
696.446	1890
696.485	1937
696.488	1961
696.530	2064
696.572	2193
696.604	2305
696.614	2362
696.656	2622
696.698	2949
696.724	2966
696.740	2869
696.783	2793
696.825	2701
696.844	2703
696.867	2817
696.909	2720
696.951	2704
696.964	2731
696.992	2566
697.034	2128
697.076	1810
697.083	1740
697.118	1893
697.160	2079
697.202	2329
697.203	2322
697.244	2363
697.286	2429
697.323	2480
697.327	2497
697.369	2624
697.411	2657
697.442	2625
697.453	2613
697.494	2545
697.536	2656
697.562	2625
697.578	2665
697.620	2712
697.661	2752
697.682	2769
697.703	2788
697.744	2841
697.786	2965
697.801	2947
697.828	2961
697.869	3010
697.911	3025
697.921	3028
697.952	2999
697.994	2928
698.035	2873
698.040	2851
698.077	2904
698.118	2992
698.160	3067
698.160	3056
698.201	2885
698.243	2674
698.279	2522
698.284	2558
698.325	2774
698.367	3001
698.399	3141
698.408	3149
698.449	3148
698.491	3145
698.518	3125
698.532	3135
698.573	3122
698.614	3112
698.638	3103
698.656	3041
698.697	2850
698.738	2661
698.757	2558
698.779	2582
698.820	2624
698.862	2657
698.877	2658
698.903	2808
698.944	3033
698.985	3254
698.996	3306
699.026	3349
699.067	3388
699.116	3426
699.235	2821
699.354	2566
699.474	3530
699.593	3196
699.713	3578
699.832	3600
699.951	2797
700.070	3473
700.190	2805
700.309	3504
700.428	3154
700.547	3162
700.667	3596
700.786	2987
700.905	2634
701.024	2401
701.143	2711
701.262	3031
701.381	2604
701.500	2524
701.619	2946
701.738	3319
701.857	2434
701.976	2719
702.095	2597
702.214	2535
702.333	3609
702.452	3178
702.571	3038
702.690	2665
702.809	2168
702.928	1911
703.047	1854
703.165	2649
703.284	2049
703.403	3459
703.522	2567
703.640	3169
703.759	3627
703.878	3481
703.997	2504
704.115	2251
704.234	2342
704.353	2413
704.471	1885
704.590	2203
704.708	2251
704.827	2607
704.946	2581
705.064	2159
705.183	1384
705.301	3116
705.420	2545
705.538	3251
705.656	2110
705.775	3089
705.893	3641
706.012	4427
706.130	2311
706.249	2386
706.367	2597
706.485	2582
706.604	3496
706.722	3096
706.840	3670
706.958	3895
707.077	2691
707.195	2635
707.313	2799
707.431	1632
707.549	2693
707.668	2600
707.786	2188
707.904	2601
708.022	2135
708.140	2927
708.258	2067
708.376	2810
708.494	2469
708.612	3315
708.730	3055
708.848	2791
708.966	2781
709.084	2897
709.202	3221
709.320	3089
709.438	2527
709.556	2277
709.674	2964
709.791	3029
709.909	2307
710.027	2979
710.145	2727
710.263	3513
710.380	1959
710.498	2760
710.616	2190
710.733	2217
710.851	2563
710.969	3217
711.086	2543
711.204	3362
711.322	2494
711.439	2250
711.557	3103
711.674	2788
711.792	2257
711.909	2872
712.027	2159
712.144	2788
712.262	2380
712.379	2656
712.497	3221
712.614	3897
712.732	3311
712.849	3112
712.966	3165
713.084	4233
713.201	3062
713.318	2848
713.436	2568
713.553	3553
713.670	2825
713.787	3821
713.905	2982
714.022	2901
714.139	3250
714.256	4092
714.373	5616
714.490	10787
714.608	30242
714.725	133739
714.842	106699
714.959	6831
715.076	4378
715.193	3509
715.310	2856
715.427	2573
715.544	2599
715.661	2416
715.778	2569
715.895	2683
716.011	2640
716.128	3081
716.245	2844
716.362	4067
716.479	2882
716.596	2896
716.713	2966
716.829	2560
716.946	1500
717.063	1423
717.180	1467
717.296	2239
717.413	2501
717.530	2087
717.646	2274
717.763	1726
717.880	1408
717.996	2203
718.113	2213
718.229	2900
718.346	1907
718.462	2344
718.579	2501
718.695	4892
718.812	3822
718.928	3071
719.045	2500
719.161	2338
719.277	1396
719.394	2594
719.510	2437
719.626	2749
719.743	2712
719.859	4637
719.975	8711
720.092	37304
720.208	69938
720.324	7139
720.440	2766
720.557	3469
720.673	4500
720.789	4882
720.905	10061
721.021	3223
721.137	964
721.253	2155
721.369	1939
721.486	2626
721.602	2985
721.718	1790
721.834	1022
721.950	1854
722.066	960
722.181	1687
722.297	1651
722.413	1712
722.529	1955
722.645	2522
722.761	1506
722.877	1088
722.993	1105
723.108	2177
723.224	1722
723.340	1738
723.456	1133
723.571	1679
723.687	865
723.803	2096
723.918	979
724.034	720
724.150	1525
724.265	1591
724.381	2785
724.497	4253
724.612	1295
724.728	1485
724.843	1236
724.959	1746
725.074	4029
725.190	3269
725.305	1409
725.421	2237
725.536	892
725.651	899
725.767	1807
725.882	1433
725.997	1661
726.113	1859
726.228	1112
726.343	1231
726.459	1097
726.574	1315
726.689	1510
726.804	912
726.920	1276
727.035	1832
727.150	1051
727.265	1576
727.380	1384
727.495	2223
727.610	1655
727.725	951
727.841	860
727.956	2238
728.071	1138
728.186	1444
728.301	375
728.416	361
728.531	1619
728.645	1154
728.760	1074
728.875	1362
728.990	2221
729.105	1221
729.220	1442
729.335	1365
729.449	758
729.564	998
729.679	818
729.794	1618
729.908	861
730.023	1860
730.138	1830
730.253	639
730.367	1074
730.482	575
730.596	1432
730.711	2040
730.826	1672
730.940	2137
731.055	1644
731.169	1039
731.284	1414
731.398	969
731.513	1578
731.627	1253
731.742	1771
731.856	1540
731.970	1662
732.085	1530
732.199	2656
732.313	4418
732.428	12296
732.542	40504
732.656	19379
732.771	3548
732.885	1647
732.999	2355
733.113	1788
733.227	2476
733.342	2380
733.456	2011
733.570	2005
733.684	1707
733.798	1430
733.912	1369
734.026	958
734.140	2401
734.254	899
734.368	3328
734.482	1880
734.596	2361
734.710	1631
734.824	1798
734.938	973
735.052	1182
735.166	1316
735.280	1814
735.393	1840
735.507	1666
735.621	1521
735.735	2213
735.849	1504
735.962	1307
736.076	1520
736.190	1517
736.303	1264
736.417	1556
736.531	2162
736.644	939
736.758	803
736.872	1012
736.985	1366
737.099	1466
737.212	260
737.326	2058
737.439	1457
737.553	-37
737.666	613
737.780	645
737.893	991
738.007	1246
738.120	692
738.233	601
738.347	333
738.460	1058
738.573	1220
738.687	1495
738.800	1126
738.913	1500
739.026	544
739.140	1407
739.253	746
739.366	1562
739.479	582
739.592	1187
739.705	859
739.818	1766
739.932	560
740.045	751
740.158	890
740.271	1090
740.384	983
740.497	1337
740.610	590
740.723	890
740.836	1254
740.949	1496
741.062	2252
741.174	1782
741.287	549
741.400	1526
741.513	1492
741.626	917
741.739	1437
741.851	602
741.964	1646
742.077	1165
742.189	582
742.302	702
742.415	820
742.527	974
742.640	269
742.753	1114
742.865	913
742.978	805
743.090	851
743.203	735
743.316	580
743.428	1044
743.541	567
743.653	1220
743.766	262
743.878	216
743.990	1523
744.103	1606
744.215	858
744.327	772
744.440	1666
744.552	2208
744.664	1287
744.777	740
744.889	132
745.001	1194
745.113	540
745.226	704
745.338	912
745.450	226
745.562	588
745.674	722
745.786	810
745.898	757
746.010	159
746.122	842
746.234	195
746.347	1085
746.459	562
746.570	138
746.682	221
746.794	659
746.906	605
747.018	794
747.130	728
747.242	798
747.354	707
747.466	1135
747.577	339
747.689	382
747.801	555
747.913	508
748.024	1381
748.136	130
748.248	587
748.359	609
748.471	990
748.583	348
748.694	-313
748.806	1588
748.918	557
749.029	861
749.141	1209
749.252	1419
749.364	-44
749.475	2015
749.587	378
749.698	105
749.809	784
749.921	1139
750.032	540
750.144	167
750.255	-55
750.366	1
750.478	154
750.589	693
750.700	520
750.811	46
750.923	869
751.034	2529
751.145	2073
751.256	616
751.367	796
751.479	728
751.590	132
751.701	876
751.812	74
751.923	-134
752.034	-222
752.145	375
752.256	-104
752.367	289
752.478	-122
752.589	1101
752.700	309
752.811	327
752.922	486
753.032	62
753.143	624
753.254	-322
753.365	-101
753.476	217
753.586	148
753.697	251
753.808	454
753.919	491
754.029	477
754.140	680
754.251	721
754.361	172
754.472	131
754.582	69
754.693	955
754.804	1221
754.914	-308
755.025	187
755.135	247
755.246	275
755.356	-522
755.466	497
755.577	-130
755.687	784
755.798	202
755.908	-19
756.018	455
756.129	1012
756.239	144
756.349	713
756.460	-579
756.570	938
756.680	-449
756.790	543
756.900	1098
757.011	826
757.121	1122
757.231	-510
757.341	-70
757.451	-630
757.561	235
757.671	457
757.781	-304
757.891	496
758.001	358
758.111	420
758.221	170
758.331	439
758.441	-32
758.551	600
758.661	340
758.771	1032
758.880	12
758.990	10
759.100	-211
759.210	942
759.320	107
759.429	325
759.539	276
759.649	528
759.758	-219
759.868	952
759.978	722
760.087	1001
760.197	759
760.307	613
760.416	154
760.526	-174
760.635	27
760.745	459
760.854	955
760.964	592
761.073	482
761.182	500
761.292	117
761.401	-240
761.511	358
761.620	-206
761.729	630
761.839	24
761.948	507
762.057	801
762.166	-219
762.276	-616
762.385	417
762.494	152
762.603	14
762.712	623
762.822	554
762.931	853
763.040	-621
763.149	49
763.258	-82
763.367	529
763.476	328
763.585	819
763.694	260
763.803	368
763.912	583
764.021	1115
764.130	19
764.238	492
764.347	-486
764.456	411
764.565	0
764.674	1057
764.783	205
764.891	581
765.000	849
765.109	1036
765.217	745
765.326	1611
765.435	1495
765.543	2291
765.652	1988
765.761	3112
765.869	6072
765.978	8997
766.086	16826
766.195	39046
766.303	114573
766.412	298775
766.520	181740
766.629	39595
766.737	14508
766.846	8558
766.954	4671
767.062	4839
767.171	2585
767.279	2785
767.387	1475
767.496	1657
767.604	1779
767.712	1816
767.820	816
767.928	1086
768.037	962
768.145	775
768.253	1694
768.361	865
768.469	1269
768.577	708
768.685	1299
768.793	823
768.901	1175
769.009	1266
769.117	1724
769.225	1952
769.333	4495
769.441	6839
769.549	14808
769.657	39986
769.765	142639
769.873	219282
769.981	50205
770.088	11257
770.196	4634
770.304	3715
770.412	2247
770.519	2995
770.627	1311
770.735	1193
770.842	773
770.950	1002
771.058	161
771.165	1324
771.273	216
771.380	1101
771.488	1556
771.595	1263
771.703	304
771.810	843
771.918	607
772.025	1313
772.133	-131
772.240	666
772.348	748
772.455	1214
772.562	875
772.670	-296
772.777	857
772.884	835
772.991	705
773.099	888
773.206	401
773.313	1093
773.420	-37
773.528	-61
773.635	-65
773.742	1468
773.849	1499
773.956	951
774.063	1018
774.170	333
774.277	1685
774.384	579
774.491	509
774.598	755
774.705	786
774.812	971
774.919	1556
775.026	350
775.133	940
775.239	186
775.346	1062
775.453	-39
775.560	559
775.667	836
775.773	-568
775.880	1626
775.987	427
776.093	765
776.200	-5
776.307	360
776.413	1149
776.520	210
776.627	487
776.733	421
776.840	-917
776.946	2042
777.053	712
777.159	1096
777.266	-130
777.372	1774
777.478	498
777.585	534
777.691	-625
777.798	663
777.904	1408
778.010	1096
778.117	432
778.223	371
778.329	-182
778.435	247
778.542	1416
778.648	-381
778.754	-401
778.860	395
778.966	162
779.072	966
779.178	324
779.284	897
779.391	-244
779.497	-395
779.603	1707
779.708	-270
779.815	1365
779.920	5520
780.026	6442
780.132	981
780.238	-727
780.344	227
780.450	850
780.556	627
780.661	413
780.767	-71
780.873	478
780.979	651
781.085	-407
781.190	883
781.296	296
781.402	117
781.507	-450
781.613	-21
781.719	-381
781.824	-3
781.930	407
782.035	340
782.141	449
782.246	295
782.352	41
782.457	-378
782.563	180
782.668	-129
782.773	-346
782.879	368
782.984	267
783.090	389
783.195	1346
783.300	796
783.405	419
783.511	189
783.616	496
783.721	520
783.826	396
783.932	673
784.037	-193
784.142	-753
784.247	-563
784.352	573
784.457	-61
784.562	406
784.667	42
784.772	37
784.877	-224
784.982	776
785.087	-285
785.192	1270
785.297	-287
785.402	311
785.507	-629
785.611	219
785.716	-593
785.821	47
785.926	63
786.031	313
786.135	-346
786.240	-409
786.345	-318
786.450	3
786.554	-233
786.659	-722
786.763	-1195
786.868	527
786.973	-384
787.077	90
787.182	109
787.286	-204
787.391	-519
787.495	-472
787.600	-900
787.704	14
787.809	-374
787.913	-438
788.017	51
788.122	284
788.226	-463
788.330	-428
788.435	-508
788.539	504
788.643	-30
788.747	-77
788.852	-823
788.956	84
789.060	271
789.164	-158
789.268	-255
789.372	293
789.476	-87
789.580	-270
789.684	-1204
789.788	651
789.892	-385
789.996	411
790.100	79
790.204	-132
790.308	-182
790.412	-586
790.516	40
790.620	133
790.724	7
790.828	-641
790.931	-1573
791.035	1409
791.139	-240
791.242	-1298
791.346	1055
791.450	-611
791.554	-670
791.657	-1316
791.761	568
791.864	175
791.968	-552
792.072	-646
792.175	342
792.279	-633
792.382	-827
792.486	651
792.589	-570
792.693	147
792.796	-1177
792.899	-93
793.003	-188
793.106	-1415
793.209	-385
793.313	1166
793.416	-786
793.519	1341
793.623	-167
793.726	1099
793.829	-115
793.932	429
794.035	-1320
794.138	63
794.242	-167
794.345	-510
794.448	358
794.551	73
794.654	2320
794.757	3541
794.860	-468
794.963	550
795.066	-1077
795.169	635
795.272	-910
795.375	-42
795.477	-909
795.580	282
795.683	-874
795.786	288
795.889	-1608
795.991	403
796.094	37
796.197	-1462
796.300	94
796.402	164
796.505	-579
796.608	-482
796.710	804
796.813	-1092
796.915	-429
797.018	-325
797.120	-536
797.223	-1476
797.326	621
797.428	-537
797.530	11
797.633	-933
797.735	287
797.838	626
797.940	433
798.042	-15
798.145	-841
798.247	565
798.349	-1238
798.452	240
798.554	-428
798.656	-1211
798.758	764
798.860	-1422
798.962	-415
799.065	-297
799.167	-1156
799.269	187
799.371	-489
799.473	-97
799.575	-1017
799.677	-113
799.779	1658
799.881	-818
799.983	-45
800.085	63
800.187	-757
800.289	-856
800.390	-988
800.492	300
800.594	426
800.696	-807
800.798	-800
800.899	-1695
801.001	-1217
801.103	-284
801.205	-1049
801.306	-303
801.408	-995
801.509	-310
801.611	-215
801.713	181
801.814	-1061
801.916	-38
802.017	-522
802.119	-901
802.220	-151
802.322	-1815
802.423	1092
802.525	-1355
802.626	-302
802.727	371
802.829	-161
802.930	-2865
803.031	403
803.133	-929
803.234	-1153
803.335	-732
803.436	-925
803.538	-708
803.639	-1278
803.740	249
803.841	-1453
803.942	-272
804.043	-654
804.144	-1393
804.245	-156
804.346	-1224
804.447	-1646
804.548	-185
804.649	726
804.750	-258
804.851	-184
804.952	-117
805.053	-269
805.154	-1603
805.255	241
805.355	-360
805.456	-541
805.557	-901
805.658	-1287
805.758	-119
805.859	-525
805.960	-168
806.061	-1658
806.161	-422
806.262	-438
806.362	-1520
806.463	-865
806.564	-648
806.664	-728
806.765	211
806.865	-203
806.966	-310
807.066	-988
807.166	-105
807.267	-16
807.367	-1217
807.468	-349
807.568	-1643
807.668	237
807.769	-70
807.869	-1532
807.969	-824
808.069	-387
808.170	-497
808.270	-712
808.370	-1005
808.470	-309
808.570	-1616
808.670	-918
808.770	138
808.870	-1131
808.970	-872
809.070	-924
809.170	-1428
809.271	-226
809.370	-366
809.470	-977
809.570	-737
809.670	-1139
809.770	-143
809.870	-411
809.970	-483
810.070	-1360
810.169	355
810.269	-2384
810.369	29
810.469	-339
810.568	-842
810.668	-995
810.768	-1406
810.867	-798
810.967	-655
811.066	-600
811.166	-1146
811.265	-541
811.365	-945
811.464	-1539
811.564	-112
811.663	-532
811.763	-2479
811.862	-722
811.962	-82
812.061	-1429
812.160	-1342
812.260	-86
812.359	-1006
812.458	-1406
812.557	-679
812.657	-1163
812.756	-542
812.855	-981
812.954	-1475
813.053	-401
813.153	-384
813.252	-1135
813.351	-510
813.450	-881
813.549	-815
813.648	-354
813.747	-737
813.846	-156
813.945	-1442
814.044	-965
814.143	232
814.242	-177
814.341	-1354
814.439	-553
814.538	-45
814.637	-273
814.736	-573
814.835	-558
814.933	-376
815.032	-479
815.131	-824
815.229	-348
815.328	215
815.427	-223
815.525	331
815.624	276
815.722	32
815.821	-289
815.919	-490
816.018	-1546
816.116	-62
816.215	-783
816.313	-232
816.412	-692
816.510	-7
816.609	242
816.707	-384
816.805	-814
816.904	-314
817.002	-534
817.100	989
817.198	183
817.296	-856
817.395	-89
817.493	950
817.591	138
817.689	1463
817.787	770
817.885	3411
817.983	5555
818.081	14748
818.179	41495
818.277	96437
818.375	52580
818.473	8854
818.571	4189
818.669	3562
818.767	1965
818.865	2816
818.963	2680
819.061	6554
819.158	13401
819.256	34075
819.354	85098
819.452	162060
819.549	65729
819.647	12717
819.745	5365
819.842	2712
819.940	1927
820.038	1325
820.135	-61
820.233	1594
820.330	-295
820.428	-194
820.525	847
820.623	167
820.720	-751
820.818	322
820.915	-160
821.012	119
821.110	-1201
821.207	79
821.304	-866
821.402	-687
821.499	191
821.596	643
821.693	443
821.791	151
821.888	-24
821.985	1121
822.082	333
822.179	132
822.276	-1090
822.373	-457
822.470	-591
822.567	517
822.664	-386
822.761	338
822.858	-402
822.955	-417
823.052	-642
823.149	-402
823.246	-538
823.343	-1149
823.440	-158
823.536	-754
823.633	-1173
823.730	-1171
823.827	-713
823.923	-662
824.020	196
824.117	-1274
824.213	-1391
824.310	-96
824.407	-1310
824.503	44
824.600	-508
824.696	47
824.793	-136
824.889	-1543
824.986	-1388
825.082	-681
825.179	-1013
825.275	-166
825.371	-1796
825.468	877
825.564	-1493
825.660	-596
825.757	199
825.853	-111
825.949	-882
826.045	-927
826.142	-890
826.238	-865
826.334	-598
826.430	-1846
826.526	-461
826.622	-591
826.718	-1341
826.814	-419
826.910	269
827.006	-555
827.102	-1080
827.198	93
827.294	-1353
827.390	-564
827.486	70
827.582	-1518
827.678	-1220
827.774	896
827.869	-2091
827.965	-128
828.061	-1361
828.157	-714
828.252	-1094
828.348	-1433
828.444	-288
828.539	-1638
828.635	-977
828.731	15
828.826	-722
828.922	-1112
829.017	-1243
829.113	28
829.208	-1134
829.304	-994
829.399	-101
829.495	-1556
829.590	-418
829.685	-1283
829.781	3
829.876	-1254
829.971	-1704
830.066	-926
830.162	-1258
830.257	-1235
830.352	-809
830.447	278
830.543	-155
830.638	-1078
830.733	-969
830.828	-1327
830.923	-53
831.018	151
831.113	-1349
831.208	-1350
831.303	-1031
831.398	-587
831.493	-1354
831.588	-572
831.683	-2303
831.778	-560
831.873	-1508
831.967	-552
832.062	-1180
832.157	-1589
832.252	-1027
832.346	-1371
832.441	76
832.536	-766
832.631	313
832.725	-251
832.820	-732
832.914	-322
833.009	-1032
833.104	-126
833.198	-389
833.293	-1785
833.387	-753
833.482	-884
833.576	-1053
833.670	-375
833.765	-1113
833.859	-1648
833.954	-729
834.048	-1069
834.142	-321
834.237	-1181
834.331	-994
834.425	-1173
834.519	-1248
834.613	-11
834.708	-1685
834.802	-583
834.896	-1681
834.990	-855
835.084	-536
835.178	-1108
835.272	-950
835.366	-643
835.460	-1044
835.554	-1137
835.648	-1353
835.742	-856
835.836	-1062
835.930	-1697
836.024	-465
836.117	-220
836.211	-1680
836.305	-534
836.399	-468
836.493	-1788
836.586	-522
836.680	-1573
836.774	-1235
836.867	21
836.961	-2615
837.055	-1732
837.148	-344
837.242	-511
837.335	-874
837.429	-685
837.522	-1627
837.616	-371
837.709	279
837.803	-632
837.896	-890
837.989	-1542
838.083	200
838.176	-498
838.269	-1090
838.363	-155
838.456	-1881
838.549	-790
838.642	293
838.735	91
838.829	-164
838.922	-1259
839.015	-359
839.108	-1865
839.201	-628
839.294	-930
839.387	-577
839.480	-1359
839.573	-997
839.666	-951
839.759	-947
839.852	-1523
839.945	-1408
840.038	-1451
840.131	-1379
840.223	-1608
840.316	-521
840.409	-825
840.502	-2002
840.594	-264
840.687	-1545
840.780	-808
840.873	-1699
840.965	-1026
841.058	-485
841.150	29
841.243	-2070
841.336	-669
841.428	-517
841.521	-1981
841.613	-1808
841.706	-1340
841.798	-1859
841.890	-1184
841.983	-3118
842.075	-226
842.167	-1433
842.260	-758
842.352	-323
842.444	-844
842.537	-1421
842.629	-9
842.721	-657
842.813	-784
842.905	-1976
842.997	-1073
843.090	-1182
843.182	-854
843.274	-435
843.366	2070
843.458	1713
843.550	875
843.642	-956
843.734	-911
843.826	-1777
843.918	-644
844.009	-1199
844.101	-1801
844.193	-920
844.285	-816
844.377	-1560
844.469	-247
844.560	-1536
844.652	-1110
844.744	-1120
844.835	-1007
844.927	-1040
845.019	-894
845.110	-331
845.202	-1196
845.293	-1475
845.385	-1704
845.476	-1258
845.568	-94
845.659	-1543
845.751	-964
845.842	-1579
845.934	-1466
846.025	-1561
846.116	-838
846.208	-1693
846.299	-563
846.390	-644
846.482	-911
846.573	-775
846.664	-756
846.755	-1818
846.846	-279
846.937	-2137
847.029	-1918
847.120	-1313
847.211	-1794
847.302	-230
847.393	-2335
847.484	-723
847.575	-1579
847.666	-1600
847.757	-1636
847.847	-1022
847.938	209
848.029	-896
848.120	-1615
848.211	-1144
848.302	-1580
848.392	-1689
848.483	-532
848.574	-2511
848.664	-1382
848.755	-1800
848.846	-872
848.936	-2036
849.027	-994
849.118	-703
849.208	-583
849.299	-825
849.389	230
849.480	1312
849.570	4737
849.661	11800
849.751	16727
849.841	3690
849.932	-713
850.022	-1059
850.112	-1191
850.203	-2100
850.293	-1482
850.383	-837
850.474	-1926
850.564	-1410
850.654	-893
850.744	-899
850.834	-1239
850.924	-1413
851.014	-762
851.104	-1514
851.194	-1489
851.284	-1160
851.374	-955
851.464	-940
851.554	-782
851.644	-1147
851.734	-937
851.824	-974
851.914	-1245
852.004	-555
852.094	-1593
852.183	-956
852.273	-755
852.363	-2381
852.452	-1446
852.542	-1427
852.632	-1766
852.721	-1270
852.811	-903
852.901	-1045
852.990	-1465
853.080	-1086
853.169	-1240
853.259	-865
853.348	-761
853.438	-670
853.527	280
853.617	429
853.706	2569
853.795	6977
853.885	19688
853.974	35889
854.063	73445
854.152	98756
854.242	27290
854.331	2223
854.420	312
854.509	353
854.598	583
854.687	-1245
854.777	-702
854.866	-812
854.955	-571
855.044	-1564
855.133	-603
855.222	-1463
855.311	-1721
855.400	-605
855.488	-1409
855.577	-1939
855.666	-1395
855.755	-790
855.844	-567
855.933	-2057
856.021	-1160
856.110	-1181
856.199	-1355
856.288	-987
856.376	-1528
856.465	-2138
856.554	-728
856.642	-1352
856.731	-1123
856.819	-1838
856.908	-1388
856.996	-1953
857.085	-1505
857.173	-1141
857.262	-2049
857.350	-725
857.438	-1184
857.527	-1229
857.615	-2116
857.703	-1184
857.792	-1144
857.880	-1609
857.968	-890
858.056	-667
858.145	-1522
858.233	-1462
858.321	-1351
858.409	-1070
858.497	-1533
858.585	-1453
858.673	-291
858.761	-1707
858.849	-1730
858.937	-1121
859.025	-923
859.113	-1756
859.201	-1890
859.289	-1343
859.377	-1573
859.465	-1765
859.552	-827
859.640	-1577
859.728	-1015
859.816	-1842
859.903	-256
859.991	-1476
860.079	-1251
860.166	-1229
860.254	-1518
860.342	-1235
860.429	-2039
860.517	-1285
860.604	-715
860.692	-1615
860.779	-897
860.867	-1029
860.954	-1734
861.042	-1183
861.129	-381
861.216	-1849
861.304	-1553
861.391	-1226
861.478	-1288
861.565	-1265
861.653	-978
861.740	-2418
861.827	-1533
861.914	-1188
862.001	-1895
862.089	-1162
862.176	-1426
862.263	-961
862.350	-634
862.437	-1696
862.524	-1600
862.611	-1527
862.698	-446
862.785	-1729
862.871	-1393
862.958	-1527
863.045	-1384
863.132	-1900
863.219	-1280
863.306	-1572
863.392	-1481
863.479	-1355
863.566	-1284
863.652	-451
863.739	-1246
863.826	-1213
863.912	-1579
863.999	-1870
864.086	-1508
864.172	-2089
864.259	-1650
864.345	-1409
864.432	-1465
864.518	-1634
864.604	-762
864.691	-2164
864.777	-1430
864.863	-624
864.950	-885
865.036	-1630
865.122	-689
865.209	45
865.295	-765
865.381	-698
865.467	230
865.553	815
865.639	959
865.726	4070
865.812	9588
865.898	18951
865.984	26787
866.070	58091
866.156	50098
866.242	8600
866.328	1622
866.414	-697
866.499	-191
866.585	420
866.671	-458
866.757	-765
866.843	-265
866.928	-361
867.014	-757
867.100	-827
867.186	-719
867.271	-656
867.357	-295
867.442	-1201
867.528	-67
867.614	-595
867.699	-1365
867.785	-365
867.870	-357
867.956	-448
868.041	-545
868.127	-842
868.212	-33
868.297	-404
868.383	183
868.468	-525
868.553	39
868.639	143
868.724	1357
868.809	608
868.894	-472
868.979	-1377
869.065	-686
869.150	-1536
869.235	-1106
869.320	-1053
869.405	-1131
869.490	-1539
869.575	-924
869.660	-1193
869.745	-294
869.830	-1240
869.915	-1334
870.000	-716
870.085	-1341
870.169	-442
870.254	-589
870.339	-1979
870.424	-1607
870.509	-113
870.593	-430
870.678	-1262
870.763	-677
870.847	-1599
870.932	-1224
871.016	-933
871.101	-1253
871.186	-1542
871.270	-1071
871.355	-1408
871.439	-909
871.523	-2003
871.608	-1069
871.692	-949
871.777	-931
871.861	-435
871.945	-1375
872.030	-819
872.114	-1097
872.198	-1435
872.282	-1899
872.367	-613
872.451	-1223
872.535	-1218
872.619	-726
872.703	-1064
872.787	-396
872.871	-635
872.955	-1120
873.039	-1219
873.123	-936
873.207	-950
873.291	-961
873.375	-1493
873.459	-489
873.543	-1881
873.627	-2044
873.711	-1111
873.794	-742
873.878	-1383
873.962	-1882
874.045	-981
874.129	-742
874.137	-818
874.213	-1579
874.245	-1431
874.296	-1194
874.352	-1189
874.380	-1189
874.460	-1252
874.464	-1255
874.547	-1331
874.568	-1107
874.631	-448
874.676	-498
874.714	-538
874.784	-663
874.798	-689
874.881	-325
874.892	-444
874.965	-1268
874.999	-1107
875.048	-869
875.107	-966
875.131	-1024
875.215	-1275
875.215	-1275
875.298	-905
875.323	-811
875.381	-590
875.430	-498
875.465	-433
875.538	-656
875.548	-686
875.631	-1114
875.646	-1091
875.714	-1055
875.753	-1162
875.798	-1238
875.861	-1239
875.881	-1242
875.964	-1163
875.968	-1154
876.047	-920
876.076	-673
876.130	-364
876.183	-686
876.213	-790
876.291	-117
876.296	-80
876.379	-1213
876.398	-1155
876.462	-897
876.506	-896
876.545	-911
876.613	-621
876.628	-546
876.711	-528
876.721	-487
876.794	-143
876.828	-572
876.877	-1221
876.935	-725
876.960	-511
877.043	-154
877.043	-155
877.125	22
877.150	166
877.208	362
877.258	98
877.291	13
877.365	-439
877.374	-502
877.456	-99
877.472	-60
877.539	167
877.579	-132
877.622	-546
877.687	-320
877.704	-197
877.787	-611
877.794	-593
877.869	-409
877.901	-81
877.952	334
878.008	-571
878.034	-1034
878.115	-640
878.117	-621
878.199	-398
878.222	-360
878.282	-332
878.329	-182
878.364	-254
878.437	-255
878.447	-232
878.529	-659
878.544	-631
878.611	-257
878.651	-138
878.694	-100
878.758	168
878.776	206
878.858	-296
878.865	-347
878.941	-739
878.972	-826
879.023	-955
879.078	-632
879.105	-431
879.185	-261
879.187	-256
879.269	246
879.292	191
879.351	-64
879.399	-496
879.433	-848
879.506	-225
879.516	-111
879.598	-705
879.613	-600
879.680	-86
879.720	34
879.762	94
879.827	-416
879.844	-527
879.926	-427
879.933	-381
880.007	-272
880.040	-521
880.089	-445
880.147	-18
880.171	56
880.253	-117
880.254	-120
880.335	201
880.360	313
880.417	971
880.467	1643
880.499	2263
880.574	3222
880.580	3120
880.662	743
880.680	296
880.744	-444
880.787	-499
880.825	-398
880.893	-569
880.907	-617
880.989	-817
881.000	-819
881.070	-268
881.106	-79
881.152	-127
881.213	-194
881.233	-209
881.315	46
881.319	22
881.396	-186
881.426	-129
881.478	-120
881.532	-288
881.559	-212
881.639	100
881.641	96
881.722	-136
881.745	-273
881.803	-37
881.852	170
881.885	135
881.958	37
881.966	12
882.047	-143
882.064	-151
882.129	52
882.171	92
882.210	333
882.277	740
882.291	735
882.372	410
882.383	349
882.454	461
882.489	620
882.535	313
882.596	-179
882.616	-192
882.697	-369
882.702	-349
882.778	120
882.808	109
882.859	212
882.914	434
882.940	336
883.020	-9
883.021	-3
883.102	-258
883.127	-82
883.183	299
883.233	224
883.264	119
883.339	-47
883.345	-74
883.426	-369
883.445	-503
883.507	-424
883.551	-127
883.587	-24
883.657	222
883.668	321
883.749	278
883.763	319
883.830	288
883.869	416
883.910	293
883.975	-209
883.991	-211
884.072	-131
884.081	-101
884.152	464
884.187	470
884.233	539
884.292	1001
884.314	880
884.394	274
884.398	229
884.475	-199
884.504	-231
884.555	-29
884.610	-293
884.636	-358
884.716	87
884.716	96
884.797	412
884.821	489
884.877	667
884.927	661
884.958	503
885.033	239
885.038	216
885.118	-63
885.139	-246
885.199	-271
885.244	-127
885.279	260
885.350	857
885.359	869
885.439	1065
885.456	1018
885.520	619
885.561	615
885.600	401
885.667	-14
885.680	10
885.760	-137
885.773	-174
885.840	-116
885.878	25
885.920	130
885.984	110
886.000	135
886.080	383
886.089	403
886.160	292
886.195	200
886.240	437
886.300	622
886.320	582
886.400	795
886.406	782
886.480	134
886.511	-160
886.560	418
886.616	1191
886.640	1131
886.720	709
886.722	694
886.800	303
886.827	108
886.879	403
886.932	683
886.959	803
887.038	1340
887.039	1346
887.119	972
887.143	902
887.198	582
887.248	184
887.278	331
887.354	677
887.358	659
887.437	200
887.459	59
887.517	717
887.564	1266
887.596	1083
887.669	625
887.676	612
887.755	209
887.774	143
887.835	396
887.880	610
887.914	650
887.985	572
887.994	549
888.073	319
888.090	260
888.153	1040
888.195	1604
888.232	1397
888.300	991
888.311	945
888.391	429
888.405	344
888.470	318
888.510	273
888.549	486
888.615	903
888.628	891
888.708	705
888.720	684
888.787	524
888.825	345
888.866	241
888.930	186
888.945	348
889.024	1072
889.035	1169
889.103	552
889.140	201
889.182	549
889.245	1086
889.261	871
889.340	-224
889.349	-354
889.419	832
889.454	1433
889.498	928
889.559	195
889.577	415
889.656	1381
889.664	1471
889.735	1130
889.768	963
889.814	1311
889.873	1761
889.978	496
890.083	1576
890.187	964
890.292	1554
890.397	1148
890.501	1044
890.606	893
890.710	932
890.815	760
890.919	566
891.024	1192
891.128	1186
891.233	671
891.337	1039
891.442	339
891.546	923
891.650	-332
891.755	679
891.859	1994
891.963	1271
892.068	1116
892.172	517
892.276	589
892.380	1368
892.484	1053
892.589	908
892.693	1046
892.797	-356
892.901	281
893.005	1034
893.109	296
893.213	1603
893.317	150
893.421	682
893.525	-51
893.629	385
893.733	555
893.837	950
893.941	333
894.045	308
894.148	-159
894.252	1129
894.356	641
894.460	877
894.564	1340
894.667	446
894.771	-230
894.875	211
894.978	1046
895.082	625
895.186	221
895.289	1400
895.393	1130
895.496	672
895.600	-82
895.703	594
895.807	-158
895.910	1111
896.014	163
896.117	1203
896.221	260
896.324	381
896.427	669
896.531	904
896.634	457
896.737	1288
896.840	1239
896.944	665
897.047	655
897.150	79
897.253	-154
897.356	675
897.460	136
897.563	1032
897.666	785
897.769	869
897.872	970
897.975	298
898.078	522
898.181	371
898.284	495
898.387	851
898.490	845
898.593	870
898.695	-296
898.798	934
898.901	1030
899.004	877
899.107	245
899.209	920
899.312	681
899.415	600
899.518	-111
899.620	234
899.723	163
899.826	1840
899.928	1974
900.031	963
900.133	382
900.236	1001
900.338	-81
900.441	711
900.543	683
900.646	539
900.748	630
900.851	1611
900.953	147
901.055	387
901.158	822
901.260	423
901.362	195
901.465	598
901.567	886
901.669	297
901.771	449
901.873	-161
901.976	-29
902.078	145
902.180	1090
902.282	254
902.384	496
902.486	595
902.588	578
902.690	309
902.792	228
902.894	1406
902.996	483
903.098	502
903.200	822
903.302	351
903.404	801
903.505	242
903.607	860
903.709	1694
903.811	1085
903.913	1356
904.014	737
904.116	531
904.218	168
904.319	-44
904.421	753
904.523	675
904.624	517
904.726	355
904.827	-110
904.929	-333
905.030	-261
905.132	334
905.233	1440
905.335	404
905.436	-508
905.537	238
905.639	333
905.740	772
905.841	827
905.943	799
906.044	999
906.145	396
906.247	-335
906.348	1158
906.449	152
906.550	57
906.651	1158
906.752	1039
906.854	877
906.955	410
907.056	307
907.157	808
907.258	360
907.359	198
907.460	105
907.561	491
907.662	858
907.762	924
907.863	815
907.964	728
908.065	521
908.166	618
908.267	697
908.367	-277
908.468	164
908.569	1181
908.670	520
908.770	1218
908.871	1352
908.971	1137
909.072	596
909.173	460
909.273	866
909.374	963
909.474	-40
909.575	611
909.675	229
909.776	665
909.876	812
909.977	389
910.077	1006
910.177	1188
910.278	187
910.378	669
910.478	823
910.579	792
910.679	744
910.779	1432
910.879	373
910.980	914
911.080	553
911.180	883
911.280	834
911.380	928
911.480	1275
911.580	1071
911.680	856
911.780	643
911.880	432
911.980	747
912.080	669
912.180	1408
912.280	107
912.380	150
912.480	-46
912.580	351
912.679	-21
912.779	215
912.879	299
912.979	555
913.078	529
913.178	1266
913.278	703
913.377	438
913.477	618
913.577	1
913.676	984
913.776	1333
913.875	676
913.975	1308
914.074	-523
914.174	611
914.273	208
914.373	1560
914.472	494
914.572	253
914.671	-262
914.770	448
914.870	451
914.969	1045
915.068	692
915.167	1170
915.267	740
915.366	573
915.465	-444
915.564	753
915.663	516
915.763	412
915.862	1318
915.961	489
916.060	605
916.159	788
916.258	-354
916.357	5
916.456	882
916.555	1121
916.654	145
916.752	675
916.851	424
916.950	964
917.049	-60
917.148	581
917.247	4
917.345	153
917.444	279
917.543	549
917.642	414
917.740	777
917.839	203
917.937	2312
918.036	831
918.135	1599
918.233	597
918.332	696
918.430	-141
918.529	512
918.627	282
918.726	1267
918.824	674
918.923	557
919.021	1167
919.119	637
919.218	137
919.316	935
919.414	248
919.512	963
919.611	546
919.709	975
919.807	863
919.905	1112
920.003	564
920.102	814
920.200	-292
920.298	1596
920.396	191
920.494	1443
920.592	186
920.690	939
920.788	880
920.886	192
920.984	1182
921.082	321
921.180	1412
921.277	585
921.375	626
921.473	722
921.571	883
921.669	464
921.766	761
921.864	1375
921.962	1618
922.060	1078
922.157	1005
922.255	2015
922.352	524
922.450	1864
922.548	1269
922.645	1777
922.743	1622
922.840	3082
922.938	3337
923.035	3206
923.133	2525
923.230	3317
923.327	3780
923.425	3707
923.522	4053
923.619	3430
923.717	2272
923.814	2572
923.911	3345
924.008	3412
924.106	2256
924.203	2059
924.300	2188
924.397	3179
924.494	2670
924.591	3613
924.688	2040
924.786	2501
924.883	2906
924.979	1963
925.077	2640
925.173	2598
925.270	1809
925.367	2910
925.464	2498
925.561	2584
925.658	2932
925.755	2612
925.852	3529
925.948	3305
926.045	2855
926.142	3336
926.239	2094
926.335	2394
926.432	3206
926.529	3363
926.625	2835
926.722	1207
926.818	2609
926.915	2717
927.011	1941
927.108	2305
927.204	2721
927.301	2132
927.397	2368
927.494	1654
927.590	2168
927.687	2119
927.783	2754
927.879	2420
927.976	1865
928.072	2413
928.168	2739
928.264	2321
928.361	2697
928.457	2779
928.553	1368
928.649	2387
928.745	2407
928.841	1673
928.937	1666
929.033	1862
929.129	1490
929.225	1734
929.321	1832
929.417	1537
929.513	1609
929.609	2481
929.705	2092
929.801	2303
929.897	1008
929.993	1990
930.089	1478
930.184	1461
930.280	1697
930.376	2002
930.471	994
930.567	1952
930.663	2861
930.758	1014
930.854	1826
930.950	1585
931.045	1043
931.141	1621
931.236	2677
931.332	1408
931.427	954
931.523	1679
931.618	1417
931.714	1637
931.809	1781
931.905	1096
932.000	127
932.095	1582
932.191	1849
932.286	1811
932.381	871
932.476	1644
932.572	933
932.667	1949
932.762	1487
932.857	1638
932.952	1286
933.047	2022
933.142	37
933.237	987
933.332	1360
933.427	1977
933.522	1203
933.617	1838
933.712	393
933.807	1751
933.902	1326
933.997	1715
934.092	386
934.187	1519
934.282	1133
934.376	1840
934.471	1751
934.566	943
934.661	1312
934.755	1494
934.850	1257
934.945	1231
935.039	821
935.134	1073
935.228	975
935.323	1697
935.417	306
935.512	1266
935.606	622
935.701	1656
935.795	1722
935.890	1494
935.984	646
936.079	904
936.173	557
936.267	881
936.362	-8
936.456	2012
936.550	230
936.644	476
936.738	864
936.833	607
936.927	1136
937.021	1345
937.115	543
937.209	-312
937.303	1558
937.397	1004
937.491	1255
937.585	897
937.679	711
937.773	340
937.867	966
937.961	1570
938.055	1018
938.149	870
938.243	27
938.337	525
938.430	1198
938.524	1505
938.618	1197
938.712	532
938.805	1148
938.899	1127
938.993	1576
939.086	401
939.180	14
939.274	992
939.367	1013
939.461	683
939.554	789
939.648	1127
939.741	531
939.835	883
939.928	557
940.022	1117
940.115	714
940.208	1544
940.302	1157
940.395	1101
940.488	36
940.582	1610
940.675	-266
940.768	818
940.861	1483
940.954	1280
941.048	-200
941.141	1151
941.234	429
941.327	2806
941.420	3364
941.513	1547
941.606	1349
941.699	1320
941.792	922
941.885	1556
941.978	1220
942.071	1264
942.164	-427
942.257	485
942.349	970
942.442	1151
942.535	398
942.628	577
942.721	1115
942.813	1012
942.906	787
942.999	1148
943.091	444
943.184	186
943.277	-665
943.369	706
943.462	785
943.554	798
943.647	-415
943.739	1002
943.832	1149
943.924	-181
944.017	784
944.109	-370
944.201	853
944.294	1429
944.386	272
944.478	232
944.571	-503
944.663	799
944.755	748
944.847	638
944.940	252
945.032	175
945.124	-26
945.216	1857
945.308	537
945.400	588
945.492	457
945.584	975
945.676	1259
945.768	1551
945.860	787
945.952	966
946.044	140
946.136	-59
946.228	-160
946.320	365
946.412	878
946.503	953
946.595	944
946.687	141
946.779	-326
946.870	191
946.962	367
947.054	1613
947.145	740
947.237	463
947.329	850
947.420	354
947.512	-6
947.603	796
947.695	347
947.786	202
947.878	-38
947.969	795
948.061	457
948.152	-284
948.243	544
948.335	329
948.426	-49
948.517	1099
948.609	621
948.700	-173
948.791	673
948.882	65
948.973	532
949.065	1589
949.156	-467
949.247	-502
949.338	865
949.429	-490
949.520	457
949.611	62
949.702	849
949.793	210
949.884	386
949.975	192
950.066	-515
950.157	420
950.247	105
950.338	446
950.429	605
950.520	297
950.611	724
950.701	1446
950.792	1238
950.883	310
950.973	1013
951.064	1300
951.155	370
951.245	1532
951.336	498
951.427	-309
951.517	303
951.608	705
951.698	91
951.788	-79
951.879	-54
951.969	517
952.060	207
952.150	972
952.240	717
952.331	317
952.421	697
952.511	290
952.602	-78
952.692	703
952.782	-65
952.872	884
952.962	171
953.052	-122
953.143	224
953.233	609
953.323	254
953.413	227
953.503	1181
953.593	597
953.683	-96
953.773	-316
953.863	175
953.953	1144
954.042	-24
954.132	454
954.222	286
954.312	704
954.402	849
954.492	297
954.581	623
954.671	120
954.761	107
954.850	1340
954.940	-58
955.030	477
955.119	-140
955.209	1010
955.298	306
955.388	-205
955.477	516
955.567	-347
955.656	1083
955.746	639
955.835	372
955.925	340
956.014	220
956.103	1151
956.193	916
956.282	496
956.371	375
956.461	867
956.550	-225
956.639	785
956.728	478
956.817	375
956.906	742
956.995	918
957.085	212
957.174	1058
957.263	383
957.352	429
957.441	-154
957.530	981
957.619	1220
957.708	333
957.796	-415
957.885	-391
957.974	483
958.063	797
958.152	-456
958.241	-54
958.329	872
958.418	579
958.507	-977
958.596	906
958.684	-631
958.773	1352
958.861	-211
958.950	-70
959.039	-143
959.127	884
959.216	1083
959.304	259
959.393	222
959.481	86
959.570	1267
959.658	-31
959.746	552
959.835	913
959.923	1684
960.011	150
960.100	1105
960.188	137
960.276	309
960.365	739
960.453	303
960.541	322
960.629	634
960.717	-623
960.805	-1117
960.893	1323
960.981	65
961.069	1109
961.158	489
961.245	662
961.333	750
961.421	729
961.509	210
961.597	363
961.685	176
961.773	88
961.861	-207
961.949	1270
962.036	-692
962.124	-111
962.212	211
962.299	368
962.387	-56
962.475	45
962.562	-323
962.650	1094
962.738	823
962.825	227
962.913	472
963.000	72
963.088	108
963.175	5
963.263	563
963.350	392
963.438	622
963.525	-205
963.612	1637
963.700	2696
963.787	6302
963.874	2508
963.962	118
964.049	306
964.136	-91
964.223	648
964.310	-391
964.398	126
964.485	313
964.572	764
964.659	716
964.746	676
964.833	198
964.920	503
965.007	-119
965.094	635
965.181	-57
965.268	462
965.355	51
965.441	430
965.528	-1133
965.615	1266
965.702	-105
965.789	1001
965.875	-90
965.962	40
966.049	-243
966.136	1552
966.222	119
966.309	139
966.395	-151
966.482	1037
966.569	-552
966.655	147
966.742	-34
966.828	793
966.915	-625
967.001	1475
967.087	-1294
967.174	-553
967.260	1006
967.347	551
967.433	1089
967.519	3753
967.605	947
967.692	676
967.778	-332
967.864	243
967.950	-714
968.036	-228
968.123	251
968.209	102
968.295	-171
968.381	1066
968.467	211
968.553	-1164
968.639	1429
968.725	361
968.811	666
968.897	1697
968.983	217
969.069	138
969.154	773
969.240	443
969.326	-1376
969.412	713
969.497	-328
969.583	-495
969.669	-105
969.755	34
969.840	162
969.926	1058
970.012	164
970.097	1558
970.183	959
970.268	305
970.354	583
970.439	507
970.525	2615
970.610	282
970.696	358
970.781	-56
970.866	-924
970.952	618
971.037	-1320
971.122	326
971.208	-636
971.293	-544
971.378	-1605
971.463	-857
971.549	-760
971.634	230
971.719	-335
971.804	-869
971.889	-112
971.974	-814
972.059	-415
972.144	-63
972.229	-39
972.314	-938
972.399	-178
972.484	-329
972.569	-257
972.654	75
972.739	1380
972.824	790
972.908	-232
972.993	-94
973.078	-204
973.163	-686
973.247	-337
973.332	-1843
973.417	430
973.501	-249
973.586	52
973.671	5
973.755	-832
973.840	1147
973.924	158
974.009	-457
974.093	-741
974.178	1119
974.262	319
974.346	-68
974.431	-345
974.515	-987
974.600	181
974.684	375
974.768	-925
974.852	280
974.937	-1296
975.021	944
975.105	-851
975.189	-207
975.273	864
975.358	-688
975.442	-1523
975.526	-95
975.610	-5
975.694	-587
975.778	-47
975.862	-785
975.946	-2446
976.030	1109
976.114	-940
976.198	693
976.281	-730
976.365	754
976.449	-841
976.533	424
976.617	-614
976.700	-155
976.784	-445
976.868	-801
976.951	-35
977.035	57
977.119	-586
977.202	-1113
977.286	-102
977.369	-243
977.453	717
977.536	-246
977.620	-1360
977.703	666
977.787	-823
977.870	1424
977.953	-403
978.037	-1439
978.120	-233
978.203	266
978.287	208
978.370	-782
978.453	-750
978.536	-304
978.620	-733
978.703	475
978.786	-1070
978.869	-690
978.952	-1027
979.035	766
979.118	-1117
979.201	-473
979.284	-440
979.367	-964
979.450	-595
979.533	-1253
979.616	-591
979.699	-456
979.782	-347
979.865	190
979.948	-293
980.030	-799
980.113	-1321
980.196	-1157
980.279	-258
980.361	-104
980.444	-967
980.526	-305
980.609	6
980.692	-617
980.774	-366
980.857	-1280
980.939	517
981.022	-108
981.104	158
981.187	-1283
981.269	-654
981.352	-253
981.434	-1871
981.516	-1491
981.599	208
981.681	-357
981.763	-447
981.846	-154
981.928	153
982.010	-1264
982.092	-1505
982.174	-383
982.256	-662
982.339	-193
982.421	-420
982.503	-538
982.585	-991
982.667	-1332
982.749	-396
982.831	-198
982.913	-1292
982.995	-372
983.077	-1076
983.158	-75
983.240	-1550
983.322	-51
983.404	-617
983.486	-612
983.568	-102
983.649	-204
983.731	-840
983.813	-1425
983.894	-231
983.976	224
984.058	-1290
984.139	882
984.221	-1585
984.302	-58
984.384	-1296
984.465	-940
984.547	48
984.628	-1215
984.710	234
984.791	-778
984.872	-462
984.954	-159
985.035	32
985.116	-793
985.198	-990
985.279	-754
985.360	-989
985.441	-929
985.522	-400
985.604	-211
985.685	-2133
985.766	448
985.847	-71
985.928	-863
986.009	-851
986.090	-320
986.171	-672
986.252	-925
986.333	-862
986.414	-809
986.495	-236
986.576	310
986.656	-555
986.737	-251
986.818	-978
986.899	-749
986.980	-1709
987.060	18
987.141	-416
987.222	-647
987.302	-924
987.383	380
987.464	-360
987.544	424
987.625	-1002
987.705	230
987.786	-373
987.866	-135
987.947	-461
988.027	-324
988.108	-1166
988.188	-335
988.268	-431
988.349	-678
988.429	-1270
988.509	-357
988.589	-924
988.670	-1982
988.750	518
988.830	-858
988.910	-373
988.990	-276
989.070	-278
989.151	-606
989.231	-807
989.311	-286
989.391	-388
989.471	-440
989.551	-795
989.631	-1003
989.711	-149
989.791	-809
989.870	-595
989.950	124
990.030	-1171
990.110	-1068
990.190	-759
990.269	-528
990.349	-1228
990.429	-518
990.509	-855
990.588	-1112
990.668	-223
990.747	-1066
990.827	-938
990.907	-505
990.986	-893
991.066	-324
991.145	-824
991.225	-307
991.304	-1127
991.383	-341
991.463	-1531
991.542	158
991.622	-1434
991.701	-1355
991.780	-492
991.859	-399
991.939	-1497
992.018	-321
992.097	-692
992.176	-485
992.256	-1615
992.335	-228
992.414	-971
992.493	-1477
992.572	-348
992.651	328
992.730	-1121
992.809	-574
992.888	-1001
992.967	-1014
993.046	-1097
993.125	-2097
993.203	-1204
993.282	-497
993.361	-743
993.440	-442
993.519	-1236
993.597	-1303
993.676	-1672
993.755	5
993.834	-1393
993.912	-1190
993.991	302
994.069	-824
994.148	-1210
994.226	-1162
994.305	-696
994.384	-1861
994.462	58
994.540	-656
994.619	-1341
994.697	-329
994.776	-1103
994.854	-820
994.932	-1262
995.011	-1080
995.089	-1648
995.167	-700
995.245	-1477
995.324	-1722
995.402	-830
995.480	-765
995.558	-900
995.636	-2002
995.714	-1051
995.792	91
995.870	-1014
995.948	-424
996.026	-906
996.104	-1983
996.182	-830
996.260	-1524
996.338	-1074
996.416	-1591
996.494	-1443
996.572	663
996.649	-1207
996.727	-1789
996.805	-836
996.883	-550
996.960	-2177
997.038	-1188
997.116	-832
997.193	-1642
997.271	-924
997.348	-1036
997.426	-704
997.504	-1575
997.581	-1094
997.658	-433
997.736	-2325
997.813	-1015
997.891	-742
997.968	-940
998.046	-757
998.123	-1537
998.200	-1363
998.277	-1597
998.355	-514
998.432	-1840
998.509	-2441
998.586	-607
998.663	-1240
998.741	-908
998.818	-856
998.895	-1521
998.972	-1534
999.049	-1246
999.126	-1160
999.203	-401
999.280	-852
999.357	-1335
999.434	-2056
999.511	-939
999.587	-345
999.664	-2171
999.741	-1236
999.818	-713
999.895	-997
999.971	-1680
1000.048	-865
1000.125	73
1000.202	-1806
1000.278	-477
1000.355	-1926
1000.431	-1365
1000.508	-2201
1000.584	-895
1000.661	-1158
1000.738	-1756
1000.814	-1467
1000.890	-1051
1000.967	-1200
1001.043	-581
1001.120	-2285
1001.196	-525
1001.272	-1546
1001.349	-1885
1001.425	-1577
1001.501	-2012
1001.577	-2170
1001.654	-752
1001.730	-1402
1001.806	-1192
1001.882	-2646
1001.958	-1020
1002.034	-1503
1002.110	-763
1002.186	-2216
1002.262	-1127
1002.338	-1413
1002.414	-1145
1002.490	-1444
1002.566	-1165
1002.642	-1796
1002.718	-918
1002.794	-1114
1002.870	-1233
1002.945	-1967
1003.021	-1066
1003.097	-1692
1003.173	-786
1003.248	-2211
1003.324	-2159
1003.400	-1230
1003.475	-1356
1003.551	-1176
1003.626	-952
1003.702	-2335
1003.777	-885
1003.853	-1856
1003.928	-1358
1004.004	-1228
1004.079	-1505
1004.155	-1403
1004.230	-2440
1004.305	-879
1004.381	-2164
1004.456	-1161
1004.531	-1295
1004.607	-1449
1004.682	-1162
1004.757	-1627
1004.832	-1465
1004.907	-3123
1004.982	-953
1005.057	-2054
1005.133	-2113
1005.208	-1939
1005.283	-2182
1005.358	-1857
1005.433	-1873
1005.508	-1958
1005.583	-1799
1005.657	-2231
1005.732	-1073
1005.807	-1613
1005.882	-958
1005.957	-1954
1006.032	-1691
1006.106	-2025
1006.181	-1116
1006.256	-675
1006.331	-1843
1006.405	-1948
1006.480	-1204
1006.554	-1617
1006.629	-1198
1006.704	-1973
1006.778	-1740
1006.853	-758
1006.927	-1596
1007.002	-1778
1007.076	-1460
1007.150	-2026
1007.225	-1622
1007.299	-930
1007.373	-1559
1007.448	-1510
1007.522	-917
1007.596	-1909
1007.671	-2982
1007.745	-499
1007.819	-1894
1007.893	-2230
1007.967	-1790
1008.041	-2492
1008.115	-1099
1008.190	-2014
1008.264	-1412
1008.338	-2227
1008.412	-1553
1008.486	-1752
1008.560	-1873
1008.633	-2738
1008.707	-1760
1008.781	-572
1008.855	-2320
1008.929	-2650
1009.003	-1597
1009.076	-1910
1009.150	-1919
1009.224	-1182
1009.298	-1780
1009.371	-2550
1009.445	-1443
1009.519	-2090
1009.592	-2619
1009.666	-1774
1009.739	-1591
1009.813	-2700
1009.886	-1432
1009.960	-2624
1010.033	-1203
1010.107	-1694
1010.180	-2376
1010.253	-1901
1010.327	-1858
1010.400	-2209
1010.473	-2014
1010.547	-604
1010.620	-1733
1010.693	-1576
1010.766	-2651
1010.840	-1251
1010.913	-1348
1010.986	-2311
1011.059	-1615
1011.132	-1642
1011.205	-2015
1011.278	-1923
1011.351	-1657
1011.424	-1895
1011.497	-2268
1011.570	-1575
1011.643	-2481
1011.716	-1472
1011.789	-1168
1011.862	-2130
1011.934	-1450
1012.007	-2765
1012.080	-1641
1012.153	-1918
1012.225	-828
1012.298	-1828
1012.371	-1741
1012.443	-1432
1012.516	-2486
1012.588	-2292
1012.661	-1928
1012.733	-2632
1012.806	-1344
1012.879	-2676
1012.951	-1785
1013.023	-2046
1013.096	-2183
1013.168	-1734
1013.241	-950
1013.313	-2048
1013.385	-2471
1013.458	-2077
1013.530	-1968
1013.602	-2617
1013.674	-1109
1013.746	-2584
1013.819	-2993
1013.891	-1923
1013.963	-2823
1014.035	-3066
1014.107	-1586
1014.179	-1661
1014.251	-1836
1014.323	-1710
1014.395	-2280
1014.467	-1914
1014.539	-2003
1014.611	-3152
1014.683	-1573
1014.754	-1561
1014.826	-2612
1014.898	-2677
1014.970	-2959
1015.042	-989
1015.113	-2114
1015.185	-2476
1015.257	-2514
1015.328	-2474
1015.400	-2028
1015.471	-1982
1015.543	-2213
1015.615	-1895
1015.686	-2485
1015.757	-2170
1015.829	-1830
1015.901	-2088
1015.972	-1985
1016.043	-2458
1016.115	-1555
1016.186	-1458
1016.257	-2467
1016.328	-2218
1016.400	-1216
1016.471	-2324
1016.542	-1698
1016.613	-1199
1016.685	-2145
1016.756	-2447
1016.827	-1449
1016.898	-3002
1016.969	-2488
1017.040	-1766
1017.111	-2245
1017.182	-2065
1017.253	-1275
1017.324	-2617
1017.395	-2151
1017.466	-1749
1017.537	-2833
1017.608	-1664
1017.678	-2497
1017.749	-2169
1017.820	-1685
1017.891	-2245
1017.961	-2130
1018.032	-2127
1018.103	-1784
1018.173	-2651
1018.244	-2351
1018.315	-2527
1018.385	-1270
1018.456	-2753
1018.526	-2433
1018.597	-2059
1018.667	-2043
1018.738	-2609
1018.808	-1913
1018.878	-2114
1018.949	-2504
1019.019	-1738
1019.089	-952
1019.160	-1845
1019.230	-2438
1019.300	-2030
1019.371	-2455
1019.441	-1974
1019.511	-1567
1019.581	-2892
1019.651	-2747
1019.721	-3103
1019.791	-1614
1019.861	-2209
1019.931	-1899
1020.001	-2286
1020.071	-1544
1020.141	-2491
1020.211	-2570
1020.281	-2504
1020.351	-1984
1020.421	-2185
1020.491	-1327
1020.560	-2745
1020.630	-2682
1020.700	-2263
1020.770	-2084
1020.839	-2150
1020.909	-1888
1020.979	-2926
1021.048	-2501
1021.118	-1985
1021.187	-2075
1021.257	-2174
1021.326	-1482
1021.396	-2312
1021.465	-1906
1021.535	-2372
1021.604	-2015
1021.674	-2458
1021.743	-2020
1021.812	-2674
1021.882	-2009
1021.951	-2457
1022.020	-1891
1022.089	-2321
1022.159	-2431
1022.228	-1678
1022.297	-2071
1022.366	-2576
1022.435	-2279
1022.504	-2918
1022.573	-1931
1022.642	-1769
1022.711	-2195
1022.781	-2297
1022.849	-1629
1022.918	-2745
1022.987	-2428
1023.056	-2038
1023.125	-1597
1023.194	-2224
1023.263	-2214
1023.331	-2411
1023.400	-2657
1023.469	-2209
1023.538	-1481
1023.606	-3108
1023.675	-1532
1023.744	-2299
1023.812	-3246
1023.881	-2349
1023.949	-2307
1024.018	-2429
1024.086	-2741
1024.155	-2596
1024.223	-1713
1024.292	-2190
1024.360	-1466
1024.429	-2992
1024.497	-2329
1024.565	-2173
1024.634	-2522
1024.702	-2192
1024.770	-2064
1024.838	-2516
1024.907	-2417
1024.975	-2621
1025.043	-1628
1025.111	-2343
1025.179	-2133
1025.247	-2324
1025.315	-2116
1025.383	-2267
1025.451	-2110
1025.519	-1503
1025.587	-1468
1025.655	-2179
1025.723	-1896
1025.791	-2131
1025.859	-1888
1025.927	-2355
1025.995	-3097
1026.062	-2195
1026.130	-2078
1026.198	-2023
1026.266	-2145
1026.333	-1398
1026.401	-1793
1026.469	-1289
1026.536	-2106
1026.604	-2590
1026.671	-2414
1026.739	-2338
1026.806	-2331
1026.874	-2462
1026.941	-2076
1027.009	-2451
1027.076	-1939
1027.144	-2071
1027.211	-3321
1027.278	-2777
1027.345	-2677
1027.413	-2865
1027.480	-2514
1027.547	-2865
1027.614	-2103
1027.682	-2850
1027.749	-2138
1027.816	-2402
1027.883	-1988
1027.950	-2232
1028.017	-2050
1028.084	-1593
1028.151	-2433
1028.218	-3300
1028.285	-1315
1028.352	-1642
1028.419	-2056
1028.486	-1900
1028.553	-1765
1028.619	-2249
1028.686	-2120
1028.753	-2460
1028.820	-1678
1028.886	-2410
1028.953	-1981
1029.020	-2342
1029.086	-1762
1029.153	-2370
1029.220	-3005
1029.286	-2387
1029.353	-2196
1029.419	-2062
1029.486	-1852
1029.552	-2713
1029.619	-2091
1029.685	-1886
1029.751	-2224
1029.818	-1685
1029.884	-1748
1029.951	-1043
1030.017	-2165
1030.083	-2173
1030.149	-2028
1030.216	-2677
1030.282	-1903
1030.348	-3128
1030.414	-2701
1030.480	-2156
1030.546	-3238
1030.612	-2619
1030.678	-1477
1030.744	-2869
1030.810	-1914
1030.876	-2911
1030.942	-2041
1031.008	-2789
1031.074	-1943
1031.140	-1460
1031.206	-1347
1031.272	-3308
1031.337	-2086
1031.403	-2051
1031.469	-2116
1031.534	-1763
1031.600	-2299
1031.666	-2832
1031.731	-2056
1031.797	-2356
1031.863	-2886
1031.928	-2299
1031.994	-2936
1032.059	-2288
1032.125	-1711
1032.190	-2589
1032.256	-2737
1032.321	-3178
1032.386	-2852
1032.452	-1845
1032.517	-2438
1032.582	-2755
1032.647	-1876
1032.713	-2125
1032.778	-2032
1032.843	-1778
1032.908	-2428
1032.974	-2879
1033.039	-1802
1033.104	-1698
1033.169	-2467
1033.234	-2301
1033.299	-1608
1033.364	-1833
1033.429	-2366
1033.494	-2890
1033.559	-2496
1033.624	-2461
1033.688	-1839
1033.753	-3141
1033.818	-2207
1033.883	-2848
1033.948	-2394
1034.013	-2547
1034.077	-1689
1034.142	-1599
1034.207	-1383
1034.271	-1216
1034.336	-231
1034.400	-1523
1034.465	-1250
1034.530	-1760
1034.594	-1838
1034.658	-1913
1034.723	-2130
1034.787	-2156
1034.852	-2335
1034.916	-2826
1034.981	-2501
1035.045	-2115
1035.109	-2505
1035.173	-1615
1035.238	-2006
1035.302	-2043
1035.366	-1905
1035.430	-1866
1035.495	-2181
1035.559	-2069
1035.623	-1672
1035.687	-3257
1035.751	-2392
1035.815	-2400
1035.879	-1738
1035.943	-2707
1036.007	-2473
1036.071	-2049
1036.135	-2276
1036.198	-2868
1036.262	-2756
1036.326	-2636
1036.390	-1653
1036.454	-2352
1036.517	-2473
1036.581	-2610
1036.645	-1631
1036.709	-1994
1036.772	-2556
1036.836	-2204
1036.900	-2200
1036.963	-2874
1037.026	-2068
1037.090	-2432
1037.154	-1563
1037.217	-2950
1037.280	-2731
1037.344	-3069
1037.407	-3063
1037.471	-2029
1037.534	-2303
1037.597	-2239
1037.661	-2089
1037.724	-1762
1037.787	-2635
1037.850	-2918
1037.913	-2439
1037.977	-1593
1038.040	-2415
1038.103	-3277
1038.166	-3158
1038.229	-1269
1038.292	-2212
1038.355	-2410
1038.418	-1990
1038.481	-1690
1038.544	-1805
1038.607	-2564
1038.670	-2279
1038.732	-3544
1038.795	-2243
1038.858	-2744
1038.921	-2550
1038.984	-2210
1039.046	-2870
1039.109	-2865
1039.172	-2336
1039.234	-3039
1039.297	-2103
1039.360	-3286
1039.422	-2287
1039.485	-2236
1039.547	-3225
1039.610	-2240
1039.672	-1807
1039.734	-2792
1039.797	-2595
1039.859	-2396
1039.922	-2699
1039.984	-2386
1040.046	-2203
1040.109	-2787
1040.171	-2469
1040.233	-2669
1040.295	-1940
1040.358	-2739
1040.420	-2308
1040.482	-3051
1040.544	-1888
1040.606	-2243
1040.668	-1994
1040.730	-2424
1040.792	-1990
1040.854	-2893
1040.916	-2889
1040.978	-3607
1041.040	-2291
1041.102	-2693
1041.164	-2953
1041.225	-2787
1041.287	-2269
1041.349	-2861
1041.411	-3027
1041.472	-2074
1041.534	-2997
1041.596	-3438
1041.657	-2171
1041.719	-2278
1041.781	-2479
1041.842	-3175
1041.904	-2479
1041.965	-2673
1042.027	-1917
1042.088	-2804
1042.150	-2715
1042.211	-2625
1042.272	-2727
1042.334	-2399
1042.395	-2742
1042.456	-3736
1042.518	-2360
1042.579	-2880
1042.640	-2448
1042.701	-2100
1042.763	-3260
1042.824	-2739
1042.885	-2670
1042.946	-3347
1043.007	-2665
1043.068	-3013
1043.129	-3121
1043.190	-3166
1043.251	-1861
1043.312	-3066
1043.373	-2556
1043.434	-2333
1043.495	-2726
1043.556	-2174
1043.616	-2913
1043.677	-2396
1043.738	-3545
1043.799	-3049
1043.859	-2659
1043.920	-2784
1043.981	-2178
1044.041	-3170
1044.102	-3062
1044.162	-2535
1044.223	-3166
1044.284	-2567
1044.344	-2318
1044.405	-2753
1044.465	-2692
1044.525	-3095
1044.586	-2576
1044.646	-3545
1044.707	-2320
1044.767	-3056
1044.827	-2682
1044.887	-2336
1044.948	-2504
1045.008	-2240
1045.068	-2683
1045.128	-2382
1045.188	-2851
1045.249	-1777
1045.309	-1711
1045.369	-2111
1045.429	-2340
1045.489	-3135
1045.549	-2388
1045.609	-3451
1045.669	-2799
1045.729	-3029
1045.789	-2707
1045.848	-2921
1045.908	-3023
1045.968	-2597
1046.028	-2981
1046.088	-2268
1046.147	-2079
1046.207	-2054
1046.267	-2312
1046.326	-2512
1046.386	-2315
1046.446	-2656
1046.505	-2031
1046.565	-1854
1046.624	-2149
1046.684	-1936
1046.743	-1171
1046.803	-1726
1046.862	-783
1046.922	0
