'Start Wavelength	183.907
'End Wavelength	1046.922
'Gate Delay	5.000
'Gate Width (ms)	1.050
'Laser Output Level	0.000
'X Position	0.000
'Y Position	0.000
'Z Position	0.000
'Grid Point Number	1.000
'Shot Number	100.000
183.907	-148.000
183.977	520.000
184.047	436
184.116	180
184.186	281
184.256	-245
184.325	-183
184.395	-723
184.465	1068
184.534	683
184.604	-81
184.674	615
184.743	220
184.813	1275
184.883	732
184.952	380
185.022	-289
185.092	-255
185.161	-229
185.231	311
185.301	576
185.370	489
185.440	230
185.509	-218
185.579	165
185.649	1135
185.718	566
185.788	706
185.857	-868
185.927	827
185.996	-306
186.066	259
186.136	-7
186.205	-310
186.275	-618
186.344	57
186.414	112
186.483	257
186.553	1193
186.622	2322
186.692	704
186.761	209
186.831	-18
186.900	143
186.970	558
187.039	-141
187.109	1041
187.178	654
187.248	279
187.317	1128
187.387	-596
187.456	430
187.526	565
187.595	-188
187.664	-841
187.734	673
187.803	1066
187.873	529
187.942	753
188.012	98
188.081	-97
188.150	677
188.220	670
188.289	2119
188.358	1107
188.428	928
188.497	-62
188.567	1042
188.636	-547
188.705	537
188.775	-281
188.844	-534
188.913	537
188.983	654
189.052	48
189.121	239
189.191	-120
189.260	679
189.329	681
189.399	707
189.468	271
189.537	439
189.606	465
189.676	487
189.745	381
189.814	1137
189.883	421
189.953	319
190.022	448
190.091	2728
190.161	5038
190.230	1710
190.299	598
190.368	1108
190.437	-149
190.507	298
190.576	255
190.645	-53
190.714	139
190.783	550
190.853	889
190.922	1212
190.991	515
191.060	1299
191.129	31
191.198	1203
191.268	661
191.337	143
191.406	747
191.475	599
191.544	308
191.613	982
191.682	880
191.752	301
191.821	241
191.890	391
191.959	526
192.028	709
192.097	196
192.166	1037
192.235	244
192.304	972
192.373	-65
192.442	464
192.511	380
192.580	541
192.650	384
192.719	977
192.788	1089
192.857	359
192.926	905
192.995	915
193.064	740
193.133	470
193.202	354
193.271	1568
193.340	554
193.409	2192
193.478	1972
193.547	1703
193.615	2468
193.684	2314
193.753	1952
193.822	991
193.891	647
193.960	1397
194.029	879
194.098	1757
194.167	481
194.236	1084
194.305	439
194.374	382
194.443	517
194.512	743
194.580	638
194.649	1558
194.718	1300
194.787	1477
194.856	-89
194.925	1043
194.994	1049
195.062	1614
195.131	1231
195.200	2499
195.269	1878
195.338	1052
195.407	620
195.475	1046
195.544	1531
195.613	1823
195.682	947
195.751	1764
195.819	2135
195.888	1110
195.957	1840
196.026	1721
196.094	1683
196.163	2366
196.232	2560
196.301	1852
196.369	1472
196.438	1232
196.507	1063
196.576	1530
196.644	809
196.713	835
196.782	211
196.850	1392
196.919	894
196.988	1361
197.056	814
197.125	1746
197.194	1576
197.262	314
197.331	325
197.400	772
197.468	821
197.537	669
197.606	1398
197.674	2287
197.743	4330
197.812	1436
197.880	4467
197.949	2493
198.017	3566
198.086	2645
198.155	1346
198.223	1695
198.292	4340
198.360	2112
198.429	1720
198.497	1631
198.566	3029
198.635	5197
198.703	2334
198.772	1611
198.840	4102
198.909	6243
198.977	1654
199.046	1889
199.114	1231
199.183	1869
199.251	806
199.320	199
199.388	493
199.457	766
199.525	1195
199.594	611
199.662	62
199.731	574
199.799	1192
199.867	1261
199.936	988
200.004	1052
200.073	794
200.141	926
200.210	462
200.278	1337
200.346	1822
200.415	1284
200.483	1456
200.552	1554
200.620	869
200.688	1148
200.757	838
200.825	615
200.893	1135
200.962	1403
201.030	513
201.098	673
201.167	891
201.235	1114
201.303	474
201.372	1244
201.440	171
201.508	2861
201.577	1678
201.645	1921
201.713	477
201.781	1226
201.850	2349
201.918	1467
201.986	1268
202.055	1753
202.123	444
202.191	973
202.259	961
202.327	1495
202.396	516
202.464	2238
202.532	1217
202.600	8129
202.669	3739
202.737	758
202.805	1388
202.873	1728
202.941	944
203.009	1252
203.078	347
203.146	729
203.214	811
203.282	311
203.350	1013
203.418	1579
203.487	1443
203.555	899
203.623	920
203.691	1504
203.759	105
203.827	1168
203.895	1322
203.963	752
204.031	461
204.099	1854
204.168	200
204.236	732
204.304	980
204.372	2344
204.440	739
204.508	1005
204.576	-122
204.644	1052
204.712	344
204.780	1449
204.848	401
204.916	849
204.984	423
205.052	685
205.120	1396
205.188	798
205.256	579
205.324	547
205.392	715
205.460	2096
205.528	1072
205.596	2251
205.664	1355
205.732	2030
205.799	5527
205.867	9761
205.935	1986
206.003	2370
206.071	967
206.139	1280
206.207	1118
206.275	1304
206.343	922
206.411	664
206.478	1563
206.546	1931
206.614	922
206.682	1310
206.750	965
206.818	2516
206.885	2558
206.953	166
207.021	1860
207.089	963
207.157	190
207.225	1355
207.292	1291
207.360	779
207.428	749
207.496	806
207.563	339
207.631	1829
207.699	655
207.767	1696
207.834	1177
207.902	2455
207.970	1058
208.038	1544
208.105	1529
208.173	2180
208.241	2331
208.309	2187
208.376	2055
208.444	4662
208.512	2375
208.579	640
208.647	2513
208.715	2842
208.782	795
208.850	1520
208.918	999
208.985	1440
209.053	1699
209.120	2019
209.188	1366
209.256	1422
209.323	717
209.391	3159
209.459	2649
209.526	2224
209.594	447
209.661	2387
209.729	1216
209.796	1771
209.864	1842
209.932	1250
209.999	3251
210.067	3366
210.134	1834
210.202	1674
210.269	3920
210.337	3108
210.404	1942
210.472	1568
210.539	1394
210.607	2207
210.674	2727
210.742	2484
210.809	1833
210.877	2362
210.944	3536
211.012	1614
211.079	3215
211.146	2051
211.214	1463
211.281	3781
211.349	2682
211.416	2131
211.484	2769
211.551	1765
211.618	2089
211.686	2350
211.753	1179
211.821	2615
211.888	2127
211.955	1865
212.023	2245
212.090	2540
212.157	2134
212.225	3263
212.292	4811
212.359	9984
212.427	28235
212.494	12888
212.561	4226
212.629	3438
212.696	2240
212.763	2793
212.831	1240
212.898	2755
212.965	2179
213.032	2490
213.100	2603
213.167	2700
213.234	3681
213.301	2187
213.369	2386
213.436	2195
213.503	1663
213.570	3296
213.638	1796
213.705	1823
213.772	1392
213.839	3121
213.906	4181
213.973	3232
214.041	1743
214.108	3348
214.175	2857
214.242	1794
214.309	1873
214.376	2912
214.444	1961
214.511	3323
214.578	2587
214.645	3228
214.712	3352
214.779	2725
214.846	2479
214.913	2961
214.980	2981
215.048	4071
215.115	3460
215.182	3767
215.249	3215
215.316	3182
215.383	3265
215.450	3021
215.517	2283
215.584	2494
215.651	1286
215.718	2308
215.785	3906
215.852	3542
215.919	3438
215.986	3861
216.053	2850
216.120	2088
216.187	2764
216.254	3485
216.321	2502
216.388	3770
216.455	3335
216.522	3167
216.589	4054
216.656	7527
216.722	7929
216.789	4255
216.856	3417
216.923	3631
216.990	2608
217.057	2638
217.124	4014
217.191	4138
217.258	5191
217.324	5413
217.391	5081
217.458	4386
217.525	3219
217.592	2965
217.659	1596
217.725	4156
217.792	5749
217.859	7049
217.926	2273
217.993	2532
218.059	2583
218.126	2029
218.193	1579
218.260	1332
218.327	1497
218.393	2807
218.460	1702
218.527	1982
218.594	2548
218.660	7181
218.727	7746
218.794	2680
218.860	2888
218.927	1892
218.994	2043
219.061	1895
219.127	3675
219.194	5870
219.261	3109
219.327	1852
219.394	2170
219.461	1392
219.527	2077
219.594	4829
219.661	3320
219.727	1278
219.794	2419
219.860	1435
219.927	2413
219.994	4170
220.060	9326
220.127	5740
220.193	3445
220.260	3227
220.326	4140
220.393	6117
220.460	8270
220.526	5170
220.593	2644
220.659	5012
220.726	3915
220.792	13158
220.859	9509
220.925	10476
220.992	15358
221.058	16496
221.125	18093
221.191	14764
221.258	5251
221.324	3786
221.391	3380
221.457	2416
221.524	2688
221.590	4282
221.657	16612
221.723	12582
221.789	11107
221.856	11085
221.922	4846
221.989	4207
222.055	2964
222.121	1989
222.188	4628
222.254	3107
222.321	2462
222.387	1206
222.453	2303
222.520	1908
222.586	1714
222.652	2145
222.719	1052
222.785	2302
222.851	1319
222.918	2428
222.984	1413
223.050	2179
223.116	1297
223.183	2593
223.249	398
223.315	1362
223.382	2001
223.448	1749
223.514	1548
223.580	1444
223.647	1458
223.713	1518
223.779	1624
223.845	1335
223.911	1899
223.978	1579
224.044	2031
224.110	1605
224.176	1447
224.242	2419
224.309	1121
224.375	2109
224.441	1514
224.507	987
224.573	822
224.639	2105
224.705	600
224.772	1974
224.838	1241
224.904	2708
224.970	1645
225.036	1544
225.102	2152
225.168	2665
225.234	2451
225.300	2622
225.366	1606
225.432	2098
225.499	2383
225.565	1779
225.631	2275
225.697	2037
225.763	2269
225.829	3503
225.895	3618
225.961	7175
226.027	5722
226.093	3706
226.159	5248
226.225	5583
226.291	12803
226.357	23259
226.423	11706
226.489	7998
226.554	5751
226.620	5043
226.686	5876
226.752	10099
226.818	11458
226.884	30954
226.950	29704
227.016	10768
227.082	7022
227.148	5379
227.214	6229
227.279	5349
227.345	3684
227.411	3503
227.477	4074
227.543	11051
227.609	11726
227.674	6616
227.740	3588
227.806	4534
227.872	2786
227.938	3860
228.003	6497
228.069	2976
228.135	2795
228.201	2769
228.267	2068
228.332	3937
228.398	4616
228.464	4769
228.530	1623
228.595	2500
228.661	1828
228.727	6304
228.792	5402
228.858	2945
228.924	2686
228.990	5060
229.055	3896
229.121	5329
229.187	2380
229.252	3851
229.318	2519
229.384	3445
229.449	3728
229.515	2087
229.581	460
229.646	4277
229.712	3461
229.777	9461
229.843	10654
229.909	7306
229.974	6135
230.040	6499
230.105	4116
230.171	5084
230.236	5691
230.302	9660
230.368	8179
230.433	3651
230.499	4386
230.564	4158
230.630	2517
230.695	3376
230.761	2905
230.826	1628
230.892	6792
230.957	3619
231.023	2512
231.088	2660
231.154	2851
231.219	3744
231.284	4618
231.350	6148
231.415	2389
231.481	3272
231.546	2601
231.612	2482
231.677	1987
231.742	1477
231.808	2616
231.873	1489
231.939	1197
232.004	6540
232.069	7287
232.135	3063
232.200	2042
232.265	2916
232.331	1891
232.396	1711
232.461	1671
232.527	1595
232.592	1567
232.657	3265
232.723	7243
232.788	5504
232.853	2904
232.918	2647
232.984	1850
233.049	2092
233.114	6890
233.179	7271
233.245	10183
233.310	13879
233.375	2921
233.440	4003
233.506	2269
233.571	2751
233.636	2495
233.701	2772
233.766	7765
233.832	12202
233.897	4504
233.962	3661
234.027	5821
234.092	4075
234.157	3447
234.222	4926
234.288	6974
234.353	26327
234.418	24113
234.483	13427
234.548	8256
234.613	5762
234.678	5116
234.743	6926
234.808	26681
234.873	17283
234.938	6643
235.004	5251
235.069	4727
235.134	4686
235.199	3765
235.264	3882
235.329	2205
235.394	4467
235.459	6344
235.524	6678
235.589	3535
235.654	3348
235.719	2320
235.784	3187
235.849	4292
235.913	14412
235.978	16494
236.043	19332
236.108	6602
236.173	5469
236.238	7218
236.303	3726
236.368	4126
236.433	8683
236.498	16295
236.563	8286
236.627	11863
236.692	42458
236.757	35206
236.822	14205
236.887	14169
236.952	9894
237.017	6601
237.081	9319
237.146	8571
237.211	16453
237.276	39695
237.341	81557
237.405	39758
237.470	15657
237.535	13859
237.600	8360
237.664	6709
237.729	5039
237.794	5380
237.859	11160
237.923	12040
237.988	8337
238.053	11271
238.118	13478
238.182	33473
238.247	33299
238.312	14984
238.376	11295
238.441	8481
238.506	7303
238.570	3256
238.635	5049
238.700	3805
238.764	4347
238.829	13562
238.893	20139
238.958	8855
239.023	7609
239.087	4637
239.152	5321
239.216	4571
239.281	3492
239.346	3790
239.410	3794
239.475	5860
239.539	32997
239.604	29057
239.668	8573
239.733	5387
239.797	7683
239.862	19827
239.926	30120
239.991	11810
240.055	6283
240.120	4579
240.184	4776
240.249	3896
240.313	4171
240.378	4741
240.442	19610
240.507	34935
240.571	10705
240.635	14987
240.700	21806
240.764	7030
240.829	4514
240.893	2451
240.957	5186
241.022	17810
241.086	35516
241.151	16401
241.215	5281
241.279	8685
241.344	18334
241.408	8986
241.472	5003
241.537	6064
241.601	5511
241.665	3380
241.730	3363
241.794	4992
241.858	4067
241.922	4839
241.987	4891
242.051	3918
242.115	2658
242.179	3340
242.244	3786
242.308	4856
242.372	4743
242.436	5869
242.501	5862
242.565	3084
242.629	2656
242.693	4394
242.757	2880
242.822	3380
242.886	5645
242.950	5833
243.014	5680
243.078	5736
243.142	6574
243.206	4792
243.271	6460
243.335	5091
243.399	8690
243.463	29552
243.527	90262
243.591	29612
243.655	11955
243.719	7377
243.783	8372
243.847	11012
243.911	15655
243.975	21362
244.040	15232
244.104	7933
244.168	5087
244.232	9335
244.296	14244
244.360	13924
244.424	9127
244.488	8272
244.552	7852
244.615	4143
244.679	4797
244.743	6992
244.807	7671
244.871	4669
244.935	5364
244.999	2777
245.063	4386
245.127	5154
245.191	9443
245.255	9652
245.319	8907
245.383	8165
245.446	7017
245.510	4209
245.574	6556
245.638	6406
245.702	6094
245.766	18990
245.829	11171
245.893	7247
245.957	6597
246.021	6751
246.085	6928
246.149	9313
246.212	22165
246.276	35347
246.340	16077
246.404	10357
246.467	11508
246.531	18311
246.595	10757
246.659	9415
246.722	8524
246.786	11505
246.850	11922
246.913	16001
246.977	6302
247.041	6556
247.104	9252
247.168	7213
247.232	22008
247.295	47442
247.359	24008
247.423	10533
247.486	20094
247.550	11917
247.614	8953
247.677	12100
247.741	8081
247.804	7081
247.868	8132
247.932	18239
247.995	44393
248.059	17032
248.122	7546
248.186	10401
248.249	18530
248.313	70138
248.376	75944
248.440	47191
248.503	18190
248.567	14764
248.630	20499
248.694	28411
248.757	33122
248.821	77036
248.884	44331
248.948	38424
249.011	58661
249.075	89655
249.138	78919
249.202	28763
249.265	19211
249.328	27789
249.392	17871
249.455	13333
249.519	10196
249.582	13129
249.645	21741
249.709	16309
249.772	10490
249.835	10006
249.899	13869
249.962	10663
250.025	10107
250.089	25722
250.152	38791
250.215	17656
250.279	13021
250.342	13405
250.405	13416
250.468	10625
250.532	13978
250.595	23139
250.658	78177
250.721	138587
250.785	49425
250.848	25491
250.911	16610
250.974	14119
251.038	20235
251.101	44776
251.164	23698
251.227	23306
251.290	19999
251.354	27160
251.417	110700
251.480	114006
251.543	70607
251.606	208210
251.669	159128
251.732	57139
251.795	60945
251.859	61041
251.922	132714
251.985	79286
252.048	28327
252.111	21986
252.174	21657
252.237	38545
252.300	90788
252.363	88279
252.426	179637
252.489	77653
252.552	40096
252.615	26688
252.678	28158
252.741	63919
252.804	78911
252.867	176156
252.930	112896
252.993	60875
253.056	35299
253.119	25865
253.182	19682
253.245	31002
253.308	25476
253.371	27260
253.434	24541
253.497	21797
253.559	43750
253.622	30823
253.685	37015
253.748	39885
253.811	19209
253.874	25634
253.937	25046
254.000	16220
254.062	28620
254.125	47076
254.188	37444
254.251	34675
254.314	17554
254.376	31667
254.439	36316
254.502	29598
254.565	30150
254.628	54236
254.690	33056
254.753	19103
254.816	16722
254.878	17828
254.941	32373
255.004	35315
255.067	16209
255.129	15652
255.192	9257
255.255	7788
255.317	10692
255.380	7666
255.443	5611
255.505	6221
255.568	6437
255.631	5802
255.693	7745
255.756	5484
255.819	6762
255.881	4881
255.944	4994
256.006	5715
256.069	5613
256.132	4662
256.194	9329
256.257	30749
256.319	22933
256.382	20634
256.444	9850
256.507	7098
256.569	5317
256.632	6284
256.694	12855
256.757	22038
256.819	63448
256.882	25354
256.944	11700
257.007	10570
257.069	13777
257.132	8194
257.194	6241
257.257	5729
257.319	7053
257.381	6128
257.444	17775
257.506	74125
257.569	88747
257.631	66103
257.693	32872
257.756	15892
257.818	16284
257.880	8074
257.943	8904
258.005	5999
258.067	5200
258.130	5148
258.192	8489
258.254	23834
258.317	13879
258.379	7861
258.441	25776
258.503	26315
258.566	34060
258.628	48275
258.690	11438
258.753	9698
258.815	19835
258.877	11467
258.939	7272
259.001	5759
259.064	6424
259.126	9170
259.188	15122
259.250	8691
259.312	13019
259.375	39276
259.437	25417
259.499	8229
259.561	8111
259.623	8119
259.685	6476
259.747	8787
259.809	31153
259.872	65689
259.934	90644
259.996	77188
260.058	19634
260.120	9579
260.182	8303
260.244	6618
260.306	5457
260.368	6841
260.430	6636
260.492	10635
260.554	29910
260.616	31834
260.678	45440
260.740	70251
260.802	18217
260.864	11853
260.926	9752
260.988	9417
261.050	9116
261.112	15439
261.174	54405
261.236	52446
261.298	15790
261.359	27786
261.421	43894
261.483	12420
261.545	9644
261.607	6221
261.669	6659
261.731	17495
261.793	46089
261.854	19139
261.916	11170
261.978	7573
262.040	10044
262.102	7640
262.164	18498
262.225	15462
262.287	8220
262.349	21433
262.411	18358
262.472	8670
262.534	18363
262.596	46763
262.658	14076
262.719	6964
262.781	12025
262.843	41313
262.904	17805
262.966	10862
263.028	15400
263.090	62742
263.151	165079
263.213	51115
263.275	24992
263.336	13017
263.398	8876
263.459	6101
263.521	7024
263.583	18769
263.644	14841
263.706	6032
263.767	4171
263.829	4775
263.891	4393
263.952	3246
264.014	3695
264.075	5068
264.137	11265
264.198	7562
264.260	3736
264.321	3630
264.383	12052
264.444	22650
264.506	7130
264.567	5398
264.629	7253
264.690	12803
264.752	8228
264.813	5592
264.875	3782
264.936	4630
264.998	3437
265.059	3261
265.120	4301
265.182	6689
265.243	26312
265.305	26558
265.366	7543
265.427	5318
265.489	5352
265.550	2572
265.611	5485
265.673	5364
265.734	3553
265.795	3345
265.857	2633
265.918	3089
265.979	9136
266.040	46944
266.102	39931
266.163	12342
266.224	10988
266.286	6677
266.347	4214
266.408	5022
266.469	7382
266.530	5413
266.592	3928
266.653	11292
266.714	21707
266.775	7313
266.836	5045
266.898	3810
266.959	7568
267.020	5385
267.081	4740
267.142	3115
267.203	4010
267.264	2647
267.326	5210
267.387	4364
267.448	3241
267.509	3809
267.570	4229
267.631	3191
267.692	2545
267.753	3041
267.814	2982
267.875	10058
267.936	28049
267.997	9723
268.058	8751
268.119	5448
268.180	5586
268.241	5104
268.302	3430
268.363	2725
268.424	5065
268.485	5874
268.546	3272
268.607	2190
268.668	2754
268.729	2289
268.790	3407
268.851	4816
268.912	15454
268.972	20641
269.033	9863
269.094	4293
269.155	3828
269.216	2986
269.277	5323
269.338	4032
269.398	3904
269.459	5474
269.520	7974
269.581	10900
269.642	14381
269.702	9554
269.763	5776
269.824	4951
269.885	7356
269.945	12360
270.006	4393
270.067	3156
270.128	4072
270.188	2995
270.249	3646
270.310	3011
270.370	4086
270.431	4292
270.492	3502
270.553	3824
270.613	12469
270.674	26669
270.734	12031
270.795	5940
270.856	10313
270.916	7819
270.977	4480
271.038	6913
271.098	6811
271.159	11917
271.219	13255
271.280	5509
271.340	5293
271.401	7521
271.462	24219
271.522	12271
271.583	6623
271.643	6702
271.704	5872
271.764	7513
271.825	18178
271.885	62271
271.946	91106
272.006	28884
272.066	36710
272.127	69158
272.187	21271
272.248	11825
272.308	13645
272.369	47241
272.429	28441
272.489	18936
272.550	20315
272.610	19135
272.671	16373
272.731	15495
272.791	29903
272.852	14943
272.912	13139
272.972	7874
273.033	7118
273.093	13245
273.153	11359
273.214	7486
273.274	9454
273.334	29883
273.394	70522
273.455	28115
273.515	25696
273.575	60642
273.635	26754
273.696	35055
273.756	71673
273.816	28432
273.876	15943
273.936	38153
273.997	73270
274.057	18593
274.117	13353
274.177	18401
274.237	79245
274.297	76022
274.358	59088
274.418	56787
274.478	44546
274.538	17813
274.598	16184
274.658	59503
274.718	80553
274.778	29756
274.838	15682
274.898	33843
274.958	112594
275.018	80262
275.078	48144
275.138	19921
275.198	10937
275.258	9815
275.318	11285
275.378	22179
275.438	22355
275.498	15784
275.558	44335
275.618	95060
275.678	54730
275.738	29125
275.798	20923
275.858	10112
275.918	6818
275.978	8952
276.038	9343
276.098	7153
276.157	16244
276.217	48211
276.277	22557
276.337	15343
276.397	8518
276.457	10810
276.517	8016
276.576	5570
276.636	5925
276.696	11301
276.756	28779
276.815	22832
276.875	9503
276.935	12226
276.995	10559
277.055	6643
277.114	7166
277.174	10729
277.234	37990
277.293	18462
277.353	9656
277.413	6742
277.472	7975
277.532	7753
277.592	11447
277.651	32884
277.711	67988
277.771	23700
277.830	75586
277.890	66121
277.950	43692
278.009	127452
278.069	48758
278.128	44504
278.188	68297
278.248	28892
278.307	71252
278.367	47639
278.426	16741
278.486	10179
278.545	8802
278.605	6895
278.664	7734
278.724	9185
278.783	24772
278.843	72800
278.902	22236
278.962	12614
279.021	14568
279.081	19600
279.140	20357
279.199	14176
279.259	12733
279.318	14269
279.378	19942
279.437	37601
279.496	131984
279.556	356159
279.615	308385
279.675	86929
279.734	48920
279.793	66786
279.853	106436
279.912	41095
279.971	23166
280.031	20440
280.090	37278
280.149	69795
280.208	57396
280.268	230965
280.327	261567
280.386	67269
280.445	45890
280.505	42469
280.564	21328
280.623	16189
280.682	23013
280.742	36915
280.801	13244
280.860	9574
280.919	9017
280.978	7150
281.037	8316
281.097	7116
281.156	7710
281.215	6846
281.274	10419
281.333	44039
281.392	38026
281.451	9852
281.510	7139
281.569	5762
281.628	6357
281.688	5206
281.747	7056
281.806	6629
281.865	5818
281.924	4376
281.983	5903
282.042	3354
282.101	4552
282.160	4652
282.219	4211
282.278	6207
282.337	24227
282.396	18182
282.454	7615
282.513	9617
282.572	36130
282.631	22410
282.690	7909
282.749	5102
282.808	7403
282.867	7207
282.926	8224
282.985	5048
283.043	3597
283.102	5021
283.161	6673
283.220	17575
283.279	45547
283.338	13869
283.396	8193
283.455	7468
283.514	8244
283.573	12496
283.631	10170
283.690	6408
283.749	7119
283.808	14037
283.866	20407
283.925	7526
283.984	6709
284.043	9735
284.101	11414
284.160	6563
284.219	8869
284.277	9058
284.336	14657
284.395	49380
284.453	46610
284.512	15587
284.570	19503
284.629	17763
284.688	14391
284.746	15798
284.805	19324
284.863	24238
284.922	29477
284.981	32149
285.039	47042
285.098	85334
285.156	203806
285.215	425388
285.273	421329
285.332	230725
285.390	118061
285.449	72445
285.507	49647
285.566	35765
285.624	28225
285.683	20918
285.741	16167
285.799	14441
285.858	13790
285.916	12320
285.975	9829
286.033	7700
286.091	7552
286.150	6820
286.208	7028
286.267	8216
286.325	8825
286.383	14194
286.442	12168
286.500	6547
286.558	6378
286.616	5270
286.675	8724
286.733	8153
286.791	7207
286.850	8571
286.908	11597
286.966	20332
287.024	9199
287.083	5133
287.141	5743
287.199	6422
287.257	9841
287.315	7135
287.374	7961
287.432	19816
287.490	14541
287.548	8183
287.606	7594
287.664	5745
287.723	9527
287.781	12347
287.839	8217
287.897	8487
287.955	10402
288.013	16470
288.071	42844
288.129	153730
288.187	444191
288.245	211840
288.303	63747
288.361	35313
288.419	26840
288.477	19524
288.535	13647
288.593	10029
288.651	7834
288.709	5576
288.767	5945
288.825	5677
288.883	5115
288.941	3089
288.999	4507
289.057	5198
289.115	4075
289.173	4313
289.231	4980
289.289	5202
289.346	3692
289.404	5241
289.462	12150
289.520	12531
289.578	6664
289.636	2783
289.694	2861
289.751	3120
289.809	3371
289.867	3924
289.925	4837
289.983	6766
290.040	3921
290.098	2872
290.156	5914
290.214	6667
290.271	3941
290.329	2956
290.387	2365
290.444	2111
290.502	2073
290.560	1892
290.617	3348
290.675	2814
290.733	3601
290.790	4680
290.848	3466
290.906	3886
290.963	4253
291.021	3341
291.078	3807
291.136	4000
291.194	13980
291.251	35610
291.309	11310
291.366	4358
291.424	4549
291.481	4161
291.539	4780
291.596	4457
291.654	2849
291.711	2625
291.769	4250
291.826	14276
291.884	8366
291.941	3890
291.999	3562
292.056	5059
292.114	6225
292.171	3592
292.228	4774
292.286	6006
292.343	12626
292.401	16070
292.458	9688
292.515	6092
292.573	9507
292.630	8035
292.687	9988
292.745	5012
292.802	7729
292.859	17781
292.917	44927
292.974	28344
293.031	9114
293.089	6054
293.146	5286
293.203	4175
293.260	4661
293.318	7092
293.375	7930
293.432	4311
293.489	3990
293.546	3890
293.604	8703
293.661	28265
293.718	75077
293.775	37795
293.832	18724
293.889	14258
293.947	17781
294.004	12908
294.061	11169
294.118	18292
294.175	36268
294.232	29910
294.289	14028
294.346	8206
294.403	7323
294.460	8182
294.517	7530
294.574	5923
294.631	5072
294.688	7677
294.745	21083
294.802	72683
294.859	67273
294.916	31498
294.973	23234
295.030	15763
295.087	13702
295.144	8404
295.201	7363
295.258	6035
295.315	10088
295.372	30126
295.429	64943
295.486	27846
295.542	12869
295.599	18719
295.656	32384
295.713	30371
295.770	56247
295.827	22613
295.883	10535
295.940	9362
295.997	16225
296.054	16664
296.111	9009
296.167	5598
296.224	4300
296.281	4335
296.338	4141
296.394	3875
296.451	7925
296.508	22670
296.564	47845
296.621	30916
296.678	59649
296.734	93995
296.791	33642
296.848	15831
296.904	18593
296.961	39635
297.018	66265
297.074	51634
297.131	19113
297.187	13618
297.244	21681
297.301	64772
297.357	126304
297.414	47134
297.470	16671
297.527	10529
297.583	8938
297.640	9126
297.696	8071
297.753	4782
297.809	4253
297.866	3150
297.922	4622
297.979	3567
298.035	6561
298.092	12251
298.148	36239
298.204	38702
298.261	18955
298.317	26306
298.374	76891
298.430	50810
298.486	24336
298.543	17804
298.599	14599
298.656	13374
298.712	23824
298.768	57236
298.824	45417
298.881	15526
298.937	9433
298.993	7215
299.050	10588
299.106	9130
299.162	7603
299.218	7567
299.275	6890
299.331	9046
299.387	18989
299.443	66734
299.500	79537
299.556	32640
299.612	14622
299.668	13266
299.724	16201
299.780	19184
299.837	12062
299.893	18403
299.949	59369
300.005	76792
300.061	58766
300.117	98629
300.173	53464
300.229	23137
300.285	24409
300.341	28908
300.397	15769
300.453	9118
300.510	7837
300.566	9146
300.622	13439
300.678	34693
300.734	66476
300.790	60744
300.845	77241
300.901	49400
300.957	64026
301.013	52379
301.069	20693
301.125	14087
301.181	15324
301.237	9995
301.293	7934
301.349	6779
301.405	5389
301.461	5992
301.516	5723
301.572	7793
301.628	16843
301.684	17020
301.740	22980
301.796	38664
301.851	28282
301.907	43769
301.963	50765
302.019	73872
302.074	198207
302.130	202045
302.186	90493
302.242	35967
302.297	24556
302.353	22976
302.409	41762
302.464	40119
302.520	31074
302.576	70396
302.631	87367
302.687	49453
302.743	20187
302.798	11473
302.854	9030
302.910	9330
302.965	11508
303.021	21252
303.076	22867
303.132	27110
303.187	32810
303.243	16969
303.299	8835
303.354	6259
303.410	6266
303.465	5675
303.521	5722
303.576	7024
303.632	10508
303.687	19128
303.743	59403
303.798	57551
303.853	21653
303.909	11288
303.964	10174
304.020	14863
304.075	25428
304.130	20760
304.186	38388
304.241	40777
304.297	32532
304.352	16391
304.358	15688
304.407	9993
304.449	10106
304.463	10153
304.518	9508
304.539	9302
304.573	8985
304.629	10001
304.630	10146
304.684	17260
304.720	34669
304.739	43347
304.794	74537
304.811	63621
304.850	37549
304.902	16487
304.905	15144
304.960	9809
304.992	9185
305.015	8712
305.071	7761
305.083	7407
305.126	6139
305.173	4613
305.181	4373
305.236	3894
305.264	4780
305.292	5718
305.347	6692
305.354	6864
305.402	7874
305.445	8216
305.457	8343
305.512	10436
305.535	11126
305.567	12044
305.622	13107
305.626	13543
305.678	24033
305.716	50157
305.733	59614
305.788	78630
305.807	67713
305.843	48909
305.897	58978
305.898	59044
305.953	65756
305.988	42924
306.008	30410
306.063	16093
306.078	14393
306.118	10740
306.168	7702
306.173	7433
306.228	6631
306.259	5975
306.283	5567
306.338	5489
306.349	5385
306.393	5059
306.440	5995
306.448	6137
306.503	7274
306.530	7906
306.558	9897
306.613	19863
306.620	21788
306.668	36356
306.711	55225
306.723	57903
306.778	50688
306.801	38846
306.833	25130
306.888	11797
306.892	11362
306.943	7755
306.982	6619
306.997	6246
307.052	5754
307.072	5634
307.107	5953
307.162	7566
307.163	7595
307.217	10530
307.253	13178
307.272	13882
307.327	15528
307.343	14391
307.381	12428
307.434	12359
307.436	12661
307.491	24445
307.524	37326
307.546	41979
307.600	49467
307.614	44408
307.655	26915
307.704	13499
307.710	12747
307.765	12285
307.795	14581
307.819	16445
307.874	26343
307.885	26206
307.929	21702
307.975	15673
307.984	15545
308.038	20010
308.065	25651
308.093	45850
308.148	100091
308.156	113451
308.202	180210
308.246	230801
308.257	229524
308.312	122639
308.336	86899
308.366	65106
308.421	44287
308.426	42179
308.475	25405
308.517	17305
308.530	15759
308.585	12915
308.607	12246
308.639	12261
308.694	13935
308.697	14140
308.748	22297
308.787	32415
308.803	33004
308.857	26505
308.877	22398
308.912	18369
308.967	17007
308.967	17035
309.021	23912
309.058	31560
309.076	39983
309.130	73092
309.148	86631
309.185	161341
309.238	288065
309.239	288725
309.293	334711
309.328	301474
309.348	260123
309.402	119485
309.418	86966
309.457	57402
309.508	35878
309.511	35271
309.566	35002
309.598	36991
309.620	44285
309.674	68538
309.688	75115
309.729	72250
309.778	56884
309.783	55393
309.837	38307
309.868	30592
309.892	35523
309.946	52803
309.959	59028
310.001	75203
310.049	87558
310.055	84881
310.109	50561
310.139	30214
310.163	22727
310.218	12436
310.229	11074
310.272	9315
310.319	8323
310.326	8011
310.381	6175
310.409	5344
310.435	5252
310.489	4978
310.499	4997
310.543	4793
310.589	4721
310.598	4692
310.652	4781
310.679	4623
310.706	4082
310.760	3207
310.769	3061
310.814	2902
310.859	3031
310.868	3109
310.923	3295
310.948	3575
310.977	4174
311.031	5184
311.038	5361
311.085	4832
311.128	3972
311.139	4030
311.193	4428
311.218	4642
311.247	4185
311.301	3267
311.308	3162
311.356	3255
311.398	3398
311.410	3343
311.464	3089
311.488	2952
311.518	3074
311.572	3398
311.578	3450
311.626	5134
311.668	6653
311.680	6491
311.734	5513
311.758	5100
311.788	5026
311.842	5018
311.847	5020
311.896	6134
311.937	7182
311.950	6980
312.004	6086
312.027	5682
312.058	5236
312.112	4490
312.117	4425
312.165	4157
312.207	3950
312.297	3138
312.386	3817
312.476	4886
312.566	12914
312.656	5836
312.745	2283
312.835	3174
312.925	4039
313.015	3245
313.104	2907
313.194	3002
313.284	3540
313.374	5306
313.463	4986
313.553	3861
313.643	2695
313.732	2874
313.822	3480
313.912	3611
314.001	4777
314.091	4500
314.180	4712
314.270	6347
314.360	7374
314.449	6246
314.539	3033
314.628	2819
314.718	4312
314.808	5106
314.897	3726
314.987	4482
315.076	6988
315.166	7759
315.255	6216
315.345	6807
315.434	6479
315.524	6489
315.613	9340
315.703	14074
315.792	29742
315.881	111236
315.971	34268
316.060	16636
316.150	17206
316.239	15834
316.328	5185
316.418	3932
316.507	4625
316.597	7055
316.686	6253
316.775	8467
316.865	15528
316.954	4866
317.043	3553
317.133	4535
317.222	4757
317.311	3713
317.400	4463
317.490	8365
317.579	10216
317.668	9361
317.757	18752
317.847	51718
317.936	189387
318.025	59956
318.114	35541
318.203	17542
318.293	13278
318.382	19886
318.471	16116
318.560	19764
318.649	26362
318.738	7316
318.828	7766
318.917	8087
319.006	8593
319.095	21135
319.184	39696
319.273	30202
319.362	19433
319.451	7826
319.540	6830
319.629	18696
319.718	27948
319.807	10162
319.896	20667
319.985	54206
320.074	22484
320.163	6617
320.252	9717
320.341	6687
320.430	6731
320.519	12894
320.608	6893
320.697	5616
320.786	6301
320.875	10413
320.964	13564
321.053	20819
321.142	30544
321.230	31203
321.319	22417
321.408	48312
321.497	19539
321.586	19953
321.675	19073
321.764	17512
321.852	12590
321.941	28560
322.030	19199
322.119	20112
322.207	52114
322.296	25789
322.385	13767
322.474	22755
322.562	66409
322.651	30203
322.740	25098
322.829	31860
322.917	23187
323.006	16570
323.095	15308
323.183	10423
323.272	16071
323.361	30086
323.449	73439
323.538	24998
323.626	49826
323.715	28751
323.804	13396
323.892	44521
323.981	26952
324.069	9022
324.158	22689
324.246	19662
324.335	11044
324.424	18383
324.512	6095
324.601	8546
324.689	15924
324.778	27645
324.866	18495
324.954	5626
325.043	6773
325.131	11572
325.220	16730
325.308	19406
325.397	16147
325.485	9317
325.574	3815
325.662	3982
325.750	4541
325.839	4393
325.927	3174
326.015	5444
326.104	7963
326.192	10424
326.280	3731
326.369	4538
326.457	7810
326.545	13856
326.634	5732
326.722	3764
326.810	3562
326.898	3642
326.987	5977
327.075	13615
327.163	12377
327.251	5461
327.340	9002
327.428	12457
327.516	3740
327.604	4937
327.692	4389
327.781	4940
327.869	7995
327.957	5051
328.045	5705
328.133	3886
328.221	4078
328.309	3489
328.397	3713
328.485	5947
328.574	10525
328.662	34504
328.750	15629
328.838	4446
328.926	3366
329.014	3211
329.102	5602
329.190	12002
329.278	8590
329.366	1906
329.454	1760
329.542	1643
329.630	1275
329.718	3006
329.806	4111
329.893	2434
329.981	2386
330.069	3159
330.157	11470
330.245	31800
330.333	14848
330.421	5387
330.509	10427
330.597	40319
330.684	22571
330.772	6189
330.860	6133
330.948	6912
331.036	3411
331.123	2248
331.211	2514
331.299	2826
331.387	6699
331.475	11705
331.562	4602
331.650	2696
331.738	3741
331.825	4657
331.913	2837
332.001	2570
332.089	3513
332.176	7770
332.264	20786
332.352	15279
332.439	4994
332.527	3547
332.614	3393
332.702	4396
332.790	4845
332.877	11995
332.965	20409
333.052	7601
333.140	8739
333.228	20065
333.315	5128
333.403	5273
333.490	12667
333.578	14229
333.665	27753
333.753	12271
333.840	4096
333.928	6203
334.015	13905
334.103	22659
334.190	54849
334.278	14114
334.365	8885
334.452	7845
334.540	4783
334.627	5082
334.715	9013
334.802	21240
334.889	88500
334.977	83978
335.064	15543
335.151	5908
335.239	5592
335.326	7880
335.413	28307
335.501	30631
335.588	5787
335.675	4458
335.762	4952
335.850	8070
335.937	9513
336.024	26735
336.111	89905
336.199	40765
336.286	10381
336.373	4974
336.460	2976
336.547	3807
336.635	4851
336.722	4577
336.809	3973
336.896	7475
336.983	18850
337.070	40590
337.157	53523
337.245	52357
337.332	33454
337.419	4521
337.506	3538
337.593	3475
337.680	12038
337.767	25305
337.854	9876
337.941	11445
338.028	16948
338.115	4850
338.202	7149
338.289	15181
338.376	50418
338.463	15776
338.550	18150
338.637	15405
338.724	8985
338.811	13464
338.898	4208
338.984	2731
339.071	3129
339.158	7065
339.245	17185
339.332	9648
339.419	11276
339.506	9663
339.593	1628
339.679	2469
339.766	2980
339.853	5341
339.940	13412
340.027	3214
340.113	5129
340.200	6951
340.287	4761
340.374	6691
340.460	11502
340.547	4863
340.634	12208
340.720	42282
340.807	20682
340.894	4100
340.980	3462
341.067	3731
341.154	4897
341.240	9463
341.327	19016
341.414	5298
341.500	4139
341.587	3503
341.674	4490
341.760	13377
341.847	15088
341.933	4350
342.020	1243
342.106	1999
342.193	6314
342.279	10396
342.366	8482
342.452	12580
342.539	8046
342.625	20492
342.712	44362
342.798	17518
342.885	6029
342.971	2043
343.058	2332
343.144	2747
343.230	2924
343.317	3745
343.403	2173
343.490	2251
343.576	2099
343.662	3972
343.749	5738
343.835	7002
343.921	17429
344.008	105419
344.094	203067
344.180	41599
344.267	17484
344.353	55998
344.439	47511
344.525	19886
344.612	7223
344.698	6200
344.784	4158
344.870	3629
344.957	3075
345.043	7722
345.129	5996
345.215	12745
345.301	6117
345.387	3437
345.474	2279
345.560	2407
345.646	2832
345.732	2545
345.818	3510
345.904	3919
345.990	5562
346.076	4574
346.162	6906
346.249	3999
346.335	3011
346.421	5996
346.507	27670
346.593	79063
346.679	15673
346.765	3818
346.851	4514
346.937	4120
347.023	4086
347.108	5096
347.194	3340
347.280	3589
347.366	7237
347.452	29884
347.538	102526
347.624	66898
347.710	44800
347.796	6141
347.882	3116
347.967	2768
348.053	2666
348.139	2825
348.225	3286
348.311	2764
348.397	2760
348.482	5960
348.568	4868
348.654	3184
348.740	6264
348.825	5253
348.911	11747
348.997	50762
349.083	83131
349.168	11331
349.254	4414
349.340	3440
349.425	2742
349.511	5221
349.597	7467
349.682	17493
349.768	50591
349.854	20132
349.939	3506
350.025	2617
350.110	2169
350.196	1868
350.282	1326
350.367	2204
350.453	5639
350.538	4906
350.624	5057
350.709	4065
350.795	2408
350.880	2858
350.966	4079
351.051	5906
351.137	4525
351.222	4313
351.308	17314
351.393	41557
351.479	9422
351.564	2729
351.649	3901
351.735	2481
351.820	1816
351.906	2686
351.991	6276
352.076	30354
352.162	38206
352.247	7891
352.332	5722
352.418	9762
352.503	14692
352.588	62806
352.673	45435
352.759	10563
352.844	4509
352.929	6654
353.014	8488
353.100	6400
353.185	12825
353.270	17578
353.355	15124
353.441	4759
353.526	5037
353.611	14715
353.696	15290
353.781	9265
353.866	3856
353.952	5160
354.037	16065
354.122	33333
354.207	28927
354.292	9766
354.377	4684
354.462	4104
354.547	5802
354.632	5129
354.717	8450
354.802	12451
354.887	4168
354.972	2467
355.057	2540
355.142	3034
355.227	5281
355.312	9608
355.397	23728
355.482	52273
355.567	23620
355.652	17886
355.737	21414
355.822	65752
355.907	44031
355.991	7025
356.076	3776
356.161	3527
356.246	2688
356.331	4107
356.416	19233
356.501	117385
356.585	103049
356.670	13263
356.755	9292
356.840	16591
356.924	87126
357.009	264486
357.094	84813
357.179	17860
357.263	13129
357.348	12216
357.433	10359
357.517	10326
357.602	8106
357.687	6962
357.771	8184
357.856	8363
357.941	12287
358.025	65144
358.110	243508
358.195	96797
358.279	14603
358.364	12757
358.448	46931
358.533	113880
358.617	78046
358.702	79230
358.787	25510
358.871	14926
358.956	12145
359.040	4284
359.125	2832
359.209	3703
359.294	4110
359.378	5725
359.462	10491
359.547	6255
359.631	4165
359.716	2979
359.800	2676
359.885	5346
359.969	4550
360.053	4136
360.138	3666
360.222	8145
360.306	15345
360.391	10011
360.475	13438
360.559	31317
360.644	42855
360.728	31408
360.812	69440
360.896	161296
360.981	55023
361.065	23840
361.149	7967
361.233	7489
361.318	6775
361.402	9369
361.486	6981
361.570	5362
361.654	8484
361.739	25829
361.823	116302
361.907	153448
361.991	23425
362.075	15485
362.159	31720
362.243	22429
362.327	21332
362.411	27096
362.495	13347
362.580	6380
362.664	4210
362.748	5157
362.832	6372
362.916	12052
363.000	51026
363.084	153208
363.168	187686
363.252	37928
363.336	13323
363.420	18433
363.503	42266
363.587	36462
363.671	10083
363.755	8732
363.839	13935
363.923	6633
364.007	16505
364.091	17286
364.175	21440
364.258	65186
364.342	59355
364.426	94316
364.510	48877
364.594	20446
364.677	33937
364.761	149640
364.845	90196
364.929	28252
365.013	21895
365.096	18918
365.180	20484
365.264	21789
365.347	59847
365.431	20581
365.515	6515
365.598	5582
365.682	5502
365.766	4980
365.849	5656
365.933	6023
366.017	6982
366.100	2969
366.184	2016
366.267	3936
366.351	3862
366.435	2211
366.518	2792
366.602	2475
366.685	3073
366.769	5177
366.852	7026
366.936	13560
367.019	9147
367.103	3648
367.186	6294
367.270	3059
367.353	2043
367.436	5003
367.520	3306
367.603	6403
367.687	10489
367.770	18481
367.853	12525
367.937	42237
368.020	60232
368.104	13338
368.187	14452
368.270	18297
368.353	14607
368.437	20219
368.520	35627
368.603	25291
368.687	48492
368.770	79127
368.853	17631
368.936	15642
369.020	10749
369.103	4824
369.186	2190
369.269	3909
369.352	13936
369.436	15690
369.519	9127
369.602	3379
369.685	5809
369.768	5854
369.851	5290
369.934	3181
370.018	5732
370.101	14361
370.184	11538
370.267	6953
370.350	12735
370.433	23536
370.516	81436
370.599	106670
370.682	35845
370.765	43120
370.848	58251
370.931	102599
371.014	30079
371.097	6166
371.180	5389
371.263	3502
371.346	1399
371.429	2931
371.511	4052
371.594	8903
371.677	12536
371.760	9878
371.843	16119
371.926	89813
372.009	181996
372.091	49909
372.174	43553
372.257	100284
372.340	31798
372.423	17549
372.505	15424
372.588	9002
372.671	37178
372.754	106104
372.836	43968
372.919	20285
373.002	28325
373.085	12071
373.167	16812
373.250	48230
373.332	99443
373.415	140364
373.498	267254
373.580	93008
373.663	169059
373.746	189977
373.828	36489
373.911	14758
373.993	14091
374.076	32862
374.159	26182
374.241	27590
374.324	86599
374.406	52358
374.489	90884
374.571	223442
374.654	79845
374.736	48649
374.819	145734
374.901	203915
374.983	188702
375.066	29653
375.148	10857
375.231	31586
375.313	45833
375.395	17817
375.478	6490
375.560	5885
375.643	11256
375.725	48397
375.807	186355
375.890	112891
375.972	33637
376.054	22557
376.136	28296
376.219	15072
376.301	58245
376.383	155471
376.465	50296
376.548	33535
376.630	47587
376.712	129674
376.794	50372
376.877	6599
376.959	3797
377.041	5218
377.123	6157
377.205	5654
377.287	1663
377.369	3838
377.452	3548
377.534	2423
377.616	3723
377.698	3785
377.780	3073
377.862	4288
377.944	4166
378.026	1849
378.108	3289
378.190	2923
378.272	2839
378.354	1732
378.436	2131
378.518	5594
378.600	17760
378.682	21578
378.764	60592
378.846	39498
378.928	10319
379.010	14773
379.091	7528
379.173	4367
379.255	3559
379.337	7786
379.419	33510
379.501	82931
379.583	27209
379.664	7911
379.746	21978
379.828	58490
379.910	77384
379.991	62085
380.073	9571
380.155	6595
380.237	4783
380.318	3103
380.400	4827
380.482	13367
380.564	18851
380.645	20662
380.727	16836
380.809	8429
380.890	5881
380.972	4008
381.053	4713
381.135	7454
381.217	22788
381.298	57398
381.380	25588
381.461	29783
381.543	137848
381.624	142789
381.706	23600
381.787	10411
381.869	14208
381.951	64501
382.032	219195
382.113	115146
382.195	20625
382.276	17196
382.358	46969
382.439	116919
382.521	134828
382.602	197080
382.684	85738
382.765	161380
382.846	164053
382.928	233359
383.009	116521
383.090	91603
383.172	355489
383.253	489403
383.334	165939
383.416	180381
383.497	81686
383.578	37353
383.659	76468
383.741	312159
383.822	745995
383.903	340858
383.984	135105
384.066	208891
384.147	113612
384.228	24650
384.309	19065
384.390	13419
384.471	10012
384.553	11144
384.634	15398
384.715	15447
384.796	7992
384.877	14068
384.958	56151
385.039	59280
385.120	18517
385.201	9366
385.282	9350
385.363	9898
385.444	9306
385.525	24311
385.606	90753
385.687	68340
385.768	13895
385.849	20276
385.930	101755
386.011	155493
386.092	34635
386.173	7857
386.254	5605
386.335	6025
386.416	7934
386.496	36677
386.577	51311
386.658	15310
386.739	8447
386.820	7572
386.901	5156
386.981	5907
387.062	5813
387.143	16745
387.224	59865
387.304	46385
387.385	15052
387.466	7910
387.547	9415
387.627	8719
387.708	26524
387.789	110246
387.869	121384
387.950	29240
388.031	5195
388.111	2986
388.192	9626
388.273	11500
388.353	8347
388.434	7444
388.514	25759
388.595	111785
388.676	123533
388.756	51924
388.837	52208
388.917	28099
388.998	5269
389.078	5926
389.159	5696
389.239	4651
389.320	11209
389.400	7821
389.480	23833
389.561	60221
389.641	24646
389.722	10588
389.802	15064
389.883	28462
389.963	74795
390.043	37257
390.124	9700
390.204	22164
390.284	65436
390.365	34890
390.445	35762
390.525	117585
390.605	104802
390.686	28508
390.766	12624
390.846	6492
390.927	4220
391.007	4134
391.087	6550
391.167	7917
391.247	5451
391.328	8430
391.408	10330
391.488	5907
391.568	4076
391.648	8194
391.728	11842
391.808	11395
391.888	14261
391.969	36371
392.049	49848
392.129	18282
392.209	30493
392.289	72531
392.369	32593
392.449	16800
392.529	14644
392.609	17520
392.689	28041
392.769	78508
392.849	59961
392.929	47591
393.009	101764
393.089	88912
393.169	106574
393.248	356778
393.328	1086917
393.408	1035552
393.488	306178
393.568	94181
393.648	46840
393.728	29195
393.807	19882
393.887	17451
393.967	13959
394.047	14785
394.127	15630
394.206	22033
394.286	83992
394.366	356679
394.446	326800
394.525	58320
394.605	14874
394.685	14200
394.764	24919
394.844	35939
394.924	24710
395.003	13608
395.083	9816
395.163	9228
395.242	8671
395.322	9476
395.402	5209
395.481	8971
395.561	20674
395.640	47669
395.720	45243
395.799	45259
395.879	29934
395.958	25022
396.038	112858
396.117	464023
396.197	433186
396.276	92782
396.356	30216
396.435	24644
396.515	25484
396.594	41763
396.673	90933
396.753	362145
396.832	957172
396.912	644666
396.991	156290
397.070	46662
397.150	24592
397.229	18136
397.308	23423
397.388	32696
397.467	16243
397.546	7913
397.625	5972
397.705	9951
397.784	10298
397.863	5097
397.942	4177
398.022	5592
398.101	15192
398.180	31632
398.259	13239
398.338	6977
398.417	5752
398.497	4359
398.576	5220
398.655	2697
398.734	3140
398.813	3304
398.892	14511
398.971	36034
399.050	13768
399.129	2002
399.208	3108
399.287	3298
399.366	1721
399.445	2228
399.524	3134
399.603	1663
399.682	9065
399.761	20780
399.840	45148
399.919	25197
399.998	3494
400.077	1099
400.156	1301
400.235	4542
400.313	1584
400.392	5443
400.471	31770
400.550	45050
400.629	8571
400.708	4588
400.786	3131
400.865	6443
400.944	7917
401.023	6042
401.102	854
401.180	1412
401.259	1937
401.338	2522
401.416	5216
401.495	3532
401.574	3102
401.652	2066
401.731	5017
401.810	3447
401.888	1759
401.967	1388
402.046	4048
402.124	4634
402.203	5537
402.281	3266
402.360	5681
402.438	10018
402.517	4292
402.596	3162
402.674	1632
402.753	1779
402.831	2098
402.910	4119
402.988	26140
403.066	78102
403.145	37251
403.223	26593
403.302	61915
403.380	43436
403.459	42138
403.537	14089
403.615	4486
403.694	635
403.772	2138
403.850	849
403.929	952
404.007	1988
404.085	8842
404.164	9269
404.242	2891
404.320	3581
404.398	8549
404.477	39787
404.555	171781
404.633	124801
404.711	15412
404.789	4166
404.868	3743
404.946	2017
405.024	1222
405.102	751
405.180	914
405.258	680
405.336	2005
405.415	1127
405.493	6418
405.571	5825
405.649	1454
405.727	1132
405.805	4428
405.883	4795
405.961	4590
406.039	3015
406.117	1539
406.195	8382
406.273	43563
406.351	139772
406.429	64954
406.507	6665
406.585	2441
406.663	3975
406.740	5555
406.818	4484
406.896	2126
406.974	3782
407.052	14407
407.130	85891
407.208	101225
407.285	16808
407.363	2434
407.441	2088
407.519	2622
407.596	3145
407.674	11071
407.752	31633
407.830	23367
407.907	8648
407.985	3867
408.063	1789
408.141	1335
408.218	3932
408.296	3602
408.373	4317
408.451	4013
408.529	4057
408.606	1210
408.684	1197
408.762	1264
408.839	1411
408.917	-190
408.994	649
409.072	272
409.149	1315
409.227	4483
409.304	5057
409.382	4296
409.459	4891
409.537	7929
409.614	6013
409.692	4021
409.769	5012
409.846	9624
409.924	10535
410.001	5228
410.079	3412
410.156	3126
410.233	3493
410.311	2354
410.388	1376
410.465	2348
410.543	1357
410.620	1748
410.697	3085
410.775	4090
410.852	1177
410.929	4161
411.006	4273
411.083	1986
411.161	5812
411.238	5329
411.315	1881
411.392	1427
411.469	3549
411.547	2836
411.624	338
411.701	1499
411.778	3084
411.855	9502
411.932	3357
412.009	909
412.086	2208
412.163	2442
412.240	2325
412.317	2809
412.394	1425
412.471	854
412.548	931
412.625	1199
412.702	2193
412.779	4394
412.856	2407
412.933	-363
413.010	1499
413.087	4872
413.164	27898
413.241	35250
413.318	7439
413.395	5023
413.471	7338
413.548	1817
413.625	1576
413.702	1122
413.779	552
413.855	-42
413.932	354
414.009	208
414.086	807
414.162	742
414.239	4836
414.316	30111
414.393	59583
414.469	16702
414.546	1824
414.623	1475
414.699	579
414.776	2328
414.853	1511
414.929	1836
415.006	407
415.082	1022
415.159	768
415.236	1843
415.312	2439
415.389	6709
415.465	7715
415.542	2853
415.618	2300
415.695	5913
415.771	3697
415.848	2243
415.924	1820
416.000	737
416.077	1139
416.153	-717
416.230	-599
416.306	-217
416.383	93
416.459	1015
416.535	182
416.612	132
416.688	413
416.764	1612
416.841	1408
416.917	997
416.993	1311
417.069	2410
417.146	1590
417.222	3513
417.298	2167
417.374	815
417.451	2040
417.527	3572
417.603	3767
417.679	3265
417.755	1626
417.831	650
417.908	1182
417.984	169
418.060	488
418.136	7347
418.212	8327
418.288	2400
418.364	1540
418.440	1293
418.516	3480
418.592	3249
418.668	10485
418.744	18831
418.820	13029
418.896	2095
418.972	219
419.048	2076
419.124	8521
419.200	4838
419.276	720
419.352	-788
419.428	716
419.504	2400
419.579	2897
419.655	2262
419.731	2584
419.807	12574
419.883	23374
419.959	13129
420.034	3923
420.110	10307
420.186	38656
420.262	24704
420.337	3952
420.413	3200
420.489	1620
420.565	1393
420.640	1298
420.716	1662
420.792	532
420.867	2070
420.943	1050
421.019	5468
421.094	2958
421.170	1629
421.245	347
421.321	1745
421.397	1646
421.472	7284
421.548	16616
421.623	11580
421.699	4485
421.774	4406
421.850	4405
421.925	8328
422.001	7437
422.076	5755
422.152	7218
422.227	11692
422.302	14222
422.378	20375
422.453	41115
422.529	108053
422.604	309900
422.679	456355
422.755	274416
422.830	92418
422.905	35745
422.981	19338
423.056	12595
423.131	9502
423.207	6585
423.282	7767
423.357	14129
423.432	8107
423.508	10887
423.583	20762
423.658	13989
423.733	4431
423.808	4040
423.883	7006
423.959	6213
424.034	4540
424.109	3681
424.184	964
424.259	911
424.334	1519
424.409	939
424.484	1231
424.559	1866
424.634	2321
424.709	4953
424.784	4938
424.859	2727
424.934	6815
425.009	28377
425.084	43621
425.159	12624
425.234	2190
425.309	-144
425.384	985
425.459	68
425.534	1050
425.609	-42
425.683	297
425.758	1093
425.833	1574
425.908	3365
425.983	19187
426.058	46301
426.132	15759
426.207	1933
426.282	2851
426.357	1120
426.431	563
426.506	1946
426.581	1373
426.655	1217
426.730	959
426.805	723
426.879	2172
426.954	1721
427.029	8738
427.103	52780
427.178	117121
427.253	41713
427.327	4958
427.402	1967
427.476	2449
427.551	1374
427.625	827
427.700	1233
427.774	143
427.849	1000
427.923	507
427.998	21
428.072	1233
428.147	7989
428.221	39112
428.296	106626
428.370	47300
428.444	5100
428.519	4342
428.593	5926
428.667	5162
428.742	7432
428.816	12617
428.890	62217
428.965	86875
429.039	21162
429.113	7931
429.188	2990
429.262	1395
429.336	6728
429.410	19756
429.485	10979
429.559	5779
429.633	2968
429.707	2126
429.781	11398
429.855	64770
429.930	90131
430.004	34590
430.078	35054
430.152	47657
430.226	146974
430.300	126773
430.374	18798
430.448	5732
430.522	14901
430.596	33790
430.670	34055
430.744	136015
430.818	167351
430.892	30528
430.966	4881
431.040	1589
431.114	454
431.188	744
431.262	1020
431.336	34
431.410	4763
431.484	10753
431.557	7803
431.631	1311
431.705	2894
431.779	23665
431.853	95806
431.927	57600
432.000	6397
432.074	1507
432.148	1528
432.222	1093
432.295	877
432.369	565
432.443	6413
432.516	51168
432.590	116116
432.664	34051
432.737	3006
432.811	574
432.885	439
432.958	571
433.032	-963
433.106	-1070
433.179	-437
433.253	-781
433.326	-583
433.400	-97
433.473	-257
433.547	-915
433.620	1084
433.694	4586
433.767	2476
433.841	-163
433.914	-564
433.988	-690
434.061	-76
434.134	58
434.208	147
434.281	-363
434.355	104
434.428	425
434.501	-724
434.575	-706
434.648	13
434.721	-514
434.795	-422
434.868	-749
434.941	-307
435.014	-311
435.088	-54
435.161	2423
435.234	4267
435.307	4344
435.381	2271
435.454	3038
435.527	4994
435.600	4385
435.673	2783
435.746	1321
435.819	-105
435.892	120
435.966	-24
436.039	-349
436.112	485
436.185	-827
436.258	-818
436.331	-497
436.404	-712
436.477	-781
436.550	215
436.623	282
436.696	-469
436.769	511
436.842	-108
436.915	297
436.987	1430
437.060	-414
437.133	-962
437.206	-543
437.279	865
437.352	-226
437.425	128
437.498	1032
437.570	3959
437.643	3309
437.716	583
437.789	-104
437.861	2033
437.934	6917
438.007	2835
438.080	210
438.152	1810
438.225	8831
438.298	74866
438.370	174719
438.443	59756
438.516	10009
438.588	1841
438.661	177
438.734	927
438.806	1774
438.879	1695
438.951	1611
439.024	3571
439.096	1238
439.169	-215
439.241	-170
439.314	-429
439.386	636
439.459	2326
439.531	3791
439.604	675
439.676	-378
439.749	-517
439.821	-359
439.893	-420
439.966	-166
440.038	1325
440.110	1500
440.183	110
440.255	-338
440.327	3714
440.400	27850
440.472	106146
440.544	62585
440.617	7105
440.689	4518
440.761	4848
440.833	6658
440.905	4489
440.978	-476
441.050	32
441.122	277
441.194	-523
441.266	235
441.338	364
441.411	4797
441.483	33372
441.555	44052
441.627	8956
441.699	2441
441.771	1182
441.843	584
441.915	160
441.987	-7
442.059	550
442.131	752
442.203	1473
442.275	3681
442.347	4563
442.419	7906
442.491	50567
442.563	112719
442.635	46778
442.706	15925
442.778	10933
442.850	2778
442.922	1089
442.994	1081
443.066	3239
443.137	3171
443.209	2361
443.281	4934
443.353	14154
443.425	63947
443.496	216603
443.568	199604
443.640	71242
443.711	14769
443.783	4892
443.855	2382
443.926	1375
443.998	502
444.070	2294
444.141	2181
444.213	4982
444.285	6361
444.356	4730
444.428	2285
444.499	850
444.571	-137
444.642	1073
444.714	1567
444.785	5258
444.857	4072
444.928	6195
445.000	4789
445.071	5547
445.143	7267
445.214	7789
445.285	11007
445.357	34402
445.428	148801
445.500	314832
445.571	192471
445.642	102014
445.714	34087
445.785	17762
445.856	8472
445.928	8917
445.999	5678
446.070	2605
446.141	3986
446.213	6586
446.284	2318
446.355	1323
446.426	926
446.497	1468
446.569	2750
446.640	5783
446.711	6741
446.782	1272
446.853	1279
446.924	3581
446.995	2055
447.066	903
447.138	1552
447.209	897
447.280	-148
447.351	69
447.422	-987
447.493	674
447.564	2375
447.635	5201
447.706	1560
447.777	-612
447.847	-702
447.918	-867
447.989	977
448.060	1720
448.131	4984
448.202	4959
448.273	5012
448.344	1012
448.414	-217
448.485	96
448.556	200
448.627	-224
448.698	-452
448.768	-568
448.839	18
448.910	1567
448.981	2345
449.051	1332
449.122	21
449.193	-338
449.263	-893
449.334	225
449.405	2278
449.475	7005
449.546	4154
449.616	2542
449.687	1370
449.758	-18
449.828	-209
449.899	128
449.969	-725
450.040	-1052
450.110	1113
450.181	1403
450.251	455
450.322	-360
450.392	-233
450.463	-449
450.533	-940
450.604	-168
450.674	-485
450.744	-33
450.815	-124
450.885	300
450.955	257
451.026	-220
451.096	-160
451.166	968
451.237	2432
451.307	6726
451.377	3388
451.447	-578
451.518	-998
451.588	-277
451.658	156
451.728	1600
451.799	6896
451.869	7719
451.939	1475
452.009	594
452.079	-405
452.149	431
452.219	1157
452.289	8043
452.360	7167
452.430	1471
452.500	1799
452.570	3392
452.640	4901
452.710	15137
452.780	18101
452.850	16908
452.920	17337
452.990	5768
453.060	1821
453.129	2979
453.199	3995
453.269	13668
453.339	28024
453.409	42429
453.479	37154
453.549	53698
453.619	52433
453.688	25064
453.758	3424
453.828	1164
453.898	-33
453.968	420
454.037	179
454.087	-60
454.107	-172
454.168	-635
454.177	-725
454.247	-374
454.249	-349
454.316	-156
454.330	-6
454.386	469
454.411	1848
454.456	3793
454.492	5029
454.525	6111
454.574	3657
454.595	2630
454.655	657
454.665	360
454.734	1717
454.736	1816
454.804	3897
454.817	5219
454.873	9503
454.898	9992
454.943	10455
454.979	7469
455.013	4948
455.060	3076
455.082	2517
455.141	2391
455.152	2231
455.221	7956
455.222	8087
455.291	11235
455.303	10751
455.360	8509
455.384	10380
455.430	13459
455.465	10978
455.499	8449
455.546	9026
455.569	8866
455.627	6809
455.638	6532
455.707	1638
455.708	1651
455.777	826
455.789	828
455.846	779
455.869	490
455.916	-7
455.950	553
455.985	1003
456.031	610
456.054	381
456.112	511
456.124	568
456.193	967
456.193	950
456.262	1135
456.274	1374
456.332	2157
456.355	2479
456.401	2553
456.436	1916
456.470	1428
456.516	1035
456.540	830
456.597	461
456.609	405
456.678	689
456.678	675
456.747	751
456.759	606
456.817	-37
456.840	185
456.886	520
456.920	603
456.955	720
457.001	919
457.024	1223
457.082	2213
457.093	2378
457.162	4090
457.163	4125
457.232	3632
457.243	3458
457.301	2326
457.324	1772
457.370	1224
457.405	1266
457.439	1522
457.485	2262
457.508	2498
457.566	1909
457.577	1847
457.646	3291
457.647	3319
457.715	7825
457.727	8859
457.784	15787
457.808	20826
457.853	26573
457.889	30466
457.922	29074
457.969	19881
457.991	21159
458.050	27089
458.060	28196
458.129	48391
458.130	48935
458.198	44426
458.211	40302
458.267	23586
458.292	15858
458.336	9803
458.372	8979
458.405	12713
458.453	20004
458.474	26211
458.533	49287
458.543	51071
458.611	77972
458.614	78437
458.680	46087
458.694	35963
458.749	17314
458.775	11905
458.818	6645
458.855	5282
458.887	4734
458.936	4026
458.955	3541
459.016	2659
459.024	2632
459.093	3171
459.097	3191
459.162	3188
459.177	3329
459.230	4485
459.257	5441
459.299	5499
459.338	4879
459.368	4847
459.418	4353
459.437	3992
459.499	3123
459.505	3095
459.574	3458
459.579	3443
459.643	3150
459.659	3194
459.711	3341
459.740	3344
459.780	3338
459.820	3779
459.849	3958
459.900	3833
459.917	3723
459.981	3464
459.986	3447
460.054	3286
460.061	3284
460.123	4215
460.141	4401
460.191	5669
460.222	6838
460.260	7700
460.302	8722
460.328	7676
460.382	5274
460.397	5342
460.462	4182
460.465	4206
460.534	6390
460.543	6638
460.602	17686
460.623	22053
460.671	33879
460.703	44246
460.739	40497
460.783	32733
460.808	26895
460.864	7071
460.876	5800
460.944	3433
460.945	3420
461.013	4037
461.024	4180
461.081	4717
461.104	5250
461.150	5565
461.184	5337
461.218	4912
461.264	4061
461.286	3930
461.345	3975
461.355	3906
461.423	3837
461.425	3822
461.491	3714
461.505	3840
461.559	6996
461.585	8228
461.628	13578
461.665	19141
461.696	21048
461.745	25110
461.764	21848
461.825	8009
461.832	7952
461.901	6088
461.905	6127
461.969	5160
461.985	4894
462.037	4342
462.065	3903
462.105	3929
462.145	4310
462.173	6701
462.225	11092
462.241	12127
462.305	16874
462.310	16411
462.378	9182
462.385	8174
462.446	6095
462.465	5558
462.514	5497
462.545	5695
462.582	4956
462.625	4168
462.650	4130
462.705	3707
462.718	3772
462.785	4636
462.786	4675
462.854	6424
462.865	6749
462.922	8373
462.945	9197
462.990	7468
463.025	5719
463.058	5051
463.104	3980
463.126	3995
463.184	4232
463.194	4333
463.262	5066
463.264	5097
463.330	5236
463.344	5232
463.398	5849
463.424	6011
463.466	5202
463.504	4812
463.533	5352
463.583	5588
463.601	5859
463.663	7293
463.669	7475
463.737	9831
463.743	10002
463.805	13688
463.823	14768
463.873	20251
463.903	23776
463.940	24452
463.982	25462
464.008	20613
464.062	9251
464.076	8750
464.142	5404
464.144	5368
464.211	4697
464.221	4664
464.279	5984
464.301	6476
464.347	6806
464.381	7156
464.414	7405
464.461	7555
464.482	7884
464.540	8723
464.550	8469
464.617	6614
464.620	6536
464.685	8827
464.699	9373
464.753	10194
464.779	10577
464.820	9722
464.859	8784
464.888	8690
464.938	8487
464.956	8751
465.018	9771
465.023	9625
465.091	7480
465.098	7229
465.158	6562
465.177	6416
465.226	7034
465.257	7304
465.293	8303
465.336	9570
465.361	11047
465.416	14366
465.428	14716
465.495	16663
465.496	16726
465.563	22322
465.575	23292
465.631	28047
465.654	30151
465.698	19260
465.734	9860
465.765	8996
465.813	7404
465.833	7134
465.893	6779
465.900	6817
465.968	7107
465.972	7110
466.035	7206
466.052	7211
466.102	7344
466.131	7401
466.170	7753
466.210	8161
466.237	8107
466.290	7803
466.304	8074
466.369	9340
466.372	9367
466.439	9606
466.449	9612
466.506	10145
466.528	10350
466.573	14629
466.607	17799
466.641	26107
466.687	37566
466.708	41683
466.766	53058
466.775	49384
466.842	20947
466.845	19554
466.909	14140
466.925	12859
466.977	11203
467.004	10365
467.044	10421
467.083	10434
467.111	11220
467.163	12645
467.178	13153
467.242	15149
467.245	15124
467.312	14010
467.321	13836
467.379	13203
467.400	12932
467.446	13500
467.480	13867
467.559	12559
467.638	11478
467.717	11036
467.796	15515
467.875	19597
467.955	15003
468.034	17989
468.113	40165
468.192	57088
468.271	18894
468.350	16379
468.429	19407
468.508	21638
468.588	14997
468.667	12229
468.746	13120
468.825	12048
468.904	9563
468.983	13015
469.062	18763
469.141	22840
469.220	10132
469.299	10088
469.378	10124
469.456	11509
469.535	10662
469.614	10673
469.693	10795
469.772	15144
469.851	19374
469.930	14627
470.009	12181
470.088	13732
470.166	17317
470.245	29656
470.324	39086
470.403	24374
470.482	14800
470.560	12687
470.639	14884
470.718	19257
470.797	13291
470.875	14829
470.954	19707
471.033	21063
471.111	8756
471.190	7823
471.269	8100
471.347	7577
471.426	8930
471.505	9738
471.583	9915
471.662	10242
471.740	8305
471.819	9166
471.898	8282
471.976	8079
472.055	8606
472.133	9965
472.212	12780
472.290	12425
472.369	8678
472.447	7837
472.526	7584
472.604	9183
472.683	10788
472.761	13530
472.839	11665
472.918	9912
472.996	8577
473.075	11275
473.153	9971
473.231	9114
473.310	11780
473.388	13168
473.466	10367
473.545	14121
473.623	22162
473.701	22656
473.780	10672
473.858	10053
473.936	12789
474.014	10107
474.093	10951
474.171	15795
474.249	19807
474.327	14619
474.405	9079
474.484	9736
474.562	9342
474.640	9854
474.718	8547
474.796	9700
474.874	8079
474.952	8037
475.030	7413
475.108	9307
475.187	10657
475.265	12427
475.343	23416
475.421	28785
475.499	10391
475.577	8503
475.655	12483
475.733	23171
475.811	38712
475.889	34824
475.966	24282
476.044	10010
476.122	16850
476.200	25415
476.278	17943
476.356	9045
476.434	9877
476.512	14448
476.590	22513
476.667	18544
476.745	7929
476.823	10652
476.901	8204
476.979	8106
477.056	9241
477.134	9650
477.212	9814
477.290	10013
477.367	7064
477.445	6576
477.523	7239
477.601	7485
477.678	7405
477.756	9292
477.834	11106
477.911	8575
477.989	8101
478.066	8201
478.144	9374
478.222	15435
478.299	31184
478.377	29525
478.454	8817
478.532	8407
478.609	9696
478.687	10847
478.764	7413
478.842	9548
478.919	12440
478.997	11100
479.074	6728
479.152	9232
479.229	11190
479.307	8457
479.384	7071
479.461	6845
479.539	7179
479.616	8764
479.694	7447
479.771	7803
479.848	9117
479.926	10856
480.003	14019
480.080	8135
480.157	7246
480.235	7371
480.312	8159
480.389	9226
480.467	13516
480.544	18154
480.621	9137
480.698	8655
480.775	10062
480.853	10480
480.930	8238
481.007	8803
481.084	8931
481.161	10853
481.238	9550
481.315	7085
481.392	6892
481.470	8480
481.547	7777
481.624	6463
481.701	6754
481.778	8206
481.855	8016
481.932	12958
482.009	21320
482.086	16498
482.163	10989
482.240	21311
482.317	43921
482.393	33949
482.470	10250
482.547	9619
482.624	8091
482.701	8367
482.778	7951
482.855	7365
482.932	6541
483.009	7154
483.085	9235
483.162	11832
483.239	12106
483.316	9757
483.393	10692
483.469	8199
483.546	9801
483.623	10344
483.699	6892
483.776	8128
483.853	10255
483.930	13977
484.006	30953
484.083	52852
484.160	24595
484.236	30082
484.313	24722
484.389	18587
484.466	17492
484.543	17434
484.619	18886
484.696	22297
484.772	20164
484.849	19659
484.925	15604
485.002	15732
485.078	16486
485.155	16603
485.231	13942
485.308	14628
485.384	14259
485.461	18877
485.537	33575
485.614	40277
485.690	16711
485.766	15289
485.843	19528
485.919	37569
485.995	41644
486.072	15538
486.148	12852
486.224	13946
486.301	15469
486.377	18075
486.453	16618
486.530	16435
486.606	19071
486.682	21706
486.758	28745
486.835	34779
486.911	28410
486.987	50740
487.063	80404
487.139	127989
487.215	78611
487.292	27132
487.368	19518
487.444	21848
487.520	29223
487.596	33302
487.672	58247
487.748	183444
487.824	290275
487.900	88756
487.976	28193
488.052	23143
488.128	25278
488.204	21888
488.280	17432
488.356	19594
488.432	39434
488.508	61660
488.584	24754
488.660	19085
488.736	18605
488.812	22693
488.888	29123
488.964	42384
489.039	118575
489.115	199881
489.191	110127
489.267	19176
489.343	15585
489.418	13083
489.494	11437
489.570	9891
489.646	13309
489.722	13320
489.797	13354
489.873	20139
489.949	43715
490.024	37482
490.100	12212
490.176	12808
490.251	21978
490.327	33677
490.403	15147
490.478	11621
490.554	10034
490.629	10747
490.705	10844
490.781	13046
490.856	12045
490.932	16717
491.007	19764
491.083	15228
491.158	11911
491.234	14698
491.309	33026
491.385	34333
491.460	13331
491.536	15154
491.611	14485
491.686	19366
491.762	29103
491.837	78483
491.913	128830
491.988	186013
492.063	251821
492.139	47005
492.214	19971
492.289	11754
492.365	12311
492.440	14474
492.515	13048
492.590	11551
492.666	10502
492.741	14965
492.816	20960
492.891	11808
492.967	10388
493.042	9900
493.117	8293
493.192	9740
493.267	13448
493.342	32793
493.418	41661
493.493	11614
493.568	8224
493.643	8970
493.718	12008
493.793	24041
493.868	32674
493.943	21529
494.018	11708
494.093	9083
494.168	8936
494.243	8134
494.318	7372
494.393	8395
494.468	7231
494.543	8294
494.618	12739
494.693	10088
494.768	7675
494.842	9376
494.917	8388
494.992	10612
495.067	8133
495.142	7788
495.217	10713
495.292	12055
495.366	14064
495.441	19469
495.516	26286
495.591	40135
495.665	170113
495.740	447261
495.815	175939
495.890	18706
495.964	9347
496.039	12547
496.114	10269
496.188	12586
496.263	11454
496.338	9807
496.412	11491
496.487	14297
496.561	20600
496.636	21913
496.710	12663
496.785	14320
496.860	14769
496.934	11616
497.009	13768
497.083	11004
497.158	9979
497.232	13471
497.307	18434
497.381	13735
497.455	14972
497.530	20751
497.604	14940
497.679	16104
497.753	25435
497.827	35095
497.902	32975
497.976	36664
498.050	80833
498.125	340329
498.199	357397
498.273	69222
498.348	49146
498.422	34942
498.496	33852
498.570	31107
498.645	18634
498.719	16733
498.793	21923
498.867	35037
498.941	42364
499.016	123040
499.090	362771
499.164	125559
499.238	15235
499.312	14314
499.386	20200
499.460	17357
499.534	13353
499.609	16277
499.683	23490
499.757	25030
499.831	51039
499.905	220381
499.979	212399
500.053	33455
500.127	39328
500.201	39297
500.275	19172
500.349	16803
500.422	19316
500.496	34319
500.570	83013
500.644	142267
500.718	231652
500.792	53875
500.866	14307
500.940	16743
501.013	14317
501.087	17156
501.161	35365
501.235	42531
501.309	62795
501.382	184325
501.456	171330
501.530	42781
501.603	57745
501.677	23706
501.751	11643
501.825	16572
501.898	23945
501.972	70613
502.046	45053
502.119	15003
502.193	35918
502.266	80707
502.340	37711
502.413	31274
502.487	63498
502.561	38257
502.634	15340
502.708	17309
502.781	13062
502.855	11154
502.928	6983
503.002	8064
503.075	8031
503.149	9050
503.222	9286
503.295	9928
503.369	11540
503.442	15019
503.516	50025
503.589	134686
503.662	87261
503.736	27922
503.809	63159
503.882	52350
503.956	76836
504.029	83326
504.102	110131
504.175	158122
504.249	51006
504.322	21215
504.395	15271
504.468	10970
504.542	8636
504.615	7516
504.688	8135
504.761	7391
504.834	11956
504.907	17827
504.980	34242
505.053	14549
505.127	17509
505.200	20180
505.273	12306
505.346	8297
505.419	6881
505.492	6077
505.565	4928
505.638	6183
505.711	3795
505.784	5306
505.857	5582
505.930	6622
506.003	3971
506.076	7890
506.149	9411
506.221	10737
506.294	10589
506.367	25357
506.440	96142
506.513	57682
506.586	13707
506.659	8351
506.731	8138
506.804	11240
506.877	22225
506.950	10654
507.022	7009
507.095	7861
507.168	12635
507.241	10602
507.313	7236
507.386	10100
507.459	20875
507.531	11227
507.604	6501
507.677	7824
507.749	4227
507.822	10746
507.894	23285
507.967	21738
508.040	8931
508.112	8565
508.185	9346
508.257	8097
508.330	17666
508.402	8697
508.475	6510
508.547	7790
508.620	7427
508.692	13294
508.765	7821
508.837	5657
508.909	4991
508.982	6233
509.054	9937
509.127	8463
509.199	5349
509.271	4825
509.344	4910
509.416	5717
509.488	4641
509.560	6647
509.633	8677
509.705	11890
509.777	9656
509.849	19308
509.922	11831
509.994	6149
510.066	6319
510.138	5160
510.210	11888
510.283	9836
510.355	9851
510.427	8804
510.499	8415
510.571	8634
510.643	8918
510.715	21646
510.787	17652
510.859	9980
510.931	12213
511.003	18646
511.076	16034
511.148	6375
511.219	6360
511.291	11495
511.363	13805
511.435	6751
511.507	5475
511.579	6703
511.651	6713
511.723	5837
511.795	6953
511.867	6835
511.939	8163
512.010	18404
512.082	15505
512.154	8441
512.226	7834
512.298	12059
512.369	20118
512.441	16152
512.513	20681
512.585	12506
512.656	12148
512.728	13484
512.800	8884
512.871	9017
512.943	9072
513.015	6723
513.086	10268
513.158	12340
513.230	12590
513.301	25640
513.373	34538
513.444	13570
513.516	9206
513.588	9247
513.659	12876
513.731	20156
513.802	15502
513.874	40030
513.945	85387
514.016	23562
514.088	9728
514.159	12406
514.231	19070
514.302	20665
514.374	11732
514.445	9069
514.516	21062
514.588	14749
514.659	10843
514.730	18670
514.802	19907
514.873	12710
514.944	12602
515.016	11528
515.087	13874
515.158	16013
515.229	20692
515.301	10424
515.372	13949
515.443	9504
515.514	7749
515.585	7554
515.656	9140
515.728	10177
515.799	8170
515.870	10531
515.941	11242
516.012	9713
516.083	15229
516.154	18539
516.225	34330
516.296	30152
516.367	24362
516.438	30275
516.509	41846
516.580	55965
516.651	173928
516.722	711929
516.793	338834
516.864	57926
516.935	52400
517.006	58496
517.077	81149
517.148	186023
517.219	741792
517.289	1249382
517.360	238722
517.431	59901
517.502	21145
517.573	19823
517.643	17830
517.714	19485
517.785	21583
517.856	26165
517.926	35133
517.997	46219
518.068	63156
518.138	85539
518.209	123285
518.280	461997
518.350	1885041
518.421	777584
518.492	80423
518.562	40054
518.633	36135
518.703	35727
518.774	64608
518.845	173519
518.915	179347
518.986	53271
519.056	34079
519.127	62605
519.197	87111
519.268	132754
519.338	69902
519.408	22191
519.479	37206
519.549	28444
519.620	16295
519.690	10192
519.760	9506
519.831	11827
519.901	11030
519.971	8373
520.042	9114
520.112	10685
520.182	16489
520.253	21098
520.323	8488
520.393	6764
520.463	12668
520.534	6885
520.604	14664
520.674	11058
520.744	10488
520.814	17893
520.885	23331
520.955	30042
521.025	115640
521.095	46808
521.165	10352
521.235	8962
521.305	7376
521.375	8886
521.445	11276
521.515	19635
521.585	22533
521.655	21723
521.725	16656
521.795	12728
521.865	6053
521.935	12147
522.005	10098
522.075	6703
522.145	8842
522.215	9016
522.285	13609
522.355	18001
522.424	35859
522.494	30696
522.564	21329
522.634	53415
522.704	187848
522.774	71394
522.843	13656
522.913	12956
522.983	19608
523.053	14585
523.122	13485
523.192	22831
523.262	104745
523.331	105551
523.401	15444
523.471	8143
523.540	9638
523.610	6738
523.680	6919
523.749	7112
523.819	7546
523.888	8449
523.958	5763
524.027	5973
524.097	6426
524.166	7246
524.236	9996
524.305	10553
524.375	6345
524.444	4846
524.514	8310
524.583	6117
524.653	8019
524.722	10489
524.791	5346
524.861	7708
524.930	6081
524.999	8818
525.069	15457
525.138	8450
525.207	9202
525.277	8612
525.346	8808
525.415	8338
525.484	9373
525.554	10835
525.623	11691
525.692	12299
525.761	13371
525.830	16707
525.900	21379
525.969	33062
526.038	55307
526.107	108272
526.176	347401
526.245	300655
526.314	95291
526.383	174015
526.452	243982
526.522	393714
526.591	432071
526.660	134033
526.729	69204
526.797	65481
526.867	123576
526.935	543410
527.004	985661
527.073	559945
527.142	52853
527.211	22268
527.280	20980
527.349	20558
527.418	8752
527.487	9379
527.555	7004
527.624	6909
527.693	4741
527.762	7914
527.831	5587
527.899	7640
527.968	7119
528.037	7377
528.106	11694
528.174	26471
528.243	17198
528.312	24702
528.380	42841
528.449	9574
528.518	7316
528.586	4157
528.655	5279
528.723	4247
528.792	4307
528.861	5959
528.929	4742
528.998	5123
529.066	3416
529.135	4199
529.203	4100
529.272	3140
529.340	4744
529.409	5969
529.477	3423
529.545	5666
529.614	8478
529.682	6100
529.751	8547
529.819	10218
529.887	5814
529.956	5568
530.024	5286
530.092	5060
530.161	9187
530.229	20929
530.297	8988
530.365	6104
530.434	4531
530.502	3870
530.570	4021
530.638	2957
530.707	5797
530.775	7350
530.843	3973
530.911	4735
530.979	4137
531.047	4118
531.115	5163
531.183	4401
531.252	5251
531.320	4422
531.388	3890
531.456	5255
531.524	3364
531.592	6112
531.660	7369
531.728	4355
531.796	3718
531.864	5597
531.932	5468
532.000	5866
532.067	6477
532.135	9042
532.203	9863
532.271	11197
532.339	23324
532.407	84086
532.475	48331
532.542	18625
532.610	18998
532.678	24552
532.746	116731
532.814	345451
532.881	84557
532.949	11886
533.017	8486
533.084	6174
533.152	5396
533.220	6661
533.287	8258
533.355	5672
533.423	5793
533.490	4504
533.558	5748
533.625	6320
533.693	7057
533.761	7320
533.828	7428
533.896	6221
533.963	22182
534.031	28489
534.098	41760
534.166	16335
534.233	6456
534.300	8135
534.368	8383
534.435	7355
534.503	8719
534.570	9365
534.637	10088
534.705	13621
534.772	16204
534.840	29506
534.907	148784
534.974	215698
535.041	26414
535.109	11653
535.176	7803
535.243	5844
535.310	7522
535.378	6732
535.445	5662
535.512	6105
535.579	6873
535.646	5921
535.714	6375
535.781	7711
535.848	7064
535.915	7601
535.982	6152
536.049	6380
536.116	7733
536.183	6838
536.250	8169
536.317	8704
536.384	13329
536.451	22630
536.518	24652
536.585	14465
536.652	18849
536.719	33090
536.786	26401
536.853	16935
536.920	25774
536.987	49043
537.053	42161
537.120	159505
537.187	147558
537.254	14678
537.321	9133
537.388	10478
537.454	6295
537.521	6772
537.588	6614
537.654	8598
537.721	8719
537.788	10591
537.855	7145
537.921	8349
537.988	8098
538.055	9414
538.121	8567
538.188	11074
538.254	20282
538.321	53994
538.388	31660
538.454	10520
538.521	8448
538.587	7945
538.654	6963
538.720	6987
538.787	6858
538.853	8580
538.920	12301
538.986	11945
539.053	8250
539.119	9995
539.185	11143
539.252	13619
539.318	27239
539.385	17096
539.451	11271
539.517	13481
539.583	14208
539.650	37478
539.716	116972
539.782	32611
539.849	11072
539.915	10592
539.981	12280
540.047	15861
540.114	13553
540.180	13579
540.246	13283
540.312	21007
540.378	49242
540.444	52007
540.510	42638
540.576	136930
540.643	43608
540.709	10507
540.775	9020
540.841	8507
540.907	12066
540.973	15884
541.039	21934
541.105	29299
541.171	12395
541.237	10005
541.303	10842
541.369	14756
541.435	20129
541.500	45603
541.566	27101
541.632	9767
541.698	8344
541.764	8656
541.830	7649
541.896	7178
541.961	9125
542.027	10100
542.093	10019
542.159	11277
542.224	12244
542.290	19145
542.356	39973
542.421	55614
542.487	20209
542.553	9349
542.618	10675
542.684	10651
542.750	11131
542.815	14303
542.881	25058
542.947	112655
543.012	86865
543.078	12304
543.143	8861
543.209	10221
543.274	10786
543.340	13602
543.405	38291
543.471	69121
543.536	14023
543.602	8440
543.667	6884
543.732	9360
543.798	6160
543.863	8148
543.928	6108
543.994	7280
544.059	8723
544.124	8334
544.190	8630
544.255	9444
544.320	9979
544.386	10714
544.451	19412
544.516	24170
544.581	19616
544.646	64414
544.712	114660
544.777	19953
544.842	10710
544.907	9867
544.972	8867
545.037	9347
545.102	9811
545.168	11841
545.233	11398
545.298	13196
545.363	14030
545.428	17512
545.493	37947
545.558	95884
545.623	35650
545.688	11895
545.753	10251
545.818	10076
545.883	11044
545.947	10161
546.012	11734
546.077	11130
546.142	12526
546.207	13265
546.272	21162
546.337	24907
546.401	15218
546.466	13659
546.531	11846
546.596	14882
546.661	17161
546.725	14873
546.790	12459
546.855	14322
546.919	13929
546.984	17670
547.049	18098
547.113	21304
547.178	20991
547.243	25400
547.307	29971
547.372	34748
547.436	34358
547.501	31772
547.565	34913
547.630	40461
547.695	37518
547.759	33853
547.823	32343
547.888	31149
547.952	30677
548.017	32268
548.081	37024
548.146	39759
548.210	37557
548.274	35321
548.339	35910
548.403	32483
548.468	30390
548.532	30107
548.596	31685
548.660	31304
548.725	34829
548.789	39961
548.853	40054
548.917	35065
548.982	38479
549.046	34185
549.110	27242
549.174	28006
549.238	30320
549.303	33711
549.367	36956
549.431	34565
549.495	32429
549.559	32554
549.623	36763
549.687	43407
549.751	51523
549.815	50078
549.879	48025
549.943	44107
550.007	47578
550.071	48572
550.135	50910
550.199	44280
550.263	40878
550.327	40148
550.391	42850
550.455	43065
550.519	45645
550.582	49027
550.646	63743
550.710	65729
550.774	53700
550.838	55095
550.901	55810
550.965	60560
551.029	63986
551.093	71348
551.156	79363
551.220	111701
551.284	141510
551.347	90726
551.411	84760
551.475	83183
551.538	59357
551.602	53790
551.666	50004
551.729	46892
551.793	44920
551.856	44715
551.920	42897
551.983	43745
552.047	42782
552.110	43804
552.174	43539
552.237	44346
552.301	42207
552.364	39168
552.428	39369
552.491	40834
552.554	42039
552.618	43425
552.681	45910
552.745	47511
552.808	68193
552.871	89987
552.934	57577
552.998	44838
553.061	40573
553.124	38491
553.187	38500
553.251	39823
553.314	39531
553.377	38717
553.440	42037
553.503	48659
553.567	53436
553.630	41804
553.693	40117
553.756	40223
553.819	38841
553.882	38215
553.945	38321
554.008	36654
554.071	37018
554.134	38402
554.197	36288
554.260	34793
554.323	39100
554.386	38145
554.449	38294
554.512	38296
554.575	35926
554.638	36698
554.701	36484
554.764	35819
554.827	32846
554.889	31918
554.952	30745
555.015	29151
555.078	30842
555.141	31311
555.203	30619
555.266	30704
555.329	30634
555.391	30111
555.454	30427
555.517	31665
555.580	27556
555.642	26605
555.705	25804
555.768	27331
555.830	25995
555.893	24444
555.955	24869
556.018	24406
556.080	25538
556.143	24797
556.206	25130
556.268	26584
556.330	25986
556.393	25625
556.455	23420
556.518	28020
556.580	29672
556.643	22046
556.705	22319
556.767	21122
556.830	22591
556.892	26329
556.955	40711
557.017	30784
557.079	20441
557.142	20695
557.204	25586
557.266	52218
557.328	43172
557.391	19521
557.453	16826
557.515	17986
557.577	23682
557.639	27306
557.701	18803
557.764	19059
557.826	20496
557.888	22884
557.950	25223
558.012	27586
558.074	35761
558.136	86944
558.198	246793
558.260	89866
558.322	31881
558.384	33733
558.446	38938
558.508	46780
558.570	60622
558.632	95595
558.694	138699
558.756	141813
558.818	436452
558.880	1179038
558.942	376973
559.003	267336
559.065	135289
559.127	50755
559.189	49214
559.251	55721
559.312	78310
559.374	194492
559.436	742409
559.498	379983
559.559	60787
559.621	49885
559.683	53509
559.744	88586
559.806	320458
559.868	529231
559.929	97061
559.991	50167
560.052	73979
560.114	233143
560.176	151211
560.237	125005
560.299	231356
560.360	48684
560.422	17125
560.483	14812
560.545	11740
560.606	10676
560.667	11133
560.729	9984
560.790	9166
560.852	9891
560.913	9207
560.974	9366
561.036	9482
561.097	10333
561.158	10519
561.220	11510
561.281	10759
561.342	12135
561.403	15452
561.465	20448
561.526	61522
561.587	88000
561.648	19425
561.709	11471
561.771	10182
561.832	8926
561.893	9136
561.954	8867
562.015	8985
562.076	9282
562.137	8038
562.198	8184
562.259	9219
562.320	8956
562.381	11469
562.442	20188
562.503	15145
562.564	9692
562.625	8440
562.686	8188
562.747	9034
562.808	8217
562.869	7561
562.930	8042
562.991	8771
563.051	7953
563.112	8036
563.173	8387
563.234	6913
563.294	7939
563.355	8481
563.416	9360
563.477	8139
563.537	8195
563.598	7739
563.659	8672
563.720	8203
563.780	9677
563.841	10131
563.901	8379
563.962	7040
564.023	8031
564.083	8110
564.144	8789
564.204	7945
564.265	7642
564.325	8702
564.386	15664
564.446	14806
564.507	8142
564.567	7698
564.628	7357
564.688	7218
564.749	6571
564.809	7712
564.869	10218
564.930	7345
564.990	8005
565.050	6674
565.111	7744
565.171	7007
565.231	7302
565.292	8039
565.352	6778
565.412	8359
565.472	8111
565.532	10468
565.593	7748
565.653	7317
565.713	8017
565.773	9142
565.833	13276
565.893	19688
565.953	9005
566.013	7924
566.074	7211
566.134	10875
566.194	15278
566.254	18170
566.314	11295
566.374	7254
566.434	7671
566.494	7582
566.554	7522
566.614	6937
566.673	7657
566.733	9013
566.793	9048
566.853	8268
566.913	9219
566.973	8546
567.033	9549
567.092	10370
567.152	9151
567.212	9409
567.272	8221
567.331	8680
567.391	9149
567.451	9698
567.511	13384
567.570	11373
567.630	8548
567.690	8668
567.749	8959
567.809	9557
567.868	11352
567.928	12360
567.988	12447
568.047	12611
568.107	15269
568.166	19519
568.226	31026
568.285	44224
568.345	33511
568.404	26519
568.464	22549
568.523	19858
568.582	21165
568.642	25297
568.701	29410
568.761	41777
568.820	72216
568.879	64894
568.939	42956
568.998	29252
569.057	22046
569.116	17843
569.176	14570
569.235	12673
569.294	11108
569.353	11023
569.413	10723
569.472	8794
569.531	8837
569.590	8001
569.649	8208
569.708	7867
569.767	8809
569.827	9415
569.886	9388
569.945	6818
570.004	8552
570.063	7408
570.122	9679
570.181	9210
570.240	9425
570.299	9480
570.358	9662
570.417	7745
570.475	7296
570.534	9831
570.593	10199
570.652	8821
570.711	8958
570.770	8572
570.829	11110
570.887	10890
570.946	13536
571.005	8482
571.064	7976
571.122	10995
571.181	11133
571.240	8071
571.299	6349
571.357	7274
571.416	8265
571.475	7954
571.533	8421
571.592	6785
571.650	7068
571.709	7278
571.768	9612
571.826	8451
571.885	7276
571.943	6005
572.002	5557
572.060	7391
572.119	6147
572.177	6558
572.236	5560
572.294	5808
572.352	6064
572.411	7197
572.469	6267
572.528	5661
572.586	6504
572.644	6489
572.703	9378
572.761	6945
572.819	5779
572.877	5598
572.936	5018
572.994	4887
573.052	5593
573.110	5785
573.169	7070
573.227	5639
573.285	5850
573.343	5431
573.401	5502
573.459	5633
573.517	5951
573.576	6543
573.634	6072
573.692	7087
573.750	6829
573.808	5283
573.866	7129
573.924	7326
573.982	7679
574.040	5199
574.098	5660
574.155	5518
574.213	5091
574.271	6222
574.329	7075
574.387	5257
574.445	4725
574.503	4624
574.560	4145
574.618	4567
574.676	5807
574.734	4297
574.792	4748
574.849	4907
574.907	4121
574.965	4364
575.022	4710
575.080	4229
575.138	4958
575.195	6009
575.253	5972
575.311	7738
575.368	5622
575.426	3821
575.483	5692
575.541	4020
575.598	4537
575.656	5192
575.713	5127
575.771	4631
575.828	5252
575.886	5026
575.943	5737
576.001	4780
576.058	5915
576.115	4796
576.173	7712
576.230	9116
576.287	11289
576.345	8442
576.402	5682
576.459	4897
576.517	5159
576.574	5722
576.631	5617
576.688	5073
576.746	4376
576.803	4446
576.860	4416
576.917	6070
576.974	4359
577.031	4896
577.089	4468
577.146	5029
577.203	4930
577.260	5726
577.317	5901
577.374	6793
577.431	6142
577.488	5545
577.545	5141
577.602	4650
577.659	4176
577.716	4862
577.773	4069
577.830	4454
577.886	4684
577.943	4452
578.000	4178
578.057	4603
578.114	5127
578.171	4840
578.227	4015
578.284	4212
578.341	5292
578.398	4552
578.454	5098
578.511	6268
578.568	6504
578.625	4595
578.681	5074
578.738	4110
578.794	5056
578.851	4612
578.908	4235
578.964	5331
579.021	5237
579.077	4676
579.134	4370
579.190	3953
579.247	5260
579.303	4271
579.360	3905
579.416	3694
579.473	3834
579.529	4423
579.586	3780
579.642	4563
579.698	4236
579.755	5160
579.811	5828
579.867	4845
579.924	4650
579.980	4024
580.036	5145
580.093	4024
580.149	4515
580.205	4427
580.261	5173
580.317	5319
580.374	5555
580.430	6810
580.486	5872
580.542	5153
580.598	5024
580.619	5184
580.654	5467
580.692	4987
580.710	4759
580.765	5402
580.767	5429
580.823	5735
580.838	5543
580.879	5029
580.911	5132
580.935	5218
580.984	4373
580.991	4267
581.047	4299
581.057	4313
581.103	4393
581.130	4911
581.159	5447
581.203	4502
581.215	4266
581.270	5048
581.276	5049
581.326	5147
581.349	5222
581.382	5276
581.422	5043
581.438	4958
581.494	5296
581.494	5286
581.550	4674
581.567	4932
581.606	5441
581.640	5124
581.661	4978
581.713	5867
581.717	5941
581.773	4657
581.786	4574
581.829	4230
581.859	4630
581.885	5000
581.932	4853
581.940	4827
581.996	4127
582.004	4157
582.052	4323
582.077	4489
582.107	4763
582.150	4633
582.163	4559
582.219	4426
582.223	4451
582.274	4870
582.296	4966
582.330	5067
582.368	5050
582.386	5140
582.441	4261
582.441	4259
582.497	4685
582.514	4531
582.552	4506
582.587	5127
582.608	5393
582.659	5033
582.663	5002
582.719	5293
582.732	5148
582.774	4871
582.805	4723
582.830	4619
582.877	4738
582.885	4751
582.941	4280
582.950	4390
582.996	4897
583.023	4813
583.052	4754
583.095	5304
583.107	5472
583.162	4864
583.168	4955
583.218	5445
583.240	5359
583.273	5423
583.313	4751
583.328	4456
583.384	5333
583.385	5319
583.439	4950
583.458	5170
583.494	5588
583.531	5164
583.549	4920
583.603	4680
583.605	4672
583.660	4883
583.676	4731
583.715	4571
583.748	4736
583.770	4773
583.820	5418
583.825	5463
583.881	4868
583.893	4798
583.936	4783
583.965	5028
583.991	5201
584.038	5372
584.046	5393
584.101	4636
584.110	4708
584.156	5054
584.183	4884
584.211	4639
584.255	4739
584.266	4796
584.321	4600
584.328	4624
584.376	5018
584.400	5638
584.431	6222
584.472	5764
584.486	5661
584.541	4943
584.545	4956
584.596	5092
584.617	5167
584.651	5479
584.689	5880
584.706	5944
584.761	6414
584.762	6412
584.816	6233
584.834	6431
584.871	6652
584.906	6487
584.926	6498
584.978	7518
584.980	7555
585.035	8034
585.051	8260
585.090	8958
585.123	9959
585.145	10559
585.195	11462
585.200	11570
585.254	13076
585.267	13598
585.309	15121
585.340	16821
585.364	18371
585.412	20584
585.419	20926
585.473	24965
585.484	26107
585.528	32103
585.556	39076
585.583	51466
585.628	85405
585.637	96806
585.692	213962
585.700	236285
585.747	321822
585.772	254929
585.801	148005
585.845	49866
585.856	35685
585.910	20351
585.917	19001
585.965	14472
585.989	13197
586.019	12055
586.061	10904
586.074	10632
586.128	10377
586.133	10348
586.183	10425
586.205	10931
586.237	11357
586.277	10148
586.292	9708
586.346	9322
586.349	9325
586.401	9629
586.421	9863
586.455	10100
586.493	9946
586.509	10196
586.564	12307
586.565	12421
586.618	17474
586.637	17248
586.672	15530
586.709	13665
586.727	13034
586.781	13880
586.781	13875
586.835	10809
586.853	10424
586.889	10016
586.925	9334
586.944	9090
586.996	9818
586.998	9853
587.052	10057
587.068	10324
587.106	10370
587.140	10127
587.161	10182
587.212	10388
587.215	10401
587.269	11121
587.284	11164
587.323	11227
587.356	11450
587.377	11583
587.427	11948
587.431	11989
587.485	12211
587.499	12382
587.539	12583
587.571	12612
587.593	12966
587.643	14328
587.648	14436
587.702	14925
587.715	15157
587.755	15773
587.786	16203
587.810	16475
587.858	16272
587.864	16368
587.917	18752
587.930	19254
587.971	20628
588.001	21653
588.025	22761
588.073	25050
588.079	25308
588.133	27362
588.145	27962
588.187	30620
588.217	32983
588.241	35552
588.288	40749
588.295	41470
588.348	48002
588.360	49724
588.402	56435
588.431	61461
588.456	66511
588.503	77437
588.510	79073
588.564	93766
588.575	97530
588.617	114341
588.646	127267
588.671	141595
588.718	174160
588.725	182752
588.778	262579
588.789	284159
588.832	450928
588.861	586816
588.886	776812
588.932	1179105
588.939	1204736
588.993	1285848
589.004	1274302
589.047	878238
589.075	592581
589.100	443360
589.147	238430
589.154	226596
589.207	171977
589.218	163240
589.261	153540
589.290	151625
589.314	158448
589.361	178979
589.368	188243
589.421	280179
589.433	305173
589.475	520196
589.504	697593
589.528	856030
589.576	1140872
589.582	1111692
589.635	688869
589.647	592206
589.689	318091
589.718	164829
589.742	129953
589.790	80916
589.795	78027
589.849	58106
589.861	54237
589.902	47548
589.932	42819
589.955	39202
590.004	31937
590.009	31473
590.062	28291
590.075	27427
590.115	25565
590.146	24337
590.168	23466
590.218	21891
590.222	21786
590.275	20448
590.289	20146
590.328	19912
590.360	19578
590.381	19180
590.431	18528
590.435	18480
590.488	17507
590.503	17294
590.541	17132
590.574	17028
590.594	16827
590.645	16147
590.647	16141
590.700	15864
590.716	15875
590.753	15234
590.787	14591
590.806	14812
590.859	15453
590.859	15453
590.912	15235
590.930	15197
590.965	15146
591.001	15080
591.018	15022
591.071	14879
591.072	14869
591.124	14636
591.143	14578
591.177	14551
591.214	14511
591.230	14820
591.283	15941
591.285	15972
591.336	16025
591.356	16123
591.389	16763
591.427	17144
591.442	16390
591.495	13695
591.498	13499
591.547	13458
591.569	13467
591.600	13893
591.640	14384
591.653	14298
591.706	13847
591.711	13807
591.759	14107
591.782	14231
591.811	14214
591.853	14100
591.864	14154
591.917	14465
591.924	14488
591.969	14091
591.995	13943
592.022	14079
592.066	14161
592.075	14299
592.127	15240
592.137	15406
592.180	15922
592.208	16218
592.233	15344
592.279	13669
592.285	13778
592.338	14761
592.350	14970
592.390	14531
592.421	14222
592.443	14523
592.491	15155
592.495	15160
592.548	15132
592.562	15121
592.600	15136
592.633	15142
592.653	15099
592.704	14898
592.705	15004
592.775	16064
592.846	16365
592.916	16525
592.987	18524
593.058	16703
593.128	15763
593.199	15648
593.270	15242
593.341	14890
593.411	16125
593.482	16814
593.553	16063
593.623	16515
593.694	16843
593.764	17000
593.835	15381
593.906	16966
593.976	17572
594.047	17913
594.117	19555
594.188	19261
594.258	17543
594.329	18828
594.399	18665
594.470	19393
594.540	18494
594.611	19927
594.681	19158
594.751	20185
594.822	21589
594.892	22564
594.963	21147
595.033	22137
595.103	22259
595.174	22741
595.244	25691
595.314	27308
595.384	23728
595.455	23842
595.525	24120
595.595	25643
595.665	25781
595.736	23854
595.806	25432
595.876	24226
595.946	25274
596.016	26283
596.087	27478
596.157	27015
596.227	26261
596.297	29348
596.367	30148
596.437	33329
596.507	34706
596.577	36087
596.647	32781
596.717	33863
596.787	34916
596.857	35560
596.927	35577
596.997	35074
597.067	34576
597.137	36126
597.207	36465
597.277	36497
597.347	34449
597.417	34334
597.487	34836
597.557	35324
597.626	36246
597.696	37352
597.766	36434
597.836	36587
597.906	31719
597.975	31507
598.045	32072
598.115	33606
598.185	34972
598.254	40510
598.324	45017
598.394	44576
598.464	42778
598.533	41089
598.603	38336
598.672	38040
598.742	39131
598.812	39374
598.881	39775
598.951	37988
599.020	39251
599.090	40978
599.159	42216
599.229	40063
599.299	38646
599.368	39784
599.437	38799
599.507	36584
599.576	34771
599.646	33966
599.715	34625
599.785	34309
599.854	33539
599.924	32405
599.993	31528
600.062	32883
600.132	34128
600.201	36311
600.270	42636
600.340	44395
600.409	42221
600.478	41542
600.547	42605
600.617	38282
600.686	31660
600.755	29825
600.824	27730
600.894	26687
600.963	26054
601.032	26991
601.101	25145
601.170	23572
601.239	23383
601.308	25411
601.378	24399
601.447	23359
601.516	22763
601.585	25671
601.654	26771
601.723	25056
601.792	25799
601.861	26628
601.930	27820
601.999	29913
602.068	28266
602.137	30394
602.206	29440
602.275	29053
602.343	31584
602.412	32072
602.481	28513
602.550	27674
602.619	29136
602.688	30503
602.756	30030
602.825	30111
602.894	30859
602.963	30681
603.032	30996
603.100	31377
603.169	31780
603.238	32538
603.307	31842
603.375	33102
603.444	33068
603.513	33727
603.581	34412
603.650	34483
603.719	34285
603.787	34422
603.856	35700
603.924	37093
603.993	38198
604.061	39507
604.130	41038
604.198	42073
604.267	41924
604.335	42768
604.404	43810
604.472	43838
604.541	44353
604.609	45805
604.678	44289
604.746	45633
604.815	46485
604.883	46915
604.951	47720
605.020	49666
605.088	48004
605.156	49008
605.225	50870
605.293	51175
605.361	51113
605.429	51955
605.498	54020
605.566	54756
605.634	57107
605.702	58704
605.771	60865
605.839	61169
605.907	60131
605.975	58379
606.043	55839
606.111	55978
606.180	56247
606.248	57265
606.316	55486
606.384	55657
606.452	58335
606.520	62428
606.588	61147
606.656	59455
606.724	57930
606.792	55054
606.860	48473
606.928	43266
606.996	42223
607.064	41600
607.132	43582
607.200	45737
607.267	47195
607.335	48197
607.403	49011
607.471	46939
607.539	45158
607.607	45514
607.674	41332
607.742	42249
607.810	41400
607.878	42003
607.946	42910
608.013	43201
608.081	44096
608.149	45327
608.216	45518
608.284	49240
608.352	47802
608.419	45701
608.487	48347
608.555	44492
608.622	47422
608.690	50181
608.757	55389
608.825	56302
608.893	54774
608.960	53229
609.028	50399
609.095	50842
609.163	49385
609.230	44638
609.298	41758
609.365	42858
609.432	45435
609.500	50868
609.567	57589
609.635	66656
609.702	70149
609.769	67825
609.837	51325
609.904	44966
609.971	47715
610.039	57563
610.106	77261
610.173	150741
610.241	345423
610.308	165755
610.375	59579
610.442	47529
610.509	45099
610.577	45811
610.644	46580
610.711	47270
610.778	49220
610.845	51718
610.912	53491
610.980	56503
611.047	57331
611.114	55258
611.181	54221
611.248	53005
611.315	56755
611.382	57264
611.449	58878
611.516	62201
611.583	61755
611.650	60627
611.717	62848
611.784	64587
611.851	71548
611.918	79803
611.984	97208
612.051	145475
612.118	307655
612.185	755660
612.252	397797
612.319	100489
612.386	82943
612.452	75252
612.519	70327
612.586	69792
612.653	70322
612.719	71909
612.786	68919
612.853	62992
612.919	61905
612.986	62827
613.053	58639
613.120	55284
613.186	52725
613.253	54807
613.319	54267
613.386	53742
613.453	56391
613.519	58346
613.586	59834
613.652	67989
613.719	62596
613.785	59991
613.852	55199
613.918	55968
613.985	56236
614.051	60706
614.118	64812
614.184	61881
614.250	55901
614.317	55995
614.383	55230
614.449	56159
614.516	56985
614.582	56618
614.648	55548
614.715	54459
614.781	53933
614.847	53286
614.914	53380
614.980	52308
615.046	53744
615.112	54799
615.179	53828
615.245	54708
615.311	55284
615.377	59209
615.443	59541
615.509	58444
615.575	59532
615.642	59750
615.708	63089
615.774	65372
615.840	72737
615.906	85015
615.972	111498
616.038	179753
616.104	385381
616.170	941431
616.236	678767
616.302	146951
616.368	108921
616.434	77704
616.500	71628
616.565	83040
616.631	101038
616.697	80675
616.763	86483
616.829	135870
616.895	242065
616.961	207755
617.026	85263
617.092	60686
617.158	59097
617.224	56129
617.289	52519
617.355	49721
617.421	47694
617.487	48901
617.552	46222
617.618	45880
617.684	45510
617.749	46559
617.815	44262
617.880	43118
617.946	43257
618.012	44358
618.077	45130
618.143	43298
618.208	43421
618.274	46425
618.339	47516
618.405	37587
618.470	39681
618.536	37394
618.601	37588
618.667	34469
618.732	34093
618.798	33355
618.863	32557
618.928	32175
618.994	34537
619.059	37511
619.124	41763
619.190	35264
619.255	32268
619.320	32855
619.386	32622
619.451	31361
619.516	31406
619.581	32668
619.647	31787
619.712	31800
619.777	29748
619.842	31649
619.907	32286
619.972	32159
620.038	32307
620.103	30799
620.168	30585
620.233	32174
620.298	31862
620.363	31405
620.428	33468
620.493	32883
620.558	33574
620.623	35682
620.688	34595
620.753	34229
620.818	34304
620.883	35568
620.948	35089
621.013	34559
621.078	34226
621.143	33535
621.207	36770
621.272	34467
621.337	34012
621.402	34244
621.467	34436
621.532	34380
621.596	33036
621.661	31982
621.726	31949
621.791	31715
621.855	33670
621.920	32612
621.985	32079
622.049	33571
622.114	32818
622.179	33528
622.243	34148
622.308	34788
622.373	37626
622.437	36316
622.502	34608
622.566	34277
622.631	33253
622.695	35920
622.760	34775
622.824	34919
622.889	35321
622.953	36239
623.018	46680
623.082	44393
623.147	36695
623.211	36194
623.276	36206
623.340	32862
623.404	33106
623.469	33056
623.533	33004
623.597	30870
623.662	31505
623.726	29703
623.790	27926
623.854	26553
623.919	27984
623.983	28460
624.047	29127
624.111	29075
624.176	29864
624.240	29667
624.304	32435
624.368	29543
624.432	30287
624.496	30905
624.560	34766
624.625	35103
624.689	31769
624.753	32852
624.817	31996
624.881	30825
624.945	28178
625.009	27119
625.073	28973
625.137	29830
625.201	34394
625.265	33417
625.329	29337
625.393	31045
625.456	29262
625.520	31570
625.584	31202
625.648	33443
625.712	35372
625.776	44540
625.839	44602
625.903	28933
625.967	25169
626.031	30593
626.095	36310
626.158	28121
626.222	20843
626.286	21053
626.349	18928
626.413	17484
626.477	19336
626.540	18477
626.604	17085
626.668	18887
626.731	17257
626.795	17260
626.858	18053
626.922	16882
626.986	17649
627.049	16464
627.113	18634
627.176	17889
627.240	16831
627.303	17984
627.366	16795
627.430	17516
627.493	16371
627.557	15805
627.620	18076
627.684	18126
627.747	17841
627.810	15122
627.874	15433
627.937	13950
628.000	16923
628.064	14430
628.127	10704
628.190	13556
628.253	12634
628.317	11722
628.380	12125
628.443	11188
628.506	12040
628.569	10609
628.632	9777
628.696	10525
628.759	9224
628.822	9308
628.885	9241
628.948	10075
629.011	8792
629.074	9616
629.137	8440
629.200	8289
629.263	9733
629.326	7480
629.389	8409
629.452	8386
629.515	8008
629.578	8396
629.641	9526
629.704	8431
629.767	8551
629.830	8959
629.892	8458
629.955	7467
630.018	11395
630.081	10656
630.144	12385
630.207	8434
630.269	10266
630.332	7784
630.395	8182
630.458	8240
630.520	6687
630.583	8990
630.646	7519
630.708	8033
630.771	6882
630.834	8630
630.896	7738
630.959	8576
631.021	7250
631.084	7814
631.146	8319
631.209	8914
631.272	7437
631.334	7871
631.397	8116
631.459	8041
631.522	10102
631.584	10340
631.646	11760
631.709	11850
631.771	12594
631.834	10849
631.896	9717
631.958	8777
632.021	8379
632.083	7841
632.145	8220
632.208	7504
632.270	8295
632.332	7169
632.395	6336
632.457	7811
632.519	6965
632.581	8361
632.643	6323
632.706	7159
632.768	5676
632.830	8481
632.892	7193
632.954	7515
633.016	8339
633.078	6801
633.141	6972
633.203	7216
633.265	7237
633.327	7748
633.389	7798
633.451	9167
633.513	9541
633.575	10094
633.637	9490
633.698	9390
633.760	8552
633.822	8035
633.884	8422
633.946	8088
634.008	8172
634.070	9763
634.132	10269
634.193	11981
634.255	13212
634.317	13236
634.379	13534
634.441	10827
634.502	9743
634.564	9662
634.626	8764
634.687	8931
634.749	7156
634.811	7983
634.873	5837
634.934	7633
634.996	7267
635.057	6024
635.119	6976
635.181	7182
635.242	7502
635.304	5377
635.365	9615
635.427	7460
635.488	7795
635.550	6496
635.611	7603
635.673	6604
635.734	9773
635.796	8728
635.857	10889
635.918	10289
635.980	13781
636.041	12201
636.102	14980
636.164	14332
636.225	14192
636.286	10436
636.348	9996
636.409	8670
636.470	7443
636.531	9308
636.593	6592
636.654	7418
636.715	6891
636.776	6237
636.838	5380
636.899	6520
636.960	5843
637.021	5804
637.082	5411
637.143	6922
637.204	4979
637.265	5119
637.326	5965
637.387	6205
637.448	3869
637.509	6146
637.570	5407
637.631	6509
637.692	4012
637.753	4327
637.814	6245
637.875	5337
637.936	5648
637.997	5064
638.058	4525
638.119	5614
638.179	5400
638.240	5032
638.301	4850
638.362	4651
638.423	5153
638.483	6118
638.544	3361
638.605	4485
638.666	4041
638.726	5195
638.787	5718
638.848	4180
638.908	4704
638.969	5505
639.030	3948
639.090	3687
639.151	4558
639.211	6074
639.272	7421
639.332	10794
639.393	6758
639.453	4515
639.514	6138
639.574	5020
639.635	3950
639.695	5412
639.756	3155
639.816	5139
639.877	6392
639.937	12125
639.997	13373
640.058	4139
640.118	4537
640.178	5560
640.239	4171
640.299	4958
640.359	3712
640.420	4644
640.480	5923
640.540	6639
640.600	6544
640.661	6471
640.721	4326
640.781	7747
640.841	4264
640.901	5395
640.961	4991
641.021	5809
641.082	6445
641.142	8658
641.202	6476
641.262	2977
641.322	4302
641.382	3046
641.442	5800
641.502	3806
641.562	4122
641.622	4376
641.682	4810
641.742	5668
641.802	4915
641.861	5848
641.921	5136
641.981	6435
642.041	5581
642.101	5754
642.161	3307
642.221	3156
642.280	3616
642.340	3292
642.400	3756
642.460	4638
642.519	3187
642.579	4417
642.639	4654
642.698	2407
642.758	6841
642.818	4315
642.877	3236
642.937	4785
642.997	5206
643.056	6847
643.116	2643
643.175	5469
643.235	4612
643.294	4977
643.354	5885
643.414	6573
643.473	9602
643.532	13170
643.592	19230
643.651	33226
643.711	58278
643.770	118123
643.830	291517
643.889	587964
643.948	119890
644.008	18829
644.067	10158
644.126	7666
644.186	7439
644.245	6139
644.304	3947
644.363	6520
644.423	3284
644.482	5532
644.541	5239
644.600	3797
644.659	8162
644.719	9220
644.778	16327
644.837	27802
644.896	61023
644.955	136699
645.014	39898
645.073	8134
645.132	5375
645.191	5637
645.250	4807
645.309	6135
645.368	5144
645.427	9141
645.486	14022
645.545	26002
645.604	6827
645.663	4890
645.722	4967
645.781	6728
645.840	7683
645.898	11368
645.957	18232
646.016	28752
646.075	54934
646.134	106071
646.192	295245
646.251	400847
646.310	50790
646.369	12692
646.427	10198
646.486	6790
646.545	5421
646.603	5271
646.662	4489
646.721	4453
646.779	4633
646.838	4047
646.896	7448
646.955	8979
647.014	15461
647.072	31468
647.131	86361
647.189	36904
647.248	5012
647.306	4840
647.365	4360
647.423	2180
647.481	4251
647.540	1910
647.598	2127
647.657	2880
647.715	3097
647.773	1341
647.832	3215
647.890	1778
647.948	1913
648.007	2579
648.065	1424
648.123	2179
648.181	2733
648.240	2201
648.298	1196
648.356	2395
648.414	2376
648.472	2450
648.531	1966
648.589	2112
648.647	1448
648.705	2497
648.763	1895
648.821	3063
648.879	2957
648.937	3592
648.995	5343
649.053	8319
649.111	13795
649.169	23012
649.227	41180
649.285	88985
649.343	250330
649.401	108103
649.459	22118
649.516	13294
649.574	5241
649.632	9031
649.690	9257
649.748	8177
649.806	9555
649.863	19947
649.921	61170
649.979	35206
650.037	4463
650.094	1738
650.152	2442
650.210	710
650.268	2902
650.325	1943
650.383	1743
650.440	1600
650.498	1877
650.556	1643
650.613	906
650.671	1860
650.728	1265
650.786	1519
650.843	2638
650.901	-66
650.958	2089
651.016	1387
651.073	764
651.131	505
651.188	553
651.246	1202
651.303	1220
651.360	1331
651.418	1206
651.475	1496
651.532	564
651.590	1068
651.647	739
651.704	911
651.762	930
651.819	1195
651.876	408
651.933	1302
651.990	1868
652.048	-228
652.105	292
652.162	1708
652.219	330
652.276	1514
652.333	1060
652.390	717
652.448	958
652.505	735
652.562	607
652.619	797
652.676	1420
652.733	1963
652.790	373
652.847	215
652.904	1049
652.961	-336
653.017	138
653.074	2011
653.131	-19
653.188	595
653.245	667
653.302	413
653.359	926
653.415	1253
653.472	642
653.529	1193
653.586	672
653.642	-180
653.699	766
653.756	322
653.813	140
653.869	1128
653.926	359
653.983	-41
654.039	306
654.096	414
654.152	1804
654.209	-856
654.266	1255
654.322	-379
654.379	1081
654.435	-12
654.492	1100
654.548	1843
654.605	2341
654.661	1613
654.717	749
654.774	1414
654.830	970
654.887	543
654.943	791
655.000	1115
655.056	724
655.112	365
655.168	-57
655.225	822
655.281	1408
655.337	868
655.394	1365
655.450	1769
655.506	1277
655.562	906
655.618	2441
655.675	-462
655.731	847
655.787	-119
655.843	1357
655.899	-850
655.955	1222
656.011	1352
656.067	208
656.123	1793
656.179	1543
656.235	2363
656.291	477
656.347	2015
656.403	896
656.459	1599
656.515	1453
656.571	332
656.627	467
656.683	676
656.739	829
656.795	758
656.850	334
656.906	1950
656.962	973
657.018	-109
657.074	627
657.129	1290
657.185	2673
657.241	6236
657.297	2576
657.352	796
657.408	-495
657.464	2036
657.519	136
657.575	-387
657.630	379
657.686	599
657.742	-682
657.797	267
657.853	246
657.908	774
657.964	-337
658.019	906
658.075	754
658.130	412
658.186	-935
658.241	150
658.297	-575
658.352	416
658.407	960
658.463	374
658.518	456
658.573	700
658.629	-905
658.684	195
658.739	1156
658.795	-915
658.850	387
658.905	484
658.960	-159
659.016	-1149
659.071	573
659.126	1007
659.181	452
659.236	3435
659.291	3002
659.346	214
659.401	487
659.457	297
659.512	-37
659.567	1934
659.622	102
659.677	166
659.732	-1092
659.787	1095
659.842	3
659.897	-294
659.952	500
660.007	563
660.061	102
660.116	-799
660.171	16
660.226	529
660.281	1095
660.336	-87
660.391	561
660.445	-695
660.500	217
660.555	225
660.610	-362
660.664	-128
660.719	-373
660.774	114
660.828	829
660.883	520
660.938	834
660.992	-294
661.047	131
661.101	-723
661.156	-377
661.211	-297
661.265	-88
661.320	-304
661.374	511
661.429	-138
661.483	926
661.538	-250
661.592	-262
661.647	141
661.701	500
661.755	-511
661.810	497
661.864	-260
661.919	-150
661.973	899
662.027	97
662.081	-602
662.136	-28
662.190	260
662.244	321
662.299	-354
662.353	229
662.407	-233
662.461	-443
662.515	572
662.569	-546
662.624	413
662.678	-102
662.732	86
662.786	-788
662.840	504
662.894	494
662.948	-206
663.002	-582
663.056	-147
663.110	-997
663.164	-427
663.218	-567
663.272	397
663.326	767
663.380	146
663.434	-119
663.488	-37
663.542	-53
663.595	697
663.649	127
663.703	354
663.757	91
663.811	-199
663.864	206
663.918	581
663.972	71
664.026	761
664.079	-480
664.133	591
664.187	-334
664.240	-948
664.294	-725
664.348	508
664.401	-96
664.455	-349
664.508	-108
664.562	-20
664.615	-136
664.669	-253
664.722	257
664.776	267
664.829	-744
664.883	96
664.936	-560
664.990	45
665.043	-290
665.097	-987
665.150	350
665.203	-358
665.257	-509
665.310	-107
665.363	769
665.417	-201
665.470	766
665.523	-617
665.576	264
665.630	381
665.683	112
665.736	41
665.789	593
665.842	102
665.895	373
665.949	836
666.002	529
666.055	-726
666.108	515
666.161	182
666.214	714
666.267	516
666.320	739
666.373	-265
666.426	606
666.479	286
666.532	-403
666.585	351
666.638	533
666.691	351
666.744	213
666.796	320
666.849	487
666.902	990
666.955	-74
667.008	-463
667.060	-216
667.113	-256
667.166	167
667.219	-222
667.271	-229
667.324	100
667.377	210
667.430	142
667.482	-189
667.535	-302
667.587	800
667.640	202
667.693	358
667.745	3404
667.798	2945
667.850	-373
667.903	200
667.955	134
668.008	-138
668.060	-416
668.113	-88
668.165	541
668.218	-166
668.270	497
668.322	158
668.375	-333
668.427	-335
668.479	-510
668.532	-36
668.584	2
668.636	-377
668.689	269
668.741	-410
668.793	-482
668.845	-528
668.898	857
668.950	273
669.002	362
669.054	450
669.106	-466
669.158	81
669.211	181
669.263	542
669.315	822
669.367	-68
669.419	-76
669.471	381
669.523	480
669.575	1568
669.627	473
669.679	229
669.731	-432
669.783	881
669.835	256
669.886	-136
669.938	610
669.990	-251
670.042	-44
670.094	-729
670.146	55
670.197	-547
670.249	700
670.301	553
670.353	1390
670.404	2216
670.456	3558
670.508	5577
670.560	8871
670.611	15241
670.663	25301
670.715	66252
670.766	106365
670.818	31865
670.869	4849
670.921	2460
670.972	1872
671.024	506
671.075	1344
671.127	281
671.178	-125
671.230	581
671.281	453
671.333	163
671.384	550
671.436	1336
671.487	3300
671.538	4532
671.590	7460
671.641	11065
671.692	21652
671.744	43189
671.795	25843
671.846	5643
671.897	2951
671.949	1240
672.000	1248
672.051	457
672.102	422
672.153	-277
672.204	-177
672.256	547
672.307	-106
672.358	423
672.409	219
672.460	162
672.511	172
672.562	-101
672.613	-200
672.664	86
672.715	-415
672.766	-251
672.817	-353
672.868	-113
672.919	203
672.970	-709
673.021	-333
673.071	-129
673.122	-202
673.173	576
673.224	-347
673.275	-777
673.326	-1
673.376	167
673.427	-452
673.478	-346
673.528	-291
673.579	-92
673.630	-366
673.680	706
673.731	87
673.782	-734
673.832	-403
673.883	559
673.934	-190
673.984	298
674.035	539
674.085	328
674.136	-157
674.186	-652
674.237	94
674.287	371
674.338	-549
674.388	-937
674.438	-116
674.489	-620
674.539	826
674.589	-123
674.640	-261
674.690	96
674.740	-479
674.791	-41
674.841	104
674.891	352
674.942	-58
674.992	-732
675.042	-613
675.092	-699
675.142	-255
675.193	-718
675.243	-826
675.293	-475
675.343	-297
675.393	-654
675.443	52
675.493	-437
675.543	42
675.593	-333
675.643	-658
675.693	-297
675.743	470
675.793	678
675.843	-111
675.893	212
675.943	341
675.993	-439
676.043	-634
676.093	-108
676.142	-684
676.192	-43
676.242	-726
676.292	105
676.341	-762
676.391	-638
676.441	-904
676.491	-588
676.540	-588
676.590	28
676.640	-821
676.689	-889
676.739	-482
676.789	-357
676.838	-342
676.888	-48
676.937	-599
676.987	-198
677.037	-730
677.086	-868
677.136	-233
677.185	-867
677.235	-1262
677.284	-915
677.333	-1033
677.383	-391
677.432	-74
677.482	-952
677.531	-398
677.580	-970
677.630	-975
677.679	-1412
677.728	-390
677.778	159
677.827	-1231
677.876	-1216
677.925	-534
677.975	-820
678.024	-1127
678.073	-660
678.122	-809
678.171	-571
678.220	-102
678.269	-215
678.319	683
678.368	-924
678.417	-285
678.466	-767
678.515	-404
678.564	-673
678.613	-278
678.662	-524
678.711	206
678.760	354
678.809	-709
678.857	-1030
678.906	-680
678.955	-1224
679.004	-144
679.053	-1191
679.102	-1380
679.151	-1282
679.199	-1192
679.248	-614
679.297	-47
679.346	-902
679.394	-643
679.443	-100
679.492	-125
679.540	-1092
679.589	-923
679.638	-380
679.686	-40
679.735	-1308
679.784	-678
679.832	-158
679.881	-688
679.929	-1204
679.978	-761
680.026	-1341
680.075	-801
680.123	-1473
680.172	-621
680.220	-1366
680.268	-376
680.317	-258
680.365	-740
680.414	-1016
680.462	-582
680.510	-639
680.559	-826
680.607	-1287
680.655	-866
680.703	-1341
680.752	-547
680.800	-1837
680.848	-731
680.896	-996
680.945	-1177
680.993	-658
681.041	-22
681.089	-1105
681.137	-54
681.185	-1330
681.233	-469
681.258	-591
681.281	-716
681.329	-851
681.377	-1469
681.380	-1423
681.425	-771
681.473	-189
681.502	-392
681.521	-550
681.569	-914
681.617	-878
681.624	-732
681.665	144
681.713	-677
681.745	-732
681.761	-767
681.809	-240
681.857	-768
681.867	-701
681.904	-526
681.952	-266
681.989	-108
682.000	-62
682.048	-1102
682.096	-1135
682.111	-1145
682.143	-1239
682.191	-498
682.233	-183
682.239	-142
682.286	-600
682.334	-380
682.354	-373
682.382	-385
682.430	-652
682.476	339
682.477	352
682.525	-439
682.572	-574
682.598	-697
682.620	-799
682.667	145
682.715	-874
682.720	-816
682.763	-370
682.810	-274
682.841	-49
682.857	32
682.905	-842
682.952	257
682.963	135
683.000	-306
683.047	-358
683.085	524
683.095	747
683.142	274
683.190	-371
683.206	-654
683.237	-1154
683.284	85
683.328	-688
683.332	-763
683.379	-112
683.426	-101
683.449	-408
683.473	-713
683.521	-455
683.568	129
683.571	144
683.615	240
683.662	746
683.693	267
683.709	-30
683.757	-473
683.804	602
683.814	498
683.851	206
683.898	94
683.936	491
683.945	573
683.992	145
684.039	387
684.057	497
684.086	614
684.133	786
684.179	-52
684.180	-87
684.227	220
684.274	1252
684.300	1106
684.321	994
684.368	160
684.415	974
684.422	847
684.462	18
684.509	377
684.543	470
684.556	508
684.603	66
684.649	-84
684.665	69
684.696	407
684.743	114
684.786	37
684.790	26
684.837	652
684.883	893
684.908	668
684.930	378
684.977	587
685.023	716
685.029	629
685.070	-18
685.117	6
685.150	247
685.164	361
685.210	635
685.257	1146
685.272	953
685.303	525
685.350	796
685.393	658
685.396	651
685.443	1213
685.490	1933
685.514	1970
685.536	1812
685.583	1280
685.629	1179
685.636	1125
685.675	1024
685.722	989
685.757	841
685.768	753
685.815	1158
685.861	1269
685.878	1101
685.908	934
685.954	1359
686.000	1441
686.000	1439
686.047	1415
686.093	1350
686.121	1305
686.139	1215
686.185	1746
686.232	1179
686.242	1127
686.278	953
686.324	1450
686.363	854
686.370	763
686.416	1307
686.463	1057
686.484	993
686.509	851
686.555	1044
686.601	1030
686.606	983
686.647	635
686.693	850
686.727	225
686.739	25
686.785	983
686.831	978
686.848	1206
686.877	1519
686.923	1501
686.969	1187
686.969	1185
687.015	1066
687.061	1062
687.090	1184
687.107	1226
687.153	1706
687.199	1263
687.211	1234
687.245	1190
687.291	1280
687.332	1420
687.336	1435
687.382	1893
687.428	1490
687.453	1313
687.474	1076
687.520	1322
687.565	1158
687.574	1020
687.611	776
687.657	1733
687.695	1746
687.702	1734
687.748	1872
687.794	2473
687.816	2285
687.839	1972
687.885	1906
687.931	1649
687.937	1674
687.976	2007
688.022	1473
688.058	1773
688.067	1824
688.113	1838
688.158	1361
688.179	1575
688.204	1852
688.249	1782
688.295	1957
688.300	1903
688.340	1584
688.386	2113
688.421	1930
688.431	1862
688.477	2085
688.522	2106
688.542	2001
688.567	1921
688.613	1891
688.658	1309
688.663	1376
688.703	1761
688.749	1574
688.784	1865
688.794	1996
688.839	1790
688.884	2003
688.905	1868
688.930	1640
688.975	1970
689.020	1281
689.026	1341
689.065	1965
689.110	1893
689.146	2203
689.155	2221
689.201	1738
689.246	1662
689.267	1773
689.291	2018
689.336	2206
689.381	2003
689.388	2028
689.426	2167
689.471	2203
689.509	1948
689.516	1891
689.561	2164
689.606	2034
689.630	2030
689.651	2092
689.696	1899
689.741	2052
689.750	2087
689.785	2110
689.830	2012
689.871	1619
689.875	1584
689.920	2085
689.965	1820
689.992	1785
690.010	1845
690.054	1659
690.099	2116
690.112	2108
690.144	2013
690.189	1496
690.233	1466
690.233	1472
690.278	2426
690.323	2766
690.354	2443
690.367	2188
690.412	2381
690.457	2487
690.474	2383
690.501	2333
690.546	1804
690.590	2383
690.595	2342
690.635	2083
690.680	2384
690.716	2160
690.724	2128
690.769	2566
690.813	2636
690.836	2502
690.857	2350
690.902	2468
690.946	2748
690.957	2667
690.991	2587
691.035	3150
691.077	3013
691.080	2995
691.124	2978
691.168	3400
691.198	2944
691.213	2757
691.257	3106
691.301	2693
691.318	2752
691.346	2836
691.390	2494
691.434	2689
691.439	2642
691.478	2448
691.522	2448
691.559	2615
691.567	2689
691.611	2950
691.655	3255
691.680	3471
691.699	3469
691.743	3073
691.787	3040
691.800	2959
691.831	2912
691.875	3047
691.919	2934
691.921	2918
691.964	2714
692.008	3082
692.041	2865
692.052	2805
692.096	2951
692.139	3026
692.162	2990
692.183	2865
692.227	2510
692.271	2549
692.282	2502
692.315	2616
692.359	2877
692.402	2945
692.403	2954
692.447	2917
692.490	2939
692.523	3437
692.534	3562
692.578	3301
692.622	3064
692.643	3138
692.666	3136
692.709	2701
692.753	2558
692.763	2482
692.797	2489
692.840	2633
692.884	2420
692.884	2428
692.928	3003
692.971	3047
693.004	2906
693.015	2856
693.059	2895
693.102	3095
693.124	3214
693.146	3296
693.189	2926
693.233	3066
693.245	3075
693.276	3194
693.320	3019
693.363	2959
693.365	2958
693.407	3462
693.450	3574
693.485	3822
693.493	3836
693.537	3861
693.580	3647
693.605	3756
693.624	3919
693.667	4130
693.710	4082
693.725	4083
693.753	4359
693.797	4847
693.840	5317
693.845	5377
693.883	5097
693.926	4586
693.966	4114
693.970	4090
694.013	3876
694.056	3532
694.086	3145
694.099	3187
694.142	3578
694.185	3822
694.206	3863
694.229	3889
694.272	4318
694.315	4432
694.326	4512
694.358	4581
694.401	4443
694.444	4271
694.446	4250
694.487	4082
694.530	4142
694.566	3867
694.573	3838
694.616	3700
694.659	3622
694.686	3712
694.702	3827
694.745	3789
694.787	3823
694.806	3837
694.830	3809
694.873	3770
694.916	3610
694.926	3569
694.959	3662
695.002	3821
695.044	4135
695.046	4120
695.087	3947
695.130	4046
695.166	3988
695.172	3972
695.215	3950
695.258	3673
695.286	3701
695.301	3773
695.343	3525
695.386	3652
695.406	3587
695.428	3655
695.471	3901
695.514	4098
695.526	4116
695.556	4189
695.599	4475
695.641	4515
695.646	4544
695.684	4571
695.726	4188
695.766	3924
695.769	3926
695.811	3923
695.854	3664
695.886	3615
695.896	3694
695.938	3852
695.981	3978
696.005	4062
696.023	4122
696.065	4395
696.108	4474
696.125	4487
696.150	4543
696.192	4641
696.235	4674
696.245	4736
696.277	4817
696.319	4679
696.361	4547
696.365	4515
696.404	4206
696.446	3982
696.485	3788
696.488	3847
696.530	4276
696.572	4968
696.604	5283
696.614	5256
696.656	5126
696.698	5007
696.724	4986
696.740	4970
696.783	4711
696.825	4699
696.844	4592
696.867	4614
696.909	4646
696.951	4585
696.964	4573
696.992	4642
697.034	4828
697.076	4948
697.083	4937
697.118	5048
697.160	5227
697.202	5442
697.203	5426
697.244	5255
697.286	5260
697.323	5046
697.327	5069
697.369	5323
697.411	5402
697.442	5397
697.453	5389
697.494	5465
697.536	5451
697.562	5438
697.578	5537
697.620	5762
697.661	5982
697.682	6049
697.703	6114
697.744	6242
697.786	6358
697.801	6392
697.828	6412
697.869	6347
697.911	6295
697.921	6277
697.952	6318
697.994	6304
698.035	6279
698.040	6264
698.077	6102
698.118	5751
698.160	5501
698.160	5480
698.201	5419
698.243	5329
698.279	5198
698.284	5236
698.325	5457
698.367	5651
698.399	5799
698.408	5776
698.449	5579
698.491	5380
698.518	5205
698.532	5354
698.573	5805
698.614	6241
698.638	6472
698.656	6495
698.697	6509
698.738	6509
698.757	6483
698.779	6372
698.820	6154
698.862	5911
698.877	5810
698.903	6079
698.944	6463
698.985	6859
698.996	6948
699.026	6740
699.067	6421
699.116	6023
699.235	4724
699.354	6328
699.474	5762
699.593	6354
699.713	6723
699.832	6319
699.951	7041
700.070	6527
700.190	5474
700.309	5744
700.428	5848
700.547	5987
700.667	5698
700.786	6822
700.905	5497
701.024	5512
701.143	6157
701.262	5845
701.381	5252
701.500	6127
701.619	7927
701.738	5625
701.857	5425
701.976	5204
702.095	5963
702.214	6677
702.333	6517
702.452	6076
702.571	5375
702.690	5135
702.809	4863
702.928	5600
703.047	5885
703.165	5790
703.284	5650
703.403	5271
703.522	6082
703.640	5871
703.759	7535
703.878	7035
703.997	5184
704.115	5165
704.234	5106
704.353	5296
704.471	4672
704.590	4580
704.708	5146
704.827	4363
704.946	4639
705.064	4682
705.183	4440
705.301	4517
705.420	6187
705.538	4796
705.656	4768
705.775	4916
705.893	5924
706.012	5605
706.130	5378
706.249	5474
706.367	4850
706.485	5054
706.604	5817
706.722	5875
706.840	6533
706.958	6601
707.077	5347
707.195	4519
707.313	4912
707.431	4428
707.549	4909
707.668	5111
707.786	5305
707.904	3771
708.022	4287
708.140	4749
708.258	4575
708.376	6064
708.494	4330
708.612	4760
708.730	5318
708.848	5585
708.966	6129
709.084	6067
709.202	5149
709.320	4920
709.438	4861
709.556	4823
709.674	4810
709.791	4285
709.909	4753
710.027	4528
710.145	5084
710.263	4620
710.380	4467
710.498	5609
710.616	4998
710.733	4783
710.851	5016
710.969	4320
711.086	3727
711.204	4326
711.322	4590
711.439	4348
711.557	4773
711.674	4444
711.792	4178
711.909	4180
712.027	4288
712.144	4231
712.262	4716
712.379	4791
712.497	6002
712.614	5635
712.732	5873
712.849	4420
712.966	5695
713.084	8006
713.201	4922
713.318	5435
713.436	5495
713.553	6515
713.670	6456
713.787	5759
713.905	6104
714.022	5762
714.139	6313
714.256	8413
714.373	13226
714.490	25846
714.608	85110
714.725	374008
714.842	265990
714.959	16860
715.076	8893
715.193	7598
715.310	5762
715.427	5883
715.544	5248
715.661	5680
715.778	4208
715.895	5215
716.011	4795
716.128	4730
716.245	4989
716.362	7315
716.479	5997
716.596	4617
716.713	4978
716.829	4644
716.946	4768
717.063	4158
717.180	4501
717.296	4353
717.413	5024
717.530	4007
717.646	4079
717.763	3903
717.880	3480
717.996	4055
718.113	4200
718.229	4469
718.346	2869
718.462	4498
718.579	7141
718.695	14563
718.812	6072
718.928	5717
719.045	4137
719.161	4321
719.277	3405
719.394	3786
719.510	4195
719.626	5059
719.743	6557
719.859	10510
719.975	23252
720.092	106545
720.208	190640
720.324	14706
720.440	5347
720.557	5817
720.673	11343
720.789	9432
720.905	14014
721.021	5313
721.137	3610
721.253	4409
721.369	3300
721.486	3939
721.602	4722
721.718	3128
721.834	3328
721.950	2844
722.066	3490
722.181	2771
722.297	3957
722.413	4550
722.529	3587
722.645	4263
722.761	3120
722.877	2835
722.993	4260
723.108	4642
723.224	3185
723.340	3526
723.456	3489
723.571	3031
723.687	3024
723.803	3660
723.918	3189
724.034	3208
724.150	2621
724.265	2937
724.381	5955
724.497	5151
724.612	2664
724.728	2592
724.843	2791
724.959	3475
725.074	6216
725.190	5527
725.305	3410
725.421	2589
725.536	1955
725.651	3101
725.767	2916
725.882	2531
725.997	3113
726.113	2905
726.228	2370
726.343	2642
726.459	2028
726.574	2489
726.689	2357
726.804	2447
726.920	2293
727.035	2099
727.150	2427
727.265	2364
727.380	2872
727.495	3008
727.610	2484
727.725	1727
727.841	3181
727.956	3200
728.071	3090
728.186	2820
728.301	2171
728.416	3475
728.531	3314
728.645	2460
728.760	3215
728.875	4304
728.990	3281
729.105	2568
729.220	2639
729.335	3014
729.449	2068
729.564	2251
729.679	2478
729.794	1760
729.908	2935
730.023	2136
730.138	2298
730.253	2628
730.367	2521
730.482	1803
730.596	2143
730.711	3466
730.826	3167
730.940	2426
731.055	3268
731.169	2098
731.284	2496
731.398	2099
731.513	3255
731.627	3800
731.742	3269
731.856	4310
731.970	4270
732.085	5463
732.199	7922
732.313	13669
732.428	40516
732.542	124169
732.656	52730
732.771	8708
732.885	5217
732.999	3748
733.113	4429
733.227	4504
733.342	3824
733.456	4272
733.570	3826
733.684	3432
733.798	3390
733.912	3076
734.026	2511
734.140	3517
734.254	3116
734.368	4882
734.482	5022
734.596	2621
734.710	3756
734.824	2744
734.938	2823
735.052	2096
735.166	3613
735.280	3487
735.393	3160
735.507	2747
735.621	3021
735.735	4702
735.849	3704
735.962	3384
736.076	3208
736.190	2083
736.303	3978
736.417	4559
736.531	3513
736.644	2618
736.758	3046
736.872	2152
736.985	3291
737.099	3020
737.212	2650
737.326	2349
737.439	2530
737.553	2165
737.666	2867
737.780	1781
737.893	2902
738.007	2211
738.120	2174
738.233	2657
738.347	2857
738.460	3286
738.573	2798
738.687	2572
738.800	3932
738.913	3968
739.026	2636
739.140	2991
739.253	3071
739.366	2716
739.479	1953
739.592	1481
739.705	2240
739.818	2899
739.932	1908
740.045	2338
740.158	2436
740.271	2866
740.384	2135
740.497	2827
740.610	3591
740.723	2884
740.836	2972
740.949	3835
741.062	5107
741.174	3654
741.287	2010
741.400	2081
741.513	2988
741.626	2882
741.739	2475
741.851	2095
741.964	2526
742.077	1667
742.189	2282
742.302	3517
742.415	3811
742.527	1797
742.640	2529
742.753	2013
742.865	1933
742.978	1790
743.090	2267
743.203	2022
743.316	1535
743.428	1627
743.541	2063
743.653	1683
743.766	1725
743.878	2351
743.990	2248
744.103	3577
744.215	3244
744.327	2900
744.440	3486
744.552	6549
744.664	2333
744.777	2068
744.889	1484
745.001	1916
745.113	1376
745.226	1491
745.338	2086
745.450	1964
745.562	1308
745.674	1630
745.786	1951
745.898	1587
746.010	1055
746.122	1457
746.234	1914
746.347	1667
746.459	1417
746.570	1767
746.682	2627
746.794	3681
746.906	1479
747.018	1002
747.130	1371
747.242	943
747.354	1541
747.466	1234
747.577	1574
747.689	850
747.801	1432
747.913	1227
748.024	1399
748.136	1723
748.248	759
748.359	1526
748.471	1879
748.583	1809
748.694	863
748.806	1507
748.918	2246
749.029	1876
749.141	1922
749.252	2109
749.364	2708
749.475	6788
749.587	2180
749.698	715
749.809	1323
749.921	1418
750.032	1221
750.144	494
750.255	986
750.366	1386
750.478	1615
750.589	1606
750.700	1664
750.811	2070
750.923	3160
751.034	7759
751.145	5847
751.256	1303
751.367	1187
751.479	1814
751.590	1627
751.701	980
751.812	488
751.923	1485
752.034	1471
752.145	1348
752.256	1217
752.367	1229
752.478	1188
752.589	1676
752.700	1152
752.811	316
752.922	1185
753.032	1437
753.143	1906
753.254	550
753.365	1972
753.476	934
753.586	517
753.697	1740
753.808	720
753.919	642
754.029	1014
754.140	1102
754.251	158
754.361	155
754.472	667
754.582	665
754.693	504
754.804	663
754.914	326
755.025	1144
755.135	1719
755.246	1323
755.356	901
755.466	1186
755.577	916
755.687	360
755.798	665
755.908	1153
756.018	401
756.129	787
756.239	1054
756.349	256
756.460	1708
756.570	1469
756.680	754
756.790	1164
756.900	1479
757.011	936
757.121	429
757.231	227
757.341	425
757.451	693
757.561	628
757.671	360
757.781	689
757.891	884
758.001	295
758.111	986
758.221	1123
758.331	1860
758.441	1369
758.551	2319
758.661	2113
758.771	1712
758.880	1147
758.990	1200
759.100	1136
759.210	1609
759.320	1318
759.429	1399
759.539	1419
759.649	893
759.758	1595
759.868	2603
759.978	1955
760.087	1878
760.197	1644
760.307	1829
760.416	1549
760.526	762
760.635	1653
760.745	1820
760.854	1637
760.964	2733
761.073	1867
761.182	2152
761.292	1444
761.401	2214
761.511	856
761.620	791
761.729	714
761.839	656
761.948	1128
762.057	1310
762.166	952
762.276	595
762.385	1370
762.494	1156
762.603	897
762.712	1951
762.822	531
762.931	807
763.040	724
763.149	-106
763.258	865
763.367	373
763.476	885
763.585	1226
763.694	445
763.803	864
763.912	1290
764.021	968
764.130	1084
764.238	1027
764.347	915
764.456	621
764.565	1162
764.674	1090
764.783	268
764.891	961
765.000	2096
765.109	1620
765.217	763
765.326	1623
765.435	1563
765.543	2534
765.652	2350
765.761	2786
765.869	4639
765.978	7612
766.086	16030
766.195	34404
766.303	111582
766.412	350392
766.520	194194
766.629	27650
766.737	10413
766.846	7214
766.954	4223
767.062	4618
767.171	2375
767.279	2844
767.387	1266
767.496	1483
767.604	1572
767.712	2032
767.820	1265
767.928	974
768.037	715
768.145	1772
768.253	1605
768.361	1359
768.469	1494
768.577	706
768.685	1492
768.793	1451
768.901	1308
769.009	1381
769.117	1327
769.225	2375
769.333	3451
769.441	6478
769.549	13145
769.657	36776
769.765	149934
769.873	254839
769.981	43808
770.088	8611
770.196	4096
770.304	3573
770.412	3335
770.519	2624
770.627	1131
770.735	1455
770.842	2106
770.950	830
771.058	989
771.165	2014
771.273	1738
771.380	1838
771.488	2176
771.595	1264
771.703	1616
771.810	1426
771.918	942
772.025	1610
772.133	890
772.240	1901
772.348	2108
772.455	2284
772.562	1645
772.670	2342
772.777	2026
772.884	1351
772.991	1036
773.099	1823
773.206	1634
773.313	2030
773.420	1888
773.528	1057
773.635	1458
773.742	1578
773.849	2150
773.956	1469
774.063	1604
774.170	1201
774.277	1526
774.384	1143
774.491	1506
774.598	1652
774.705	1298
774.812	1565
774.919	1516
775.026	1279
775.133	1660
775.239	1993
775.346	1280
775.453	1880
775.560	1575
775.667	1227
775.773	127
775.880	1900
775.987	1174
776.093	1777
776.200	1205
776.307	1030
776.413	1848
776.520	1306
776.627	1597
776.733	1286
776.840	165
776.946	3263
777.053	3499
777.159	6540
777.266	2594
777.372	6916
777.478	4859
777.585	2596
777.691	1095
777.798	2067
777.904	2458
778.010	3290
778.117	2283
778.223	1310
778.329	1551
778.435	1927
778.542	1885
778.648	1455
778.754	767
778.860	1048
778.966	1045
779.072	747
779.178	799
779.284	579
779.391	349
779.497	202
779.603	2363
779.708	-216
779.815	1341
779.920	4313
780.026	4233
780.132	679
780.238	1026
780.344	944
780.450	1844
780.556	385
780.661	995
780.767	1071
780.873	1549
780.979	751
781.085	1036
781.190	1024
781.296	340
781.402	397
781.507	-327
781.613	519
781.719	-480
781.824	680
781.930	1630
782.035	-302
782.141	1031
782.246	1309
782.352	431
782.457	645
782.563	409
782.668	764
782.773	483
782.879	712
782.984	649
783.090	2248
783.195	2710
783.300	1509
783.405	999
783.511	48
783.616	837
783.721	338
783.826	161
783.932	838
784.037	851
784.142	770
784.247	1089
784.352	435
784.457	71
784.562	1296
784.667	533
784.772	953
784.877	52
784.982	782
785.087	354
785.192	1594
785.297	-15
785.402	300
785.507	222
785.611	-303
785.716	1413
785.821	417
785.926	-310
786.031	-238
786.135	887
786.240	584
786.345	-883
786.450	592
786.554	-107
786.659	-157
786.763	-617
786.868	848
786.973	1454
787.077	-499
787.182	8
787.286	788
787.391	47
787.495	59
787.600	-7
787.704	-77
787.809	72
787.913	-889
788.017	1175
788.122	452
788.226	319
788.330	84
788.435	274
788.539	-167
788.643	-49
788.747	176
788.852	-765
788.956	227
789.060	1373
789.164	434
789.268	425
789.372	497
789.476	444
789.580	-931
789.684	116
789.788	542
789.892	283
789.996	1017
790.100	-511
790.204	645
790.308	344
790.412	-539
790.516	-188
790.620	-308
790.724	188
790.828	-151
790.931	-651
791.035	1423
791.139	208
791.242	251
791.346	449
791.450	118
791.554	-558
791.657	-423
791.761	374
791.864	1357
791.968	-261
792.072	-41
792.175	112
792.279	154
792.382	-153
792.486	263
792.589	89
792.693	693
792.796	119
792.899	641
793.003	775
793.106	-814
793.209	185
793.313	932
793.416	-1183
793.519	825
793.623	2152
793.726	2295
793.829	489
793.932	137
794.035	-798
794.138	770
794.242	968
794.345	600
794.448	1137
794.551	2114
794.654	3184
794.757	2020
794.860	47
794.963	1115
795.066	-1272
795.169	763
795.272	-982
795.375	1102
795.477	-972
795.580	4
795.683	-211
795.786	-563
795.889	-1290
795.991	613
796.094	1244
796.197	-1838
796.300	1009
796.402	-202
796.505	-871
796.608	-491
796.710	-7
796.813	-449
796.915	-470
797.018	192
797.120	-127
797.223	-1424
797.326	1100
797.428	97
797.530	-195
797.633	-353
797.735	1011
797.838	-115
797.940	563
798.042	-548
798.145	-590
798.247	1133
798.349	-1303
798.452	-103
798.554	-878
798.656	-607
798.758	959
798.860	-237
798.962	-835
799.065	-897
799.167	-267
799.269	1046
799.371	1120
799.473	13
799.575	-668
799.677	569
799.779	2327
799.881	776
799.983	742
800.085	711
800.187	-890
800.289	-250
800.390	149
800.492	207
800.594	1031
800.696	-282
800.798	29
800.899	-473
801.001	312
801.103	-652
801.205	272
801.306	381
801.408	-898
801.509	148
801.611	-197
801.713	-571
801.814	-440
801.916	96
802.017	-722
802.119	-255
802.220	-209
802.322	-1615
802.423	1226
802.525	-933
802.626	-120
802.727	682
802.829	21
802.930	-2688
803.031	516
803.133	-1049
803.234	-246
803.335	0
803.436	-925
803.538	-664
803.639	-804
803.740	501
803.841	-1056
803.942	-476
804.043	252
804.144	-880
804.245	-589
804.346	-1450
804.447	-649
804.548	214
804.649	1537
804.750	-155
804.851	-799
804.952	-933
805.053	-202
805.154	-1345
805.255	-48
805.355	41
805.456	-506
805.557	-947
805.658	-1820
805.758	69
805.859	-680
805.960	-879
806.061	-676
806.161	-559
806.262	-587
806.362	-1069
806.463	-859
806.564	-327
806.664	-447
806.765	-730
806.865	-331
806.966	-913
807.066	-571
807.166	729
807.267	85
807.367	-1881
807.468	381
807.568	-1986
807.668	21
807.769	-26
807.869	-949
807.969	-284
808.069	-251
808.170	-768
808.270	-961
808.370	-54
808.470	304
808.570	-464
808.670	-850
808.770	-461
808.870	-426
808.970	-554
809.070	-1510
809.170	-1207
809.271	15
809.370	-495
809.470	-210
809.570	-1133
809.670	-360
809.770	-540
809.870	668
809.970	-604
810.070	-371
810.169	208
810.269	-2629
810.369	-90
810.469	-1025
810.568	-1746
810.668	-572
810.768	-654
810.867	-444
810.967	-524
811.066	-344
811.166	-705
811.265	-19
811.365	-630
811.464	-1135
811.564	-868
811.663	-57
811.763	-1221
811.862	-177
811.962	119
812.061	-1227
812.160	-411
812.260	-621
812.359	-939
812.458	-509
812.557	18
812.657	-1179
812.756	-296
812.855	-878
812.954	-576
813.053	-116
813.153	-555
813.252	-998
813.351	-360
813.450	-611
813.549	-547
813.648	538
813.747	-164
813.846	-329
813.945	-639
814.044	-611
814.143	-221
814.242	-8
814.341	-1355
814.439	-256
814.538	391
814.637	-556
814.736	-738
814.835	-342
814.933	-632
815.032	-116
815.131	-88
815.229	-766
815.328	968
815.427	258
815.525	547
815.624	160
815.722	-52
815.821	-650
815.919	68
816.018	-668
816.116	722
816.215	487
816.313	-137
816.412	213
816.510	985
816.609	2007
816.707	1214
816.805	713
816.904	887
817.002	837
817.100	1801
817.198	1266
817.296	543
817.395	546
817.493	911
817.591	934
817.689	2178
817.787	2258
817.885	4443
817.983	8081
818.081	19657
818.179	48354
818.277	118543
818.375	74961
818.473	15768
818.571	5915
818.669	5579
818.767	5142
818.865	4736
818.963	5420
819.061	8453
819.158	16743
819.256	41951
819.354	104011
819.452	209769
819.549	96287
819.647	20774
819.745	8411
819.842	5973
819.940	3777
820.038	2592
820.135	2333
820.233	1936
820.330	1189
820.428	-133
820.525	2352
820.623	635
820.720	584
820.818	1193
820.915	720
821.012	494
821.110	-117
821.207	1196
821.304	-153
821.402	1116
821.499	1638
821.596	1853
821.693	482
821.791	1174
821.888	2350
821.985	3855
822.082	1927
822.179	1054
822.276	156
822.373	194
822.470	-19
822.567	77
822.664	-810
822.761	129
822.858	-297
822.955	-24
823.052	-7
823.149	-517
823.246	130
823.343	-531
823.440	1105
823.536	-688
823.633	-28
823.730	509
823.827	100
823.923	359
824.020	1279
824.117	-196
824.213	-155
824.310	535
824.407	149
824.503	834
824.600	33
824.696	-202
824.793	66
824.889	-241
824.986	-712
825.082	-583
825.179	720
825.275	169
825.371	16
825.468	313
825.564	-1154
825.660	-95
825.757	-13
825.853	463
825.949	-1114
826.045	-758
826.142	-410
826.238	-711
826.334	522
826.430	-1031
826.526	-251
826.622	-1108
826.718	-520
826.814	-794
826.910	978
827.006	-367
827.102	-734
827.198	696
827.294	-411
827.390	-252
827.486	403
827.582	-1822
827.678	-621
827.774	188
827.869	-1278
827.965	770
828.061	-1189
828.157	-192
828.252	-287
828.348	-1214
828.444	204
828.539	-198
828.635	-890
828.731	-83
828.826	-527
828.922	712
829.017	-376
829.113	746
829.208	-1052
829.304	-681
829.399	-410
829.495	-683
829.590	137
829.685	-1342
829.781	-59
829.876	-928
829.971	-640
830.066	-924
830.162	-1397
830.257	-805
830.352	-529
830.447	504
830.543	-292
830.638	-1844
830.733	474
830.828	22
830.923	-391
831.018	-519
831.113	-537
831.208	-1574
831.303	-930
831.398	-792
831.493	-496
831.588	-250
831.683	-1374
831.778	651
831.873	-752
831.967	1226
832.062	-578
832.157	-1336
832.252	-101
832.346	-1016
832.441	489
832.536	-268
832.631	2729
832.725	614
832.820	-688
832.914	-1203
833.009	-1017
833.104	-294
833.198	519
833.293	-502
833.387	235
833.482	-982
833.576	-932
833.670	-599
833.765	-540
833.859	-568
833.954	296
834.048	-99
834.142	-631
834.237	-663
834.331	-537
834.425	-105
834.519	-1809
834.613	0
834.708	-89
834.802	-886
834.896	-1114
834.990	-5
835.084	-565
835.178	-929
835.272	-364
835.366	-970
835.460	61
835.554	-1090
835.648	-426
835.742	-865
835.836	-118
835.930	-1617
836.024	-779
836.117	94
836.211	-313
836.305	-420
836.399	-310
836.493	-927
836.586	44
836.680	-1142
836.774	-666
836.867	398
836.961	-836
837.055	-841
837.148	-925
837.242	-602
837.335	-489
837.429	-948
837.522	-538
837.616	-973
837.709	-136
837.803	-1425
837.896	-130
837.989	-1130
838.083	90
838.176	87
838.269	-406
838.363	-566
838.456	-438
838.549	1003
838.642	806
838.735	2305
838.829	257
838.922	-1645
839.015	-884
839.108	-1048
839.201	-1049
839.294	-319
839.387	-1104
839.480	-1082
839.573	-306
839.666	-651
839.759	-1592
839.852	-948
839.945	-835
840.038	-1859
840.131	-1243
840.223	-924
840.316	-756
840.409	-973
840.502	-1433
840.594	-560
840.687	-1956
840.780	-774
840.873	-1186
840.965	-1426
841.058	-335
841.150	-6
841.243	-638
841.336	-168
841.428	-748
841.521	-1342
841.613	-1137
841.706	-784
841.798	-1130
841.890	-231
841.983	-1506
842.075	-1084
842.167	-645
842.260	-908
842.352	-125
842.444	-1043
842.537	-111
842.629	169
842.721	-257
842.813	-398
842.905	-1686
842.997	-515
843.090	-599
843.182	-905
843.274	-864
843.366	2454
843.458	2884
843.550	1605
843.642	-1019
843.734	-259
843.826	-568
843.918	-627
844.009	152
844.101	-1025
844.193	-666
844.285	-595
844.377	-447
844.469	-95
844.560	-5
844.652	-23
844.744	-398
844.835	-1270
844.927	-219
845.019	-971
845.110	-1277
845.202	-848
845.293	-1333
845.385	-724
845.476	-737
845.568	-820
845.659	-683
845.751	-234
845.842	-1317
845.934	-1137
846.025	-1319
846.116	-376
846.208	-911
846.299	-956
846.390	-172
846.482	-1022
846.573	-28
846.664	-95
846.755	-601
846.846	-48
846.937	-1986
847.029	-824
847.120	-1297
847.211	-1930
847.302	-40
847.393	-1532
847.484	-299
847.575	-1526
847.666	-1303
847.757	-1054
847.847	-773
847.938	-481
848.029	-1503
848.120	-1356
848.211	-1704
848.302	-1250
848.392	-1806
848.483	-230
848.574	-1324
848.664	-1094
848.755	-759
848.846	-1635
848.936	-1031
849.027	-542
849.118	-1035
849.208	-781
849.299	1284
849.389	2770
849.480	7825
849.570	16055
849.661	32653
849.751	48228
849.841	12873
849.932	743
850.022	183
850.112	-26
850.203	-907
850.293	-1124
850.383	-640
850.474	-1247
850.564	-1286
850.654	-897
850.744	-813
850.834	-618
850.924	-1467
851.014	-656
851.104	-940
851.194	-1007
851.284	-100
851.374	-510
851.464	-1158
851.554	-844
851.644	-1117
851.734	-330
851.824	-898
851.914	-1595
852.004	-1229
852.094	-1516
852.183	-836
852.273	-976
852.363	-500
852.452	-1285
852.542	-1482
852.632	-1298
852.721	-308
852.811	-1621
852.901	-1068
852.990	-994
853.080	-512
853.169	-833
853.259	592
853.348	31
853.438	1087
853.527	1921
853.617	3817
853.706	9651
853.795	19694
853.885	47747
853.974	88013
854.063	168979
854.152	221737
854.242	68560
854.331	11616
854.420	3948
854.509	2230
854.598	2035
854.687	1107
854.777	894
854.866	356
854.955	325
855.044	-563
855.133	-154
855.222	-1018
855.311	-576
855.400	12
855.488	-694
855.577	-674
855.666	11
855.755	-317
855.844	-803
855.933	-800
856.021	-1040
856.110	-84
856.199	-1354
856.288	-561
856.376	-1136
856.465	-808
856.554	-948
856.642	-1189
856.731	-789
856.819	-763
856.908	-1363
856.996	-1791
857.085	-789
857.173	-733
857.262	-1110
857.350	-978
857.438	-415
857.527	-482
857.615	-1370
857.703	-659
857.792	-632
857.880	-1481
857.968	-1366
858.056	-613
858.145	-1345
858.233	-1023
858.321	-1161
858.409	-212
858.497	-1300
858.585	-751
858.673	-1958
858.761	-769
858.849	-1001
858.937	-1324
859.025	-1433
859.113	-786
859.201	-1210
859.289	-237
859.377	-669
859.465	-1166
859.552	-875
859.640	-954
859.728	-819
859.816	-1565
859.903	-954
859.991	-1427
860.079	-1091
860.166	-1693
860.254	-1699
860.342	-295
860.429	-1126
860.517	-1462
860.604	49
860.692	-717
860.779	-1305
860.867	-582
860.954	-931
861.042	-867
861.129	-161
861.216	-882
861.304	-442
861.391	-1456
861.478	-1175
861.565	-557
861.653	-522
861.740	-1214
861.827	-635
861.914	-632
862.001	-1367
862.089	-853
862.176	-637
862.263	-946
862.350	-1392
862.437	-1289
862.524	-1757
862.611	-1003
862.698	-1164
862.785	147
862.871	-167
862.958	-1048
863.045	-536
863.132	-639
863.219	-798
863.306	-1537
863.392	-370
863.479	-917
863.566	-1313
863.652	-1139
863.739	-1273
863.826	-1198
863.912	142
863.999	-1278
864.086	-1344
864.172	-597
864.259	-654
864.345	-1596
864.432	-796
864.518	-297
864.604	-774
864.691	-882
864.777	-65
864.863	-572
864.950	226
865.036	210
865.122	665
865.209	973
865.295	534
865.381	979
865.467	1629
865.553	2883
865.639	5819
865.726	10465
865.812	23350
865.898	44091
865.984	67631
866.070	133039
866.156	116301
866.242	24674
866.328	5220
866.414	1995
866.499	925
866.585	898
866.671	901
866.757	724
866.843	691
866.928	685
867.014	-614
867.100	825
867.186	-155
867.271	308
867.357	527
867.442	367
867.528	-95
867.614	280
867.699	690
867.785	-56
867.870	705
867.956	881
868.041	-101
868.127	195
868.212	550
868.297	308
868.383	-220
868.468	240
868.553	1581
868.639	2179
868.724	5504
868.809	3790
868.894	637
868.979	336
869.065	-199
869.150	-608
869.235	-321
869.320	-954
869.405	-682
869.490	7
869.575	-180
869.660	-847
869.745	324
869.830	-577
869.915	-992
870.000	8
870.085	-638
870.169	-561
870.254	-192
870.339	-192
870.424	-2038
870.509	-401
870.593	-603
870.678	-161
870.763	-621
870.847	-380
870.932	-420
871.016	-217
871.101	-840
871.186	-401
871.270	-1035
871.355	-938
871.439	-713
871.523	-1227
871.608	-698
871.692	-425
871.777	118
871.861	-98
871.945	-1392
872.030	31
872.114	-519
872.198	-1014
872.282	-874
872.367	-871
872.451	-1834
872.535	-761
872.619	-277
872.703	-409
872.787	-616
872.871	-788
872.955	-1293
873.039	-1055
873.123	-567
873.207	-208
873.291	-1181
873.375	-680
873.459	-391
873.543	204
873.627	-1208
873.711	-768
873.794	-610
873.878	-883
873.962	-1730
874.045	-950
874.129	-1006
874.137	-995
874.213	-888
874.245	-757
874.296	-544
874.352	-1203
874.380	-1525
874.460	-820
874.464	-793
874.547	-1032
874.568	-876
874.631	-394
874.676	-286
874.714	-190
874.784	-690
874.798	-793
874.881	-195
874.892	-247
874.965	-574
874.999	-611
875.048	-705
875.107	-958
875.131	-1049
875.215	-472
875.215	-471
875.298	-197
875.323	-351
875.381	-725
875.430	-626
875.465	-532
875.538	-684
875.548	-709
875.631	-485
875.646	-531
875.714	-745
875.753	-609
875.798	-436
875.861	-376
875.881	-391
875.964	-675
875.968	-702
876.047	-1061
876.076	-662
876.130	101
876.183	-474
876.213	-795
876.291	-27
876.296	16
876.379	-759
876.398	-824
876.462	-930
876.506	-842
876.545	-782
876.613	-320
876.628	-219
876.711	-526
876.721	-489
876.794	-258
876.828	-358
876.877	-441
876.935	-931
876.960	-1117
877.043	-36
877.043	-34
877.125	420
877.150	206
877.208	-291
877.258	-137
877.291	-17
877.365	-451
877.374	-501
877.456	-489
877.472	-465
877.539	-400
877.579	-318
877.622	-158
877.687	188
877.704	273
877.787	-275
877.794	-276
877.869	-503
877.901	-501
877.952	-293
878.008	-476
878.034	-644
878.115	-466
878.117	-457
878.199	-1034
878.222	-873
878.282	-431
878.329	-11
878.364	319
878.437	213
878.447	162
878.529	-279
878.544	-313
878.611	-413
878.651	-401
878.694	-345
878.758	-378
878.776	-313
878.858	-97
878.865	-109
878.941	-720
878.972	-485
879.023	103
879.078	-260
879.105	-420
879.185	407
879.187	420
879.269	-251
879.292	-421
879.351	-665
879.399	-718
879.433	-734
879.506	-474
879.516	-453
879.598	-148
879.613	-172
879.680	-370
879.720	-198
879.762	242
879.827	-156
879.844	-379
879.926	-520
879.933	-519
880.007	-71
880.040	135
880.089	227
880.147	647
880.171	1003
880.253	2120
880.254	2126
880.335	2948
880.360	3341
880.417	5720
880.467	9075
880.499	11289
880.574	13106
880.580	12719
880.662	3647
880.680	2461
880.744	885
880.787	214
880.825	182
880.893	-61
880.907	-173
880.989	-59
881.000	-108
881.070	277
881.106	297
881.152	-66
881.213	24
881.233	139
881.315	379
881.319	389
881.396	565
881.426	336
881.478	-293
881.532	-486
881.559	-435
881.639	-620
881.641	-627
881.722	-394
881.745	-475
881.803	-108
881.852	260
881.885	136
881.958	143
881.966	186
882.047	-103
882.064	-23
882.129	523
882.171	872
882.210	1343
882.277	1951
882.291	1862
882.372	853
882.383	769
882.454	391
882.489	-102
882.535	-203
882.596	390
882.616	362
882.697	-259
882.702	-309
882.778	-709
882.808	-685
882.859	-350
882.914	-315
882.940	-489
883.020	-376
883.021	-364
883.102	365
883.127	449
883.183	124
883.233	190
883.264	154
883.339	-30
883.345	-24
883.426	-14
883.445	-34
883.507	-78
883.551	-66
883.587	58
883.657	109
883.668	93
883.749	-22
883.763	-11
883.830	88
883.869	130
883.910	-90
883.975	-562
883.991	-445
884.072	142
884.081	199
884.152	224
884.187	426
884.233	486
884.292	-281
884.314	-575
884.394	-561
884.398	-586
884.475	-237
884.504	-76
884.555	-109
884.610	-194
884.636	-94
884.716	353
884.716	356
884.797	-123
884.821	-267
884.877	-393
884.927	-409
884.958	-245
885.033	-220
885.038	-235
885.118	111
885.139	70
885.199	-301
885.244	-483
885.279	-298
885.350	36
885.359	44
885.439	-76
885.456	-121
885.520	-481
885.561	-526
885.600	-161
885.667	353
885.680	263
885.760	-402
885.773	-492
885.840	-94
885.878	94
885.920	309
885.984	505
886.000	464
886.080	454
886.089	446
886.160	301
886.195	132
886.240	96
886.300	170
886.320	190
886.400	433
886.406	425
886.480	541
886.511	574
886.560	577
886.616	739
886.640	847
886.720	983
886.722	978
886.800	-90
886.827	-376
886.879	222
886.932	639
886.959	599
887.038	688
887.039	686
887.119	-130
887.143	-364
887.198	68
887.248	495
887.278	620
887.354	759
887.358	762
887.437	758
887.459	758
887.517	1150
887.564	1423
887.596	903
887.669	-387
887.676	-349
887.755	214
887.774	347
887.835	503
887.880	609
887.914	424
887.985	-179
887.994	-126
888.073	521
888.090	637
888.153	340
888.195	154
888.232	20
888.300	-248
888.311	-154
888.391	428
888.405	533
888.470	288
888.510	153
888.549	345
888.615	601
888.628	538
888.708	190
888.720	127
888.787	405
888.825	547
888.866	698
888.930	979
888.945	923
889.024	562
889.035	512
889.103	443
889.140	375
889.182	187
889.245	-63
889.261	-74
889.340	-135
889.349	-142
889.419	142
889.454	272
889.498	194
889.559	76
889.577	93
889.656	173
889.664	181
889.735	508
889.768	662
889.814	380
889.873	5
889.978	174
890.083	20
890.187	684
890.292	675
890.397	717
890.501	19
890.606	213
890.710	600
890.815	418
890.919	684
891.024	450
891.128	769
891.233	868
891.337	1371
891.442	-1
891.546	32
891.650	96
891.755	341
891.859	1288
891.963	1083
892.068	-9
892.172	233
892.276	659
892.380	253
892.484	1068
892.589	1709
892.693	650
892.797	755
892.901	355
893.005	-109
893.109	1878
893.213	895
893.317	127
893.421	565
893.525	147
893.629	1285
893.733	-161
893.837	172
893.941	-458
894.045	608
894.148	-99
894.252	535
894.356	145
894.460	611
894.564	469
894.667	636
894.771	28
894.875	-440
894.978	498
895.082	1
895.186	1183
895.289	811
895.393	264
895.496	694
895.600	-471
895.703	415
895.807	149
895.910	366
896.014	305
896.117	235
896.221	-248
896.324	381
896.427	-266
896.531	-85
896.634	12
896.737	1000
896.840	283
896.944	43
897.047	256
897.150	273
897.253	-295
897.356	999
897.460	818
897.563	121
897.666	372
897.769	-5
897.872	305
897.975	825
898.078	678
898.181	135
898.284	475
898.387	948
898.490	625
898.593	188
898.695	104
898.798	75
898.901	404
899.004	396
899.107	87
899.209	713
899.312	187
899.415	272
899.518	91
899.620	115
899.723	226
899.826	2392
899.928	1846
900.031	455
900.133	827
900.236	509
900.338	190
900.441	722
900.543	-35
900.646	422
900.748	265
900.851	-49
900.953	127
901.055	350
901.158	-219
901.260	456
901.362	91
901.465	177
901.567	-22
901.669	999
901.771	505
901.873	600
901.976	607
902.078	481
902.180	-550
902.282	-75
902.384	752
902.486	861
902.588	130
902.690	467
902.792	535
902.894	684
902.996	702
903.098	138
903.200	-206
903.302	235
903.404	-7
903.505	-57
903.607	-220
903.709	740
903.811	483
903.913	44
904.014	1151
904.116	120
904.218	509
904.319	446
904.421	631
904.523	990
904.624	-448
904.726	479
904.827	284
904.929	451
905.030	-35
905.132	978
905.233	-114
905.335	47
905.436	-411
905.537	-363
905.639	868
905.740	313
905.841	476
905.943	213
906.044	369
906.145	84
906.247	362
906.348	451
906.449	-76
906.550	157
906.651	728
906.752	141
906.854	207
906.955	292
907.056	-101
907.157	283
907.258	169
907.359	102
907.460	-920
907.561	-466
907.662	-186
907.762	-85
907.863	-234
907.964	-72
908.065	992
908.166	-31
908.267	229
908.367	738
908.468	62
908.569	-24
908.670	-99
908.770	1043
908.871	-46
908.971	993
909.072	583
909.173	106
909.273	-161
909.374	-162
909.474	-944
909.575	317
909.675	-142
909.776	-177
909.876	-761
909.977	-641
910.077	455
910.177	270
910.278	358
910.378	547
910.478	242
910.579	-168
910.679	-514
910.779	613
910.879	198
910.980	3
911.080	221
911.180	-384
911.280	-241
911.380	174
911.480	559
911.580	707
911.680	-219
911.780	-18
911.880	561
911.980	353
912.080	171
912.180	-157
912.280	-107
912.380	529
912.480	-766
912.580	-622
912.679	199
912.779	-46
912.879	622
912.979	-203
913.078	-1
913.178	191
913.278	-307
913.377	500
913.477	73
913.577	-177
913.676	866
913.776	594
913.875	-240
913.975	287
914.074	-535
914.174	174
914.273	-384
914.373	516
914.472	-393
914.572	-480
914.671	-436
914.770	-431
914.870	681
914.969	-402
915.068	401
915.167	420
915.267	-336
915.366	457
915.465	-385
915.564	-157
915.663	137
915.763	-404
915.862	151
915.961	123
916.060	-374
916.159	-795
916.258	-294
916.357	-490
916.456	312
916.555	55
916.654	-494
916.752	-98
916.851	53
916.950	-156
917.049	-468
917.148	-708
917.247	-155
917.345	-315
917.444	161
917.543	-134
917.642	948
917.740	-293
917.839	-321
917.937	621
918.036	435
918.135	-118
918.233	-209
918.332	-1452
918.430	-404
918.529	928
918.627	-676
918.726	-321
918.824	53
918.923	-180
919.021	-281
919.119	-718
919.218	-469
919.316	-25
919.414	-670
919.512	97
919.611	-768
919.709	-779
919.807	-220
919.905	-304
920.003	-578
920.102	-157
920.200	-265
920.298	-181
920.396	-427
920.494	1
920.592	-787
920.690	-771
920.788	693
920.886	383
920.984	552
921.082	158
921.180	477
921.277	-555
921.375	236
921.473	378
921.571	-387
921.669	354
921.766	-438
921.864	925
921.962	-142
922.060	298
922.157	622
922.255	-1033
922.352	-98
922.450	201
922.548	-99
922.645	434
922.743	777
922.840	1532
922.938	1693
923.035	1838
923.133	1968
923.230	1791
923.327	2509
923.425	1527
923.522	1857
923.619	1691
923.717	1493
923.814	1912
923.911	821
924.008	1742
924.106	205
924.203	1692
924.300	934
924.397	801
924.494	2069
924.591	2127
924.688	965
924.786	1072
924.883	1425
924.979	703
925.077	866
925.173	1953
925.270	949
925.367	1838
925.464	1194
925.561	1885
925.658	1401
925.755	2278
925.852	2313
925.948	2281
926.045	2319
926.142	1709
926.239	1528
926.335	1965
926.432	1127
926.529	1504
926.625	2254
926.722	1733
926.818	1089
926.915	1525
927.011	981
927.108	552
927.204	1239
927.301	1414
927.397	869
927.494	1854
927.590	588
927.687	1490
927.783	824
927.879	1468
927.976	563
928.072	1354
928.168	1300
928.264	956
928.361	906
928.457	2066
928.553	739
928.649	1260
928.745	390
928.841	900
928.937	1478
929.033	1239
929.129	1179
929.225	1037
929.321	281
929.417	311
929.513	1276
929.609	1115
929.705	827
929.801	453
929.897	1195
929.993	534
930.089	878
930.184	1590
930.280	615
930.376	1167
930.471	-169
930.567	258
930.663	780
930.758	670
930.854	231
930.950	151
931.045	467
931.141	903
931.236	612
931.332	285
931.427	375
931.523	1416
931.618	-120
931.714	64
931.809	1081
931.905	425
932.000	-575
932.095	799
932.191	682
932.286	1287
932.381	568
932.476	551
932.572	276
932.667	351
932.762	690
932.857	715
932.952	96
933.047	-199
933.142	318
933.237	932
933.332	262
933.427	280
933.522	739
933.617	234
933.712	492
933.807	243
933.902	808
933.997	1111
934.092	610
934.187	720
934.282	834
934.376	376
934.471	794
934.566	179
934.661	336
934.755	407
934.850	978
934.945	1139
935.039	266
935.134	677
935.228	776
935.323	250
935.417	506
935.512	640
935.606	-118
935.701	538
935.795	545
935.890	408
935.984	455
936.079	-287
936.173	158
936.267	22
936.362	70
936.456	426
936.550	359
936.644	121
936.738	133
936.833	189
936.927	-412
937.021	543
937.115	-340
937.209	-237
937.303	1040
937.397	-162
937.491	50
937.585	454
937.679	-249
937.773	-202
937.867	-402
937.961	-146
938.055	240
938.149	1182
938.243	359
938.337	413
938.430	258
938.524	1186
938.618	834
938.712	1115
938.805	-14
938.899	500
938.993	1290
939.086	860
939.180	222
939.274	1961
939.367	914
939.461	668
939.554	-292
939.648	-86
939.741	-290
939.835	790
939.928	605
940.022	1169
940.115	5
940.208	766
940.302	1362
940.395	367
940.488	-897
940.582	-161
940.675	-416
940.768	827
940.861	-1095
940.954	226
941.048	116
941.141	220
941.234	801
941.327	971
941.420	2223
941.513	530
941.606	378
941.699	1054
941.792	491
941.885	374
941.978	90
942.071	593
942.164	-244
942.257	-295
942.349	-4
942.442	-420
942.535	292
942.628	603
942.721	594
942.813	-454
942.906	1139
942.999	710
943.091	230
943.184	-425
943.277	-476
943.369	-243
943.462	-484
943.554	367
943.647	-566
943.739	-339
943.832	646
943.924	-888
944.017	37
944.109	-1002
944.201	-403
944.294	-187
944.386	942
944.478	166
944.571	-2
944.663	-1051
944.755	-55
944.847	68
944.940	119
945.032	-628
945.124	109
945.216	844
945.308	69
945.400	219
945.492	254
945.584	229
945.676	466
945.768	145
945.860	-78
945.952	100
946.044	653
946.136	450
946.228	-262
946.320	-6
946.412	-247
946.503	669
946.595	564
946.687	107
946.779	-582
946.870	38
946.962	-343
947.054	109
947.145	-50
947.237	787
947.329	-136
947.420	-82
947.512	-569
947.603	-1188
947.695	138
947.786	331
947.878	-562
947.969	860
948.061	-219
948.152	-636
948.243	121
948.335	-283
948.426	-104
948.517	-289
948.609	439
948.700	0
948.791	-876
948.882	-78
948.973	-245
949.065	-393
949.156	105
949.247	-1216
949.338	-212
949.429	-1264
949.520	-785
949.611	-990
949.702	-405
949.793	-224
949.884	225
949.975	-556
950.066	-341
950.157	-344
950.247	-958
950.338	-522
950.429	-1499
950.520	302
950.611	-517
950.701	228
950.792	12
950.883	333
950.973	-52
951.064	-241
951.155	-1138
951.245	773
951.336	-684
951.427	-559
951.517	636
951.608	270
951.698	-648
951.788	69
951.879	-490
951.969	-247
952.060	-676
952.150	-275
952.240	11
952.331	-1557
952.421	666
952.511	-116
952.602	132
952.692	-687
952.782	-635
952.872	-1022
952.962	-633
953.052	-489
953.143	-892
953.233	123
953.323	26
953.413	-729
953.503	-36
953.593	-144
953.683	280
953.773	-749
953.863	-829
953.953	-777
954.042	160
954.132	263
954.222	157
954.312	-565
954.402	-138
954.492	-275
954.581	402
954.671	-557
954.761	-350
954.850	-306
954.940	-965
955.030	-356
955.119	-613
955.209	-252
955.298	-560
955.388	-49
955.477	442
955.567	-758
955.656	42
955.746	-921
955.835	-522
955.925	-823
956.014	-474
956.103	-670
956.193	-991
956.282	13
956.371	-954
956.461	-336
956.550	-1222
956.639	-221
956.728	-634
956.817	-1056
956.906	-997
956.995	-278
957.085	-516
957.174	-717
957.263	-213
957.352	-802
957.441	-1327
957.530	-526
957.619	-828
957.708	-919
957.796	-333
957.885	-895
957.974	-626
958.063	-660
958.152	-1743
958.241	-769
958.329	-411
958.418	-361
958.507	-606
958.596	547
958.684	-939
958.773	-262
958.861	-985
958.950	-756
959.039	37
959.127	-836
959.216	-510
959.304	-1014
959.393	-977
959.481	-1007
959.570	-557
959.658	-392
959.746	-1114
959.835	371
959.923	-238
960.011	-959
960.100	-357
960.188	-441
960.276	-936
960.365	-998
960.453	-652
960.541	-1384
960.629	-999
960.717	-908
960.805	-1153
960.893	-1013
960.981	-616
961.069	-89
961.158	-1119
961.245	169
961.333	-1426
961.421	-1329
961.509	-510
961.597	-445
961.685	-846
961.773	-1004
961.861	-913
961.949	-205
962.036	-1561
962.124	-317
962.212	-1142
962.299	-553
962.387	-1012
962.475	-1900
962.562	-1626
962.650	-294
962.738	-618
962.825	-1048
962.913	1
963.000	-692
963.088	-847
963.175	-291
963.263	-614
963.350	-808
963.438	-692
963.525	-81
963.612	-218
963.700	1014
963.787	3987
963.874	623
963.962	-620
964.049	-420
964.136	-1266
964.223	-1212
964.310	-1070
964.398	-1484
964.485	-714
964.572	-710
964.659	-413
964.746	-398
964.833	-1688
964.920	-1328
965.007	-934
965.094	-738
965.181	-735
965.268	-1195
965.355	-996
965.441	-939
965.528	-1849
965.615	-390
965.702	-1179
965.789	-1029
965.875	-835
965.962	-931
966.049	-1166
966.136	-488
966.222	-2127
966.309	-876
966.395	-1191
966.482	-46
966.569	-1030
966.655	-1586
966.742	-1491
966.828	-393
966.915	-1955
967.001	-686
967.087	-1762
967.174	-941
967.260	-557
967.347	-398
967.433	591
967.519	2370
967.605	-975
967.692	-1288
967.778	-954
967.864	-856
967.950	16
968.036	-1767
968.123	-1213
968.209	-1316
968.295	-1982
968.381	153
968.467	-799
968.553	-2033
968.639	-102
968.725	-1553
968.811	-184
968.897	-597
968.983	-1192
969.069	-1356
969.154	-646
969.240	-1024
969.326	-1729
969.412	-1801
969.497	-1874
969.583	-2075
969.669	-765
969.755	-1069
969.840	-1669
969.926	-1377
970.012	-1150
970.097	-204
970.183	-878
970.268	-1152
970.354	-1024
970.439	-1289
970.525	1184
970.610	-1136
970.696	-1168
970.781	-471
970.866	-2074
970.952	-146
971.037	-1786
971.122	-1800
971.208	-736
971.293	-1377
971.378	-2307
971.463	-934
971.549	-1225
971.634	-1077
971.719	-885
971.804	-1150
971.889	-296
971.974	-1747
972.059	-1706
972.144	-1206
972.229	-1771
972.314	-1965
972.399	-595
972.484	-2074
972.569	-756
972.654	-1141
972.739	-407
972.824	-1150
972.908	-934
972.993	-1742
973.078	-1461
973.163	-1321
973.247	-1424
973.332	-2576
973.417	-599
973.501	-2562
973.586	-1204
973.671	-881
973.755	-1158
973.840	-116
973.924	131
974.009	-914
974.093	-1413
974.178	921
974.262	-176
974.346	-1255
974.431	-1718
974.515	-1412
974.600	-1532
974.684	-280
974.768	-2120
974.852	-305
974.937	-1548
975.021	-1455
975.105	-1845
975.189	-1207
975.273	-893
975.358	-1582
975.442	-2207
975.526	-96
975.610	-2293
975.694	-1964
975.778	-607
975.862	-1546
975.946	-2914
976.030	526
976.114	-1289
976.198	-634
976.281	-1254
976.365	-952
976.449	-1498
976.533	-1328
976.617	-2343
976.700	-1125
976.784	-1689
976.868	-2109
976.951	-761
977.035	-1093
977.119	-1117
977.202	-1171
977.286	5
977.369	-1495
977.453	-994
977.536	-1771
977.620	-1124
977.703	-857
977.787	-2133
977.870	-417
977.953	-474
978.037	-2266
978.120	-695
978.203	-1559
978.287	-457
978.370	-1400
978.453	-1440
978.536	-1103
978.620	-410
978.703	-1376
978.786	-1319
978.869	-860
978.952	-2033
979.035	-296
979.118	-847
979.201	-1870
979.284	-36
979.367	-1398
979.450	-582
979.533	-1123
979.616	-1523
979.699	-1479
979.782	-1334
979.865	-1847
979.948	-1065
980.030	-1305
980.113	-1640
980.196	-1761
980.279	-1016
980.361	-1544
980.444	-1307
980.526	-1242
980.609	-281
980.692	-1308
980.774	-838
980.857	-1693
980.939	-1146
981.022	-1459
981.104	-2265
981.187	-1627
981.269	-1609
981.352	-1363
981.434	-1540
981.516	-2111
981.599	-312
981.681	-1422
981.763	-1115
981.846	-1413
981.928	-822
982.010	-1450
982.092	-1840
982.174	-1230
982.256	-1305
982.339	-1244
982.421	-1492
982.503	-1403
982.585	-1685
982.667	-994
982.749	-1673
982.831	-1557
982.913	-1673
982.995	-711
983.077	-1765
983.158	-170
983.240	-2514
983.322	-442
983.404	88
983.486	-1504
983.568	-487
983.649	-1879
983.731	-551
983.813	-1631
983.894	-1026
983.976	-1914
984.058	-1526
984.139	-332
984.221	-2289
984.302	-264
984.384	-1738
984.465	-2200
984.547	-833
984.628	-1866
984.710	-568
984.791	-1610
984.872	-1231
984.954	-1483
985.035	-1112
985.116	-2199
985.198	-2209
985.279	-616
985.360	-1900
985.441	-1179
985.522	-310
985.604	-1832
985.685	-2872
985.766	-555
985.847	-524
985.928	-1068
986.009	-1770
986.090	-1046
986.171	-139
986.252	-1239
986.333	-552
986.414	-1250
986.495	-1093
986.576	-947
986.656	-858
986.737	-1239
986.818	-1381
986.899	-1028
986.980	-2083
987.060	-706
987.141	-1556
987.222	-1270
987.302	-1121
987.383	-1410
987.464	-1732
987.544	-699
987.625	-1539
987.705	-52
987.786	-1478
987.866	-1208
987.947	-664
988.027	-1375
988.108	-1789
988.188	-585
988.268	-551
988.349	-1235
988.429	-1073
988.509	-1200
988.589	-919
988.670	-2728
988.750	-45
988.830	-1299
988.910	-773
988.990	-1865
989.070	-1630
989.151	-926
989.231	-2795
989.311	-1310
989.391	-1116
989.471	-1202
989.551	-1542
989.631	-1679
989.711	-917
989.791	-1257
989.870	-1760
989.950	43
990.030	-1261
990.110	-1488
990.190	-1283
990.269	-2211
990.349	-1321
990.429	-1449
990.509	-1278
990.588	-1850
990.668	-1060
990.747	-936
990.827	-1420
990.907	-1357
990.986	-1817
991.066	-1158
991.145	-2087
991.225	-695
991.304	-1525
991.383	-1157
991.463	-1738
991.542	-539
991.622	-1544
991.701	-2212
991.780	-2447
991.859	-478
991.939	-1589
992.018	-1086
992.097	-1092
992.176	-914
992.256	-1238
992.335	-2309
992.414	-544
992.493	-1688
992.572	-1363
992.651	-1023
992.730	-1450
992.809	-1472
992.888	-2255
992.967	-1910
993.046	-1208
993.125	-2342
993.203	-1824
993.282	-1338
993.361	-1730
993.440	-736
993.519	-2399
993.597	-648
993.676	-2312
993.755	181
993.834	-1531
993.912	-1789
993.991	-657
994.069	-1671
994.148	-1655
994.226	-1452
994.305	-1671
994.384	-2437
994.462	-747
994.540	-2101
994.619	-1413
994.697	-1306
994.776	-2065
994.854	-1217
994.932	-2313
995.011	-1320
995.089	-2181
995.167	-916
995.245	-1316
995.324	-1810
995.402	-757
995.480	-1540
995.558	-1384
995.636	-2187
995.714	-2375
995.792	-132
995.870	-1931
995.948	-2131
996.026	-1427
996.104	-2226
996.182	-976
996.260	-2028
996.338	-1509
996.416	-1815
996.494	-1901
996.572	-1168
996.649	-1906
996.727	-2073
996.805	-971
996.883	-1647
996.960	-2141
997.038	-1459
997.116	-1910
997.193	-2318
997.271	-1763
997.348	-1686
997.426	-1368
997.504	-2120
997.581	-1349
997.658	-1956
997.736	-2090
997.813	-1747
997.891	-1150
997.968	-1895
998.046	-1578
998.123	-1721
998.200	-1276
998.277	-2955
998.355	-1606
998.432	-3088
998.509	-2110
998.586	-577
998.663	-743
998.741	-2604
998.818	-1640
998.895	-2575
998.972	-1247
999.049	-1614
999.126	-1927
999.203	-1801
999.280	-1864
999.357	-1294
999.434	-1551
999.511	-1946
999.587	-1497
999.664	-1743
999.741	-1224
999.818	-1671
999.895	-1876
999.971	-1783
1000.048	-2070
1000.125	-1078
1000.202	-2530
1000.278	-1475
1000.355	-2038
1000.431	-2004
1000.508	-2728
1000.584	-1774
1000.661	-996
1000.738	-2452
1000.814	-2569
1000.890	-1480
1000.967	-1711
1001.043	-1655
1001.120	-2515
1001.196	-1506
1001.272	-2578
1001.349	-1672
1001.425	-967
1001.501	-1632
1001.577	-2634
1001.654	-1303
1001.730	-1892
1001.806	-1032
1001.882	-2254
1001.958	-1753
1002.034	-2053
1002.110	-1476
1002.186	-2092
1002.262	-2554
1002.338	-2337
1002.414	-2256
1002.490	-878
1002.566	-2072
1002.642	-1954
1002.718	-1382
1002.794	-2186
1002.870	-1297
1002.945	-3042
1003.021	-1601
1003.097	-2466
1003.173	-1736
1003.248	-1803
1003.324	-1772
1003.400	-1949
1003.475	-2802
1003.551	-1760
1003.626	-2147
1003.702	-1782
1003.777	-1690
1003.853	-2062
1003.928	-1589
1004.004	-1618
1004.079	-1412
1004.155	-2159
1004.230	-2509
1004.305	-1345
1004.381	-2070
1004.456	-2663
1004.531	-1347
1004.607	-2371
1004.682	-1459
1004.757	-1820
1004.832	-2352
1004.907	-1735
1004.982	-1522
1005.057	-1156
1005.133	-2277
1005.208	-1227
1005.283	-2480
1005.358	-1629
1005.433	-2532
1005.508	-2094
1005.583	-2093
1005.657	-1773
1005.732	-1192
1005.807	-2257
1005.882	-1403
1005.957	-2868
1006.032	-1769
1006.106	-2355
1006.181	-1882
1006.256	-1470
1006.331	-2794
1006.405	-2568
1006.480	-1447
1006.554	-1985
1006.629	-2022
1006.704	-2231
1006.778	-1842
1006.853	-1556
1006.927	-2152
1007.002	-1831
1007.076	-2305
1007.150	-1839
1007.225	-2072
1007.299	-2260
1007.373	-2314
1007.448	-1441
1007.522	-810
1007.596	-1785
1007.671	-2370
1007.745	-1629
1007.819	-2244
1007.893	-2662
1007.967	-1221
1008.041	-2503
1008.115	-1579
1008.190	-2894
1008.264	-1792
1008.338	-2553
1008.412	-2505
1008.486	-1875
1008.560	-2603
1008.633	-1152
1008.707	-2071
1008.781	-2488
1008.855	-2023
1008.929	-2428
1009.003	-2209
1009.076	-1732
1009.150	-1594
1009.224	-1694
1009.298	-1345
1009.371	-1850
1009.445	-2351
1009.519	-1557
1009.592	-2248
1009.666	-1826
1009.739	-2093
1009.813	-2386
1009.886	-1247
1009.960	-2303
1010.033	-2517
1010.107	-1646
1010.180	-2188
1010.253	-2780
1010.327	-1686
1010.400	-2100
1010.473	-2163
1010.547	-1310
1010.620	-1651
1010.693	-1568
1010.766	-2574
1010.840	-1212
1010.913	-1579
1010.986	-2535
1011.059	-1349
1011.132	-1587
1011.205	-900
1011.278	-2488
1011.351	-2366
1011.424	-1261
1011.497	-2255
1011.570	-1777
1011.643	-2369
1011.716	-2270
1011.789	-2119
1011.862	-1466
1011.934	-1696
1012.007	-3147
1012.080	-1607
1012.153	-1843
1012.225	-601
1012.298	-2562
1012.371	-2290
1012.443	-1488
1012.516	-2913
1012.588	-1598
1012.661	-1439
1012.733	-2263
1012.806	-1377
1012.879	-2452
1012.951	-1829
1013.023	-2152
1013.096	-2227
1013.168	-2196
1013.241	-1188
1013.313	-2006
1013.385	-2146
1013.458	-2222
1013.530	-1510
1013.602	-2391
1013.674	-1843
1013.746	-1888
1013.819	-2050
1013.891	-1074
1013.963	-1905
1014.035	-2106
1014.107	-1873
1014.179	-1907
1014.251	-2399
1014.323	-1473
1014.395	-2077
1014.467	-1882
1014.539	-1590
1014.611	-1602
1014.683	-1243
1014.754	-1736
1014.826	-2602
1014.898	-2668
1014.970	-1984
1015.042	-1783
1015.113	-1732
1015.185	-2238
1015.257	-2127
1015.328	-1589
1015.400	-1897
1015.471	-1758
1015.543	-3731
1015.615	-1853
1015.686	-1745
1015.757	-1983
1015.829	-1785
1015.901	-1925
1015.972	-2026
1016.043	-1590
1016.115	-1681
1016.186	-2594
1016.257	-2839
1016.328	-1483
1016.400	-1368
1016.471	-2150
1016.542	-1510
1016.613	-1764
1016.685	-1542
1016.756	-1829
1016.827	-1932
1016.898	-2772
1016.969	-1387
1017.040	-3060
1017.111	-2158
1017.182	-2159
1017.253	-1749
1017.324	-1755
1017.395	-2336
1017.466	-1683
1017.537	-2455
1017.608	-1880
1017.678	-1970
1017.749	-2035
1017.820	-1345
1017.891	-2503
1017.961	-2614
1018.032	-1676
1018.103	-1713
1018.173	-1865
1018.244	-2666
1018.315	-2320
1018.385	-1518
1018.456	-2533
1018.526	-2916
1018.597	-1969
1018.667	-3150
1018.738	-2183
1018.808	-2205
1018.878	-2130
1018.949	-2127
1019.019	-1907
1019.089	-2160
1019.160	-2451
1019.230	-2255
1019.300	-2341
1019.371	-2361
1019.441	-1622
1019.511	-2393
1019.581	-2136
1019.651	-1260
1019.721	-1192
1019.791	-2314
1019.861	-1802
1019.931	-1369
1020.001	-2212
1020.071	-1492
1020.141	-2340
1020.211	-1509
1020.281	-2094
1020.351	-2210
1020.421	-2337
1020.491	-1844
1020.560	-2619
1020.630	-2094
1020.700	-2153
1020.770	-2120
1020.839	-2456
1020.909	-1902
1020.979	-2836
1021.048	-2254
1021.118	-2384
1021.187	-1984
1021.257	-2344
1021.326	-1860
1021.396	-2661
1021.465	-2187
1021.535	-1895
1021.604	-2774
1021.674	-1806
1021.743	-2649
1021.812	-1773
1021.882	-2040
1021.951	-1981
1022.020	-1364
1022.089	-1624
1022.159	-2417
1022.228	-2122
1022.297	-1353
1022.366	-1991
1022.435	-2133
1022.504	-2465
1022.573	-2502
1022.642	-2337
1022.711	-2798
1022.781	-1313
1022.849	-2102
1022.918	-3064
1022.987	-1459
1023.056	-2214
1023.125	-2379
1023.194	-2348
1023.263	-1812
1023.331	-1814
1023.400	-2726
1023.469	-1717
1023.538	-1853
1023.606	-2179
1023.675	-2592
1023.744	-2665
1023.812	-1823
1023.881	-2549
1023.949	-2041
1024.018	-2545
1024.086	-2161
1024.155	-2997
1024.223	-1887
1024.292	-1430
1024.360	-1639
1024.429	-2467
1024.497	-2958
1024.565	-1879
1024.634	-2537
1024.702	-1730
1024.770	-1952
1024.838	-1604
1024.907	-2296
1024.975	-2438
1025.043	-2913
1025.111	-2558
1025.179	-1905
1025.247	-1881
1025.315	-2292
1025.383	-1620
1025.451	-2080
1025.519	-2105
1025.587	-2720
1025.655	-2551
1025.723	-2540
1025.791	-2058
1025.859	-1490
1025.927	-1745
1025.995	-2574
1026.062	-2703
1026.130	-2232
1026.198	-2643
1026.266	-2605
1026.333	-1974
1026.401	-1812
1026.469	-2193
1026.536	-2981
1026.604	-2233
1026.671	-2279
1026.739	-2211
1026.806	-2804
1026.874	-1718
1026.941	-1869
1027.009	-2472
1027.076	-1552
1027.144	-984
1027.211	-2525
1027.278	-2795
1027.345	-1675
1027.413	-2640
1027.480	-1722
1027.547	-2582
1027.614	-1811
1027.682	-2482
1027.749	-1926
1027.816	-3059
1027.883	-2065
1027.950	-1463
1028.017	-2563
1028.084	-2352
1028.151	-3092
1028.218	-2883
1028.285	-2391
1028.352	-3056
1028.419	-2448
1028.486	-2369
1028.553	-2970
1028.619	-2936
1028.686	-2641
1028.753	-3260
1028.820	-2303
1028.886	-2512
1028.953	-2295
1029.020	-2386
1029.086	-3001
1029.153	-2677
1029.220	-2336
1029.286	-2435
1029.353	-2393
1029.419	-1910
1029.486	-2704
1029.552	-2256
1029.619	-1917
1029.685	-2545
1029.751	-2769
1029.818	-2147
1029.884	-2955
1029.951	-577
1030.017	-2370
1030.083	-2463
1030.149	-3228
1030.216	-2583
1030.282	-1615
1030.348	-2346
1030.414	-2501
1030.480	-2096
1030.546	-1957
1030.612	-2579
1030.678	-2502
1030.744	-2663
1030.810	-2922
1030.876	-2435
1030.942	-3293
1031.008	-2196
1031.074	-2733
1031.140	-2606
1031.206	-1703
1031.272	-2763
1031.337	-2722
1031.403	-1891
1031.469	-2757
1031.534	-2405
1031.600	-1409
1031.666	-2946
1031.731	-2650
1031.797	-2801
1031.863	-2506
1031.928	-3036
1031.994	-2605
1032.059	-2657
1032.125	-2772
1032.190	-3525
1032.256	-2197
1032.321	-1800
1032.386	-3166
1032.452	-2779
1032.517	-2472
1032.582	-2202
1032.647	-2483
1032.713	-2493
1032.778	-2748
1032.843	-2801
1032.908	-2868
1032.974	-2352
1033.039	-2946
1033.104	-2574
1033.169	-2283
1033.234	-2849
1033.299	-1818
1033.364	-1847
1033.429	-2302
1033.494	-2242
1033.559	-2474
1033.624	-2361
1033.688	-1950
1033.753	-2081
1033.818	-1911
1033.883	-2213
1033.948	-3026
1034.013	-1633
1034.077	-2006
1034.142	-1722
1034.207	-1750
1034.271	-517
1034.336	-765
1034.400	-1469
1034.465	-1813
1034.530	-2223
1034.594	-2597
1034.658	-2578
1034.723	-2256
1034.787	-2331
1034.852	-1909
1034.916	-2821
1034.981	-2827
1035.045	-2486
1035.109	-2866
1035.173	-1916
1035.238	-3452
1035.302	-1992
1035.366	-2247
1035.430	-2843
1035.495	-3099
1035.559	-2221
1035.623	-1851
1035.687	-2804
1035.751	-2491
1035.815	-3180
1035.879	-2584
1035.943	-2177
1036.007	-2192
1036.071	-2646
1036.135	-1975
1036.198	-2803
1036.262	-2399
1036.326	-2900
1036.390	-2320
1036.454	-3244
1036.517	-1873
1036.581	-2048
1036.645	-932
1036.709	-1615
1036.772	-2143
1036.836	-2496
1036.900	-2341
1036.963	-2981
1037.026	-1422
1037.090	-2460
1037.154	-2222
1037.217	-2950
1037.280	-2326
1037.344	-1709
1037.407	-3064
1037.471	-3157
1037.534	-2568
1037.597	-2026
1037.661	-2547
1037.724	-2198
1037.787	-2721
1037.850	-2718
1037.913	-3627
1037.977	-2429
1038.040	-2282
1038.103	-2175
1038.166	-2121
1038.229	-2835
1038.292	-1698
1038.355	-2735
1038.418	-2414
1038.481	-2244
1038.544	-2063
1038.607	-2559
1038.670	-2192
1038.732	-3056
1038.795	-2522
1038.858	-2834
1038.921	-2079
1038.984	-2103
1039.046	-3446
1039.109	-2821
1039.172	-3219
1039.234	-2624
1039.297	-2207
1039.360	-2885
1039.422	-2132
1039.485	-2939
1039.547	-2466
1039.610	-2444
1039.672	-2471
1039.734	-2151
1039.797	-3509
1039.859	-3123
1039.922	-2004
1039.984	-1850
1040.046	-2766
1040.109	-2438
1040.171	-3153
1040.233	-2655
1040.295	-2645
1040.358	-3052
1040.420	-2624
1040.482	-2755
1040.544	-2894
1040.606	-2699
1040.668	-2378
1040.730	-3009
1040.792	-2650
1040.854	-2943
1040.916	-3015
1040.978	-3001
1041.040	-2100
1041.102	-2688
1041.164	-2793
1041.225	-2621
1041.287	-2689
1041.349	-2782
1041.411	-2959
1041.472	-2549
1041.534	-2359
1041.596	-3512
1041.657	-2915
1041.719	-2202
1041.781	-2779
1041.842	-1907
1041.904	-1996
1041.965	-2590
1042.027	-2591
1042.088	-3004
1042.150	-2479
1042.211	-2562
1042.272	-2324
1042.334	-3260
1042.395	-2351
1042.456	-1962
1042.518	-2272
1042.579	-1910
1042.640	-1897
1042.701	-2880
1042.763	-3148
1042.824	-2725
1042.885	-2289
1042.946	-2932
1043.007	-3176
1043.068	-2252
1043.129	-2313
1043.190	-2653
1043.251	-1614
1043.312	-2574
1043.373	-2254
1043.434	-2617
1043.495	-2911
1043.556	-2692
1043.616	-1656
1043.677	-2072
1043.738	-1871
1043.799	-2711
1043.859	-2062
1043.920	-2336
1043.981	-2853
1044.041	-2277
1044.102	-2504
1044.162	-2525
1044.223	-2823
1044.284	-2451
1044.344	-2457
1044.405	-2324
1044.465	-2923
1044.525	-3412
1044.586	-1626
1044.646	-2592
1044.707	-1621
1044.767	-2130
1044.827	-2141
1044.887	-2377
1044.948	-2009
1045.008	-2534
1045.068	-2273
1045.128	-2628
1045.188	-1846
1045.249	-1804
1045.309	-2436
1045.369	-1994
1045.429	-1762
1045.489	-1977
1045.549	-2472
1045.609	-2344
1045.669	-2190
1045.729	-2106
1045.789	-2130
1045.848	-2460
1045.908	-1424
1045.968	-1974
1046.028	-1749
1046.088	-2297
1046.147	-1691
1046.207	-2075
1046.267	-2149
1046.326	-1254
1046.386	-1772
1046.446	-1126
1046.505	-1178
1046.565	-1352
1046.624	-1328
1046.684	-1995
1046.743	-884
1046.803	-1834
1046.862	-1238
1046.922	0
