'Start Wavelength	183.907
'End Wavelength	1046.922
'Gate Delay	5.000
'Gate Width (ms)	1.050
'Laser Output Level	0.000
'X Position	0.000
'Y Position	0.000
'Z Position	0.000
'Grid Point Number	1.000
'Shot Number	100.000
183.907	-21.000
183.977	-163.000
184.047	-507
184.116	281
184.186	-56
184.256	-69
184.325	74
184.395	-1157
184.465	187
184.534	507
184.604	-135
184.674	-138
184.743	-492
184.813	48
184.883	30
184.952	-374
185.022	-232
185.092	283
185.161	354
185.231	268
185.301	-28
185.370	527
185.440	315
185.509	264
185.579	-52
185.649	553
185.718	-90
185.788	155
185.857	276
185.927	-212
185.996	127
186.066	-288
186.136	-671
186.205	-254
186.275	-82
186.344	-136
186.414	243
186.483	-89
186.553	217
186.622	1028
186.692	-787
186.761	61
186.831	-522
186.900	-726
186.970	590
187.039	-463
187.109	694
187.178	361
187.248	73
187.317	-222
187.387	-416
187.456	241
187.526	161
187.595	1031
187.664	120
187.734	-188
187.803	-691
187.873	910
187.942	-28
188.012	292
188.081	288
188.150	-536
188.220	317
188.289	919
188.358	593
188.428	812
188.497	582
188.567	744
188.636	-829
188.705	-30
188.775	397
188.844	-45
188.913	502
188.983	-163
189.052	238
189.121	-678
189.191	-30
189.260	228
189.329	191
189.399	-5
189.468	-7
189.537	118
189.606	-441
189.676	457
189.745	436
189.814	454
189.883	-636
189.953	698
190.022	510
190.091	526
190.161	786
190.230	183
190.299	154
190.368	-55
190.437	67
190.507	-77
190.576	398
190.645	91
190.714	102
190.783	-637
190.853	502
190.922	-56
190.991	142
191.060	36
191.129	-531
191.198	469
191.268	-137
191.337	378
191.406	788
191.475	-415
191.544	-249
191.613	-17
191.682	-265
191.752	174
191.821	-483
191.890	-306
191.959	43
192.028	390
192.097	-744
192.166	107
192.235	490
192.304	412
192.373	-788
192.442	177
192.511	394
192.580	-321
192.650	454
192.719	-92
192.788	162
192.857	-90
192.926	256
192.995	-49
193.064	848
193.133	510
193.202	989
193.271	768
193.340	1013
193.409	818
193.478	1282
193.547	1510
193.615	2013
193.684	1375
193.753	1325
193.822	1429
193.891	-50
193.960	872
194.029	-213
194.098	212
194.167	656
194.236	717
194.305	332
194.374	479
194.443	-15
194.512	568
194.580	67
194.649	167
194.718	499
194.787	305
194.856	392
194.925	54
194.994	-331
195.062	406
195.131	-188
195.200	-74
195.269	850
195.338	645
195.407	396
195.475	102
195.544	521
195.613	539
195.682	-121
195.751	935
195.819	-93
195.888	574
195.957	915
196.026	379
196.094	629
196.163	749
196.232	114
196.301	415
196.369	194
196.438	958
196.507	195
196.576	-35
196.644	107
196.713	-150
196.782	231
196.850	64
196.919	419
196.988	1159
197.056	-415
197.125	392
197.194	-146
197.262	83
197.331	453
197.400	522
197.468	-45
197.537	39
197.606	666
197.674	1179
197.743	878
197.812	85
197.880	2228
197.949	257
198.017	1127
198.086	166
198.155	378
198.223	1094
198.292	553
198.360	362
198.429	-234
198.497	-95
198.566	782
198.635	2172
198.703	732
198.772	623
198.840	2184
198.909	1933
198.977	21
199.046	929
199.114	379
199.183	263
199.251	270
199.320	388
199.388	136
199.457	-46
199.525	205
199.594	-93
199.662	214
199.731	86
199.799	826
199.867	373
199.936	-349
200.004	1229
200.073	653
200.141	-99
200.210	126
200.278	-372
200.346	411
200.415	1254
200.483	671
200.552	136
200.620	-61
200.688	441
200.757	-436
200.825	356
200.893	292
200.962	643
201.030	934
201.098	-154
201.167	789
201.235	768
201.303	196
201.372	544
201.440	794
201.508	466
201.577	29
201.645	623
201.713	526
201.781	722
201.850	703
201.918	287
201.986	392
202.055	852
202.123	-26
202.191	-31
202.259	883
202.327	436
202.396	820
202.464	608
202.532	303
202.600	1945
202.669	791
202.737	719
202.805	663
202.873	772
202.941	319
203.009	609
203.078	516
203.146	774
203.214	205
203.282	458
203.350	1233
203.418	-194
203.487	1549
203.555	-12
203.623	724
203.691	948
203.759	-372
203.827	135
203.895	886
203.963	772
204.031	-268
204.099	140
204.168	654
204.236	995
204.304	1485
204.372	770
204.440	581
204.508	783
204.576	15
204.644	684
204.712	1077
204.780	967
204.848	774
204.916	594
204.984	222
205.052	658
205.120	557
205.188	1022
205.256	191
205.324	820
205.392	453
205.460	983
205.528	1078
205.596	1097
205.664	1071
205.732	946
205.799	1474
205.867	2997
205.935	425
206.003	971
206.071	234
206.139	1350
206.207	613
206.275	145
206.343	543
206.411	848
206.478	536
206.546	493
206.614	712
206.682	807
206.750	770
206.818	838
206.885	1268
206.953	-649
207.021	685
207.089	687
207.157	481
207.225	295
207.292	242
207.360	463
207.428	1312
207.496	764
207.563	608
207.631	238
207.699	909
207.767	1330
207.834	604
207.902	838
207.970	778
208.038	789
208.105	1435
208.173	1158
208.241	1072
208.309	1137
208.376	1114
208.444	2436
208.512	878
208.579	378
208.647	1413
208.715	1541
208.782	270
208.850	863
208.918	1098
208.985	1199
209.053	418
209.120	1153
209.188	-108
209.256	707
209.323	293
209.391	1258
209.459	2417
209.526	1728
209.594	618
209.661	571
209.729	782
209.796	857
209.864	1579
209.932	249
209.999	2106
210.067	1953
210.134	986
210.202	842
210.269	1551
210.337	907
210.404	914
210.472	744
210.539	1320
210.607	1366
210.674	1820
210.742	1788
210.809	859
210.877	1413
210.944	1839
211.012	884
211.079	2981
211.146	81
211.214	1589
211.281	1294
211.349	1815
211.416	1268
211.484	604
211.551	733
211.618	1352
211.686	1237
211.753	1251
211.821	1706
211.888	1147
211.955	1308
212.023	1448
212.090	1431
212.157	601
212.225	1297
212.292	2382
212.359	3448
212.427	8480
212.494	4886
212.561	1935
212.629	1217
212.696	1140
212.763	1414
212.831	1195
212.898	1066
212.965	1013
213.032	1185
213.100	1519
213.167	1316
213.234	1777
213.301	1555
213.369	1407
213.436	1578
213.503	1719
213.570	1603
213.638	470
213.705	666
213.772	208
213.839	1592
213.906	1728
213.973	1065
214.041	724
214.108	1504
214.175	557
214.242	2034
214.309	1137
214.376	1205
214.444	1472
214.511	1663
214.578	860
214.645	1708
214.712	1499
214.779	2045
214.846	1350
214.913	1940
214.980	2747
215.048	2823
215.115	2935
215.182	2672
215.249	1742
215.316	1695
215.383	1639
215.450	2232
215.517	1097
215.584	1751
215.651	565
215.718	1221
215.785	1726
215.852	1231
215.919	2093
215.986	2311
216.053	946
216.120	1305
216.187	1121
216.254	1156
216.321	945
216.388	1484
216.455	1509
216.522	1806
216.589	2050
216.656	2796
216.722	3604
216.789	2819
216.856	3686
216.923	3341
216.990	1661
217.057	2749
217.124	2656
217.191	2347
217.258	3042
217.324	4861
217.391	5743
217.458	3888
217.525	3868
217.592	2173
217.659	399
217.725	2631
217.792	1487
217.859	3180
217.926	260
217.993	1656
218.059	2077
218.126	1462
218.193	1109
218.260	1136
218.327	761
218.393	1138
218.460	1235
218.527	884
218.594	1678
218.660	2515
218.727	3142
218.794	662
218.860	1289
218.927	1087
218.994	1124
219.061	389
219.127	874
219.194	1702
219.261	959
219.327	932
219.394	1004
219.461	-376
219.527	584
219.594	1429
219.661	1018
219.727	-202
219.794	1334
219.860	1226
219.927	1326
219.994	1298
220.060	3961
220.127	3527
220.193	1983
220.260	1279
220.326	2781
220.393	5666
220.460	8387
220.526	4949
220.593	1964
220.659	4031
220.726	2607
220.792	5873
220.859	5363
220.925	8922
220.992	13791
221.058	11286
221.125	10401
221.191	7193
221.258	2374
221.324	877
221.391	2033
221.457	1577
221.524	1428
221.590	2004
221.657	5600
221.723	3695
221.789	3457
221.856	3722
221.922	1819
221.989	1593
222.055	1067
222.121	-155
222.188	2259
222.254	1042
222.321	495
222.387	884
222.453	697
222.520	444
222.586	132
222.652	849
222.719	77
222.785	1453
222.851	601
222.918	576
222.984	594
223.050	864
223.116	-28
223.183	1682
223.249	162
223.315	1095
223.382	891
223.448	1101
223.514	330
223.580	379
223.647	843
223.713	248
223.779	-25
223.845	940
223.911	694
223.978	86
224.044	401
224.110	689
224.176	1138
224.242	1100
224.309	-141
224.375	640
224.441	78
224.507	300
224.573	185
224.639	1027
224.705	-329
224.772	996
224.838	238
224.904	634
224.970	656
225.036	53
225.102	-195
225.168	1151
225.234	1067
225.300	708
225.366	333
225.432	418
225.499	134
225.565	824
225.631	1121
225.697	1026
225.763	1149
225.829	1995
225.895	1603
225.961	2908
226.027	2244
226.093	1472
226.159	3350
226.225	4708
226.291	10020
226.357	19486
226.423	8993
226.489	4400
226.554	2596
226.620	2014
226.686	2807
226.752	3862
226.818	8609
226.884	20800
226.950	19441
227.016	8632
227.082	4664
227.148	2735
227.214	3088
227.279	1591
227.345	1764
227.411	1858
227.477	1252
227.543	5006
227.609	4871
227.674	3095
227.740	1015
227.806	1625
227.872	978
227.938	1365
228.003	1771
228.069	1076
228.135	-92
228.201	531
228.267	172
228.332	906
228.398	452
228.464	1488
228.530	1135
228.595	743
228.661	479
228.727	1222
228.792	1522
228.858	329
228.924	-312
228.990	2043
229.055	74
229.121	1428
229.187	374
229.252	1349
229.318	420
229.384	1177
229.449	1067
229.515	-179
229.581	-240
229.646	2099
229.712	1007
229.777	3389
229.843	3122
229.909	1993
229.974	1822
230.040	2294
230.105	1026
230.171	1394
230.236	2360
230.302	2191
230.368	2449
230.433	248
230.499	1412
230.564	2069
230.630	184
230.695	626
230.761	727
230.826	824
230.892	2555
230.957	20
231.023	74
231.088	705
231.154	987
231.219	1244
231.284	430
231.350	2079
231.415	918
231.481	1061
231.546	470
231.612	753
231.677	-231
231.742	240
231.808	1796
231.873	-157
231.939	-1024
232.004	2029
232.069	2391
232.135	697
232.200	627
232.265	1469
232.331	-10
232.396	-38
232.461	-353
232.527	-473
232.592	-556
232.657	863
232.723	1766
232.788	1227
232.853	921
232.918	1118
232.984	140
233.049	-64
233.114	249
233.179	1255
233.245	1622
233.310	2569
233.375	69
233.440	826
233.506	53
233.571	-726
233.636	45
233.701	947
233.766	750
233.832	2468
233.897	-99
233.962	-82
234.027	1799
234.092	959
234.157	550
234.222	444
234.288	1173
234.353	5099
234.418	5072
234.483	3068
234.548	1550
234.613	954
234.678	1913
234.743	1465
234.808	5013
234.873	1879
234.938	2203
235.004	492
235.069	1046
235.134	-25
235.199	1457
235.264	1102
235.329	-695
235.394	1507
235.459	1624
235.524	689
235.589	1369
235.654	246
235.719	507
235.784	1830
235.849	1061
235.913	1916
235.978	2158
236.043	2757
236.108	1320
236.173	1208
236.238	1734
236.303	1315
236.368	877
236.433	2206
236.498	2744
236.563	3115
236.627	6820
236.692	25123
236.757	21767
236.822	7765
236.887	5241
236.952	4871
237.017	1987
237.081	4601
237.146	4771
237.211	11464
237.276	24440
237.341	41528
237.405	18745
237.470	7963
237.535	4543
237.600	3639
237.664	2716
237.729	1786
237.794	3020
237.859	8233
237.923	3760
237.988	2215
238.053	3331
238.118	1440
238.182	7409
238.247	8372
238.312	1733
238.376	2195
238.441	-219
238.506	2661
238.570	247
238.635	1960
238.700	1220
238.764	910
238.829	2580
238.893	2620
238.958	2124
239.023	1977
239.087	736
239.152	1138
239.216	-16
239.281	1764
239.346	575
239.410	628
239.475	1125
239.539	6017
239.604	5225
239.668	1492
239.733	572
239.797	1677
239.862	6908
239.926	6677
239.991	3009
240.055	1654
240.120	1210
240.184	1592
240.249	525
240.313	247
240.378	75
240.442	3582
240.507	6293
240.571	1125
240.635	2394
240.700	3933
240.764	616
240.829	687
240.893	-34
240.957	1207
241.022	3090
241.086	6292
241.151	2182
241.215	-11
241.279	1377
241.344	2948
241.408	1629
241.472	1121
241.537	2552
241.601	1474
241.665	-428
241.730	960
241.794	2532
241.858	396
241.922	445
241.987	1375
242.051	581
242.115	715
242.179	2168
242.244	606
242.308	1668
242.372	1608
242.436	694
242.501	1551
242.565	722
242.629	602
242.693	1054
242.757	335
242.822	663
242.886	981
242.950	2603
243.014	254
243.078	712
243.142	1753
243.206	857
243.271	1505
243.335	1466
243.399	2760
243.463	8622
243.527	27847
243.591	9162
243.655	3154
243.719	1356
243.783	2919
243.847	3113
243.911	4668
243.975	3823
244.040	1995
244.104	3068
244.168	2100
244.232	1422
244.296	2918
244.360	4183
244.424	1470
244.488	1994
244.552	2101
244.615	-368
244.679	874
244.743	792
244.807	826
244.871	646
244.935	1252
244.999	-309
245.063	793
245.127	1724
245.191	2624
245.255	2398
245.319	2445
245.383	1315
245.446	1693
245.510	-435
245.574	874
245.638	900
245.702	-29
245.766	4820
245.829	3565
245.893	591
245.957	1415
246.021	991
246.085	955
246.149	1628
246.212	6369
246.276	9837
246.340	3199
246.404	2318
246.467	3054
246.531	3659
246.595	2428
246.659	2230
246.722	1788
246.786	2434
246.850	2324
246.913	3577
246.977	606
247.041	1426
247.104	2213
247.168	1069
247.232	5618
247.295	14335
247.359	5796
247.423	2423
247.486	5079
247.550	3988
247.614	1653
247.677	2671
247.741	1446
247.804	1624
247.868	1726
247.932	4247
247.995	13053
248.059	4593
248.122	1096
248.186	2671
248.249	4263
248.313	20536
248.376	23057
248.440	13521
248.503	3715
248.567	4122
248.630	4245
248.694	6687
248.757	9370
248.821	22330
248.884	13741
248.948	10701
249.011	16453
249.075	26771
249.138	22673
249.202	7646
249.265	4034
249.328	5226
249.392	2710
249.455	3654
249.519	1774
249.582	3467
249.645	5723
249.709	3933
249.772	2539
249.835	2605
249.899	2474
249.962	2520
250.025	1561
250.089	7983
250.152	12057
250.215	5010
250.279	2697
250.342	3426
250.405	3166
250.468	1983
250.532	3937
250.595	6702
250.658	25254
250.721	45464
250.785	14331
250.848	8425
250.911	4693
250.974	5238
251.038	5728
251.101	14062
251.164	6383
251.227	5507
251.290	5728
251.354	8346
251.417	36107
251.480	38000
251.543	22576
251.606	70478
251.669	51673
251.732	17452
251.795	17589
251.859	18709
251.922	43750
251.985	25503
252.048	8878
252.111	6080
252.174	5162
252.237	10580
252.300	27320
252.363	24434
252.426	60096
252.489	22740
252.552	10240
252.615	5600
252.678	8033
252.741	18838
252.804	23515
252.867	57717
252.930	34079
252.993	17162
253.056	10516
253.119	6557
253.182	4946
253.245	8615
253.308	6385
253.371	5259
253.434	4550
253.497	4319
253.559	12192
253.622	7033
253.685	7423
253.748	7923
253.811	3411
253.874	4475
253.937	3619
254.000	3461
254.062	7166
254.125	13827
254.188	9568
254.251	7307
254.314	3380
254.376	6778
254.439	8512
254.502	6071
254.565	6951
254.628	15468
254.690	7129
254.753	3904
254.816	3202
254.878	2739
254.941	8784
255.004	9948
255.067	3455
255.129	2894
255.192	1343
255.255	1159
255.317	2335
255.380	1079
255.443	1196
255.505	723
255.568	634
255.631	934
255.693	1084
255.756	699
255.819	1446
255.881	1400
255.944	696
256.006	75
256.069	441
256.132	1112
256.194	1225
256.257	4237
256.319	3333
256.382	2293
256.444	2493
256.507	1343
256.569	1464
256.632	1871
256.694	2598
256.757	13237
256.819	42178
256.882	15183
256.944	5986
257.007	4717
257.069	3232
257.132	2496
257.194	3085
257.257	1193
257.319	1862
257.381	2002
257.444	8458
257.506	46317
257.569	53151
257.631	19377
257.693	10390
257.756	5145
257.818	4033
257.880	2569
257.943	2608
258.005	719
258.067	1244
258.130	1846
258.192	2148
258.254	3580
258.317	1498
258.379	2924
258.441	6180
258.503	7479
258.566	6925
258.628	9242
258.690	2125
258.753	2966
258.815	4584
258.877	1852
258.939	1660
259.001	1262
259.064	850
259.126	1219
259.188	2425
259.250	1470
259.312	1536
259.375	5473
259.437	3200
259.499	1525
259.561	1250
259.623	937
259.685	1299
259.747	1499
259.809	6233
259.872	12176
259.934	19650
259.996	18127
260.058	4497
260.120	1440
260.182	2727
260.244	1140
260.306	559
260.368	1693
260.430	89
260.492	2504
260.554	6434
260.616	3941
260.678	10158
260.740	14141
260.802	3055
260.864	2394
260.926	590
260.988	1856
261.050	1635
261.112	3608
261.174	12997
261.236	10744
261.298	3158
261.359	4867
261.421	7684
261.483	1451
261.545	1799
261.607	-220
261.669	1476
261.731	2193
261.793	9006
261.854	2764
261.916	2376
261.978	1361
262.040	1909
262.102	1284
262.164	2411
262.225	2801
262.287	1640
262.349	4430
262.411	3852
262.472	1725
262.534	2520
262.596	6836
262.658	2833
262.719	483
262.781	1395
262.843	5886
262.904	3587
262.966	1573
263.028	2700
263.090	13835
263.151	41255
263.213	12281
263.275	5298
263.336	1726
263.398	2564
263.459	1041
263.521	1493
263.583	3629
263.644	3433
263.706	716
263.767	544
263.829	896
263.891	793
263.952	-581
264.014	-165
264.075	1180
264.137	4638
264.198	2186
264.260	351
264.321	357
264.383	3149
264.444	8063
264.506	1933
264.567	1054
264.629	3466
264.690	5804
264.752	1956
264.813	1126
264.875	852
264.936	2074
264.998	859
265.059	444
265.120	1618
265.182	2836
265.243	23054
265.305	24440
265.366	4524
265.427	1798
265.489	2622
265.550	54
265.611	2068
265.673	428
265.734	978
265.795	1055
265.857	149
265.918	1104
265.979	5408
266.040	35574
266.102	30895
266.163	6333
266.224	4105
266.286	2159
266.347	1538
266.408	811
266.469	1619
266.530	264
266.592	251
266.653	2405
266.714	4741
266.775	1395
266.836	803
266.898	-513
266.959	1045
267.020	803
267.081	1545
267.142	484
267.203	356
267.264	-501
267.326	1632
267.387	-284
267.448	-364
267.509	988
267.570	10
267.631	211
267.692	-494
267.753	565
267.814	339
267.875	2899
267.936	7119
267.997	2525
268.058	1984
268.119	997
268.180	1187
268.241	475
268.302	591
268.363	-315
268.424	647
268.485	764
268.546	192
268.607	-41
268.668	149
268.729	-489
268.790	-214
268.851	703
268.912	2767
268.972	3814
269.033	1305
269.094	140
269.155	445
269.216	8
269.277	-137
269.338	663
269.398	958
269.459	247
269.520	1337
269.581	1992
269.642	2823
269.702	1069
269.763	1045
269.824	818
269.885	930
269.945	2625
270.006	546
270.067	-434
270.128	390
270.188	-479
270.249	-445
270.310	203
270.370	837
270.431	-586
270.492	-162
270.553	348
270.613	2106
270.674	7125
270.734	2501
270.795	1491
270.856	1227
270.916	609
270.977	637
271.038	1545
271.098	240
271.159	1992
271.219	1948
271.280	511
271.340	-29
271.401	1129
271.462	3070
271.522	2018
271.583	960
271.643	-226
271.704	763
271.764	644
271.825	4278
271.885	17712
271.946	27765
272.006	6818
272.066	10862
272.127	23216
272.187	6869
272.248	3209
272.308	3109
272.369	16187
272.429	8838
272.489	2698
272.550	4338
272.610	3732
272.671	3606
272.731	1986
272.791	3502
272.852	1376
272.912	2196
272.972	573
273.033	510
273.093	1359
273.153	3261
273.214	1550
273.274	1024
273.334	7965
273.394	22823
273.455	6690
273.515	5844
273.575	17656
273.635	5258
273.696	7985
273.756	21714
273.816	8508
273.876	3450
273.936	6053
273.997	12151
274.057	1907
274.117	1735
274.177	4241
274.237	23685
274.297	21822
274.358	11033
274.418	17338
274.478	12825
274.538	3263
274.598	2148
274.658	9781
274.718	11962
274.778	4425
274.838	2004
274.898	4090
274.958	16257
275.018	20276
275.078	14233
275.138	4009
275.198	2296
275.258	1124
275.318	1988
275.378	3788
275.438	4177
275.498	2981
275.558	7127
275.618	18418
275.678	15013
275.738	6360
275.798	4174
275.858	2023
275.918	1025
275.978	363
276.038	2088
276.098	316
276.157	2680
276.217	11155
276.277	4877
276.337	2913
276.397	1616
276.457	1621
276.517	547
276.576	434
276.636	78
276.696	1705
276.756	5580
276.815	4554
276.875	1114
276.935	1234
276.995	1287
277.055	440
277.114	631
277.174	1447
277.234	10950
277.293	4044
277.353	1728
277.413	1390
277.472	888
277.532	602
277.592	1582
277.651	4840
277.711	11370
277.771	3263
277.830	13735
277.890	11965
277.950	7472
278.009	26515
278.069	9599
278.128	7543
278.188	10490
278.248	3713
278.307	10728
278.367	7031
278.426	2208
278.486	1695
278.545	411
278.605	926
278.664	332
278.724	1657
278.783	6615
278.843	23781
278.902	7023
278.962	2213
279.021	2331
279.081	1500
279.140	1598
279.199	1572
279.259	2000
279.318	1681
279.378	2403
279.437	5354
279.496	29902
279.556	75073
279.615	62600
279.675	13308
279.734	7286
279.793	10618
279.853	25613
279.912	8475
279.971	3038
280.031	3527
280.090	8114
280.149	18726
280.208	9405
280.268	47163
280.327	54851
280.386	10450
280.445	8166
280.505	8678
280.564	3121
280.623	2234
280.682	4660
280.742	9371
280.801	2718
280.860	1025
280.919	995
280.978	441
281.037	350
281.097	411
281.156	880
281.215	1272
281.274	1551
281.333	14533
281.392	11352
281.451	2653
281.510	535
281.569	518
281.628	670
281.688	2
281.747	1266
281.806	920
281.865	878
281.924	-77
281.983	419
282.042	-325
282.101	137
282.160	28
282.219	35
282.278	606
282.337	5432
282.396	4135
282.454	1506
282.513	1177
282.572	9149
282.631	5214
282.690	553
282.749	247
282.808	421
282.867	891
282.926	2042
282.985	-244
283.043	-843
283.102	307
283.161	1053
283.220	4310
283.279	12896
283.338	2218
283.396	1041
283.455	830
283.514	1243
283.573	2776
283.631	1185
283.690	1295
283.749	213
283.808	3170
283.866	4663
283.925	487
283.984	989
284.043	555
284.101	1734
284.160	335
284.219	2098
284.277	1206
284.336	2975
284.395	12724
284.453	12188
284.512	2444
284.570	4018
284.629	2620
284.688	1786
284.746	1847
284.805	2588
284.863	2582
284.922	3740
284.981	3829
285.039	6142
285.098	12082
285.156	36831
285.215	127865
285.273	129596
285.332	47395
285.390	20978
285.449	11573
285.507	8794
285.566	5079
285.624	3955
285.683	3239
285.741	2515
285.799	1206
285.858	1707
285.916	1765
285.975	931
286.033	514
286.091	485
286.150	645
286.208	414
286.267	1108
286.325	1453
286.383	1665
286.442	1653
286.500	-342
286.558	285
286.616	549
286.675	1610
286.733	404
286.791	674
286.850	1580
286.908	859
286.966	4310
287.024	1601
287.083	210
287.141	273
287.199	795
287.257	1792
287.315	1100
287.374	1453
287.432	4309
287.490	2935
287.548	1164
287.606	977
287.664	1298
287.723	1092
287.781	2160
287.839	1547
287.897	1273
287.955	2755
288.013	4712
288.071	12392
288.129	52627
288.187	170246
288.245	75933
288.303	20416
288.361	10686
288.419	8138
288.477	5975
288.535	3589
288.593	2568
288.651	2765
288.709	758
288.767	548
288.825	260
288.883	555
288.941	-492
288.999	-69
289.057	38
289.115	-84
289.173	-496
289.231	622
289.289	-438
289.346	-384
289.404	705
289.462	2619
289.520	1714
289.578	1084
289.636	27
289.694	224
289.751	-280
289.809	334
289.867	-375
289.925	393
289.983	930
290.040	411
290.098	24
290.156	508
290.214	187
290.271	-66
290.329	436
290.387	-1135
290.444	-718
290.502	-1121
290.560	-295
290.617	25
290.675	-312
290.733	-16
290.790	413
290.848	-544
290.906	567
290.963	207
291.021	-5
291.078	132
291.136	-16
291.194	3740
291.251	11923
291.309	2653
291.366	448
291.424	881
291.481	535
291.539	-465
291.596	235
291.654	-187
291.711	-355
291.769	590
291.826	2195
291.884	672
291.941	-396
291.999	-186
292.056	341
292.114	669
292.171	-124
292.228	-77
292.286	862
292.343	1784
292.401	2058
292.458	1394
292.515	-272
292.573	824
292.630	-37
292.687	245
292.745	505
292.802	1024
292.859	4539
292.917	12129
292.974	7955
293.031	2052
293.089	371
293.146	540
293.203	-453
293.260	-500
293.318	254
293.375	798
293.432	81
293.489	665
293.546	24
293.604	997
293.661	7422
293.718	27441
293.775	10269
293.832	3731
293.889	2528
293.947	2676
294.004	1018
294.061	1514
294.118	3771
294.175	10179
294.232	10492
294.289	3982
294.346	1751
294.403	1244
294.460	1252
294.517	718
294.574	533
294.631	138
294.688	960
294.745	6118
294.802	27039
294.859	26633
294.916	7894
294.973	4126
295.030	2589
295.087	3190
295.144	1554
295.201	2058
295.258	1196
295.315	1769
295.372	9600
295.429	23108
295.486	8527
295.542	3600
295.599	7891
295.656	13389
295.713	10409
295.770	20178
295.827	7464
295.883	2397
295.940	1407
295.997	3250
296.054	2822
296.111	1912
296.167	665
296.224	290
296.281	35
296.338	597
296.394	281
296.451	1342
296.508	6195
296.564	15700
296.621	9397
296.678	21157
296.734	34983
296.791	12055
296.848	4180
296.904	4441
296.961	11048
297.018	22746
297.074	16874
297.131	5429
297.187	3816
297.244	6683
297.301	22976
297.357	50774
297.414	17478
297.470	6525
297.527	2948
297.583	1643
297.640	2366
297.696	1062
297.753	1293
297.809	1054
297.866	-172
297.922	-119
297.979	390
298.035	1151
298.092	2744
298.148	11699
298.204	13140
298.261	4057
298.317	8638
298.374	29864
298.430	18543
298.486	6310
298.543	3688
298.599	2457
298.656	2444
298.712	5882
298.768	19093
298.824	15480
298.881	4374
298.937	2397
298.993	1537
299.050	1213
299.106	1289
299.162	1203
299.218	1479
299.275	848
299.331	2628
299.387	5250
299.443	25246
299.500	31556
299.556	11684
299.612	4405
299.668	3797
299.724	5811
299.780	7301
299.837	2679
299.893	4787
299.949	19565
300.005	25401
300.061	19813
300.117	38719
300.173	19745
300.229	5928
300.285	6070
300.341	7347
300.397	3245
300.453	1839
300.510	1940
300.566	2372
300.622	3536
300.678	12941
300.734	24803
300.790	21811
300.845	29334
300.901	17512
300.957	21820
301.013	15939
301.069	4617
301.125	3019
301.181	2767
301.237	1989
301.293	1103
301.349	1255
301.405	735
301.461	334
301.516	316
301.572	2265
301.628	3968
301.684	3076
301.740	5320
301.796	11626
301.851	6380
301.907	11516
301.963	13632
302.019	25040
302.074	75228
302.130	77614
302.186	33044
302.242	11416
302.297	6904
302.353	7010
302.409	13321
302.464	12811
302.520	8941
302.576	22531
302.631	31861
302.687	13926
302.743	5464
302.798	3363
302.854	2863
302.910	2661
302.965	3086
303.021	5901
303.076	5109
303.132	6273
303.187	7975
303.243	4089
303.299	2771
303.354	2351
303.410	1457
303.465	1147
303.521	803
303.576	1659
303.632	2920
303.687	6250
303.743	23856
303.798	22433
303.853	7953
303.909	3540
303.964	3082
304.020	4321
304.075	6258
304.130	5706
304.186	10306
304.241	11335
304.297	8085
304.352	4422
304.358	4202
304.407	2415
304.449	2078
304.463	1968
304.518	2702
304.539	2376
304.573	1850
304.629	2007
304.630	2072
304.684	5162
304.720	12549
304.739	16270
304.794	29355
304.811	25062
304.850	14662
304.902	5482
304.905	4901
304.960	3306
304.992	3435
305.015	3514
305.071	2825
305.083	2617
305.126	1866
305.173	1602
305.181	1559
305.236	860
305.264	952
305.292	1092
305.347	886
305.354	1031
305.402	1928
305.445	2193
305.457	2259
305.512	3663
305.535	3755
305.567	3847
305.622	4110
305.626	4246
305.678	8108
305.716	19293
305.733	23343
305.788	28528
305.807	24392
305.843	17430
305.897	23503
305.898	23557
305.953	25778
305.988	17032
306.008	12235
306.063	6238
306.078	5278
306.118	3210
306.168	2300
306.173	2226
306.228	2017
306.259	2001
306.283	1980
306.338	1405
306.349	1581
306.393	2464
306.440	2719
306.448	2712
306.503	2683
306.530	2480
306.558	2917
306.613	6905
306.620	7598
306.668	12863
306.711	18806
306.723	19519
306.778	17656
306.801	13394
306.833	8199
306.888	3494
306.892	3377
306.943	3158
306.982	2447
306.997	2115
307.052	1656
307.072	1685
307.107	2125
307.162	2731
307.163	2744
307.217	4351
307.253	5149
307.272	5194
307.327	5341
307.343	4877
307.381	4014
307.434	3440
307.436	3568
307.491	8594
307.524	13479
307.546	15191
307.600	17126
307.614	15656
307.655	9623
307.704	4379
307.710	4161
307.765	4516
307.795	5616
307.819	6835
307.874	10704
307.885	10926
307.929	9572
307.975	8041
307.984	8311
308.038	12105
308.065	16050
308.093	27701
308.148	60353
308.156	68998
308.202	116850
308.246	148547
308.257	147150
308.312	80624
308.336	55979
308.366	39575
308.421	23563
308.426	22424
308.475	14158
308.517	9851
308.530	8998
308.585	7140
308.607	6397
308.639	5880
308.694	6216
308.697	6273
308.748	9823
308.787	14129
308.803	14251
308.857	11394
308.877	9831
308.912	8302
308.967	7760
308.967	7773
309.021	11180
309.058	14334
309.076	18577
309.130	34736
309.148	42246
309.185	79196
309.238	148455
309.239	148994
309.293	176251
309.328	162916
309.348	141533
309.402	66318
309.418	48886
309.457	31285
309.508	17953
309.511	17441
309.566	13938
309.598	12411
309.620	12673
309.674	15035
309.688	15788
309.729	14964
309.778	12084
309.783	11823
309.837	9120
309.868	7946
309.892	10176
309.946	17019
309.959	19281
310.001	26907
310.049	33859
310.055	32723
310.109	18929
310.139	10714
310.163	7993
310.218	4171
310.229	3548
310.272	3193
310.319	3340
310.326	3236
310.381	2482
310.409	1954
310.435	1748
310.489	1672
310.499	1653
310.543	1918
310.589	2139
310.598	2141
310.652	2313
310.679	2339
310.706	2229
310.760	1889
310.769	1854
310.814	1765
310.859	1622
310.868	1673
310.923	1956
310.948	2123
310.977	2199
311.031	2273
311.038	2292
311.085	2046
311.128	1633
311.139	1680
311.193	2137
311.218	2201
311.247	1922
311.301	1593
311.308	1550
311.356	1826
311.398	1925
311.410	1893
311.464	1929
311.488	1859
311.518	1736
311.572	1601
311.578	1584
311.626	2638
311.668	3548
311.680	3452
311.734	2903
311.758	2680
311.788	2579
311.842	2377
311.847	2351
311.896	3655
311.937	4831
311.950	4622
312.004	3634
312.027	3182
312.058	2877
312.112	2354
312.117	2298
312.165	2402
312.207	2486
312.297	1985
312.386	2865
312.476	2532
312.566	5561
312.656	2045
312.745	2367
312.835	1891
312.925	2623
313.015	2243
313.104	2116
313.194	2091
313.284	1695
313.374	3052
313.463	2262
313.553	2167
313.643	1923
313.732	1867
313.822	2204
313.912	2021
314.001	3367
314.091	2566
314.180	3844
314.270	3796
314.360	3555
314.449	3319
314.539	2010
314.628	1827
314.718	2779
314.808	3013
314.897	1812
314.987	2571
315.076	2995
315.166	4049
315.255	3744
315.345	2943
315.434	3013
315.524	2955
315.613	3663
315.703	4322
315.792	7749
315.881	21355
315.971	7110
316.060	6417
316.150	8283
316.239	7936
316.328	3149
316.418	2266
316.507	2522
316.597	3745
316.686	2992
316.775	3302
316.865	7917
316.954	2577
317.043	1636
317.133	1696
317.222	1865
317.311	1375
317.400	584
317.490	3360
317.579	3372
317.668	2798
317.757	4776
317.847	11103
317.936	36310
318.025	14459
318.114	8380
318.203	4843
318.293	4806
318.382	5914
318.471	7286
318.560	8771
318.649	24390
318.738	4855
318.828	3240
318.917	3948
319.006	4130
319.095	10224
319.184	29710
319.273	16996
319.362	8712
319.451	2648
319.540	3155
319.629	6539
319.718	11834
319.807	5024
319.896	9828
319.985	40660
320.074	13931
320.163	3130
320.252	4885
320.341	4749
320.430	3879
320.519	5296
320.608	2996
320.697	2482
320.786	2523
320.875	4539
320.964	5931
321.053	7565
321.142	11016
321.230	11825
321.319	8874
321.408	20167
321.497	8179
321.586	8078
321.675	8838
321.764	8326
321.852	5581
321.941	11711
322.030	6955
322.119	8183
322.207	21343
322.296	14081
322.385	7395
322.474	9164
322.562	25815
322.651	13464
322.740	8209
322.829	11906
322.917	11933
323.006	6863
323.095	6729
323.183	3749
323.272	6437
323.361	11664
323.449	36054
323.538	12471
323.626	24009
323.715	14290
323.804	5575
323.892	22394
323.981	12355
324.069	3595
324.158	11718
324.246	11293
324.335	4704
324.424	7028
324.512	3252
324.601	4576
324.689	12409
324.778	24424
324.866	9385
324.954	3229
325.043	2387
325.131	4841
325.220	9174
325.308	9694
325.397	7359
325.485	5399
325.574	1707
325.662	1343
325.750	2094
325.839	2222
325.927	1231
326.015	1943
326.104	3050
326.192	4553
326.280	1695
326.369	1813
326.457	3317
326.545	6237
326.634	2203
326.722	1167
326.810	1583
326.898	1875
326.987	2087
327.075	4953
327.163	5385
327.251	3100
327.340	8122
327.428	13512
327.516	2801
327.604	1751
327.692	1731
327.781	2266
327.869	3850
327.957	1836
328.045	2010
328.133	1865
328.221	1366
328.309	1742
328.397	1434
328.485	2309
328.574	3550
328.662	13061
328.750	6148
328.838	2433
328.926	1676
329.014	1963
329.102	2550
329.190	6930
329.278	4687
329.366	540
329.454	1379
329.542	1656
329.630	1019
329.718	1896
329.806	1787
329.893	2196
329.981	1712
330.069	3022
330.157	11870
330.245	40299
330.333	21323
330.421	3898
330.509	4566
330.597	15294
330.684	9237
330.772	3878
330.860	3705
330.948	4900
331.036	2129
331.123	1309
331.211	1132
331.299	1423
331.387	3931
331.475	8104
331.562	1869
331.650	1134
331.738	2019
331.825	2360
331.913	1862
332.001	1088
332.089	2686
332.176	5228
332.264	10483
332.352	7231
332.439	2053
332.527	2522
332.614	1035
332.702	2835
332.790	1897
332.877	4068
332.965	9623
333.052	1657
333.140	1536
333.228	4729
333.315	1882
333.403	1949
333.490	6690
333.578	5456
333.665	4395
333.753	3078
333.840	1516
333.928	2536
334.015	8238
334.103	10973
334.190	38933
334.278	10300
334.365	5705
334.452	4792
334.540	2670
334.627	2821
334.715	4497
334.802	8618
334.889	41562
334.977	46907
335.064	9888
335.151	3509
335.239	2999
335.326	4274
335.413	20137
335.501	27587
335.588	4026
335.675	2185
335.762	3420
335.850	5648
335.937	5028
336.024	12548
336.111	49947
336.199	27123
336.286	6544
336.373	3282
336.460	2468
336.547	1445
336.635	2365
336.722	1743
336.809	1743
336.896	2593
336.983	10384
337.070	26424
337.157	42560
337.245	27909
337.332	19138
337.419	2355
337.506	1790
337.593	2563
337.680	7401
337.767	25389
337.854	6275
337.941	7353
338.028	9035
338.115	2908
338.202	4078
338.289	5728
338.376	26291
338.463	8440
338.550	14209
338.637	15030
338.724	5634
338.811	8043
338.898	1505
338.984	1194
339.071	1007
339.158	2704
339.245	7624
339.332	4124
339.419	5151
339.506	5292
339.593	662
339.679	1944
339.766	976
339.853	2713
339.940	5486
340.027	1420
340.113	2263
340.200	2046
340.287	2313
340.374	2675
340.460	5233
340.547	1158
340.634	4302
340.720	15485
340.807	9065
340.894	1377
340.980	1520
341.067	844
341.154	2360
341.240	3234
341.327	7301
341.414	2943
341.500	600
341.587	1594
341.674	1988
341.760	5376
341.847	6640
341.933	2351
342.020	-54
342.106	811
342.193	2323
342.279	3527
342.366	2193
342.452	5646
342.539	2337
342.625	5469
342.712	17291
342.798	6556
342.885	2141
342.971	276
343.058	859
343.144	919
343.230	1877
343.317	834
343.403	238
343.490	1864
343.576	179
343.662	1273
343.749	1612
343.835	3452
343.921	6446
344.008	40136
344.094	101166
344.180	20094
344.267	6496
344.353	22908
344.439	25006
344.525	7511
344.612	3087
344.698	2112
344.784	1686
344.870	1236
344.957	861
345.043	3683
345.129	2249
345.215	4414
345.301	2583
345.387	1544
345.474	1015
345.560	782
345.646	1564
345.732	1532
345.818	1055
345.904	1749
345.990	1896
346.076	2095
346.162	3016
346.249	2273
346.335	658
346.421	2208
346.507	9037
346.593	38525
346.679	7577
346.765	2334
346.851	1951
346.937	830
347.023	2391
347.108	1750
347.194	1058
347.280	424
347.366	2449
347.452	9986
347.538	47576
347.624	30824
347.710	23817
347.796	2746
347.882	702
347.967	1727
348.053	2163
348.139	590
348.225	477
348.311	1041
348.397	1368
348.482	1726
348.568	2255
348.654	1012
348.740	3130
348.825	2060
348.911	3617
348.997	19072
349.083	44024
349.168	5390
349.254	1715
349.340	973
349.425	794
349.511	1854
349.597	1921
349.682	5815
349.768	24036
349.854	10841
349.939	1199
350.025	1197
350.110	782
350.196	177
350.282	-434
350.367	776
350.453	2112
350.538	1809
350.624	1554
350.709	1414
350.795	207
350.880	535
350.966	2088
351.051	2568
351.137	2415
351.222	1306
351.308	5818
351.393	18798
351.479	3276
351.564	-2
351.649	1362
351.735	107
351.820	1546
351.906	1344
351.991	1839
352.076	10847
352.162	17925
352.247	2633
352.332	2421
352.418	3106
352.503	4358
352.588	27381
352.673	21106
352.759	3752
352.844	1332
352.929	2010
353.014	2922
353.100	1621
353.185	2502
353.270	5080
353.355	6428
353.441	1797
353.526	1416
353.611	5272
353.696	5110
353.781	3597
353.866	1164
353.952	2330
354.037	4025
354.122	12109
354.207	9902
354.292	3700
354.377	849
354.462	953
354.547	1830
354.632	2113
354.717	2463
354.802	3115
354.887	1760
354.972	1304
355.057	966
355.142	743
355.227	1645
355.312	3052
355.397	7408
355.482	19279
355.567	8179
355.652	6746
355.737	7344
355.822	25505
355.907	21076
355.991	3344
356.076	1778
356.161	1704
356.246	440
356.331	1282
356.416	4750
356.501	45597
356.585	47332
356.670	4956
356.755	4269
356.840	5322
356.924	25075
357.009	108042
357.094	39111
357.179	6493
357.263	4609
357.348	3985
357.433	4169
357.517	4509
357.602	3997
357.687	1771
357.771	3358
357.856	4885
357.941	5291
358.025	19583
358.110	104526
358.195	46449
358.279	5898
358.364	4768
358.448	14256
358.533	46361
358.617	33024
358.702	33839
358.787	12023
358.871	6636
358.956	4703
359.040	1341
359.125	523
359.209	1273
359.294	2466
359.378	4197
359.462	4596
359.547	2597
359.631	2037
359.716	-335
359.800	458
359.885	3742
359.969	1157
360.053	2211
360.138	971
360.222	2413
360.306	4611
360.391	3634
360.475	4674
360.559	12562
360.644	15014
360.728	10643
360.812	22790
360.896	70563
360.981	23799
361.065	11247
361.149	3051
361.233	3483
361.318	1191
361.402	2310
361.486	2900
361.570	802
361.654	2405
361.739	7194
361.823	41212
361.907	70310
361.991	10177
362.075	5435
362.159	11214
362.243	9442
362.327	9665
362.411	17046
362.495	6532
362.580	2786
362.664	2544
362.748	1458
362.832	2796
362.916	4368
363.000	24106
363.084	70311
363.168	88120
363.252	17616
363.336	5417
363.420	7418
363.503	26917
363.587	33095
363.671	5376
363.755	2532
363.839	6241
363.923	2032
364.007	5938
364.091	7128
364.175	8776
364.258	48451
364.342	38254
364.426	61288
364.510	33398
364.594	11817
364.677	12128
364.761	58993
364.845	42714
364.929	9908
365.013	8624
365.096	7371
365.180	8378
365.264	10231
365.347	47809
365.431	18453
365.515	3332
365.598	2270
365.682	2568
365.766	3209
365.849	4246
365.933	1858
366.017	4000
366.100	2118
366.184	348
366.267	1629
366.351	1099
366.435	772
366.518	644
366.602	804
366.685	749
366.769	1683
366.852	3601
366.936	6536
367.019	3452
367.103	2650
367.186	5696
367.270	888
367.353	-37
367.436	828
367.520	1343
367.603	2218
367.687	2626
367.770	6849
367.853	4633
367.937	17075
368.020	30800
368.104	5522
368.187	5333
368.270	6989
368.353	5817
368.437	8264
368.520	17431
368.603	11300
368.687	17107
368.770	36028
368.853	7577
368.936	6798
369.020	5632
369.103	2069
369.186	71
369.269	709
369.352	4089
369.436	6062
369.519	3876
369.602	-99
369.685	2591
369.768	1524
369.851	1751
369.934	774
370.018	1426
370.101	4682
370.184	4999
370.267	2746
370.350	4170
370.433	6828
370.516	31359
370.599	43598
370.682	9261
370.765	17242
370.848	22276
370.931	45033
371.014	15589
371.097	1100
371.180	2224
371.263	1200
371.346	-387
371.429	1435
371.511	1129
371.594	2129
371.677	5392
371.760	6232
371.843	5016
371.926	33816
372.009	89513
372.091	25695
372.174	14256
372.257	47640
372.340	17079
372.423	8151
372.505	10435
372.588	3488
372.671	11572
372.754	43397
372.836	21347
372.919	10835
373.002	24319
373.085	6412
373.167	4777
373.250	16060
373.332	44331
373.415	53269
373.498	118417
373.580	40110
373.663	58617
373.746	83921
373.828	16761
373.911	6304
373.993	5284
374.076	23822
374.159	22338
374.241	9690
374.324	35525
374.406	23652
374.489	32787
374.571	109359
374.654	41675
374.736	17376
374.819	62854
374.901	85632
374.983	89248
375.066	13868
375.148	4353
375.231	19127
375.313	40185
375.395	13510
375.478	3800
375.560	2091
375.643	3859
375.725	14440
375.807	75385
375.890	56230
375.972	17112
376.054	9319
376.136	14637
376.219	6511
376.301	18997
376.383	65435
376.465	23707
376.548	10804
376.630	14989
376.712	53646
376.794	24826
376.877	2097
376.959	1037
377.041	2412
377.123	3645
377.205	4558
377.287	361
377.369	1461
377.452	1217
377.534	2001
377.616	1600
377.698	1488
377.780	404
377.862	1755
377.944	2403
378.026	968
378.108	1018
378.190	565
378.272	1530
378.354	360
378.436	-54
378.518	944
378.600	8900
378.682	8285
378.764	23275
378.846	19429
378.928	4576
379.010	5540
379.091	3307
379.173	1683
379.255	1111
379.337	2147
379.419	10241
379.501	35156
379.583	13521
379.664	2938
379.746	6325
379.828	22819
379.910	32339
379.991	30019
380.073	4550
380.155	2193
380.237	1943
380.318	429
380.400	1166
380.482	4302
380.564	6039
380.645	6462
380.727	5567
380.809	3192
380.890	1270
380.972	574
381.053	1539
381.135	2451
381.217	6862
381.298	25330
381.380	11754
381.461	8680
381.543	48321
381.624	62739
381.706	10359
381.787	3765
381.869	5653
381.951	19497
382.032	91080
382.113	57738
382.195	7795
382.276	5984
382.358	13276
382.439	50839
382.521	54105
382.602	88012
382.684	33018
382.765	57240
382.846	46355
382.928	37644
383.009	19780
383.090	13812
383.172	51985
383.253	86727
383.334	36969
383.416	67398
383.497	33317
383.578	6997
383.659	12462
383.741	45263
383.822	131369
383.903	67010
383.984	35074
384.066	83531
384.147	48548
384.228	8465
384.309	5475
384.390	4543
384.471	2445
384.553	3766
384.634	4963
384.715	5827
384.796	1868
384.877	2568
384.958	20681
385.039	26396
385.120	8155
385.201	4070
385.282	4050
385.363	4251
385.444	2836
385.525	6017
385.606	37962
385.687	36919
385.768	6695
385.849	6411
385.930	39866
386.011	78984
386.092	18302
386.173	3724
386.254	2178
386.335	3440
386.416	2358
386.496	13235
386.577	24814
386.658	6858
386.739	3510
386.820	3847
386.901	3039
386.981	2812
387.062	2226
387.143	4779
387.224	23364
387.304	23628
387.385	7835
387.466	2896
387.547	5840
387.627	3828
387.708	8709
387.789	43368
387.869	59249
387.950	16587
388.031	1880
388.111	389
388.192	5992
388.273	8318
388.353	4648
388.434	2907
388.514	7219
388.595	48458
388.676	61897
388.756	24605
388.837	21195
388.917	12603
388.998	1364
389.078	2775
389.159	2542
389.239	833
389.320	4350
389.400	1932
389.480	8551
389.561	28515
389.641	14833
389.722	4049
389.802	5632
389.883	11051
389.963	36391
390.043	19699
390.124	3681
390.204	6910
390.284	26343
390.365	16413
390.445	16418
390.525	43281
390.605	39105
390.686	12535
390.766	4733
390.846	3245
390.927	1359
391.007	700
391.087	2835
391.167	2067
391.247	992
391.328	3416
391.408	6317
391.488	4053
391.568	185
391.648	2651
391.728	5022
391.808	4430
391.888	5144
391.969	14094
392.049	24718
392.129	10413
392.209	10972
392.289	34649
392.369	17738
392.449	11132
392.529	7266
392.609	7293
392.689	8948
392.769	34032
392.849	29742
392.929	18441
393.009	47804
393.089	39272
393.169	35758
393.248	106764
393.328	381715
393.408	411979
393.488	122365
393.568	35096
393.648	17315
393.728	10671
393.807	7670
393.887	7334
393.967	6990
394.047	7010
394.127	8383
394.206	13299
394.286	47715
394.366	212750
394.446	232132
394.525	51911
394.605	13019
394.685	9340
394.764	15980
394.844	26521
394.924	20869
395.003	7075
395.083	5483
395.163	4178
395.242	3871
395.322	4666
395.402	2404
395.481	5675
395.561	10316
395.640	31996
395.720	29403
395.799	35353
395.879	28879
395.958	19552
396.038	70155
396.117	282102
396.197	309911
396.276	87347
396.356	25721
396.435	17847
396.515	14203
396.594	15629
396.673	30265
396.753	112982
396.832	351594
396.912	264594
396.991	62638
397.070	17460
397.150	8664
397.229	8615
397.308	11058
397.388	19093
397.467	8608
397.546	4260
397.625	1053
397.705	5364
397.784	3420
397.863	2052
397.942	1481
398.022	1767
398.101	7363
398.180	26429
398.259	12198
398.338	4543
398.417	2456
398.497	1786
398.576	2891
398.655	468
398.734	1840
398.813	1043
398.892	6986
398.971	30398
399.050	14490
399.129	606
399.208	1033
399.287	1623
399.366	54
399.445	867
399.524	832
399.603	206
399.682	2615
399.761	7820
399.840	32193
399.919	26077
399.998	2975
400.077	-223
400.156	-329
400.235	2727
400.313	546
400.392	919
400.471	10814
400.550	20087
400.629	4424
400.708	1599
400.786	1803
400.865	4639
400.944	5647
401.023	3538
401.102	-164
401.180	301
401.259	153
401.338	653
401.416	1592
401.495	213
401.574	2079
401.652	319
401.731	1919
401.810	325
401.888	-22
401.967	-257
402.046	415
402.124	1589
402.203	1899
402.281	1238
402.360	1663
402.438	6162
402.517	3758
402.596	1780
402.674	896
402.753	-226
402.831	697
402.910	1187
402.988	5809
403.066	25414
403.145	13827
403.223	6433
403.302	18986
403.380	14022
403.459	12710
403.537	5413
403.615	1863
403.694	-607
403.772	1988
403.850	974
403.929	-432
404.007	330
404.085	2838
404.164	1766
404.242	8
404.320	2334
404.398	5250
404.477	12469
404.555	65389
404.633	57512
404.711	8243
404.789	3478
404.868	1056
404.946	-479
405.024	-82
405.102	-834
405.180	-561
405.258	-884
405.336	951
405.415	10
405.493	1739
405.571	2614
405.649	-243
405.727	-963
405.805	2202
405.883	689
405.961	1704
406.039	1683
406.117	-414
406.195	2022
406.273	11329
406.351	54813
406.429	32808
406.507	2806
406.585	796
406.663	1515
406.740	1314
406.818	683
406.896	512
406.974	991
407.052	1921
407.130	29218
407.208	45675
407.285	8052
407.363	703
407.441	1531
407.519	576
407.596	1251
407.674	6405
407.752	25464
407.830	22603
407.907	4671
407.985	1236
408.063	854
408.141	56
408.218	1984
408.296	327
408.373	636
408.451	1498
408.529	1148
408.606	-61
408.684	-560
408.762	-168
408.839	-223
408.917	350
408.994	-186
409.072	-641
409.149	305
409.227	1408
409.304	2923
409.382	1888
409.459	2237
409.537	4922
409.614	3607
409.692	2154
409.769	1892
409.846	5071
409.924	6307
410.001	1105
410.079	1117
410.156	2056
410.233	678
410.311	-205
410.388	257
410.465	726
410.543	-585
410.620	1284
410.697	1743
410.775	806
410.852	-698
410.929	1538
411.006	2039
411.083	215
411.161	596
411.238	1881
411.315	1144
411.392	675
411.469	1407
411.547	100
411.624	-1456
411.701	251
411.778	775
411.855	2191
411.932	826
412.009	-564
412.086	224
412.163	760
412.240	-15
412.317	1333
412.394	-110
412.471	393
412.548	-265
412.625	-107
412.702	548
412.779	1741
412.856	169
412.933	-616
413.010	154
413.087	1033
413.164	9327
413.241	14918
413.318	2482
413.395	1478
413.471	1520
413.548	1171
413.625	268
413.702	409
413.779	92
413.855	222
413.932	-1026
414.009	-1351
414.086	199
414.162	-1062
414.239	965
414.316	9121
414.393	25098
414.469	7838
414.546	605
414.623	-98
414.699	-314
414.776	974
414.853	-718
414.929	882
415.006	-174
415.082	389
415.159	325
415.236	521
415.312	-153
415.389	2195
415.465	2528
415.542	452
415.618	-510
415.695	927
415.771	382
415.848	640
415.924	845
416.000	192
416.077	343
416.153	-813
416.230	-719
416.306	-466
416.383	-999
416.459	147
416.535	-681
416.612	-740
416.688	225
416.764	-1149
416.841	-680
416.917	-699
416.993	-509
417.069	572
417.146	-226
417.222	1509
417.298	530
417.374	275
417.451	701
417.527	-298
417.603	369
417.679	1040
417.755	-90
417.831	-240
417.908	-952
417.984	-167
418.060	-735
418.136	3208
418.212	2916
418.288	573
418.364	187
418.440	-732
418.516	1471
418.592	1064
418.668	4253
418.744	6980
418.820	4290
418.896	662
418.972	-807
419.048	-235
419.124	3425
419.200	732
419.276	-93
419.352	-713
419.428	-15
419.504	-203
419.579	379
419.655	151
419.731	758
419.807	3500
419.883	8066
419.959	5466
420.034	716
420.110	2058
420.186	14733
420.262	12063
420.337	1176
420.413	901
420.489	257
420.565	1131
420.640	-428
420.716	349
420.792	-1084
420.867	815
420.943	-521
421.019	2102
421.094	894
421.170	374
421.245	-233
421.321	92
421.397	70
421.472	4301
421.548	14610
421.623	9736
421.699	2683
421.774	2512
421.850	1366
421.925	3781
422.001	2721
422.076	2460
422.152	2885
422.227	6563
422.302	8538
422.378	11464
422.453	23470
422.529	59507
422.604	175947
422.679	277714
422.755	192954
422.830	69817
422.905	27150
422.981	14102
423.056	9461
423.131	6154
423.207	4803
423.282	3338
423.357	7133
423.432	4514
423.508	3235
423.583	7284
423.658	5950
423.733	2026
423.808	2073
423.883	2994
423.959	1989
424.034	1741
424.109	1164
424.184	889
424.259	648
424.334	174
424.409	-334
424.484	522
424.559	163
424.634	-20
424.709	989
424.784	1500
424.859	582
424.934	1457
425.009	9568
425.084	17677
425.159	5760
425.234	1013
425.309	-1191
425.384	457
425.459	726
425.534	-116
425.609	-310
425.683	-194
425.758	-1037
425.833	-254
425.908	1102
425.983	5154
426.058	17790
426.132	6726
426.207	1110
426.282	2226
426.357	274
426.431	-133
426.506	-53
426.581	-220
426.655	223
426.730	-443
426.805	-456
426.879	285
426.954	531
427.029	1461
427.103	17352
427.178	46383
427.253	20098
427.327	1958
427.402	80
427.476	3050
427.551	949
427.625	211
427.700	595
427.774	-632
427.849	497
427.923	-846
427.998	-121
428.072	-267
428.147	2674
428.221	16722
428.296	58621
428.370	31652
428.444	2729
428.519	860
428.593	4583
428.667	2991
428.742	4864
428.816	6442
428.890	31882
428.965	56956
429.039	13228
429.113	5926
429.188	2096
429.262	-69
429.336	1760
429.410	8357
429.485	5053
429.559	3873
429.633	2908
429.707	1448
429.781	4037
429.855	33929
429.930	55491
430.004	20660
430.078	24148
430.152	27331
430.226	72728
430.300	78368
430.374	10641
430.448	3821
430.522	7540
430.596	24006
430.670	17965
430.744	58500
430.818	89023
430.892	16199
430.966	731
431.040	-107
431.114	-235
431.188	215
431.262	-512
431.336	-487
431.410	1797
431.484	5539
431.557	4434
431.631	-127
431.705	452
431.779	9824
431.853	52595
431.927	37522
432.000	4203
432.074	485
432.148	783
432.222	211
432.295	-853
432.369	-94
432.443	802
432.516	16228
432.590	48922
432.664	16536
432.737	529
432.811	-344
432.885	-686
432.958	86
433.032	-1027
433.106	-683
433.179	-386
433.253	-1390
433.326	-1410
433.400	-930
433.473	-307
433.547	-654
433.620	-766
433.694	550
433.767	794
433.841	-1128
433.914	-1221
433.988	-673
434.061	-1064
434.134	-693
434.208	-763
434.281	-1366
434.355	-74
434.428	-590
434.501	-781
434.575	-467
434.648	-316
434.721	-1105
434.795	-1277
434.868	-823
434.941	-984
435.014	-1392
435.088	-1030
435.161	36
435.234	719
435.307	1361
435.381	57
435.454	712
435.527	2368
435.600	2111
435.673	917
435.746	46
435.819	-425
435.892	-212
435.966	-674
436.039	-685
436.112	-178
436.185	-789
436.258	-1151
436.331	-1280
436.404	-1305
436.477	-839
436.550	-1664
436.623	-685
436.696	-1138
436.769	-980
436.842	-1170
436.915	-265
436.987	-138
437.060	211
437.133	-1124
437.206	-976
437.279	-338
437.352	-688
437.425	-1087
437.498	-411
437.570	1325
437.643	1206
437.716	-653
437.789	-859
437.861	-1079
437.934	1110
438.007	819
438.080	-988
438.152	321
438.225	2292
438.298	22244
438.370	75138
438.443	29690
438.516	2895
438.588	103
438.661	-1251
438.734	-606
438.806	-432
438.879	278
438.951	-1330
439.024	636
439.096	-625
439.169	-518
439.241	-981
439.314	-1427
439.386	-500
439.459	342
439.531	1017
439.604	55
439.676	-847
439.749	-1390
439.821	-977
439.893	-783
439.966	-725
440.038	-339
440.110	-35
440.183	-684
440.255	-1123
440.327	218
440.400	7977
440.472	42090
440.544	30370
440.617	2801
440.689	993
440.761	441
440.833	555
440.905	475
440.978	-1090
441.050	-524
441.122	-290
441.194	-696
441.266	-963
441.338	-232
441.411	526
441.483	11331
441.555	18649
441.627	3083
441.699	1322
441.771	260
441.843	-366
441.915	-284
441.987	-647
442.059	-940
442.131	-590
442.203	103
442.275	1099
442.347	1892
442.419	3254
442.491	24301
442.563	72127
442.635	31586
442.706	8857
442.778	5973
442.850	873
442.922	403
442.994	336
443.066	1301
443.137	889
443.209	202
443.281	2329
443.353	6248
443.425	30421
443.496	123725
443.568	131465
443.640	48259
443.711	7618
443.783	1775
443.855	1259
443.926	227
443.998	453
444.070	899
444.141	69
444.213	517
444.285	1868
444.356	1665
444.428	593
444.499	-323
444.571	-281
444.642	-489
444.714	68
444.785	1063
444.857	1254
444.928	3974
445.000	2717
445.071	2159
445.143	4095
445.214	2783
445.285	5641
445.357	16755
445.428	73830
445.500	192772
445.571	125864
445.642	67021
445.714	20780
445.785	9783
445.856	3057
445.928	2153
445.999	1914
446.070	128
446.141	1294
446.213	1531
446.284	995
446.355	435
446.426	-275
446.497	-693
446.569	384
446.640	1016
446.711	1365
446.782	-301
446.853	734
446.924	323
446.995	129
447.066	-482
447.138	311
447.209	54
447.280	-716
447.351	-1354
447.422	-1054
447.493	-324
447.564	-101
447.635	1154
447.706	79
447.777	-614
447.847	-1591
447.918	-1370
447.989	-22
448.060	927
448.131	1627
448.202	1632
448.273	1774
448.344	-262
448.414	-626
448.485	-565
448.556	-972
448.627	-1211
448.698	-454
448.768	-1390
448.839	-302
448.910	-414
448.981	366
449.051	131
449.122	-483
449.193	-693
449.263	-701
449.334	-1156
449.405	443
449.475	2172
449.546	1548
449.616	551
449.687	905
449.758	-391
449.828	-983
449.899	-98
449.969	-602
450.040	-1560
450.110	-258
450.181	300
450.251	-309
450.322	-699
450.392	-367
450.463	-465
450.533	-612
450.604	-534
450.674	-1263
450.744	-406
450.815	-568
450.885	-94
450.955	220
451.026	-454
451.096	-450
451.166	-793
451.237	1109
451.307	4008
451.377	820
451.447	-580
451.518	-955
451.588	-970
451.658	-302
451.728	365
451.799	4219
451.869	4852
451.939	381
452.009	-361
452.079	-855
452.149	-422
452.219	382
452.289	4745
452.360	3008
452.430	238
452.500	254
452.570	759
452.640	2590
452.710	8806
452.780	11983
452.850	7461
452.920	5711
452.990	2528
453.060	363
453.129	871
453.199	202
453.269	6211
453.339	14844
453.409	23525
453.479	21518
453.549	31881
453.619	32541
453.688	11632
453.758	971
453.828	-501
453.898	-872
453.968	-287
454.037	-285
454.087	-134
454.107	-82
454.168	-449
454.177	-518
454.247	-209
454.249	-177
454.316	269
454.330	121
454.386	-523
454.411	249
454.456	1461
454.492	2452
454.525	3330
454.574	1964
454.595	1363
454.655	-356
454.665	-646
454.734	89
454.736	118
454.804	552
454.817	1308
454.873	4188
454.898	4717
454.943	5639
454.979	3491
455.013	1571
455.060	704
455.082	327
455.141	503
455.152	565
455.221	3521
455.222	3609
455.291	8830
455.303	9094
455.360	8918
455.384	12568
455.430	16962
455.465	13170
455.499	10124
455.546	6241
455.569	4574
455.627	2736
455.638	2419
455.707	636
455.708	645
455.777	-316
455.789	-238
455.846	-73
455.869	-60
455.916	9
455.950	-4
455.985	-95
456.031	15
456.054	129
456.112	249
456.124	217
456.193	530
456.193	520
456.262	71
456.274	151
456.332	408
456.355	375
456.401	227
456.436	363
456.470	394
456.516	85
456.540	45
456.597	203
456.609	185
456.678	216
456.678	204
456.747	340
456.759	257
456.817	-25
456.840	184
456.886	415
456.920	319
456.955	219
457.001	406
457.024	482
457.082	-59
457.093	-148
457.162	559
457.163	573
457.232	950
457.243	900
457.301	381
457.324	342
457.370	529
457.405	718
457.439	752
457.485	734
457.508	890
457.566	1363
457.577	1427
457.646	1925
457.647	1947
457.715	4693
457.727	5413
457.784	9926
457.808	12578
457.853	15078
457.889	17876
457.922	17691
457.969	11373
457.991	11731
458.050	14702
458.060	15278
458.129	27119
458.130	27489
458.198	26181
458.211	23286
458.267	13354
458.292	9047
458.336	5351
458.372	4801
458.405	7058
458.453	11736
458.474	15380
458.533	28749
458.543	29489
458.611	44942
458.614	45170
458.680	27019
458.694	20628
458.749	9050
458.775	6377
458.818	3259
458.855	2258
458.887	1894
458.936	2029
458.955	1947
459.016	1447
459.024	1396
459.093	1717
459.097	1708
459.162	1609
459.177	1721
459.230	2058
459.257	2368
459.299	2444
459.338	2010
459.368	1921
459.418	2047
459.437	1931
459.499	1792
459.505	1825
459.574	1675
459.579	1674
459.643	1203
459.659	1242
459.711	1475
459.740	1372
459.780	1257
459.820	1381
459.849	1417
459.900	1570
459.917	1807
459.981	2695
459.986	2648
460.054	1816
460.061	1747
460.123	2064
460.141	2043
460.191	2074
460.222	2495
460.260	2897
460.302	3108
460.328	3026
460.382	2777
460.397	2803
460.462	2943
460.465	3055
460.534	6006
460.543	6353
460.602	20228
460.623	25635
460.671	40729
460.703	53898
460.739	47467
460.783	36160
460.808	30025
460.864	6364
460.876	4693
460.944	2543
460.945	2507
461.013	1915
461.024	1804
461.081	2137
461.104	2404
461.150	2199
461.184	1969
461.218	2194
461.264	2223
461.286	2061
461.345	1955
461.355	2056
461.423	2555
461.425	2576
461.491	2187
461.505	2072
461.559	2601
461.585	2867
461.628	4341
461.665	5743
461.696	6224
461.745	8171
461.764	7679
461.825	3592
461.832	3488
461.901	2068
461.905	2066
461.969	1971
461.985	1995
462.037	2635
462.065	2912
462.105	2432
462.145	1966
462.173	2600
462.225	3836
462.241	4086
462.305	5581
462.310	5506
462.378	3789
462.385	3509
462.446	2633
462.465	2498
462.514	2606
462.545	2868
462.582	2721
462.625	2207
462.650	1977
462.705	1794
462.718	1794
462.785	1647
462.786	1657
462.854	2060
462.865	2178
462.922	3004
462.945	3358
462.990	3020
463.025	2590
463.058	2475
463.104	2220
463.126	2015
463.184	1577
463.194	1640
463.262	1996
463.264	2019
463.330	2797
463.344	2884
463.398	3047
463.424	3109
463.466	2562
463.504	2224
463.533	2453
463.583	2189
463.601	2050
463.663	2537
463.669	2626
463.737	3410
463.743	3461
463.805	4082
463.823	4233
463.873	5596
463.903	6596
463.940	7265
463.982	8204
464.008	7063
464.062	3793
464.076	3751
464.142	3306
464.144	3264
464.211	2219
464.221	2021
464.279	2607
464.301	2940
464.347	3206
464.381	3226
464.414	3394
464.461	3857
464.482	3748
464.540	3296
464.550	3288
464.617	3212
464.620	3196
464.685	4508
464.699	4886
464.753	6578
464.779	7286
464.820	8363
464.859	9452
464.888	8590
464.938	6982
464.956	7150
465.018	7652
465.023	7579
465.091	6405
465.098	6272
465.158	6101
465.177	6116
465.226	6438
465.257	6551
465.293	6882
465.336	7143
465.361	7099
465.416	7174
465.428	7352
465.495	8097
465.496	8120
465.563	9647
465.575	9909
465.631	12020
465.654	13038
465.698	9836
465.734	6697
465.765	6386
465.813	6003
465.833	6087
465.893	6546
465.900	6473
465.968	5676
465.972	5609
466.035	5536
466.052	5521
466.102	6178
466.131	6497
466.170	6267
466.210	6047
466.237	6364
466.290	6947
466.304	6954
466.369	6846
466.372	6859
466.439	6875
466.449	6862
466.506	7383
466.528	7549
466.573	8502
466.607	9221
466.641	11200
466.687	13938
466.708	14951
466.766	17744
466.775	16872
466.842	10025
466.845	9680
466.909	8612
466.925	8372
466.977	8291
467.004	8255
467.044	8641
467.083	8985
467.111	10718
467.163	13949
467.178	14164
467.242	14904
467.245	14820
467.312	12517
467.321	12187
467.379	12295
467.400	12301
467.446	11471
467.480	10830
467.559	10783
467.638	10138
467.717	9108
467.796	10178
467.875	11525
467.955	10200
468.034	12128
468.113	16519
468.192	22690
468.271	12004
468.350	12190
468.429	15681
468.508	17605
468.588	11868
468.667	9383
468.746	9333
468.825	9585
468.904	8895
468.983	9564
469.062	9948
469.141	10786
469.220	7596
469.299	8243
469.378	8774
469.456	13681
469.535	12219
469.614	9892
469.693	9762
469.772	10815
469.851	11778
469.930	10531
470.009	9528
470.088	8898
470.166	10255
470.245	11764
470.324	13342
470.403	10805
470.482	8970
470.560	8710
470.639	8712
470.718	9616
470.797	8745
470.875	10274
470.954	10332
471.033	10340
471.111	7202
471.190	8060
471.269	7744
471.347	7279
471.426	8011
471.505	9499
471.583	10860
471.662	10290
471.740	9681
471.819	9935
471.898	8458
471.976	8967
472.055	8352
472.133	9053
472.212	10972
472.290	9309
472.369	7227
472.447	7331
472.526	7235
472.604	8765
472.683	8034
472.761	8562
472.839	7800
472.918	7741
472.996	7278
473.075	7984
473.153	8023
473.231	7374
473.310	8153
473.388	8480
473.466	8664
473.545	9704
473.623	11980
473.701	9865
473.780	8171
473.858	7780
473.936	9723
474.014	8266
474.093	8352
474.171	9524
474.249	10542
474.327	8245
474.405	7117
474.484	7632
474.562	7267
474.640	7474
474.718	6800
474.796	7223
474.874	7198
474.952	6149
475.030	6761
475.108	7244
475.187	7652
475.265	7412
475.343	9120
475.421	11350
475.499	8067
475.577	7643
475.655	7890
475.733	10352
475.811	13416
475.889	12656
475.966	9682
476.044	6754
476.122	6825
476.200	8553
476.278	6364
476.356	6082
476.434	5742
476.512	7145
476.590	7322
476.667	7656
476.745	5842
476.823	6971
476.901	6231
476.979	5906
477.056	5548
477.134	5959
477.212	6007
477.290	5766
477.367	5134
477.445	5858
477.523	5069
477.601	5373
477.678	5674
477.756	6537
477.834	6015
477.911	4282
477.989	6106
478.066	5086
478.144	5743
478.222	5830
478.299	8614
478.377	8363
478.454	5391
478.532	4652
478.609	4583
478.687	6279
478.764	4659
478.842	4809
478.919	5677
478.997	5041
479.074	5527
479.152	5080
479.229	5743
479.307	3474
479.384	4486
479.461	4693
479.539	4684
479.616	5081
479.694	4103
479.771	4452
479.848	4751
479.926	3769
480.003	6210
480.080	5157
480.157	4315
480.235	4167
480.312	3914
480.389	4137
480.467	5289
480.544	5745
480.621	4192
480.698	5241
480.775	4352
480.853	4104
480.930	4252
481.007	4730
481.084	5396
481.161	7261
481.238	4802
481.315	3886
481.392	4126
481.470	4331
481.547	4020
481.624	4411
481.701	3220
481.778	4171
481.855	4020
481.932	5498
482.009	7159
482.086	5901
482.163	5074
482.240	6378
482.317	10181
482.393	8017
482.470	3921
482.547	4221
482.624	4411
482.701	4355
482.778	4060
482.855	3174
482.932	4198
483.009	3751
483.085	5229
483.162	6530
483.239	6512
483.316	4392
483.393	5407
483.469	4978
483.546	4541
483.623	4037
483.699	3756
483.776	3824
483.853	4018
483.930	5480
484.006	11840
484.083	20230
484.160	24829
484.236	45517
484.313	34364
484.389	24419
484.466	23189
484.543	20786
484.619	21487
484.696	23036
484.772	21317
484.849	20977
484.925	20073
485.002	18806
485.078	19853
485.155	18075
485.231	16537
485.308	17083
485.384	17844
485.461	18218
485.537	20575
485.614	22873
485.690	16770
485.766	16101
485.843	15711
485.919	19708
485.995	19916
486.072	15553
486.148	14844
486.224	16093
486.301	14882
486.377	16428
486.453	15099
486.530	17855
486.606	25705
486.682	27224
486.758	24682
486.835	24087
486.911	20927
486.987	26327
487.063	29727
487.139	35352
487.215	29150
487.292	21048
487.368	18562
487.444	19951
487.520	23056
487.596	25585
487.672	43349
487.748	111419
487.824	156332
487.900	45890
487.976	21581
488.052	16967
488.128	18546
488.204	15816
488.280	16135
488.356	16552
488.432	20519
488.508	25131
488.584	16015
488.660	13736
488.736	14538
488.812	14454
488.888	18397
488.964	21266
489.039	32352
489.115	42796
489.191	27804
489.267	14164
489.343	13622
489.418	12008
489.494	12865
489.570	11166
489.646	13674
489.722	12770
489.797	12738
489.873	13458
489.949	19186
490.024	18331
490.100	11473
490.176	10795
490.251	11229
490.327	15504
490.403	9945
490.478	11394
490.554	10451
490.629	10575
490.705	9380
490.781	10786
490.856	8718
490.932	12389
491.007	10248
491.083	11375
491.158	9473
491.234	10659
491.309	15116
491.385	14288
491.460	8520
491.536	10563
491.611	9452
491.686	9654
491.762	12149
491.837	19266
491.913	26860
491.988	37406
492.063	46634
492.139	13062
492.214	10321
492.289	8461
492.365	6812
492.440	8726
492.515	7699
492.590	8312
492.666	6226
492.741	9220
492.816	10286
492.891	8400
492.967	8883
493.042	6546
493.117	8123
493.192	8590
493.267	15918
493.342	50913
493.418	65266
493.493	11077
493.568	6136
493.643	6656
493.718	6792
493.793	7897
493.868	10647
493.943	6964
494.018	6414
494.093	5304
494.168	6346
494.243	5861
494.318	4828
494.393	6092
494.468	4962
494.543	5247
494.618	6427
494.693	4597
494.768	4175
494.842	5776
494.917	4380
494.992	5371
495.067	5316
495.142	5004
495.217	6043
495.292	4301
495.366	5271
495.441	5830
495.516	8185
495.591	9955
495.665	32023
495.740	76032
495.815	28672
495.890	6484
495.964	4214
496.039	7945
496.114	5701
496.188	7852
496.263	6581
496.338	4146
496.412	5896
496.487	7238
496.561	5887
496.636	6797
496.710	5922
496.785	5811
496.860	5990
496.934	4812
497.009	5717
497.083	4964
497.158	5414
497.232	6411
497.307	7471
497.381	6542
497.455	6635
497.530	8674
497.604	6980
497.679	7606
497.753	10885
497.827	14363
497.902	13164
497.976	14522
498.050	27720
498.125	99388
498.199	101533
498.273	21656
498.348	17468
498.422	12641
498.496	11477
498.570	9973
498.645	7450
498.719	7223
498.793	8544
498.867	10353
498.941	13611
499.016	37169
499.090	100924
499.164	35806
499.238	6168
499.312	5226
499.386	7467
499.460	5324
499.534	4728
499.609	6190
499.683	7929
499.757	8183
499.831	15517
499.905	62405
499.979	58190
500.053	9465
500.127	9895
500.201	7368
500.275	5529
500.349	5983
500.422	5471
500.496	8474
500.570	17458
500.644	36014
500.718	63085
500.792	16850
500.866	6113
500.940	5949
501.013	6291
501.087	5119
501.161	10046
501.235	9784
501.309	18927
501.382	51860
501.456	45769
501.530	10565
501.603	15695
501.677	7515
501.751	3480
501.825	6081
501.898	8226
501.972	19843
502.046	12535
502.119	3750
502.193	11133
502.266	20922
502.340	10753
502.413	10047
502.487	18575
502.561	9803
502.634	4799
502.708	4629
502.781	3667
502.855	4148
502.928	2588
503.002	3313
503.075	3489
503.149	3529
503.222	3771
503.295	3039
503.369	5251
503.442	5005
503.516	14951
503.589	36388
503.662	24036
503.736	8999
503.809	18996
503.882	16874
503.956	24285
504.029	31387
504.102	54183
504.175	75023
504.249	20574
504.322	7535
504.395	5988
504.468	3906
504.542	2775
504.615	2225
504.688	3683
504.761	1074
504.834	5378
504.907	4335
504.980	7702
505.053	4533
505.127	2998
505.200	6908
505.273	3541
505.346	2195
505.419	2018
505.492	3799
505.565	2450
505.638	1940
505.711	1639
505.784	1795
505.857	2207
505.930	2923
506.003	1219
506.076	4309
506.149	2332
506.221	1884
506.294	4649
506.367	6412
506.440	27787
506.513	14937
506.586	3964
506.659	2184
506.731	3219
506.804	2849
506.877	4086
506.950	3212
507.022	2692
507.095	1899
507.168	3357
507.241	3415
507.313	2842
507.386	1910
507.459	4275
507.531	2611
507.604	1954
507.677	2827
507.749	1895
507.822	4784
507.894	10838
507.967	16349
508.040	8459
508.112	8109
508.185	7092
508.257	4760
508.330	9048
508.402	5630
508.475	5142
508.547	5786
508.620	5307
508.692	6022
508.765	6099
508.837	4764
508.909	4393
508.982	4534
509.054	6252
509.127	4620
509.199	4410
509.271	4393
509.344	4120
509.416	4027
509.488	3717
509.560	4623
509.633	4303
509.705	5020
509.777	4819
509.849	6962
509.922	4061
509.994	4607
510.066	5414
510.138	5955
510.210	17389
510.283	13299
510.355	11449
510.427	10224
510.499	9443
510.571	8128
510.643	7064
510.715	11006
510.787	7758
510.859	7834
510.931	7300
511.003	8470
511.076	9908
511.148	5992
511.219	5968
511.291	8064
511.363	8320
511.435	6514
511.507	5277
511.579	6777
511.651	6382
511.723	5427
511.795	6068
511.867	5604
511.939	6584
512.010	7748
512.082	8294
512.154	5388
512.226	6750
512.298	12346
512.369	16716
512.441	13355
512.513	10758
512.585	8331
512.656	9132
512.728	8235
512.800	7618
512.871	8815
512.943	8144
513.015	6791
513.086	7421
513.158	8340
513.230	6826
513.301	8943
513.373	11407
513.444	6493
513.516	7397
513.588	6579
513.659	7170
513.731	8199
513.802	6036
513.874	12949
513.945	17720
514.016	8054
514.088	6720
514.159	6146
514.231	9747
514.302	14982
514.374	11559
514.445	8238
514.516	13091
514.588	9818
514.659	8106
514.730	10099
514.802	10847
514.873	7593
514.944	10511
515.016	8912
515.087	7626
515.158	8755
515.229	11611
515.301	8019
515.372	11517
515.443	6234
515.514	7109
515.585	5629
515.656	7763
515.728	7205
515.799	6583
515.870	6747
515.941	6983
516.012	6212
516.083	10405
516.154	10074
516.225	11822
516.296	10515
516.367	8989
516.438	8998
516.509	9846
516.580	14160
516.651	33809
516.722	108969
516.793	47433
516.864	13514
516.935	13108
517.006	14820
517.077	18050
517.148	37025
517.219	122981
517.289	170941
517.360	42166
517.431	17325
517.502	6890
517.573	8426
517.643	7980
517.714	9840
517.785	11064
517.856	9225
517.926	11185
517.997	12531
518.068	13733
518.138	18842
518.209	24947
518.280	83598
518.350	303399
518.421	95388
518.492	16251
518.562	12682
518.633	14068
518.703	15786
518.774	33747
518.845	93700
518.915	86215
518.986	21381
519.056	14121
519.127	18203
519.197	22227
519.268	36595
519.338	23202
519.408	9572
519.479	11349
519.549	7934
519.620	7922
519.690	5666
519.760	5486
519.831	5222
519.901	5257
519.971	5116
520.042	5097
520.112	4626
520.182	7366
520.253	7908
520.323	5879
520.393	6367
520.463	8365
520.534	2867
520.604	9877
520.674	6909
520.744	5328
520.814	8447
520.885	9119
520.955	11038
521.025	35508
521.095	16105
521.165	6880
521.235	4082
521.305	4172
521.375	4689
521.445	5455
521.515	4779
521.585	6913
521.655	5524
521.725	7070
521.795	6382
521.865	3025
521.935	6666
522.005	4745
522.075	3671
522.145	5982
522.215	3637
522.285	5153
522.355	6483
522.424	10244
522.494	9013
522.564	7531
522.634	12891
522.704	36756
522.774	13055
522.843	5019
522.913	4784
522.983	6277
523.053	3738
523.122	4668
523.192	5384
523.262	19663
523.331	17588
523.401	4859
523.471	4031
523.540	5135
523.610	2635
523.680	3886
523.749	4185
523.819	5090
523.888	3408
523.958	3123
524.027	3399
524.097	4016
524.166	3250
524.236	3263
524.305	4751
524.375	3438
524.444	1689
524.514	5446
524.583	3080
524.653	2996
524.722	4974
524.791	3115
524.861	4717
524.930	2899
524.999	2889
525.069	5281
525.138	4443
525.207	2815
525.277	4239
525.346	3635
525.415	4227
525.484	4088
525.554	4678
525.623	5494
525.692	6896
525.761	6782
525.830	8428
525.900	11738
525.969	16491
526.038	29221
526.107	61089
526.176	189123
526.245	140665
526.314	41695
526.383	93996
526.452	122283
526.522	219893
526.591	189630
526.660	36849
526.729	22198
526.797	26753
526.867	44944
526.935	170969
527.004	448071
527.073	227102
527.142	19427
527.211	8427
527.280	7570
527.349	6891
527.418	2576
527.487	5006
527.555	2019
527.624	2580
527.693	1514
527.762	4181
527.831	1790
527.899	2952
527.968	3306
528.037	819
528.106	4036
528.174	6399
528.243	5247
528.312	6316
528.380	8013
528.449	1852
528.518	4432
528.586	921
528.655	2424
528.723	1811
528.792	1996
528.861	1037
528.929	903
528.998	2379
529.066	1994
529.135	1635
529.203	1006
529.272	463
529.340	2298
529.409	2835
529.477	367
529.545	1800
529.614	4640
529.682	1112
529.751	2550
529.819	4183
529.887	2014
529.956	1280
530.024	2606
530.092	951
530.161	2916
530.229	3840
530.297	2081
530.365	2240
530.434	1230
530.502	124
530.570	1741
530.638	-233
530.707	2485
530.775	3086
530.843	1459
530.911	1552
530.979	1438
531.047	881
531.115	1789
531.183	2016
531.252	1980
531.320	1198
531.388	994
531.456	2337
531.524	-143
531.592	2146
531.660	4210
531.728	741
531.796	1380
531.864	2047
531.932	1976
532.000	1038
532.067	1517
532.135	2446
532.203	3345
532.271	1952
532.339	5986
532.407	14786
532.475	8482
532.542	4073
532.610	4701
532.678	5393
532.746	26897
532.814	70236
532.881	15864
532.949	3740
533.017	1547
533.084	1913
533.152	1319
533.220	2553
533.287	2140
533.355	1544
533.423	2183
533.490	2209
533.558	2402
533.625	2443
533.693	2597
533.761	2640
533.828	3786
533.896	2104
533.963	6134
534.031	6668
534.098	9737
534.166	5544
534.233	3142
534.300	4518
534.368	4553
534.435	2510
534.503	4847
534.570	4622
534.637	5003
534.705	5721
534.772	8297
534.840	16124
534.907	85008
534.974	99690
535.041	9752
535.109	4469
535.176	3268
535.243	2985
535.310	3195
535.378	2512
535.445	2534
535.512	3951
535.579	3417
535.646	2267
535.714	4042
535.781	6188
535.848	4689
535.915	4739
535.982	2667
536.049	4036
536.116	5081
536.183	3057
536.250	3019
536.317	3528
536.384	4587
536.451	5428
536.518	6346
536.585	2340
536.652	5586
536.719	8230
536.786	4976
536.853	3883
536.920	6415
536.987	9777
537.053	8373
537.120	34904
537.187	30905
537.254	4270
537.321	2896
537.388	4944
537.454	2563
537.521	4294
537.588	3260
537.654	4665
537.721	5675
537.788	5526
537.855	3816
537.921	4358
537.988	3422
538.055	4402
538.121	3678
538.188	4567
538.254	5808
538.321	10154
538.388	7733
538.454	4412
538.521	4878
538.587	3924
538.654	3716
538.720	3548
538.787	4486
538.853	4172
538.920	5431
538.986	3551
539.053	3536
539.119	4103
539.185	4393
539.252	5001
539.318	7053
539.385	8106
539.451	5162
539.517	6223
539.583	7216
539.650	10656
539.716	25972
539.782	8453
539.849	3826
539.915	4439
539.981	4134
540.047	5748
540.114	4566
540.180	6579
540.246	4482
540.312	5781
540.378	11049
540.444	12082
540.510	11360
540.576	27915
540.643	10436
540.709	3620
540.775	4612
540.841	4636
540.907	6001
540.973	8775
541.039	8404
541.105	8079
541.171	5951
541.237	5342
541.303	5822
541.369	7270
541.435	6473
541.500	10249
541.566	4895
541.632	3920
541.698	4338
541.764	4986
541.830	4118
541.896	3677
541.961	4661
542.027	4431
542.093	4986
542.159	5995
542.224	4869
542.290	7735
542.356	9803
542.421	10890
542.487	7108
542.553	5359
542.618	5340
542.684	4599
542.750	4313
542.815	5836
542.881	8113
542.947	24786
543.012	19051
543.078	5362
543.143	4127
543.209	5352
543.274	4666
543.340	6822
543.405	11117
543.471	16274
543.536	5613
543.602	4369
543.667	3314
543.732	5556
543.798	4772
543.863	5064
543.928	3519
543.994	3533
544.059	5444
544.124	5050
544.190	4672
544.255	5571
544.320	6114
544.386	3838
544.451	7103
544.516	7112
544.581	6363
544.646	16598
544.712	26162
544.777	7054
544.842	5715
544.907	5635
544.972	5087
545.037	5915
545.102	7058
545.168	5246
545.233	6029
545.298	6805
545.363	7579
545.428	8292
545.493	12834
545.558	21080
545.623	10299
545.688	5626
545.753	6448
545.818	5739
545.883	7270
545.947	6649
546.012	6979
546.077	7142
546.142	6878
546.207	7790
546.272	9467
546.337	8572
546.401	8675
546.466	8477
546.531	6367
546.596	9872
546.661	9374
546.725	9636
546.790	8927
546.855	10518
546.919	9939
546.984	11800
547.049	11917
547.113	14817
547.178	14976
547.243	17869
547.307	19738
547.372	22444
547.436	22534
547.501	21245
547.565	23749
547.630	22266
547.695	22609
547.759	22063
547.823	22793
547.888	21601
547.952	22923
548.017	24688
548.081	25611
548.146	25452
548.210	25517
548.274	26239
548.339	26401
548.403	24356
548.468	21175
548.532	21431
548.596	21900
548.660	21835
548.725	26667
548.789	25831
548.853	27583
548.917	24418
548.982	24231
549.046	23029
549.110	18858
549.174	20381
549.238	23489
549.303	24955
549.367	26760
549.431	25836
549.495	22648
549.559	23330
549.623	27213
549.687	30925
549.751	31909
549.815	35294
549.879	36486
549.943	34047
550.007	35022
550.071	34945
550.135	32694
550.199	30730
550.263	29404
550.327	27766
550.391	30158
550.455	32029
550.519	33658
550.582	35761
550.646	40478
550.710	42522
550.774	40233
550.838	40112
550.901	41717
550.965	44773
551.029	45673
551.093	50424
551.156	54189
551.220	66764
551.284	80481
551.347	56463
551.411	49276
551.475	48780
551.538	44495
551.602	40601
551.666	38145
551.729	34349
551.793	34324
551.856	34036
551.920	33394
551.983	33294
552.047	32155
552.110	33623
552.174	34026
552.237	34681
552.301	31061
552.364	29857
552.428	29873
552.491	29560
552.554	30998
552.618	31308
552.681	31369
552.745	30181
552.808	33670
552.871	37026
552.934	32194
552.998	30342
553.061	30533
553.124	29551
553.187	29661
553.251	30346
553.314	31541
553.377	31015
553.440	35737
553.503	51050
553.567	61664
553.630	34833
553.693	32508
553.756	32404
553.819	31868
553.882	28966
553.945	29989
554.008	29720
554.071	29309
554.134	30514
554.197	28670
554.260	27664
554.323	29559
554.386	29075
554.449	29333
554.512	31502
554.575	28637
554.638	27114
554.701	27374
554.764	28019
554.827	27573
554.889	26214
554.952	23789
555.015	22835
555.078	23730
555.141	24081
555.203	23527
555.266	24477
555.329	23633
555.391	22153
555.454	23225
555.517	22178
555.580	20948
555.642	20180
555.705	19947
555.768	20398
555.830	20341
555.893	17938
555.955	18112
556.018	17744
556.080	18944
556.143	17153
556.206	18627
556.268	17705
556.330	18794
556.393	16631
556.455	16884
556.518	17493
556.580	17042
556.643	15632
556.705	14668
556.767	13375
556.830	15198
556.892	14898
556.955	17913
557.017	15612
557.079	13639
557.142	13169
557.204	14461
557.266	19148
557.328	15684
557.391	11394
557.453	11464
557.515	11998
557.577	12475
557.639	12688
557.701	12251
557.764	12125
557.826	13069
557.888	14086
557.950	15117
558.012	17369
558.074	22751
558.136	53798
558.198	130470
558.260	41191
558.322	16848
558.384	17967
558.446	21263
558.508	25213
558.570	31131
558.632	42188
558.694	57779
558.756	83316
558.818	256172
558.880	594573
558.942	166851
559.003	139175
559.065	62939
559.127	26221
559.189	27243
559.251	31910
559.312	48476
559.374	117693
559.436	395143
559.498	169346
559.559	29915
559.621	27533
559.683	32720
559.744	54484
559.806	183926
559.868	260374
559.929	44406
559.991	27228
560.052	42814
560.114	128466
560.176	74246
560.237	71223
560.299	112615
560.360	21018
560.422	8382
560.483	8039
560.545	7332
560.606	6034
560.667	5627
560.729	5665
560.790	5065
560.852	6331
560.913	6170
560.974	5201
561.036	5614
561.097	5198
561.158	5585
561.220	6603
561.281	5654
561.342	5659
561.403	6572
561.465	7443
561.526	15814
561.587	19170
561.648	6157
561.709	5043
561.771	5379
561.832	4441
561.893	4792
561.954	4009
562.015	4760
562.076	4996
562.137	4377
562.198	4569
562.259	4789
562.320	4425
562.381	4261
562.442	7843
562.503	5328
562.564	4510
562.625	4182
562.686	4291
562.747	4779
562.808	4580
562.869	3897
562.930	5153
562.991	4324
563.051	4162
563.112	3407
563.173	3791
563.234	3781
563.294	4567
563.355	3317
563.416	4725
563.477	4884
563.537	4282
563.598	4337
563.659	4119
563.720	4000
563.780	4597
563.841	4401
563.901	4400
563.962	4205
564.023	4360
564.083	3931
564.144	3653
564.204	3984
564.265	4141
564.325	4458
564.386	6898
564.446	5912
564.507	3418
564.567	3239
564.628	4261
564.688	2916
564.749	4045
564.809	4905
564.869	5148
564.930	4042
564.990	4350
565.050	3182
565.111	3751
565.171	3636
565.231	4445
565.292	3960
565.352	3078
565.412	4539
565.472	4499
565.532	4054
565.593	3653
565.653	3183
565.713	3973
565.773	4311
565.833	4613
565.893	6595
565.953	4266
566.013	3522
566.074	4001
566.134	6242
566.194	5621
566.254	6461
566.314	4874
566.374	3834
566.434	3510
566.494	4598
566.554	4254
566.614	4951
566.673	4411
566.733	4818
566.793	4522
566.853	4170
566.913	4817
566.973	4970
567.033	4922
567.092	4488
567.152	4649
567.212	4620
567.272	5150
567.331	5521
567.391	6183
567.451	5574
567.511	7234
567.570	7272
567.630	5835
567.690	5107
567.749	5108
567.809	5684
567.868	6305
567.928	6245
567.988	7078
568.047	9208
568.107	11880
568.166	15639
568.226	25512
568.285	37558
568.345	26539
568.404	19125
568.464	15674
568.523	15732
568.582	16037
568.642	17468
568.701	22580
568.761	36826
568.820	63056
568.879	55993
568.939	34454
568.998	22153
569.057	17315
569.116	13217
569.176	9819
569.235	9101
569.294	8095
569.353	7347
569.413	6682
569.472	5323
569.531	5559
569.590	5262
569.649	5585
569.708	4611
569.767	5871
569.827	5503
569.886	5035
569.945	4766
570.004	5125
570.063	4573
570.122	4659
570.181	5437
570.240	3919
570.299	4347
570.358	5639
570.417	4457
570.475	4499
570.534	4862
570.593	4987
570.652	4938
570.711	4150
570.770	3974
570.829	4917
570.887	5580
570.946	4853
571.005	4170
571.064	4448
571.122	4808
571.181	4023
571.240	4045
571.299	3547
571.357	4130
571.416	4016
571.475	4772
571.533	4355
571.592	4044
571.650	4193
571.709	3572
571.768	3747
571.826	4525
571.885	3517
571.943	4451
572.002	3181
572.060	3435
572.119	2722
572.177	2116
572.236	3150
572.294	3387
572.352	4023
572.411	3571
572.469	2888
572.528	3689
572.586	3078
572.644	3547
572.703	4028
572.761	2341
572.819	3362
572.877	3062
572.936	2512
572.994	2995
573.052	3192
573.110	2930
573.169	3232
573.227	3142
573.285	3265
573.343	3332
573.401	3248
573.459	3359
573.517	3368
573.576	3047
573.634	3030
573.692	2943
573.750	2854
573.808	2736
573.866	2842
573.924	4187
573.982	3960
574.040	3537
574.098	2278
574.155	3874
574.213	2766
574.271	3181
574.329	3585
574.387	3084
574.445	3010
574.503	2400
574.560	1210
574.618	2370
574.676	2589
574.734	2328
574.792	3471
574.849	2669
574.907	2436
574.965	2943
575.022	2164
575.080	2514
575.138	2628
575.195	2393
575.253	2025
575.311	2617
575.368	3504
575.426	1850
575.483	2674
575.541	2769
575.598	1908
575.656	2776
575.713	2506
575.771	3013
575.828	2967
575.886	2712
575.943	2470
576.001	2510
576.058	2420
576.115	2946
576.173	3821
576.230	3998
576.287	5452
576.345	3486
576.402	3320
576.459	2557
576.517	2794
576.574	2283
576.631	3698
576.688	2523
576.746	2096
576.803	2297
576.860	1935
576.917	1822
576.974	2380
577.031	2769
577.089	3102
577.146	1454
577.203	2584
577.260	2519
577.317	2305
577.374	3072
577.431	3474
577.488	2054
577.545	2505
577.602	2981
577.659	2125
577.716	3115
577.773	2397
577.830	2013
577.886	2348
577.943	1257
578.000	2154
578.057	2391
578.114	2645
578.171	2618
578.227	2206
578.284	2492
578.341	2441
578.398	1984
578.454	3532
578.511	2391
578.568	2774
578.625	3078
578.681	2580
578.738	2061
578.794	1958
578.851	2157
578.908	2520
578.964	2974
579.021	2911
579.077	2232
579.134	1958
579.190	2492
579.247	2280
579.303	2167
579.360	2399
579.416	2048
579.473	1996
579.529	1925
579.586	2350
579.642	2774
579.698	1851
579.755	2646
579.811	2727
579.867	2730
579.924	2710
579.980	2267
580.036	2365
580.093	3129
580.149	2752
580.205	3312
580.261	3025
580.317	2700
580.374	3355
580.430	4137
580.486	3319
580.542	3077
580.598	2792
580.619	2984
580.654	3318
580.692	2601
580.710	2244
580.765	2412
580.767	2417
580.823	2921
580.838	2953
580.879	3025
580.911	2921
580.935	2854
580.984	2088
580.991	1984
581.047	3839
581.057	3693
581.103	3038
581.130	3089
581.159	3127
581.203	2443
581.215	2258
581.270	2678
581.276	2551
581.326	1353
581.349	1418
581.382	1524
581.422	2944
581.438	3530
581.494	3206
581.494	3195
581.550	1997
581.567	2266
581.606	2783
581.640	2408
581.661	2232
581.713	3138
581.717	3199
581.773	3342
581.786	3154
581.829	2597
581.859	2766
581.885	2843
581.932	3427
581.940	3559
581.996	2493
582.004	2535
582.052	2669
582.077	2803
582.107	2895
582.150	2694
582.163	2658
582.219	2880
582.223	2925
582.274	3604
582.296	3221
582.330	2469
582.368	2462
582.386	2551
582.441	2888
582.441	2886
582.497	3238
582.514	3304
582.552	3586
582.587	3633
582.608	3657
582.659	3703
582.663	3702
582.719	3604
582.732	3593
582.774	3540
582.805	3527
582.830	3601
582.877	3388
582.885	3317
582.941	2983
582.950	3112
582.996	3780
583.023	3949
583.052	4310
583.095	4015
583.107	3872
583.162	4119
583.168	4137
583.218	4308
583.240	4064
583.273	3602
583.313	3698
583.328	3849
583.384	3765
583.385	3768
583.439	3482
583.458	3425
583.494	3418
583.531	3441
583.549	3528
583.603	3818
583.605	3820
583.660	3621
583.676	3701
583.715	3961
583.748	3943
583.770	3923
583.820	3995
583.825	4005
583.881	4057
583.893	4044
583.936	4005
583.965	4107
583.991	4113
584.038	4416
584.046	4509
584.101	3795
584.110	3904
584.156	4488
584.183	4579
584.211	4514
584.255	4675
584.266	4774
584.321	4603
584.328	4590
584.376	4474
584.400	4888
584.431	5486
584.472	5034
584.486	4847
584.541	4602
584.545	4617
584.596	4860
584.617	4786
584.651	4884
584.689	5502
584.706	5701
584.761	5858
584.762	5849
584.816	5399
584.834	5740
584.871	6383
584.906	6268
584.926	6225
584.978	6234
584.980	6249
585.035	6941
585.051	7331
585.090	8300
585.123	9113
585.145	9675
585.195	10031
585.200	10130
585.254	12103
585.267	12777
585.309	14693
585.340	16473
585.364	17839
585.412	18643
585.419	18788
585.473	22418
585.484	23263
585.528	29049
585.556	35166
585.583	47998
585.628	77354
585.637	88256
585.692	185411
585.700	202256
585.747	258212
585.772	218833
585.801	134572
585.845	43427
585.856	32909
585.910	18149
585.917	16727
585.965	13741
585.989	12554
586.019	11555
586.061	11319
586.074	11347
586.128	10661
586.133	10630
586.183	10387
586.205	10432
586.237	10509
586.277	10410
586.292	10511
586.346	10495
586.349	10506
586.401	10758
586.421	10763
586.455	10947
586.493	11473
586.509	12235
586.564	14663
586.565	14728
586.618	20311
586.637	21416
586.672	18733
586.709	15933
586.727	15612
586.781	15170
586.781	15185
586.835	12861
586.853	12341
586.889	11873
586.925	11724
586.944	11865
586.996	12660
586.998	12698
587.052	13027
587.068	12914
587.106	12625
587.140	12887
587.161	13282
587.212	13856
587.215	13906
587.269	14061
587.284	14310
587.323	14701
587.356	14560
587.377	14498
587.427	15097
587.431	15225
587.485	16375
587.499	16636
587.539	17170
587.571	17559
587.593	18151
587.643	19176
587.648	19270
587.702	20247
587.715	20508
587.755	21667
587.786	22339
587.810	22874
587.858	23573
587.864	23777
587.917	26566
587.930	27032
587.971	29063
588.001	30196
588.025	31224
588.073	34110
588.079	34617
588.133	38982
588.145	39878
588.187	44266
588.217	47176
588.241	50551
588.288	58196
588.295	59446
588.348	69898
588.360	72097
588.402	82025
588.431	89208
588.456	95753
588.503	109128
588.510	111881
588.564	134841
588.575	139972
588.617	166210
588.646	185865
588.671	213140
588.718	269694
588.725	285720
588.778	420284
588.789	451056
588.832	679532
588.861	849548
588.886	1024514
588.932	1355758
588.939	1364842
588.993	1312581
589.004	1299946
589.047	1106192
589.075	930714
589.100	748216
589.147	435855
589.154	417498
589.207	302042
589.218	280797
589.261	260084
589.290	249479
589.314	261949
589.361	292345
589.368	308256
589.421	448345
589.433	481688
589.475	748582
589.504	949786
589.528	1071281
589.576	1257324
589.582	1233166
589.635	937315
589.647	862028
589.689	535246
589.718	323753
589.742	262276
589.790	157744
589.795	153166
589.849	114616
589.861	106142
589.902	91935
589.932	81494
589.955	74624
590.004	60490
590.009	59807
590.062	51767
590.075	49712
590.115	46415
590.146	43861
590.168	42321
590.218	38711
590.222	38596
590.275	36258
590.289	35534
590.328	34566
590.360	33651
590.381	32877
590.431	30744
590.435	30747
590.488	29503
590.503	29158
590.541	28522
590.574	27825
590.594	27501
590.645	26438
590.647	26485
590.700	25902
590.716	25648
590.753	25319
590.787	24787
590.806	24494
590.859	23755
590.859	23820
590.912	23772
590.930	23677
590.965	23611
591.001	23466
591.018	23130
591.071	21902
591.072	21830
591.124	22165
591.143	22251
591.177	22441
591.214	22508
591.230	22574
591.283	22500
591.285	22432
591.336	23433
591.356	23848
591.389	23275
591.427	22162
591.442	21930
591.495	21025
591.498	20889
591.547	20738
591.569	20664
591.600	20974
591.640	21105
591.653	21025
591.706	20512
591.711	20392
591.759	21377
591.782	21802
591.811	22363
591.853	22996
591.864	22804
591.917	21409
591.924	21146
591.969	21563
591.995	21728
592.022	21597
592.066	21185
592.075	21523
592.127	23215
592.137	23460
592.180	24447
592.208	24950
592.233	23883
592.279	21651
592.285	21717
592.338	21728
592.350	21674
592.390	21491
592.421	21236
592.443	21664
592.491	22376
592.495	22414
592.548	22015
592.562	21841
592.600	21596
592.633	21263
592.653	21338
592.704	21265
592.705	21406
592.775	22351
592.846	22114
592.916	23754
592.987	24886
593.058	23048
593.128	22348
593.199	22112
593.270	22240
593.341	22594
593.411	22821
593.482	23308
593.553	22861
593.623	21705
593.694	24661
593.764	25261
593.835	24032
593.906	23725
593.976	23798
594.047	24452
594.117	28270
594.188	26791
594.258	25080
594.329	24914
594.399	25030
594.470	25167
594.540	26170
594.611	27109
594.681	25527
594.751	26161
594.822	27845
594.892	29527
594.963	29012
595.033	29803
595.103	29662
595.174	31807
595.244	38064
595.314	40281
595.384	32144
595.455	32101
595.525	33344
595.595	34031
595.665	33070
595.736	32720
595.806	34039
595.876	33443
595.946	34350
596.016	34550
596.087	34961
596.157	35862
596.227	35217
596.297	38134
596.367	39911
596.437	42627
596.507	47516
596.577	48901
596.647	43730
596.717	44798
596.787	44696
596.857	45174
596.927	44998
596.997	45072
597.067	44708
597.137	47718
597.207	46596
597.277	46301
597.347	44763
597.417	43922
597.487	44687
597.557	45284
597.626	45919
597.696	47587
597.766	49348
597.836	50504
597.906	42940
597.975	41825
598.045	41969
598.115	43883
598.185	45874
598.254	51089
598.324	56372
598.394	56681
598.464	54517
598.533	53067
598.603	49229
598.672	49165
598.742	50783
598.812	48466
598.881	50208
598.951	50097
599.020	51543
599.090	52010
599.159	53190
599.229	50321
599.299	48337
599.368	51788
599.437	50422
599.507	46822
599.576	46036
599.646	44914
599.715	45680
599.785	42707
599.854	42920
599.924	44672
599.993	43129
600.062	42298
600.132	43601
600.201	46463
600.270	54715
600.340	54554
600.409	53610
600.478	52113
600.547	55068
600.617	51061
600.686	41366
600.755	37535
600.824	36620
600.894	35685
600.963	34648
601.032	33030
601.101	32489
601.170	30679
601.239	31585
601.308	30944
601.378	30781
601.447	31767
601.516	30559
601.585	31689
601.654	31928
601.723	32235
601.792	31854
601.861	32846
601.930	36644
601.999	36855
602.068	35057
602.137	36292
602.206	36490
602.275	36952
602.343	39174
602.412	38800
602.481	36444
602.550	37001
602.619	37079
602.688	38374
602.756	37740
602.825	37974
602.894	38307
602.963	39623
603.032	41078
603.100	40201
603.169	41232
603.238	40689
603.307	40354
603.375	41495
603.444	41882
603.513	42384
603.581	43560
603.650	43195
603.719	42970
603.787	43554
603.856	45867
603.924	47241
603.993	47847
604.061	50520
604.130	52460
604.198	53445
604.267	54088
604.335	54064
604.404	55288
604.472	57198
604.541	56955
604.609	57125
604.678	56262
604.746	57804
604.815	59794
604.883	59586
604.951	61448
605.020	62221
605.088	62504
605.156	63174
605.225	64937
605.293	64899
605.361	65875
605.429	66536
605.498	68372
605.566	70648
605.634	71790
605.702	75417
605.771	77235
605.839	77427
605.907	76488
605.975	73147
606.043	70594
606.111	72702
606.180	71997
606.248	71120
606.316	72238
606.384	70787
606.452	75661
606.520	80032
606.588	76243
606.656	77039
606.724	74353
606.792	70028
606.860	62502
606.928	57002
606.996	56096
607.064	54172
607.132	56157
607.200	60098
607.267	61708
607.335	62932
607.403	64168
607.471	61445
607.539	59872
607.607	61973
607.674	53051
607.742	53319
607.810	53305
607.878	54413
607.946	53186
608.013	56185
608.081	58197
608.149	59045
608.216	60358
608.284	62820
608.352	62018
608.419	61928
608.487	66267
608.555	60875
608.622	60948
608.690	64795
608.757	72185
608.825	73846
608.893	71183
608.960	67650
609.028	66563
609.095	70670
609.163	63647
609.230	57950
609.298	53475
609.365	55285
609.432	60428
609.500	65309
609.567	74135
609.635	86914
609.702	90024
609.769	85632
609.837	67790
609.904	57757
609.971	58426
610.039	70396
610.106	95871
610.173	195717
610.241	451887
610.308	222185
610.375	78345
610.442	63032
610.509	60602
610.577	59714
610.644	60528
610.711	61784
610.778	64504
610.845	67193
610.912	70245
610.980	74111
611.047	75601
611.114	73131
611.181	68658
611.248	68806
611.315	74087
611.382	75020
611.449	78497
611.516	79947
611.583	78075
611.650	79090
611.717	79518
611.784	82403
611.851	86189
611.918	94672
611.984	114496
612.051	174948
612.118	377443
612.185	922907
612.252	515079
612.319	131482
612.386	105794
612.452	97080
612.519	91899
612.586	92639
612.653	92638
612.719	93714
612.786	88673
612.853	80645
612.919	81062
612.986	82129
613.053	77096
613.120	71378
613.186	68452
613.253	72303
613.319	70944
613.386	71829
613.453	72280
613.519	74384
613.586	76190
613.652	84948
613.719	77896
613.785	77358
613.852	72780
613.918	72934
613.985	74182
614.051	80900
614.118	92985
614.184	85792
614.250	73307
614.317	73476
614.383	72651
614.449	73019
614.516	74108
614.582	74977
614.648	72782
614.715	71458
614.781	69695
614.847	70864
614.914	69794
614.980	68355
615.046	68012
615.112	70709
615.179	71493
615.245	73615
615.311	74105
615.377	83987
615.443	83669
615.509	77797
615.575	76690
615.642	76597
615.708	79508
615.774	83588
615.840	90324
615.906	101879
615.972	136391
616.038	227397
616.104	476224
616.170	1104423
616.236	841463
616.302	193921
616.368	141659
616.434	100375
616.500	93753
616.565	106594
616.631	133017
616.697	105534
616.763	111411
616.829	176909
616.895	319293
616.961	282681
617.026	113628
617.092	81149
617.158	76378
617.224	73769
617.289	67890
617.355	65388
617.421	63142
617.487	64252
617.552	61054
617.618	58965
617.684	58467
617.749	62296
617.815	57713
617.880	56337
617.946	57427
618.012	58396
618.077	58703
618.143	56050
618.208	57000
618.274	61377
618.339	62060
618.405	50699
618.470	51152
618.536	52411
618.601	51590
618.667	46224
618.732	45632
618.798	45077
618.863	44124
618.928	43355
618.994	45891
619.059	47306
619.124	53278
619.190	47193
619.255	43819
619.320	43931
619.386	44230
619.451	41992
619.516	42331
619.581	42802
619.647	44431
619.712	43909
619.777	41115
619.842	42630
619.907	43142
619.972	44130
620.038	42948
620.103	42551
620.168	42148
620.233	43124
620.298	42555
620.363	44098
620.428	43393
620.493	44729
620.558	45942
620.623	46437
620.688	47032
620.753	45300
620.818	45658
620.883	46648
620.948	46983
621.013	46079
621.078	45808
621.143	45191
621.207	48802
621.272	47156
621.337	46674
621.402	46400
621.467	49291
621.532	48986
621.596	45191
621.661	44523
621.726	42939
621.791	43637
621.855	44802
621.920	45473
621.985	44767
622.049	48303
622.114	47614
622.179	46707
622.243	47894
622.308	47791
622.373	51452
622.437	50042
622.502	46321
622.566	46495
622.631	44412
622.695	47417
622.760	46758
622.824	46443
622.889	47622
622.953	48549
623.018	59416
623.082	57473
623.147	48990
623.211	48819
623.276	47754
623.340	44719
623.404	44713
623.469	44022
623.533	44700
623.597	44011
623.662	42782
623.726	41414
623.790	37438
623.854	37241
623.919	38025
623.983	38148
624.047	38959
624.111	38691
624.176	39590
624.240	40200
624.304	42458
624.368	39888
624.432	41344
624.496	41572
624.560	45550
624.625	46006
624.689	43796
624.753	45272
624.817	43409
624.881	41023
624.945	38014
625.009	36671
625.073	37755
625.137	38913
625.201	45004
625.265	44312
625.329	39374
625.393	40569
625.456	40093
625.520	42265
625.584	42477
625.648	47694
625.712	54534
625.776	81285
625.839	83021
625.903	44501
625.967	35421
626.031	47109
626.095	61941
626.158	41043
626.222	30464
626.286	29694
626.349	26971
626.413	25243
626.477	27481
626.540	26756
626.604	26460
626.668	26114
626.731	24948
626.795	26016
626.858	26088
626.922	24738
626.986	26397
627.049	24472
627.113	26308
627.176	24735
627.240	24706
627.303	25058
627.366	23891
627.430	24935
627.493	24585
627.557	24561
627.620	25232
627.684	25504
627.747	26207
627.810	22738
627.874	22732
627.937	19496
628.000	23186
628.064	22452
628.127	19143
628.190	20553
628.253	19147
628.317	17719
628.380	17842
628.443	17293
628.506	17605
628.569	16915
628.632	16031
628.696	16655
628.759	16105
628.822	14972
628.885	14446
628.948	14555
629.011	16108
629.074	14782
629.137	13135
629.200	13995
629.263	15591
629.326	12642
629.389	13677
629.452	14441
629.515	14308
629.578	13718
629.641	14670
629.704	14255
629.767	14446
629.830	12941
629.892	13275
629.955	12758
630.018	15313
630.081	15417
630.144	16919
630.207	13556
630.269	14224
630.332	14117
630.395	13159
630.458	11987
630.520	11449
630.583	13734
630.646	13312
630.708	12170
630.771	12035
630.834	13697
630.896	13199
630.959	12918
631.021	12194
631.084	12602
631.146	14367
631.209	14552
631.272	12317
631.334	14061
631.397	12427
631.459	13067
631.522	14490
631.584	14554
631.646	16170
631.709	16863
631.771	18546
631.834	16938
631.896	14359
631.958	13816
632.021	14024
632.083	12224
632.145	13144
632.208	12332
632.270	12780
632.332	12354
632.395	11368
632.457	12416
632.519	12186
632.581	12705
632.643	11102
632.706	11751
632.768	11072
632.830	11675
632.892	11880
632.954	11482
633.016	12154
633.078	12166
633.141	12149
633.203	11235
633.265	12201
633.327	12849
633.389	11551
633.451	13358
633.513	14001
633.575	13853
633.637	12975
633.698	13499
633.760	13781
633.822	13343
633.884	13043
633.946	14056
634.008	13355
634.070	15076
634.132	15690
634.193	16850
634.255	18802
634.317	18821
634.379	19300
634.441	15873
634.502	14136
634.564	13738
634.626	12642
634.687	12073
634.749	11581
634.811	11192
634.873	10481
634.934	10833
634.996	11820
635.057	10367
635.119	11055
635.181	12157
635.242	12769
635.304	9594
635.365	13495
635.427	12464
635.488	11725
635.550	10510
635.611	11363
635.673	10322
635.734	13789
635.796	13264
635.857	15450
635.918	14621
635.980	18008
636.041	17596
636.102	20310
636.164	19881
636.225	19133
636.286	15501
636.348	14111
636.409	13435
636.470	12771
636.531	11686
636.593	11199
636.654	11092
636.715	10055
636.776	9970
636.838	9734
636.899	10112
636.960	9646
637.021	8732
637.082	9568
637.143	10072
637.204	8163
637.265	8373
637.326	9437
637.387	10407
637.448	8374
637.509	9452
637.570	9016
637.631	9702
637.692	7859
637.753	7041
637.814	9235
637.875	8668
637.936	9081
637.997	8144
638.058	8862
638.119	10418
638.179	8433
638.240	8114
638.301	7347
638.362	8025
638.423	7549
638.483	9791
638.544	7178
638.605	9062
638.666	7280
638.726	9037
638.787	8634
638.848	7612
638.908	8308
638.969	8529
639.030	7994
639.090	6786
639.151	7630
639.211	8552
639.272	10417
639.332	16038
639.393	9541
639.453	7932
639.514	8818
639.574	8213
639.635	6966
639.695	8401
639.756	7004
639.816	7883
639.877	9148
639.937	14208
639.997	16632
640.058	6712
640.118	7287
640.178	7637
640.239	7062
640.299	6976
640.359	7011
640.420	8201
640.480	8802
640.540	9105
640.600	8834
640.661	9261
640.721	8146
640.781	11880
640.841	8081
640.901	8539
640.961	8219
641.021	8126
641.082	8628
641.142	10726
641.202	8572
641.262	4885
641.322	7430
641.382	5615
641.442	7180
641.502	6518
641.562	6569
641.622	6180
641.682	7367
641.742	8542
641.802	7663
641.861	7319
641.921	6810
641.981	7840
642.041	8192
642.101	8721
642.161	5437
642.221	5404
642.280	5946
642.340	5634
642.400	5406
642.460	7376
642.519	6665
642.579	6938
642.639	7405
642.698	4180
642.758	8438
642.818	6861
642.877	6447
642.937	7061
642.997	8062
643.056	10346
643.116	6200
643.175	7809
643.235	7209
643.294	7406
643.354	7578
643.414	9252
643.473	10992
643.532	12935
643.592	18824
643.651	32832
643.711	62437
643.770	129061
643.830	322634
643.889	631995
643.948	128748
644.008	23772
644.067	14509
644.126	10245
644.186	9282
644.245	8608
644.304	6290
644.363	8936
644.423	5868
644.482	6930
644.541	8172
644.600	6093
644.659	10516
644.719	12462
644.778	20273
644.837	37200
644.896	77575
644.955	174475
645.014	49055
645.073	12188
645.132	8513
645.191	7851
645.250	7170
645.309	8635
645.368	8549
645.427	11570
645.486	19903
645.545	33010
645.604	9280
645.663	7725
645.722	6613
645.781	8175
645.840	9339
645.898	12728
645.957	19099
646.016	29963
646.075	58869
646.134	119485
646.192	339678
646.251	446041
646.310	55884
646.369	17024
646.427	14305
646.486	9257
646.545	7587
646.603	7443
646.662	6089
646.721	6915
646.779	6035
646.838	5976
646.896	9093
646.955	12999
647.014	21474
647.072	42358
647.131	113005
647.189	45626
647.248	7297
647.306	6717
647.365	6472
647.423	3369
647.481	6204
647.540	4573
647.598	4638
647.657	5201
647.715	5361
647.773	3930
647.832	5654
647.890	3183
647.948	3845
648.007	6029
648.065	2827
648.123	2780
648.181	5871
648.240	4645
648.298	3463
648.356	3226
648.414	4029
648.472	3871
648.531	4272
648.589	3415
648.647	3629
648.705	4423
648.763	3588
648.821	4054
648.879	4210
648.937	5286
648.995	6869
649.053	8889
649.111	15048
649.169	26289
649.227	48724
649.285	106324
649.343	302547
649.401	121704
649.459	26023
649.516	15425
649.574	8710
649.632	15308
649.690	15225
649.748	11917
649.806	15239
649.863	31019
649.921	80885
649.979	45788
650.037	6950
650.094	3926
650.152	4770
650.210	3191
650.268	5318
650.325	3862
650.383	4459
650.440	2603
650.498	3028
650.556	2587
650.613	2595
650.671	3493
650.728	3590
650.786	3617
650.843	5491
650.901	1982
650.958	3097
651.016	2460
651.073	3340
651.131	1893
651.188	1687
651.246	3090
651.303	1786
651.360	2634
651.418	2359
651.475	3008
651.532	1941
651.590	2609
651.647	2325
651.704	2606
651.762	2213
651.819	2343
651.876	1847
651.933	2290
651.990	3702
652.048	1189
652.105	2555
652.162	2855
652.219	1647
652.276	2178
652.333	2659
652.390	1565
652.448	2354
652.505	1939
652.562	1750
652.619	2404
652.676	2496
652.733	3847
652.790	1734
652.847	919
652.904	2126
652.961	1374
653.017	1429
653.074	2667
653.131	2100
653.188	1180
653.245	1882
653.302	1587
653.359	2278
653.415	2636
653.472	1343
653.529	2206
653.586	1763
653.642	931
653.699	3115
653.756	1241
653.813	1666
653.869	2695
653.926	1216
653.983	654
654.039	2589
654.096	1608
654.152	2482
654.209	1341
654.266	2271
654.322	1646
654.379	1717
654.435	2020
654.492	2368
654.548	4314
654.605	5801
654.661	3619
654.717	1847
654.774	2775
654.830	2180
654.887	1603
654.943	1774
655.000	2637
655.056	2388
655.112	1939
655.168	1376
655.225	2735
655.281	2691
655.337	3155
655.394	3861
655.450	3199
655.506	3424
655.562	5029
655.618	4749
655.675	492
655.731	2799
655.787	1580
655.843	2400
655.899	1038
655.955	2198
656.011	2075
656.067	1360
656.123	2679
656.179	2438
656.235	3026
656.291	696
656.347	2746
656.403	2296
656.459	2056
656.515	2673
656.571	2532
656.627	2159
656.683	2159
656.739	2008
656.795	995
656.850	2105
656.906	2713
656.962	2069
657.018	1238
657.074	2663
657.129	2240
657.185	4939
657.241	9964
657.297	4675
657.352	2094
657.408	1294
657.464	2995
657.519	2602
657.575	1085
657.630	1335
657.686	2111
657.742	1136
657.797	1213
657.853	1112
657.908	2083
657.964	513
658.019	1787
658.075	2443
658.130	1814
658.186	689
658.241	2098
658.297	1037
658.352	1674
658.407	1892
658.463	822
658.518	1658
658.573	1862
658.629	755
658.684	1395
658.739	1955
658.795	724
658.850	909
658.905	1318
658.960	1716
659.016	803
659.071	1790
659.126	2216
659.181	2157
659.236	3876
659.291	5255
659.346	1716
659.401	1969
659.457	2326
659.512	1448
659.567	1950
659.622	1077
659.677	708
659.732	1085
659.787	1317
659.842	2184
659.897	2082
659.952	1458
660.007	1406
660.061	1301
660.116	678
660.171	1217
660.226	1955
660.281	1513
660.336	781
660.391	1621
660.445	287
660.500	2238
660.555	1272
660.610	1154
660.664	1442
660.719	1121
660.774	1612
660.828	1466
660.883	1153
660.938	1898
660.992	293
661.047	1657
661.101	540
661.156	452
661.211	231
661.265	1678
661.320	1513
661.374	1272
661.429	921
661.483	2040
661.538	295
661.592	1381
661.647	663
661.701	1370
661.755	1080
661.810	960
661.864	1001
661.919	836
661.973	1837
662.027	983
662.081	1047
662.136	855
662.190	1972
662.244	653
662.299	1085
662.353	742
662.407	393
662.461	717
662.515	1542
662.569	1026
662.624	1188
662.678	782
662.732	1324
662.786	667
662.840	798
662.894	1776
662.948	1226
663.002	1332
663.056	1280
663.110	899
663.164	734
663.218	1671
663.272	1354
663.326	2253
663.380	1874
663.434	1533
663.488	433
663.542	1919
663.595	1135
663.649	1373
663.703	1881
663.757	732
663.811	1300
663.864	1399
663.918	1239
663.972	1218
664.026	1353
664.079	1217
664.133	1788
664.187	1097
664.240	1073
664.294	376
664.348	1645
664.401	1816
664.455	792
664.508	660
664.562	1174
664.615	1776
664.669	1041
664.722	1518
664.776	691
664.829	879
664.883	515
664.936	1054
664.990	790
665.043	1503
665.097	608
665.150	1747
665.203	1781
665.257	1595
665.310	1185
665.363	1387
665.417	1829
665.470	1671
665.523	823
665.576	2076
665.630	1183
665.683	348
665.736	1449
665.789	1577
665.842	1048
665.895	1267
665.949	848
666.002	1557
666.055	1044
666.108	2582
666.161	1978
666.214	895
666.267	2469
666.320	2562
666.373	1771
666.426	1984
666.479	1779
666.532	1329
666.585	1701
666.638	2361
666.691	1413
666.744	2416
666.796	1107
666.849	1428
666.902	1606
666.955	1567
667.008	1023
667.060	915
667.113	620
667.166	926
667.219	1016
667.271	1671
667.324	1086
667.377	1094
667.430	1000
667.482	1929
667.535	1951
667.587	1952
667.640	1798
667.693	2069
667.745	3906
667.798	3799
667.850	663
667.903	1212
667.955	993
668.008	882
668.060	1615
668.113	1315
668.165	1578
668.218	986
668.270	1240
668.322	1760
668.375	1238
668.427	2336
668.479	1799
668.532	1715
668.584	1468
668.636	582
668.689	1046
668.741	1581
668.793	874
668.845	919
668.898	1521
668.950	1788
669.002	859
669.054	87
669.106	1033
669.158	2156
669.211	1388
669.263	1625
669.315	1753
669.367	2174
669.419	604
669.471	1957
669.523	2319
669.575	4683
669.627	2026
669.679	1210
669.731	1811
669.783	2338
669.835	2754
669.886	2598
669.938	1253
669.990	1314
670.042	429
670.094	1001
670.146	1357
670.197	845
670.249	1530
670.301	760
670.353	2244
670.404	3367
670.456	2896
670.508	5483
670.560	8376
670.611	14531
670.663	24980
670.715	67716
670.766	95584
670.818	19928
670.869	3839
670.921	2701
670.972	2891
671.024	1982
671.075	1544
671.127	1729
671.178	786
671.230	1671
671.281	960
671.333	2125
671.384	1422
671.436	1766
671.487	4466
671.538	5122
671.590	8949
671.641	14832
671.692	27832
671.744	51578
671.795	27482
671.846	8235
671.897	4468
671.949	2361
672.000	1914
672.051	1420
672.102	2710
672.153	1208
672.204	1506
672.256	1287
672.307	855
672.358	1624
672.409	1538
672.460	1882
672.511	1326
672.562	305
672.613	774
672.664	573
672.715	964
672.766	631
672.817	487
672.868	940
672.919	1165
672.970	444
673.021	1091
673.071	660
673.122	874
673.173	257
673.224	304
673.275	1203
673.326	847
673.376	224
673.427	734
673.478	279
673.528	1208
673.579	592
673.630	935
673.680	1244
673.731	407
673.782	1320
673.832	646
673.883	392
673.934	701
673.984	373
674.035	537
674.085	988
674.136	800
674.186	1122
674.237	1357
674.287	1943
674.338	1103
674.388	1168
674.438	441
674.489	1149
674.539	1448
674.589	327
674.640	389
674.690	1465
674.740	593
674.791	353
674.841	990
674.891	892
674.942	635
674.992	686
675.042	502
675.092	754
675.142	418
675.193	584
675.243	750
675.293	1260
675.343	-504
675.393	1026
675.443	886
675.493	-378
675.543	197
675.593	559
675.643	7
675.693	379
675.743	811
675.793	566
675.843	-243
675.893	69
675.943	540
675.993	260
676.043	687
676.093	931
676.142	191
676.192	780
676.242	663
676.292	-319
676.341	907
676.391	-325
676.441	281
676.491	-73
676.540	307
676.590	977
676.640	286
676.689	404
676.739	-498
676.789	467
676.838	451
676.888	102
676.937	83
676.987	371
677.037	-29
677.086	-104
677.136	-471
677.185	864
677.235	32
677.284	-52
677.333	-183
677.383	571
677.432	-304
677.482	-29
677.531	21
677.580	47
677.630	1039
677.679	-611
677.728	254
677.778	326
677.827	196
677.876	-308
677.925	230
677.975	-43
678.024	821
678.073	-355
678.122	-116
678.171	172
678.220	379
678.269	848
678.319	-211
678.368	824
678.417	516
678.466	1150
678.515	1017
678.564	723
678.613	955
678.662	550
678.711	305
678.760	617
678.809	-212
678.857	126
678.906	444
678.955	435
679.004	647
679.053	220
679.102	260
679.151	370
679.199	-864
679.248	658
679.297	-399
679.346	-491
679.394	40
679.443	628
679.492	-249
679.540	-68
679.589	-28
679.638	380
679.686	220
679.735	470
679.784	-5
679.832	477
679.881	163
679.929	-690
679.978	-284
680.026	-588
680.075	300
680.123	209
680.172	-424
680.220	-372
680.268	-215
680.317	-411
680.365	220
680.414	-788
680.462	409
680.510	150
680.559	-385
680.607	-273
680.655	-697
680.703	-568
680.752	-61
680.800	-487
680.848	-300
680.896	-522
680.945	-356
680.993	-182
681.041	-650
681.089	-14
681.137	-675
681.185	-578
681.233	-991
681.258	-1284
681.281	-1579
681.329	-157
681.377	-832
681.380	-758
681.425	336
681.473	310
681.502	-1
681.521	-246
681.569	703
681.617	-438
681.624	-424
681.665	-433
681.713	-13
681.745	59
681.761	72
681.809	-86
681.857	44
681.867	-37
681.904	-387
681.952	22
681.989	356
682.000	442
682.048	-109
682.096	566
682.111	469
682.143	197
682.191	570
682.233	325
682.239	272
682.286	250
682.334	324
682.354	215
682.382	73
682.430	226
682.476	366
682.477	355
682.525	529
682.572	156
682.598	-30
682.620	-158
682.667	514
682.715	819
682.720	784
682.763	209
682.810	290
682.841	687
682.857	892
682.905	1014
682.952	1098
682.963	1024
683.000	636
683.047	756
683.085	1180
683.095	1299
683.142	726
683.190	714
683.206	592
683.237	310
683.284	900
683.328	1155
683.332	1171
683.379	669
683.426	880
683.449	817
683.473	727
683.521	1224
683.568	1780
683.571	1740
683.615	1034
683.662	1453
683.693	1310
683.709	1198
683.757	916
683.804	1117
683.814	963
683.851	512
683.898	1507
683.936	1264
683.945	1173
683.992	1847
684.039	1447
684.057	1495
684.086	1591
684.133	1750
684.179	1439
684.180	1413
684.227	2303
684.274	2092
684.300	1543
684.321	1146
684.368	1358
684.415	1897
684.422	1760
684.462	792
684.509	677
684.543	984
684.556	1107
684.603	1673
684.649	1077
684.665	1286
684.696	1705
684.743	1894
684.786	1925
684.790	1925
684.837	1665
684.883	2417
684.908	2491
684.930	2457
684.977	2439
685.023	2148
685.029	2079
685.070	1647
685.117	2328
685.150	2055
685.164	1930
685.210	2187
685.257	2678
685.272	2578
685.303	2351
685.350	2251
685.393	2021
685.396	2011
685.443	2207
685.490	2871
685.514	3096
685.536	3088
685.583	3130
685.629	2141
685.636	2138
685.675	2180
685.722	2372
685.757	2236
685.768	2233
685.815	2824
685.861	2372
685.878	2477
685.908	2557
685.954	2863
686.000	2761
686.000	2761
686.047	3408
686.093	3401
686.121	3760
686.139	3800
686.185	3471
686.232	3117
686.242	3067
686.278	3005
686.324	2405
686.363	2863
686.370	2919
686.416	2791
686.463	2797
686.484	2560
686.509	2455
686.555	2497
686.601	2485
686.606	2541
686.647	2821
686.693	2644
686.727	2404
686.739	2367
686.785	2409
686.831	2818
686.848	2815
686.877	2772
686.923	2619
686.969	3145
686.969	3146
687.015	2711
687.061	2818
687.090	2829
687.107	2817
687.153	3690
687.199	2865
687.211	2638
687.245	2296
687.291	3265
687.332	3180
687.336	3159
687.382	3780
687.428	3492
687.453	3770
687.474	3863
687.520	3256
687.565	3149
687.574	3006
687.611	2667
687.657	3185
687.695	3586
687.702	3694
687.748	4179
687.794	5100
687.816	4802
687.839	4238
687.885	3963
687.931	3878
687.937	3839
687.976	3788
688.022	4049
688.058	3842
688.067	3743
688.113	3644
688.158	3087
688.179	3210
688.204	3616
688.249	3904
688.295	3857
688.300	3926
688.340	4279
688.386	3558
688.421	3712
688.431	3761
688.477	3837
688.522	3852
688.542	3927
688.567	3925
688.613	3643
688.658	3750
688.663	3692
688.703	3521
688.749	3868
688.784	3849
688.794	3784
688.839	3544
688.884	3888
688.905	3728
688.930	3718
688.975	3327
689.020	3928
689.026	3923
689.065	3730
689.110	3807
689.146	3689
689.155	3682
689.201	3721
689.246	3671
689.267	3913
689.291	4202
689.336	4148
689.381	4127
689.388	4092
689.426	3846
689.471	3649
689.509	3659
689.516	3685
689.561	4065
689.606	3798
689.630	3882
689.651	3940
689.696	3691
689.741	4181
689.750	4091
689.785	3811
689.830	4225
689.871	3642
689.875	3584
689.920	3573
689.965	3780
689.992	3663
690.010	3614
690.054	3633
690.099	3803
690.112	3871
690.144	4031
690.189	3705
690.233	3506
690.233	3512
690.278	3952
690.323	3955
690.354	3760
690.367	3721
690.412	4259
690.457	4135
690.474	4329
690.501	4474
690.546	3972
690.590	4007
690.595	3993
690.635	4261
690.680	4327
690.716	4509
690.724	4489
690.769	4911
690.813	4652
690.836	4439
690.857	4569
690.902	5116
690.946	5197
690.957	5368
690.991	6172
691.035	7216
691.077	8049
691.080	8071
691.124	7897
691.168	7973
691.198	7847
691.213	7551
691.257	6670
691.301	6116
691.318	5898
691.346	5907
691.390	5595
691.434	4987
691.439	4953
691.478	4778
691.522	4951
691.559	4758
691.567	4831
691.611	5284
691.655	5170
691.680	5514
691.699	5465
691.743	4820
691.787	4651
691.800	4541
691.831	4622
691.875	4748
691.919	4438
691.921	4440
691.964	4771
692.008	4800
692.041	4439
692.052	4438
692.096	4648
692.139	5566
692.162	5732
692.183	5503
692.227	4859
692.271	4279
692.282	4141
692.315	4371
692.359	4704
692.402	4898
692.403	4909
692.447	4865
692.490	4739
692.523	4713
692.534	4834
692.578	5100
692.622	5392
692.643	5434
692.666	5218
692.709	4957
692.753	4635
692.763	4546
692.797	4740
692.840	4961
692.884	5437
692.884	5450
692.928	5146
692.971	5005
693.004	5056
693.015	5198
693.059	5305
693.102	5707
693.124	5790
693.146	5711
693.189	5502
693.233	5541
693.245	5510
693.276	5561
693.320	5882
693.363	5614
693.365	5601
693.407	5777
693.450	5766
693.485	6110
693.493	6264
693.537	6664
693.580	6952
693.605	7144
693.624	7341
693.667	7774
693.710	8371
693.725	8621
693.753	10222
693.797	12477
693.840	14813
693.845	14996
693.883	13891
693.926	12990
693.966	12257
693.970	12128
694.013	10310
694.056	8401
694.086	7228
694.099	7184
694.142	7035
694.185	6815
694.206	6629
694.229	6613
694.272	6614
694.315	6679
694.326	6668
694.358	6800
694.401	6982
694.444	7166
694.446	7146
694.487	6983
694.530	7237
694.566	7213
694.573	7139
694.616	6107
694.659	5752
694.686	5415
694.702	5522
694.745	5737
694.787	5900
694.806	5935
694.830	5840
694.873	5793
694.916	5513
694.926	5500
694.959	5661
695.002	5516
695.044	5502
695.046	5489
695.087	5520
695.130	5432
695.166	5489
695.172	5578
695.215	5680
695.258	6340
695.286	6514
695.301	6405
695.343	6026
695.386	5804
695.406	5605
695.428	5747
695.471	6094
695.514	6443
695.526	6505
695.556	6606
695.599	6847
695.641	6882
695.646	6888
695.684	6984
695.726	7025
695.766	6889
695.769	6879
695.811	6617
695.854	6182
695.886	6013
695.896	6139
695.938	6309
695.981	6571
696.005	6784
696.023	6788
696.065	6790
696.108	6564
696.125	6451
696.150	6509
696.192	6760
696.235	6881
696.245	6868
696.277	6707
696.319	6652
696.361	6595
696.365	6560
696.404	6854
696.446	7263
696.485	7538
696.488	7551
696.530	7424
696.572	7496
696.604	7310
696.614	7275
696.656	7246
696.698	7105
696.724	6955
696.740	6856
696.783	6657
696.825	6568
696.844	6413
696.867	6518
696.909	6725
696.951	6950
696.964	7016
696.992	7023
697.034	6915
697.076	6768
697.083	6744
697.118	7099
697.160	7440
697.202	7745
697.203	7730
697.244	7434
697.286	7167
697.323	6761
697.327	6779
697.369	6895
697.411	6950
697.442	6924
697.453	7005
697.494	7281
697.536	7578
697.562	7707
697.578	7771
697.620	7983
697.661	8149
697.682	8196
697.703	8317
697.744	8522
697.786	8756
697.801	8795
697.828	9018
697.869	9280
697.911	9620
697.921	9678
697.952	9108
697.994	8290
698.035	7448
698.040	7322
698.077	7330
698.118	7362
698.160	7344
698.160	7319
698.201	7569
698.243	7737
698.279	7892
698.284	7934
698.325	8139
698.367	8263
698.399	8335
698.408	8312
698.449	8113
698.491	7928
698.518	7755
698.532	7753
698.573	7708
698.614	7632
698.638	7572
698.656	7710
698.697	7967
698.738	8253
698.757	8357
698.779	8379
698.820	8364
698.862	8355
698.877	8327
698.903	8519
698.944	8783
698.985	9044
698.996	9092
699.026	8815
699.067	8393
699.116	7869
699.235	7870
699.354	7770
699.474	8225
699.593	9742
699.713	8405
699.832	7969
699.951	9920
700.070	9098
700.190	7533
700.309	8816
700.428	7947
700.547	8049
700.667	7501
700.786	8476
700.905	7280
701.024	8306
701.143	7081
701.262	7320
701.381	7691
701.500	7285
701.619	8982
701.738	7667
701.857	7644
701.976	7346
702.095	7247
702.214	8470
702.333	8446
702.452	8528
702.571	6983
702.690	8063
702.809	6739
702.928	6942
703.047	7246
703.165	7498
703.284	6466
703.403	7213
703.522	7864
703.640	8157
703.759	8668
703.878	11000
703.997	6186
704.115	6498
704.234	6739
704.353	7732
704.471	5920
704.590	7196
704.708	6231
704.827	6196
704.946	6497
705.064	6613
705.183	6068
705.301	8255
705.420	8634
705.538	8457
705.656	6928
705.775	7535
705.893	10749
706.012	11933
706.130	6839
706.249	8495
706.367	7284
706.485	8576
706.604	7262
706.722	8074
706.840	9480
706.958	12330
707.077	8967
707.195	6617
707.313	5802
707.431	6606
707.549	5854
707.668	6806
707.786	7127
707.904	6340
708.022	6464
708.140	6533
708.258	6538
708.376	6587
708.494	5869
708.612	7905
708.730	8731
708.848	9084
708.966	8302
709.084	8781
709.202	8146
709.320	7428
709.438	6697
709.556	7740
709.674	6930
709.791	7885
709.909	5769
710.027	7295
710.145	6808
710.263	7410
710.380	7382
710.498	7638
710.616	6575
710.733	7192
710.851	6785
710.969	6863
711.086	6517
711.204	6757
711.322	7181
711.439	7335
711.557	7854
711.674	7150
711.792	6617
711.909	6678
712.027	6213
712.144	6348
712.262	6201
712.379	7002
712.497	9542
712.614	8833
712.732	7250
712.849	8577
712.966	8716
713.084	10544
713.201	8156
713.318	8424
713.436	7530
713.553	8544
713.670	8286
713.787	8920
713.905	8803
714.022	8332
714.139	9340
714.256	12351
714.373	18823
714.490	36966
714.608	107284
714.725	481085
714.842	460272
714.959	31599
715.076	12841
715.193	9944
715.310	9499
715.427	7149
715.544	6486
715.661	7886
715.778	6678
715.895	8078
716.011	7789
716.128	7256
716.245	6595
716.362	8454
716.479	9362
716.596	6948
716.713	6907
716.829	7024
716.946	6404
717.063	5870
717.180	5512
717.296	6072
717.413	5633
717.530	5947
717.646	6265
717.763	5746
717.880	4803
717.996	5896
718.113	6021
718.229	5403
718.346	4494
718.462	6094
718.579	8380
718.695	16020
718.812	9942
718.928	8335
719.045	6245
719.161	6261
719.277	5534
719.394	6166
719.510	6565
719.626	7569
719.743	8923
719.859	15148
719.975	29864
720.092	137017
720.208	313754
720.324	29635
720.440	8417
720.557	8603
720.673	13282
720.789	14076
720.905	24919
721.021	8821
721.137	4212
721.253	5754
721.369	5133
721.486	6261
721.602	7772
721.718	5221
721.834	4540
721.950	5463
722.066	4491
722.181	5407
722.297	4936
722.413	5383
722.529	4304
722.645	4780
722.761	4119
722.877	4535
722.993	5287
723.108	6359
723.224	5798
723.340	5095
723.456	4351
723.571	4865
723.687	3783
723.803	4285
723.918	3903
724.034	4719
724.150	3301
724.265	5192
724.381	9266
724.497	11757
724.612	3979
724.728	3685
724.843	4104
724.959	5118
725.074	9930
725.190	10598
725.305	3899
725.421	4181
725.536	3450
725.651	3172
725.767	2870
725.882	4332
725.997	3721
726.113	4063
726.228	3875
726.343	4264
726.459	2879
726.574	3942
726.689	3569
726.804	4043
726.920	3498
727.035	3752
727.150	3136
727.265	3661
727.380	4208
727.495	4495
727.610	3316
727.725	3616
727.841	3834
727.956	6029
728.071	4795
728.186	3877
728.301	2358
728.416	4768
728.531	3384
728.645	3353
728.760	3926
728.875	5235
728.990	3643
729.105	4261
729.220	3784
729.335	3698
729.449	3857
729.564	3871
729.679	2160
729.794	2715
729.908	2503
730.023	3455
730.138	2920
730.253	3654
730.367	2730
730.482	3729
730.596	3030
730.711	4327
730.826	4668
730.940	4701
731.055	2856
731.169	3467
731.284	3217
731.398	3003
731.513	3221
731.627	3627
731.742	4882
731.856	5777
731.970	4775
732.085	7199
732.199	10333
732.313	20896
732.428	57959
732.542	175845
732.656	93242
732.771	16815
732.885	7226
732.999	6175
733.113	4575
733.227	5077
733.342	4268
733.456	5187
733.570	3986
733.684	4647
733.798	3767
733.912	3849
734.026	2959
734.140	4162
734.254	2872
734.368	6194
734.482	7021
734.596	3703
734.710	2929
734.824	4349
734.938	4335
735.052	3382
735.166	3467
735.280	4600
735.393	3398
735.507	3711
735.621	4313
735.735	6823
735.849	3742
735.962	4170
736.076	3898
736.190	3335
736.303	4489
736.417	6241
736.531	3047
736.644	3073
736.758	2732
736.872	3145
736.985	2584
737.099	3847
737.212	2000
737.326	3842
737.439	2799
737.553	2995
737.666	3549
737.780	3239
737.893	2801
738.007	3660
738.120	1958
738.233	3027
738.347	2850
738.460	3703
738.573	3920
738.687	3919
738.800	3962
738.913	4787
739.026	3067
739.140	3192
739.253	2642
739.366	2740
739.479	2056
739.592	2501
739.705	2302
739.818	3170
739.932	2341
740.045	2841
740.158	2628
740.271	3450
740.384	3371
740.497	2451
740.610	3456
740.723	3726
740.836	4515
740.949	4331
741.062	4984
741.174	3869
741.287	2400
741.400	3253
741.513	3245
741.626	3634
741.739	3134
741.851	3073
741.964	2799
742.077	3529
742.189	2071
742.302	4318
742.415	4253
742.527	2921
742.640	2233
742.753	2681
742.865	1657
742.978	1493
743.090	2039
743.203	2637
743.316	2155
743.428	2423
743.541	1539
743.653	2556
743.766	1836
743.878	2193
743.990	2819
744.103	3916
744.215	2246
744.327	2624
744.440	3572
744.552	6887
744.664	2605
744.777	2639
744.889	1309
745.001	2066
745.113	1366
745.226	1850
745.338	1793
745.450	2090
745.562	1277
745.674	1812
745.786	2621
745.898	1808
746.010	1087
746.122	1607
746.234	870
746.347	2306
746.459	1090
746.570	2482
746.682	2682
746.794	3107
746.906	1743
747.018	2463
747.130	2630
747.242	1813
747.354	1907
747.466	2179
747.577	1576
747.689	2421
747.801	2100
747.913	1950
748.024	714
748.136	1909
748.248	1592
748.359	2181
748.471	1496
748.583	2150
748.694	585
748.806	2851
748.918	2788
749.029	2612
749.141	2411
749.252	2631
749.364	2296
749.475	7333
749.587	2594
749.698	1910
749.809	1807
749.921	1845
750.032	998
750.144	796
750.255	1074
750.366	1304
750.478	1448
750.589	1625
750.700	1467
750.811	1937
750.923	2426
751.034	7918
751.145	6873
751.256	2091
751.367	1879
751.479	1903
751.590	693
751.701	1465
751.812	115
751.923	1630
752.034	2220
752.145	1960
752.256	1811
752.367	1745
752.478	1353
752.589	2129
752.700	820
752.811	1264
752.922	813
753.032	1981
753.143	2592
753.254	1811
753.365	1616
753.476	1541
753.586	345
753.697	1601
753.808	1380
753.919	1718
754.029	997
754.140	1682
754.251	1181
754.361	2047
754.472	990
754.582	1533
754.693	926
754.804	1929
754.914	1158
755.025	1336
755.135	1270
755.246	2107
755.356	837
755.466	1897
755.577	983
755.687	1086
755.798	908
755.908	1633
756.018	957
756.129	1619
756.239	510
756.349	1965
756.460	973
756.570	1990
756.680	1670
756.790	1810
756.900	1161
757.011	1566
757.121	916
757.231	1479
757.341	286
757.451	1226
757.561	658
757.671	1503
757.781	528
757.891	1907
758.001	921
758.111	1857
758.221	1824
758.331	2504
758.441	2622
758.551	4411
758.661	2598
758.771	2868
758.880	1675
758.990	2124
759.100	1158
759.210	1319
759.320	1342
759.429	3166
759.539	1435
759.649	1524
759.758	2385
759.868	3408
759.978	1672
760.087	3323
760.197	2617
760.307	3771
760.416	2861
760.526	2111
760.635	2228
760.745	3689
760.854	2866
760.964	3149
761.073	3311
761.182	3166
761.292	2311
761.401	2654
761.511	1931
761.620	2004
761.729	1053
761.839	2522
761.948	1467
762.057	1566
762.166	1646
762.276	1153
762.385	2587
762.494	1924
762.603	1228
762.712	2461
762.822	1463
762.931	1838
763.040	646
763.149	1232
763.258	866
763.367	1721
763.476	1419
763.585	1914
763.694	1197
763.803	1743
763.912	1730
764.021	1137
764.130	980
764.238	1773
764.347	1382
764.456	1643
764.565	2195
764.674	2000
764.783	1768
764.891	1728
765.000	2612
765.109	3114
765.217	1876
765.326	4528
765.435	4146
765.543	4855
765.652	5033
765.761	6151
765.869	10174
765.978	15484
766.086	27545
766.195	56592
766.303	147195
766.412	370254
766.520	311572
766.629	91977
766.737	32294
766.846	17915
766.954	11663
767.062	9394
767.171	6772
767.279	6529
767.387	3653
767.496	4080
767.604	3035
767.712	3758
767.820	1815
767.928	3025
768.037	2726
768.145	3075
768.253	2620
768.361	2477
768.469	2291
768.577	2418
768.685	3038
768.793	3493
768.901	2017
769.009	3230
769.117	3323
769.225	4639
769.333	7153
769.441	11370
769.549	20618
769.657	50588
769.765	163312
769.873	306162
769.981	111205
770.088	24551
770.196	11256
770.304	7970
770.412	6167
770.519	4542
770.627	3506
770.735	3077
770.842	2567
770.950	1938
771.058	2250
771.165	2854
771.273	1430
771.380	2294
771.488	2049
771.595	2260
771.703	1728
771.810	2139
771.918	944
772.025	1827
772.133	1889
772.240	1692
772.348	2406
772.455	2479
772.562	1595
772.670	1669
772.777	1709
772.884	2104
772.991	1677
773.099	2416
773.206	1156
773.313	2766
773.420	2614
773.528	1677
773.635	1899
773.742	2634
773.849	1486
773.956	1496
774.063	439
774.170	1948
774.277	2595
774.384	1613
774.491	1127
774.598	2046
774.705	2232
774.812	3044
774.919	2130
775.026	2515
775.133	1117
775.239	2783
775.346	407
775.453	2185
775.560	767
775.667	1565
775.773	541
775.880	1505
775.987	790
776.093	2210
776.200	1200
776.307	1783
776.413	1864
776.520	1728
776.627	1322
776.733	1186
776.840	-484
776.946	3019
777.053	3328
777.159	4335
777.266	1837
777.372	3955
777.478	2482
777.585	2081
777.691	869
777.798	1508
777.904	2165
778.010	3804
778.117	2111
778.223	1032
778.329	890
778.435	1947
778.542	1414
778.648	1183
778.754	963
778.860	2120
778.966	1052
779.072	1688
779.178	947
779.284	1383
779.391	1275
779.497	883
779.603	2249
779.708	843
779.815	3110
779.920	6878
780.026	10997
780.132	1836
780.238	1025
780.344	1555
780.450	1612
780.556	1285
780.661	821
780.767	1322
780.873	753
780.979	2181
781.085	1017
781.190	1176
781.296	792
781.402	1017
781.507	438
781.613	1347
781.719	576
781.824	722
781.930	1489
782.035	1190
782.141	1476
782.246	1043
782.352	109
782.457	1992
782.563	490
782.668	1042
782.773	-249
782.879	248
782.984	1891
783.090	2520
783.195	2977
783.300	1186
783.405	812
783.511	1319
783.616	484
783.721	1336
783.826	1075
783.932	2279
784.037	1338
784.142	1460
784.247	885
784.352	1854
784.457	1211
784.562	2056
784.667	866
784.772	776
784.877	424
784.982	1685
785.087	828
785.192	1908
785.297	84
785.402	1533
785.507	1124
785.611	755
785.716	1077
785.821	1030
785.926	961
786.031	1462
786.135	753
786.240	891
786.345	113
786.450	1283
786.554	567
786.659	690
786.763	-542
786.868	875
786.973	1645
787.077	767
787.182	-155
787.286	1099
787.391	539
787.495	580
787.600	-314
787.704	377
787.809	903
787.913	633
788.017	399
788.122	1086
788.226	369
788.330	745
788.435	452
788.539	968
788.643	690
788.747	594
788.852	55
788.956	209
789.060	1356
789.164	1172
789.268	230
789.372	425
789.476	631
789.580	10
789.684	85
789.788	999
789.892	34
789.996	1836
790.100	184
790.204	921
790.308	-5
790.412	449
790.516	11
790.620	1052
790.724	173
790.828	-81
790.931	-276
791.035	1616
791.139	-356
791.242	-301
791.346	-291
791.450	989
791.554	-14
791.657	-437
791.761	492
791.864	1270
791.968	165
792.072	1482
792.175	433
792.279	453
792.382	-332
792.486	1017
792.589	130
792.693	1217
792.796	-461
792.899	2325
793.003	191
793.106	-1148
793.209	-51
793.313	1887
793.416	-862
793.519	1761
793.623	1586
793.726	3223
793.829	246
793.932	760
794.035	-554
794.138	1032
794.242	373
794.345	1270
794.448	1460
794.551	2412
794.654	4585
794.757	5516
794.860	1130
794.963	853
795.066	-891
795.169	1087
795.272	-1149
795.375	957
795.477	-327
795.580	784
795.683	-1377
795.786	220
795.889	-676
795.991	1599
796.094	1110
796.197	-568
796.300	580
796.402	-416
796.505	64
796.608	-44
796.710	753
796.813	287
796.915	-176
797.018	1018
797.120	527
797.223	-698
797.326	836
797.428	339
797.530	-323
797.633	740
797.735	669
797.838	1447
797.940	1523
798.042	183
798.145	-509
798.247	1616
798.349	-965
798.452	1016
798.554	-482
798.656	2
798.758	1415
798.860	580
798.962	108
799.065	139
799.167	-1325
799.269	1221
799.371	389
799.473	1648
799.575	-429
799.677	728
799.779	2082
799.881	1998
799.983	1769
800.085	514
800.187	260
800.289	-250
800.390	145
800.492	1563
800.594	487
800.696	-205
800.798	-21
800.899	-879
801.001	-298
801.103	322
801.205	107
801.306	524
801.408	-578
801.509	149
801.611	833
801.713	837
801.814	-1255
801.916	219
802.017	-911
802.119	-727
802.220	-140
802.322	-1240
802.423	1115
802.525	-63
802.626	302
802.727	1203
802.829	302
802.930	-1302
803.031	1383
803.133	572
803.234	116
803.335	77
803.436	-1065
803.538	206
803.639	-867
803.740	1102
803.841	-1434
803.942	345
804.043	447
804.144	-1384
804.245	221
804.346	20
804.447	-222
804.548	1081
804.649	1553
804.750	107
804.851	-787
804.952	594
805.053	-660
805.154	-374
805.255	437
805.355	62
805.456	-805
805.557	320
805.658	-1158
805.758	450
805.859	-565
805.960	-531
806.061	-763
806.161	-184
806.262	-188
806.362	-734
806.463	-421
806.564	899
806.664	57
806.765	90
806.865	-242
806.966	-337
807.066	-813
807.166	739
807.267	590
807.367	151
807.468	-234
807.568	-682
807.668	274
807.769	783
807.869	-125
807.969	65
808.069	-446
808.170	-247
808.270	-192
808.370	869
808.470	766
808.570	-1123
808.670	-440
808.770	59
808.870	-478
808.970	85
809.070	-1050
809.170	-344
809.271	-282
809.370	559
809.470	-144
809.570	52
809.670	-880
809.770	-192
809.870	406
809.970	-563
810.070	-160
810.169	139
810.269	-1642
810.369	936
810.469	-818
810.568	-59
810.668	-1060
810.768	-295
810.867	-866
810.967	-93
811.066	-708
811.166	95
811.265	326
811.365	-564
811.464	-1080
811.564	335
811.663	453
811.763	-1218
811.862	172
811.962	572
812.061	-663
812.160	163
812.260	-757
812.359	-5
812.458	-838
812.557	1274
812.657	170
812.756	435
812.855	-461
812.954	-699
813.053	-166
813.153	219
813.252	-1396
813.351	303
813.450	-576
813.549	-340
813.648	-202
813.747	-351
813.846	-82
813.945	-48
814.044	308
814.143	451
814.242	10
814.341	-231
814.439	-44
814.538	698
814.637	-110
814.736	253
814.835	900
814.933	-769
815.032	-224
815.131	947
815.229	450
815.328	1160
815.427	450
815.525	1207
815.624	126
815.722	52
815.821	924
815.919	11
816.018	-261
816.116	1404
816.215	594
816.313	801
816.412	511
816.510	1499
816.609	2110
816.707	2162
816.805	748
816.904	1729
817.002	1107
817.100	3045
817.198	2352
817.296	2381
817.395	2160
817.493	3412
817.591	1882
817.689	4273
817.787	5333
817.885	9356
817.983	16868
818.081	35497
818.179	87212
818.277	219168
818.375	197798
818.473	56760
818.571	19868
818.669	13217
818.767	11286
818.865	11227
818.963	11782
819.061	19223
819.158	33600
819.256	73091
819.354	169800
819.452	368750
819.549	256462
819.647	76150
819.745	29208
819.842	17153
819.940	10490
820.038	8102
820.135	5756
820.233	5620
820.330	3659
820.428	3104
820.525	3464
820.623	2354
820.720	1019
820.818	2179
820.915	2635
821.012	2063
821.110	250
821.207	2281
821.304	64
821.402	2113
821.499	1150
821.596	1762
821.693	1130
821.791	1884
821.888	1441
821.985	4207
822.082	1905
822.179	2076
822.276	644
822.373	1734
822.470	-106
822.567	966
822.664	-1479
822.761	671
822.858	-236
822.955	625
823.052	178
823.149	-322
823.246	-84
823.343	452
823.440	122
823.536	1181
823.633	-536
823.730	-372
823.827	82
823.923	872
824.020	1200
824.117	581
824.213	256
824.310	1619
824.407	-38
824.503	517
824.600	157
824.696	430
824.793	982
824.889	287
824.986	-431
825.082	294
825.179	454
825.275	1168
825.371	-270
825.468	1066
825.564	-665
825.660	509
825.757	235
825.853	660
825.949	-728
826.045	-134
826.142	-801
826.238	463
826.334	501
826.430	-15
826.526	-316
826.622	-231
826.718	-499
826.814	-20
826.910	778
827.006	272
827.102	-166
827.198	1114
827.294	-474
827.390	545
827.486	201
827.582	-892
827.678	-328
827.774	585
827.869	-790
827.965	1883
828.061	-674
828.157	-245
828.252	-42
828.348	-469
828.444	-98
828.539	-724
828.635	-630
828.731	1030
828.826	-1131
828.922	-70
829.017	460
829.113	979
829.208	-147
829.304	8
829.399	873
829.495	-17
829.590	442
829.685	-596
829.781	-148
829.876	-476
829.971	-749
830.066	-345
830.162	380
830.257	21
830.352	-602
830.447	1185
830.543	-468
830.638	-1224
830.733	558
830.828	84
830.923	-94
831.018	1250
831.113	-1013
831.208	-468
831.303	-346
831.398	-120
831.493	-1169
831.588	72
831.683	-937
831.778	-59
831.873	-280
831.967	1364
832.062	-908
832.157	-1449
832.252	-273
832.346	-208
832.441	-60
832.536	853
832.631	3038
832.725	2282
832.820	-440
832.914	494
833.009	-1019
833.104	-176
833.198	606
833.293	1054
833.387	-21
833.482	-225
833.576	-876
833.670	1268
833.765	-46
833.859	-484
833.954	571
834.048	-659
834.142	-504
834.237	49
834.331	-182
834.425	-132
834.519	-1022
834.613	-178
834.708	-275
834.802	182
834.896	-680
834.990	480
835.084	260
835.178	-142
835.272	-553
835.366	-293
835.460	116
835.554	661
835.648	-767
835.742	-375
835.836	-258
835.930	-1226
836.024	-170
836.117	73
836.211	-273
836.305	516
836.399	-36
836.493	216
836.586	712
836.680	-76
836.774	-2056
836.867	822
836.961	-1861
837.055	-183
837.148	-669
837.242	-500
837.335	-934
837.429	513
837.522	-967
837.616	-538
837.709	859
837.803	-23
837.896	-360
837.989	439
838.083	-232
838.176	695
838.269	-602
838.363	-86
838.456	-1672
838.549	341
838.642	415
838.735	3276
838.829	907
838.922	-442
839.015	-288
839.108	-69
839.201	-462
839.294	-41
839.387	-928
839.480	-750
839.573	-574
839.666	324
839.759	-785
839.852	-1034
839.945	-573
840.038	78
840.131	-290
840.223	145
840.316	-188
840.409	-694
840.502	-1138
840.594	345
840.687	-2290
840.780	-272
840.873	-591
840.965	-261
841.058	381
841.150	674
841.243	-1431
841.336	101
841.428	-894
841.521	-770
841.613	-882
841.706	216
841.798	-156
841.890	-252
841.983	-1320
842.075	119
842.167	-497
842.260	-610
842.352	-885
842.444	108
842.537	260
842.629	2391
842.721	-1033
842.813	-664
842.905	-1627
842.997	-511
843.090	-930
843.182	499
843.274	821
843.366	3774
843.458	6487
843.550	4475
843.642	64
843.734	-18
843.826	-991
843.918	118
844.009	-549
844.101	-675
844.193	-724
844.285	278
844.377	-817
844.469	775
844.560	-369
844.652	-692
844.744	-336
844.835	-386
844.927	-1219
845.019	-62
845.110	-649
845.202	-160
845.293	-485
845.385	-782
845.476	-1107
845.568	-466
845.659	-1141
845.751	223
845.842	-1197
845.934	-984
846.025	-198
846.116	-474
846.208	-1147
846.299	-491
846.390	-1025
846.482	409
846.573	282
846.664	253
846.755	46
846.846	1169
846.937	-1310
847.029	-460
847.120	-1354
847.211	-375
847.302	524
847.393	-1495
847.484	-392
847.575	-209
847.666	-1298
847.757	-462
847.847	-1086
847.938	325
848.029	-1148
848.120	-853
848.211	-1776
848.302	-473
848.392	-1342
848.483	726
848.574	-882
848.664	-482
848.755	-998
848.846	-191
848.936	-1270
849.027	-108
849.118	-496
849.208	-193
849.299	1343
849.389	2555
849.480	7336
849.570	16307
849.661	32192
849.751	57190
849.841	19596
849.932	2557
850.022	133
850.112	343
850.203	174
850.293	-11
850.383	-380
850.474	-1856
850.564	-1000
850.654	432
850.744	-537
850.834	-211
850.924	-985
851.014	234
851.104	-490
851.194	147
851.284	180
851.374	815
851.464	-438
851.554	606
851.644	-792
851.734	88
851.824	-722
851.914	-209
852.004	-448
852.094	-841
852.183	-1104
852.273	-168
852.363	-986
852.452	260
852.542	-918
852.632	-234
852.721	-1054
852.811	-921
852.901	-64
852.990	125
853.080	314
853.169	608
853.259	-245
853.348	391
853.438	1200
853.527	3112
853.617	4326
853.706	9782
853.795	18537
853.885	43391
853.974	84305
854.063	155045
854.152	235382
854.242	96366
854.331	19190
854.420	6618
854.509	3953
854.598	3576
854.687	2121
854.777	2007
854.866	347
854.955	1299
855.044	-796
855.133	534
855.222	-201
855.311	-445
855.400	463
855.488	325
855.577	-1046
855.666	322
855.755	128
855.844	831
855.933	-816
856.021	726
856.110	-186
856.199	-245
856.288	-1472
856.376	-472
856.465	-1390
856.554	72
856.642	-816
856.731	-42
856.819	-814
856.908	-1200
856.996	-754
857.085	-1133
857.173	-391
857.262	-831
857.350	-630
857.438	-744
857.527	-254
857.615	-515
857.703	-1030
857.792	-969
857.880	-1237
857.968	-662
858.056	-1964
858.145	3
858.233	-1025
858.321	-1284
858.409	-614
858.497	-1426
858.585	-1679
858.673	-812
858.761	-2213
858.849	202
858.937	-1229
859.025	-149
859.113	-1372
859.201	-1297
859.289	-414
859.377	-871
859.465	-182
859.552	-31
859.640	-1097
859.728	-1069
859.816	-1619
859.903	-220
859.991	-1110
860.079	-730
860.166	-1312
860.254	-324
860.342	-948
860.429	-1673
860.517	-756
860.604	-202
860.692	-1364
860.779	-749
860.867	-444
860.954	-490
861.042	-1257
861.129	-26
861.216	-672
861.304	-309
861.391	-826
861.478	-235
861.565	-669
861.653	-575
861.740	-1209
861.827	-579
861.914	-614
862.001	-607
862.089	-809
862.176	-662
862.263	-1499
862.350	-313
862.437	-1301
862.524	-1304
862.611	-2002
862.698	-937
862.785	-173
862.871	306
862.958	-491
863.045	-1158
863.132	-1481
863.219	-370
863.306	-1421
863.392	261
863.479	-895
863.566	-157
863.652	-715
863.739	-194
863.826	-802
863.912	-614
863.999	-2283
864.086	-276
864.172	-1091
864.259	-966
864.345	-1504
864.432	-397
864.518	-1514
864.604	-298
864.691	-216
864.777	170
864.863	-887
864.950	511
865.036	-964
865.122	679
865.209	1380
865.295	1546
865.381	176
865.467	1066
865.553	2947
865.639	4915
865.726	9740
865.812	20873
865.898	43840
865.984	66940
866.070	122460
866.156	134189
866.242	36887
866.328	8034
866.414	2289
866.499	3362
866.585	894
866.671	1512
866.757	134
866.843	61
866.928	409
867.014	-398
867.100	-432
867.186	580
867.271	196
867.357	484
867.442	12
867.528	965
867.614	-341
867.699	-354
867.785	230
867.870	-188
867.956	-290
868.041	1251
868.127	-186
868.212	210
868.297	341
868.383	733
868.468	-175
868.553	2395
868.639	1071
868.724	4225
868.809	3150
868.894	316
868.979	-1076
869.065	495
869.150	-345
869.235	338
869.320	-1189
869.405	-395
869.490	-928
869.575	-572
869.660	-462
869.745	187
869.830	-913
869.915	-1137
870.000	-905
870.085	-32
870.169	-979
870.254	141
870.339	-1158
870.424	-620
870.509	-893
870.593	-562
870.678	-696
870.763	-737
870.847	-1184
870.932	-1013
871.016	-1004
871.101	-256
871.186	-1003
871.270	-578
871.355	-1115
871.439	-359
871.523	-1114
871.608	-451
871.692	-1804
871.777	-351
871.861	-677
871.945	-955
872.030	-653
872.114	-118
872.198	-677
872.282	-827
872.367	-559
872.451	-678
872.535	-895
872.619	90
872.703	-15
872.787	213
872.871	-896
872.955	-164
873.039	-1405
873.123	-1126
873.207	-702
873.291	-10
873.375	-1191
873.459	-356
873.543	-1386
873.627	-511
873.711	-1051
873.794	-433
873.878	-1519
873.962	-247
874.045	-1139
874.129	-554
874.137	-579
874.213	-825
874.245	-656
874.296	-388
874.352	-1166
874.380	-1548
874.460	-180
874.464	-124
874.547	-1293
874.568	-1104
874.631	-579
874.676	-750
874.714	-880
874.784	-111
874.798	33
874.881	147
874.892	54
874.965	-487
874.999	-517
875.048	-628
875.107	-145
875.131	63
875.215	-391
875.215	-391
875.298	-751
875.323	-840
875.381	-981
875.430	-710
875.465	-553
875.538	-665
875.548	-682
875.631	-371
875.646	-500
875.714	-1128
875.753	-779
875.798	-355
875.861	-263
875.881	-248
875.964	-827
875.968	-829
876.047	-745
876.076	-442
876.130	12
876.183	-600
876.213	-847
876.291	219
876.296	276
876.379	-697
876.398	-516
876.462	123
876.506	-524
876.545	-1095
876.613	-324
876.628	-138
876.711	-185
876.721	-167
876.794	-242
876.828	-499
876.877	-749
876.935	193
876.960	557
877.043	-908
877.043	-905
877.125	225
877.150	160
877.208	-177
877.258	91
877.291	353
877.365	223
877.374	209
877.456	983
877.472	785
877.539	-53
877.579	375
877.622	770
877.687	268
877.704	165
877.787	481
877.794	436
877.869	-281
877.901	-170
877.952	242
878.008	-118
878.034	-449
878.115	-261
878.117	-244
878.199	-304
878.222	-1
878.282	445
878.329	63
878.364	-78
878.437	569
878.447	618
878.529	-371
878.544	-314
878.611	169
878.651	-76
878.694	-353
878.758	-205
878.776	-200
878.858	-578
878.865	-544
878.941	-158
878.972	-399
879.023	-727
879.078	-476
879.105	-298
879.185	-293
879.187	-293
879.269	188
879.292	-153
879.351	-1135
879.399	-841
879.433	-460
879.506	403
879.516	451
879.598	-625
879.613	-694
879.680	-461
879.720	-43
879.762	-35
879.827	-823
879.844	-913
879.926	404
879.933	326
880.007	-627
880.040	-618
880.089	-454
880.147	-444
880.171	-451
880.253	975
880.254	977
880.335	1188
880.360	1335
880.417	1920
880.467	3193
880.499	3922
880.574	4599
880.580	4593
880.662	1027
880.680	583
880.744	-483
880.787	-229
880.825	-221
880.893	-388
880.907	-327
880.989	-906
881.000	-806
881.070	-290
881.106	-430
881.152	-505
881.213	55
881.233	159
881.315	-348
881.319	-347
881.396	-12
881.426	3
881.478	-135
881.532	-115
881.559	-23
881.639	-514
881.641	-533
881.722	-626
881.745	-807
881.803	-710
881.852	-399
881.885	-398
881.958	-294
881.966	-272
882.047	231
882.064	37
882.129	-565
882.171	-329
882.210	-44
882.277	155
882.291	177
882.372	413
882.383	367
882.454	-69
882.489	-62
882.535	53
882.596	-381
882.616	-520
882.697	260
882.702	246
882.778	146
882.808	160
882.859	-3
882.914	105
882.940	255
883.020	137
883.021	139
883.102	66
883.127	101
883.183	-75
883.233	-527
883.264	-591
883.339	22
883.345	67
883.426	-84
883.445	-31
883.507	242
883.551	137
883.587	-111
883.657	29
883.668	93
883.749	-149
883.763	-123
883.830	-132
883.869	-162
883.910	59
883.975	737
883.991	746
884.072	-149
884.081	-198
884.152	91
884.187	159
884.233	60
884.292	277
884.314	378
884.394	-20
884.398	-26
884.475	-98
884.504	-197
884.555	-284
884.610	96
884.636	245
884.716	84
884.716	91
884.797	758
884.821	984
884.877	657
884.927	-24
884.958	-123
885.033	166
885.038	160
885.118	-227
885.139	-288
885.199	-139
885.244	-13
885.279	-38
885.350	-253
885.359	-219
885.439	195
885.456	165
885.520	-559
885.561	-488
885.600	21
885.667	141
885.680	55
885.760	-174
885.773	-238
885.840	-80
885.878	81
885.920	27
885.984	-193
886.000	-134
886.080	474
886.089	497
886.160	81
886.195	-140
886.240	58
886.300	412
886.320	274
886.400	-100
886.406	-141
886.480	211
886.511	389
886.560	123
886.616	-347
886.640	-18
886.720	1162
886.722	1182
886.800	234
886.827	-21
886.879	191
886.932	222
886.959	242
887.038	476
887.039	484
887.119	556
887.143	663
887.198	357
887.248	-170
887.278	-67
887.354	210
887.358	216
887.437	325
887.459	388
887.517	438
887.564	394
887.596	397
887.669	324
887.676	324
887.755	283
887.774	287
887.835	-21
887.880	-260
887.914	131
887.985	899
887.994	828
888.073	124
888.090	-36
888.153	633
888.195	1099
888.232	673
888.300	-98
888.311	1
888.391	614
888.405	725
888.470	289
888.510	-22
888.549	311
888.615	984
888.628	878
888.708	101
888.720	-16
888.787	9
888.825	-28
888.866	-100
888.930	-112
888.945	61
889.024	838
889.035	951
889.103	-188
889.140	-824
889.182	93
889.245	1457
889.261	1259
889.340	267
889.349	153
889.419	-192
889.454	-391
889.498	-269
889.559	-52
889.577	100
889.656	740
889.664	802
889.735	-30
889.768	-428
889.814	185
889.873	1000
889.978	-257
890.083	694
890.187	-589
890.292	792
890.397	80
890.501	886
890.606	-77
890.710	725
890.815	524
890.919	1841
891.024	17
891.128	681
891.233	53
891.337	1005
891.442	346
891.546	566
891.650	1050
891.755	899
891.859	1671
891.963	677
892.068	-32
892.172	125
892.276	-371
892.380	563
892.484	297
892.589	727
892.693	682
892.797	485
892.901	325
893.005	451
893.109	548
893.213	1390
893.317	-216
893.421	1033
893.525	10
893.629	410
893.733	613
893.837	-109
893.941	435
894.045	1623
894.148	-619
894.252	1393
894.356	369
894.460	736
894.564	458
894.667	569
894.771	-662
894.875	1154
894.978	-317
895.082	820
895.186	258
895.289	1377
895.393	-111
895.496	745
895.600	423
895.703	165
895.807	880
895.910	874
896.014	-92
896.117	1055
896.221	251
896.324	-42
896.427	-178
896.531	166
896.634	542
896.737	777
896.840	-87
896.944	804
897.047	-678
897.150	118
897.253	-128
897.356	764
897.460	432
897.563	1134
897.666	-167
897.769	949
897.872	-200
897.975	-176
898.078	-3
898.181	-525
898.284	-419
898.387	1317
898.490	203
898.593	182
898.695	-183
898.798	1255
898.901	340
899.004	443
899.107	259
899.209	1424
899.312	503
899.415	717
899.518	504
899.620	0
899.723	136
899.826	862
899.928	277
900.031	141
900.133	-740
900.236	717
900.338	-382
900.441	55
900.543	11
900.646	-100
900.748	-472
900.851	1175
900.953	224
901.055	508
901.158	-76
901.260	184
901.362	-8
901.465	232
901.567	-18
901.669	594
901.771	-230
901.873	83
901.976	-213
902.078	356
902.180	-523
902.282	97
902.384	-214
902.486	428
902.588	-103
902.690	583
902.792	68
902.894	380
902.996	1067
903.098	470
903.200	118
903.302	-454
903.404	85
903.505	-238
903.607	-184
903.709	508
903.811	388
903.913	632
904.014	-628
904.116	29
904.218	223
904.319	796
904.421	206
904.523	1718
904.624	486
904.726	1163
904.827	-268
904.929	-167
905.030	-182
905.132	903
905.233	234
905.335	288
905.436	-380
905.537	121
905.639	107
905.740	42
905.841	-486
905.943	1221
906.044	-612
906.145	-4
906.247	-460
906.348	409
906.449	-103
906.550	-202
906.651	-225
906.752	127
906.854	-4
906.955	299
907.056	-632
907.157	147
907.258	115
907.359	791
907.460	-9
907.561	148
907.662	-465
907.762	239
907.863	-401
907.964	172
908.065	-291
908.166	482
908.267	-762
908.367	-398
908.468	119
908.569	-177
908.670	217
908.770	770
908.871	-490
908.971	656
909.072	-60
909.173	-40
909.273	-581
909.374	353
909.474	-152
909.575	-69
909.675	-872
909.776	1197
909.876	-80
909.977	-126
910.077	-199
910.177	559
910.278	-470
910.378	271
910.478	-244
910.579	959
910.679	-629
910.779	1021
910.879	115
910.980	655
911.080	-159
911.180	165
911.280	-660
911.380	582
911.480	-109
911.580	227
911.680	8
911.780	284
911.880	31
911.980	-99
912.080	-653
912.180	-390
912.280	130
912.380	537
912.480	-222
912.580	792
912.679	-81
912.779	259
912.879	-534
912.979	445
913.078	-754
913.178	-16
913.278	-214
913.377	136
913.477	15
913.577	-421
913.676	138
913.776	473
913.875	-96
913.975	-459
914.074	-470
914.174	901
914.273	-473
914.373	633
914.472	-249
914.572	-120
914.671	382
914.770	200
914.870	-478
914.969	145
915.068	-312
915.167	322
915.267	-831
915.366	-374
915.465	-421
915.564	-38
915.663	-357
915.763	421
915.862	-60
915.961	400
916.060	-17
916.159	-707
916.258	-765
916.357	219
916.456	190
916.555	35
916.654	-472
916.752	-739
916.851	-399
916.950	807
917.049	78
917.148	-237
917.247	-724
917.345	-878
917.444	-750
917.543	634
917.642	-513
917.740	3
917.839	613
917.937	272
918.036	-382
918.135	207
918.233	-830
918.332	-189
918.430	-635
918.529	-210
918.627	-245
918.726	142
918.824	-827
918.923	-125
919.021	-434
919.119	-221
919.218	-231
919.316	568
919.414	-255
919.512	-122
919.611	-299
919.709	536
919.807	131
919.905	639
920.003	-397
920.102	257
920.200	-947
920.298	76
920.396	-858
920.494	45
920.592	-912
920.690	64
920.788	-26
920.886	227
920.984	-599
921.082	388
921.180	110
921.277	434
921.375	-402
921.473	578
921.571	-688
921.669	1325
921.766	-141
921.864	679
921.962	-383
922.060	646
922.157	469
922.255	654
922.352	436
922.450	1361
922.548	3
922.645	398
922.743	642
922.840	1460
922.938	1745
923.035	1031
923.133	731
923.230	1312
923.327	1039
923.425	2503
923.522	1792
923.619	1634
923.717	1082
923.814	487
923.911	123
924.008	1673
924.106	1288
924.203	1533
924.300	582
924.397	1241
924.494	1852
924.591	1842
924.688	1251
924.786	1122
924.883	449
924.979	1399
925.077	939
925.173	1647
925.270	863
925.367	881
925.464	784
925.561	1656
925.658	768
925.755	1929
925.852	639
925.948	1939
926.045	471
926.142	1707
926.239	1273
926.335	1220
926.432	1493
926.529	1481
926.625	743
926.722	1460
926.818	1038
926.915	1690
927.011	887
927.108	964
927.204	1537
927.301	638
927.397	590
927.494	1062
927.590	537
927.687	503
927.783	1155
927.879	885
927.976	733
928.072	1069
928.168	524
928.264	782
928.361	134
928.457	1555
928.553	876
928.649	1226
928.745	-93
928.841	1483
928.937	327
929.033	725
929.129	353
929.225	786
929.321	879
929.417	1217
929.513	-88
929.609	1155
929.705	79
929.801	717
929.897	291
929.993	904
930.089	310
930.184	900
930.280	-241
930.376	1415
930.471	615
930.567	515
930.663	628
930.758	148
930.854	266
930.950	-155
931.045	-319
931.141	1458
931.236	54
931.332	913
931.427	22
931.523	1514
931.618	572
931.714	778
931.809	138
931.905	797
932.000	-154
932.095	719
932.191	741
932.286	867
932.381	-623
932.476	121
932.572	355
932.667	652
932.762	155
932.857	955
932.952	419
933.047	415
933.142	343
933.237	1144
933.332	349
933.427	764
933.522	-302
933.617	406
933.712	25
933.807	928
933.902	330
933.997	507
934.092	-280
934.187	445
934.282	486
934.376	599
934.471	-12
934.566	360
934.661	308
934.755	909
934.850	494
934.945	428
935.039	345
935.134	-120
935.228	-386
935.323	509
935.417	-286
935.512	1221
935.606	-120
935.701	963
935.795	313
935.890	-206
935.984	-124
936.079	594
936.173	-172
936.267	-295
936.362	-813
936.456	685
936.550	-349
936.644	930
936.738	-339
936.833	615
936.927	-476
937.021	-316
937.115	128
937.209	226
937.303	442
937.397	582
937.491	-206
937.585	1077
937.679	435
937.773	671
937.867	-406
937.961	978
938.055	-415
938.149	597
938.243	-236
938.337	159
938.430	77
938.524	-5
938.618	-250
938.712	1383
938.805	-614
938.899	458
938.993	-196
939.086	1291
939.180	137
939.274	1000
939.367	758
939.461	620
939.554	-634
939.648	283
939.741	49
939.835	97
939.928	299
940.022	37
940.115	124
940.208	815
940.302	222
940.395	226
940.488	-1420
940.582	701
940.675	-585
940.768	180
940.861	-815
940.954	490
941.048	-439
941.141	491
941.234	-303
941.327	-234
941.420	199
941.513	475
941.606	-1352
941.699	1703
941.792	-377
941.885	865
941.978	374
942.071	176
942.164	-751
942.257	-226
942.349	-111
942.442	236
942.535	-897
942.628	305
942.721	-109
942.813	-238
942.906	256
942.999	237
943.091	-385
943.184	-628
943.277	-1217
943.369	-799
943.462	-324
943.554	414
943.647	-868
943.739	338
943.832	-246
943.924	-801
944.017	-143
944.109	-899
944.201	-176
944.294	-218
944.386	-295
944.478	-101
944.571	-885
944.663	-424
944.755	-1089
944.847	137
944.940	-443
945.032	-704
945.124	-129
945.216	1354
945.308	-634
945.400	346
945.492	314
945.584	-527
945.676	67
945.768	150
945.860	-356
945.952	695
946.044	263
946.136	57
946.228	-1165
946.320	103
946.412	-448
946.503	-839
946.595	-921
946.687	-501
946.779	-794
946.870	368
946.962	-801
947.054	387
947.145	456
947.237	215
947.329	-600
947.420	-867
947.512	-1538
947.603	-451
947.695	-381
947.786	-224
947.878	-1363
947.969	32
948.061	-505
948.152	-449
948.243	-350
948.335	-632
948.426	-545
948.517	-162
948.609	-772
948.700	-369
948.791	-523
948.882	517
948.973	-1102
949.065	59
949.156	-188
949.247	-316
949.338	-1251
949.429	-753
949.520	-509
949.611	-1207
949.702	-606
949.793	-162
949.884	-588
949.975	-757
950.066	-1521
950.157	-860
950.247	-360
950.338	-497
950.429	-540
950.520	358
950.611	-1336
950.701	-378
950.792	-587
950.883	387
950.973	-1451
951.064	-866
951.155	-1039
951.245	-242
951.336	-924
951.427	379
951.517	-7
951.608	-202
951.698	-57
951.788	-743
951.879	-1155
951.969	139
952.060	-859
952.150	-664
952.240	-355
952.331	-1440
952.421	332
952.511	-338
952.602	-847
952.692	-1202
952.782	-579
952.872	-321
952.962	-935
953.052	135
953.143	-2008
953.233	231
953.323	-1166
953.413	-1124
953.503	-939
953.593	-292
953.683	-1420
953.773	-432
953.863	-1455
953.953	-498
954.042	-614
954.132	-419
954.222	-702
954.312	-963
954.402	-942
954.492	-457
954.581	-1421
954.671	-422
954.761	-1579
954.850	-28
954.940	-1437
955.030	-654
955.119	-1377
955.209	662
955.298	-1331
955.388	-300
955.477	-724
955.567	-1256
955.656	-688
955.746	233
955.835	-921
955.925	-308
956.014	-1098
956.103	-420
956.193	-796
956.282	-333
956.371	-609
956.461	-763
956.550	-1198
956.639	104
956.728	-1044
956.817	-419
956.906	-1499
956.995	-965
957.085	-995
957.174	-137
957.263	-1431
957.352	5
957.441	-1170
957.530	-601
957.619	-1042
957.708	-1057
957.796	-2093
957.885	-234
957.974	-1289
958.063	-619
958.152	-1564
958.241	-957
958.329	-1679
958.418	-957
958.507	-2767
958.596	261
958.684	-1041
958.773	-325
958.861	-879
958.950	-737
959.039	-1416
959.127	-526
959.216	-668
959.304	-938
959.393	-1791
959.481	-618
959.570	-1015
959.658	-951
959.746	-948
959.835	-878
959.923	-1064
960.011	-2292
960.100	-1378
960.188	-428
960.276	-1764
960.365	-1243
960.453	-2006
960.541	-1144
960.629	-648
960.717	-1566
960.805	-1592
960.893	-672
960.981	-1921
961.069	-107
961.158	-1415
961.245	-18
961.333	-415
961.421	-424
961.509	-195
961.597	-90
961.685	-932
961.773	-601
961.861	-1213
961.949	-700
962.036	-1576
962.124	-1342
962.212	-1798
962.299	-165
962.387	-2140
962.475	-222
962.562	-1673
962.650	-1128
962.738	-948
962.825	-746
962.913	-1309
963.000	-1433
963.088	-1423
963.175	475
963.263	-846
963.350	-1701
963.438	-1429
963.525	-1371
963.612	-398
963.700	-446
963.787	657
963.874	-102
963.962	-261
964.049	-1241
964.136	-1190
964.223	-1273
964.310	-980
964.398	-1020
964.485	-1742
964.572	-230
964.659	-1250
964.746	139
964.833	-891
964.920	-401
965.007	-221
965.094	-476
965.181	-1529
965.268	-724
965.355	-1200
965.441	-811
965.528	-1197
965.615	-647
965.702	-1080
965.789	-1306
965.875	-2045
965.962	-274
966.049	-948
966.136	-890
966.222	-1955
966.309	-410
966.395	-1039
966.482	-148
966.569	-1532
966.655	-785
966.742	-1097
966.828	-645
966.915	-1542
967.001	-885
967.087	-2080
967.174	-549
967.260	-1350
967.347	-1038
967.433	-1279
967.519	515
967.605	-1105
967.692	455
967.778	-1272
967.864	-356
967.950	-1618
968.036	-1009
968.123	-1481
968.209	-1014
968.295	-2145
968.381	-103
968.467	-872
968.553	-1024
968.639	-679
968.725	-1229
968.811	-375
968.897	-218
968.983	-609
969.069	-577
969.154	-679
969.240	282
969.326	-2440
969.412	-457
969.497	-913
969.583	-794
969.669	-1475
969.755	-667
969.840	-1029
969.926	-25
970.012	-1855
970.097	138
970.183	-1562
970.268	-1104
970.354	-1568
970.439	-1641
970.525	-644
970.610	-705
970.696	-679
970.781	-433
970.866	-1942
970.952	-148
971.037	-1037
971.122	-887
971.208	-1101
971.293	220
971.378	-1673
971.463	-410
971.549	-1126
971.634	-366
971.719	-1047
971.804	-1512
971.889	-490
971.974	-947
972.059	-1341
972.144	-73
972.229	-1656
972.314	-791
972.399	-466
972.484	-1075
972.569	-996
972.654	-1521
972.739	-211
972.824	-83
972.908	-1330
972.993	-867
973.078	-969
973.163	-831
973.247	-1034
973.332	-1959
973.417	34
973.501	-255
973.586	-1821
973.671	-2144
973.755	-1958
973.840	-564
973.924	-249
974.009	-725
974.093	-2083
974.178	-220
974.262	-1209
974.346	-165
974.431	-565
974.515	-1149
974.600	-980
974.684	-1281
974.768	-1919
974.852	436
974.937	-1908
975.021	-489
975.105	-1017
975.189	-1042
975.273	-1711
975.358	-349
975.442	-1924
975.526	174
975.610	-2117
975.694	-1513
975.778	-435
975.862	19
975.946	-2665
976.030	433
976.114	-1234
976.198	-172
976.281	-971
976.365	-8
976.449	-1069
976.533	-310
976.617	-1470
976.700	-1204
976.784	-1251
976.868	-224
976.951	-901
977.035	-1394
977.119	-1426
977.202	-1204
977.286	-1792
977.369	-1227
977.453	-808
977.536	-553
977.620	-1545
977.703	-306
977.787	-1680
977.870	416
977.953	-593
978.037	-965
978.120	-1206
978.203	-926
978.287	-1351
978.370	-241
978.453	-1574
978.536	-643
978.620	-1217
978.703	-336
978.786	-1145
978.869	-237
978.952	-1992
979.035	711
979.118	-816
979.201	-1543
979.284	-954
979.367	-559
979.450	-1308
979.533	-1430
979.616	-1223
979.699	-1303
979.782	-823
979.865	-429
979.948	-1694
980.030	-1519
980.113	-1634
980.196	-1583
980.279	-1222
980.361	-128
980.444	-1490
980.526	-1232
980.609	-1162
980.692	-286
980.774	-1248
980.857	-1588
980.939	-931
981.022	-1315
981.104	-1187
981.187	-1439
981.269	-1021
981.352	-702
981.434	-1682
981.516	-663
981.599	299
981.681	-578
981.763	-1451
981.846	-666
981.928	-797
982.010	-1793
982.092	-1419
982.174	20
982.256	-1919
982.339	-1164
982.421	-1540
982.503	-740
982.585	-1494
982.667	-460
982.749	-1311
982.831	-607
982.913	-2553
982.995	-166
983.077	-1910
983.158	435
983.240	-1493
983.322	-160
983.404	-745
983.486	-1488
983.568	-944
983.649	-1149
983.731	-1121
983.813	-896
983.894	-1801
983.976	-1465
984.058	-1886
984.139	-7
984.221	-1940
984.302	-275
984.384	-1740
984.465	-1306
984.547	-1427
984.628	-1159
984.710	-901
984.791	-1185
984.872	-951
984.954	-1034
985.035	-1211
985.116	-1570
985.198	-1452
985.279	95
985.360	-2330
985.441	-336
985.522	-687
985.604	-1156
985.685	-3238
985.766	-476
985.847	-1410
985.928	-1080
986.009	-939
986.090	-331
986.171	-765
986.252	-962
986.333	-1058
986.414	-1123
986.495	-1127
986.576	-892
986.656	-2012
986.737	-303
986.818	-1332
986.899	-859
986.980	-2462
987.060	-148
987.141	-2036
987.222	-1460
987.302	-1048
987.383	18
987.464	-1984
987.544	-401
987.625	-2524
987.705	272
987.786	-719
987.866	-321
987.947	-705
988.027	-527
988.108	-1959
988.188	-88
988.268	-1435
988.349	-1298
988.429	-1129
988.509	-336
988.589	-1202
988.670	-1687
988.750	-511
988.830	-1340
988.910	-1179
988.990	-1056
989.070	-1680
989.151	-670
989.231	-1342
989.311	-751
989.391	-1812
989.471	-490
989.551	-1920
989.631	-1223
989.711	-839
989.791	-1038
989.870	-2130
989.950	-33
990.030	-2152
990.110	-1471
990.190	-1133
990.269	-567
990.349	-1974
990.429	-752
990.509	-1187
990.588	-1408
990.668	-2072
990.747	-801
990.827	-1880
990.907	-425
990.986	-1520
991.066	-1239
991.145	-2298
991.225	-1472
991.304	-1587
991.383	-787
991.463	-1729
991.542	80
991.622	-2039
991.701	-1206
991.780	-1582
991.859	-1195
991.939	-1818
992.018	-1171
992.097	-787
992.176	-637
992.256	-1046
992.335	-1318
992.414	-908
992.493	-1654
992.572	-1840
992.651	-589
992.730	-1491
992.809	-693
992.888	-1421
992.967	-1124
993.046	-936
993.125	-2261
993.203	-1811
993.282	-1137
993.361	-1616
993.440	-375
993.519	-2270
993.597	-752
993.676	-1278
993.755	-849
993.834	-1642
993.912	-1409
993.991	-1029
994.069	-1197
994.148	-933
994.226	-824
994.305	-1336
994.384	-1871
994.462	-1207
994.540	-1549
994.619	-1868
994.697	-981
994.776	-1789
994.854	-650
994.932	-1981
995.011	-1027
995.089	-1653
995.167	-160
995.245	-1789
995.324	-1828
995.402	-647
995.480	-1135
995.558	-1630
995.636	-1667
995.714	-2164
995.792	31
995.870	-3052
995.948	-523
996.026	-1763
996.104	-1986
996.182	-1847
996.260	-1697
996.338	-2009
996.416	-1244
996.494	-1488
996.572	-348
996.649	-2000
996.727	-2032
996.805	-1023
996.883	-2239
996.960	-2284
997.038	-1081
997.116	-2011
997.193	-2014
997.271	-1026
997.348	-1554
997.426	-1549
997.504	-1493
997.581	-1417
997.658	-1209
997.736	-3200
997.813	-1398
997.891	-1726
997.968	-1502
998.046	-1173
998.123	-1397
998.200	-1945
998.277	-2345
998.355	-1902
998.432	-2280
998.509	-1515
998.586	-663
998.663	-2134
998.741	-1404
998.818	-2060
998.895	-1426
998.972	-1587
999.049	-813
999.126	-2111
999.203	-517
999.280	-2177
999.357	-1398
999.434	-1863
999.511	-1943
999.587	-1425
999.664	-1752
999.741	-2137
999.818	-1271
999.895	-2323
999.971	-1988
1000.048	-1709
1000.125	-803
1000.202	-2634
1000.278	-1339
1000.355	-1670
1000.431	-1953
1000.508	-2173
1000.584	-1912
1000.661	-1479
1000.738	-879
1000.814	-2387
1000.890	-1148
1000.967	-2324
1001.043	-809
1001.120	-2784
1001.196	-1450
1001.272	-2089
1001.349	-1383
1001.425	-1624
1001.501	-844
1001.577	-3133
1001.654	-1715
1001.730	-1818
1001.806	-834
1001.882	-2626
1001.958	-1132
1002.034	-1441
1002.110	-1813
1002.186	-2408
1002.262	-1290
1002.338	-3356
1002.414	-1468
1002.490	-1441
1002.566	-1763
1002.642	-2615
1002.718	-1308
1002.794	-2660
1002.870	-1972
1002.945	-2426
1003.021	-679
1003.097	-1642
1003.173	-635
1003.248	-2806
1003.324	-1165
1003.400	-2160
1003.475	-1515
1003.551	-1529
1003.626	-1692
1003.702	-2859
1003.777	-1329
1003.853	-2160
1003.928	-1635
1004.004	-2473
1004.079	-1816
1004.155	-1645
1004.230	-2533
1004.305	-1093
1004.381	-2279
1004.456	-1417
1004.531	-2133
1004.607	-2424
1004.682	-1861
1004.757	-1852
1004.832	-1571
1004.907	-2283
1004.982	-859
1005.057	-2051
1005.133	-2023
1005.208	-2354
1005.283	-1130
1005.358	-1354
1005.433	-1840
1005.508	-1694
1005.583	-1652
1005.657	-2078
1005.732	-1032
1005.807	-3272
1005.882	-1324
1005.957	-2307
1006.032	-1532
1006.106	-2224
1006.181	-1958
1006.256	-2313
1006.331	-2376
1006.405	-2405
1006.480	-1235
1006.554	-2414
1006.629	-1145
1006.704	-2122
1006.778	-1342
1006.853	-2041
1006.927	-1573
1007.002	-2345
1007.076	-892
1007.150	-1398
1007.225	-1372
1007.299	-2228
1007.373	-2234
1007.448	-1966
1007.522	-1566
1007.596	-2025
1007.671	-2004
1007.745	-914
1007.819	-1713
1007.893	-2309
1007.967	-1498
1008.041	-2939
1008.115	-1480
1008.190	-2296
1008.264	-1584
1008.338	-2941
1008.412	-1388
1008.486	-1518
1008.560	-837
1008.633	-2743
1008.707	-1535
1008.781	-1273
1008.855	-1413
1008.929	-2354
1009.003	-1528
1009.076	-2814
1009.150	-1250
1009.224	-2239
1009.298	-1212
1009.371	-2694
1009.445	-662
1009.519	-1779
1009.592	-2008
1009.666	-2230
1009.739	-1237
1009.813	-2466
1009.886	-745
1009.960	-2999
1010.033	-906
1010.107	-1330
1010.180	-1628
1010.253	-2097
1010.327	-1921
1010.400	-1994
1010.473	-1692
1010.547	-873
1010.620	-1893
1010.693	-1401
1010.766	-1070
1010.840	-1351
1010.913	-978
1010.986	-2436
1011.059	-1605
1011.132	-1883
1011.205	-970
1011.278	-2664
1011.351	-1506
1011.424	-2284
1011.497	-2235
1011.570	-1984
1011.643	-1694
1011.716	-2023
1011.789	-1553
1011.862	-2347
1011.934	-1087
1012.007	-2602
1012.080	-1987
1012.153	-1486
1012.225	-433
1012.298	-2519
1012.371	-2111
1012.443	-2476
1012.516	-1925
1012.588	-1968
1012.661	-1600
1012.733	-2231
1012.806	-772
1012.879	-2901
1012.951	-1731
1013.023	-2730
1013.096	-1393
1013.168	-2656
1013.241	-1326
1013.313	-2306
1013.385	-2033
1013.458	-2531
1013.530	-940
1013.602	-3191
1013.674	-1166
1013.746	-2511
1013.819	-2135
1013.891	-1526
1013.963	-2523
1014.035	-1523
1014.107	-1898
1014.179	-1391
1014.251	-1698
1014.323	-2022
1014.395	-754
1014.467	-2061
1014.539	-1576
1014.611	-3316
1014.683	-2052
1014.754	-2413
1014.826	-1910
1014.898	-2109
1014.970	-2387
1015.042	-1925
1015.113	-1246
1015.185	-2682
1015.257	-2095
1015.328	-1667
1015.400	-1772
1015.471	-2136
1015.543	-2554
1015.615	-2392
1015.686	-1694
1015.757	-2650
1015.829	-1217
1015.901	-1894
1015.972	-1471
1016.043	-2353
1016.115	-1312
1016.186	-2362
1016.257	-1959
1016.328	-1325
1016.400	-292
1016.471	-2353
1016.542	-1474
1016.613	-2551
1016.685	-1663
1016.756	-1213
1016.827	-1586
1016.898	-2585
1016.969	-696
1017.040	-2757
1017.111	-1871
1017.182	-2278
1017.253	-1854
1017.324	-2050
1017.395	-1453
1017.466	-1596
1017.537	-1693
1017.608	-2420
1017.678	-1442
1017.749	-1863
1017.820	-1982
1017.891	-2945
1017.961	-1552
1018.032	-1844
1018.103	-2075
1018.173	-1619
1018.244	-1594
1018.315	-2027
1018.385	-1605
1018.456	-2128
1018.526	-2565
1018.597	-2019
1018.667	-1460
1018.738	-2798
1018.808	-1147
1018.878	-1415
1018.949	-1909
1019.019	-2424
1019.089	-1903
1019.160	-2021
1019.230	-1694
1019.300	-2090
1019.371	-1420
1019.441	-1807
1019.511	-991
1019.581	-2562
1019.651	-1536
1019.721	-2159
1019.791	-1642
1019.861	-1662
1019.931	-1526
1020.001	-1794
1020.071	-2014
1020.141	-2976
1020.211	-2210
1020.281	-2283
1020.351	-1534
1020.421	-2161
1020.491	-1839
1020.560	-2401
1020.630	-1884
1020.700	-2484
1020.770	-2388
1020.839	-2701
1020.909	-1139
1020.979	-2215
1021.048	-1963
1021.118	-2498
1021.187	-1845
1021.257	-1980
1021.326	-1502
1021.396	-2072
1021.465	-1729
1021.535	-2002
1021.604	-2124
1021.674	-2426
1021.743	-2452
1021.812	-2519
1021.882	-2460
1021.951	-2283
1022.020	-2224
1022.089	-2221
1022.159	-2247
1022.228	-2463
1022.297	-1707
1022.366	-3103
1022.435	-1801
1022.504	-2571
1022.573	-2458
1022.642	-2083
1022.711	-1606
1022.781	-2545
1022.849	-1382
1022.918	-3035
1022.987	-2081
1023.056	-3298
1023.125	-2118
1023.194	-2055
1023.263	-1406
1023.331	-1789
1023.400	-2656
1023.469	-2221
1023.538	-1139
1023.606	-3059
1023.675	-1262
1023.744	-2123
1023.812	-2356
1023.881	-2950
1023.949	-1622
1024.018	-2388
1024.086	-2485
1024.155	-2580
1024.223	-1639
1024.292	-1885
1024.360	-1599
1024.429	-2213
1024.497	-1804
1024.565	-2136
1024.634	-2089
1024.702	-2090
1024.770	-2164
1024.838	-2043
1024.907	-1491
1024.975	-2069
1025.043	-1060
1025.111	-2443
1025.179	-1319
1025.247	-1904
1025.315	-1225
1025.383	-2276
1025.451	-1743
1025.519	-3578
1025.587	-2015
1025.655	-2452
1025.723	-1811
1025.791	-2258
1025.859	-1083
1025.927	-2558
1025.995	-2033
1026.062	-2009
1026.130	-1378
1026.198	-2280
1026.266	-2216
1026.333	-1996
1026.401	-1907
1026.469	-2423
1026.536	-1631
1026.604	-2554
1026.671	-1904
1026.739	-2114
1026.806	-1876
1026.874	-2303
1026.941	-1501
1027.009	-2127
1027.076	-1881
1027.144	-1659
1027.211	-1797
1027.278	-2611
1027.345	-2101
1027.413	-2357
1027.480	-1683
1027.547	-1862
1027.614	-1722
1027.682	-1721
1027.749	-2251
1027.816	-1718
1027.883	-2291
1027.950	-2069
1028.017	-1217
1028.084	-2103
1028.151	-2359
1028.218	-2313
1028.285	-2386
1028.352	-2947
1028.419	-1939
1028.486	-2969
1028.553	-1986
1028.619	-2990
1028.686	-2156
1028.753	-2268
1028.820	-2038
1028.886	-1860
1028.953	-1560
1029.020	-2401
1029.086	-1845
1029.153	-2024
1029.220	-1175
1029.286	-2300
1029.353	-874
1029.419	-2290
1029.486	-2115
1029.552	-2144
1029.619	-2240
1029.685	-1738
1029.751	-1327
1029.818	-2164
1029.884	-1872
1029.951	-1859
1030.017	-2543
1030.083	-2781
1030.149	-1359
1030.216	-2166
1030.282	-1324
1030.348	-2400
1030.414	-1928
1030.480	-2107
1030.546	-1471
1030.612	-2016
1030.678	-2030
1030.744	-2889
1030.810	-1760
1030.876	-1721
1030.942	-1519
1031.008	-2296
1031.074	-2424
1031.140	-3305
1031.206	-861
1031.272	-2218
1031.337	-1058
1031.403	-2814
1031.469	-1909
1031.534	-2325
1031.600	-534
1031.666	-1925
1031.731	-2003
1031.797	-1537
1031.863	-1956
1031.928	-2779
1031.994	-1491
1032.059	-2846
1032.125	-1773
1032.190	-2246
1032.256	-2224
1032.321	-3353
1032.386	-1794
1032.452	-1536
1032.517	-1987
1032.582	-2000
1032.647	-1193
1032.713	-2298
1032.778	-975
1032.843	-1911
1032.908	-1841
1032.974	-1999
1033.039	-2244
1033.104	-1844
1033.169	-2346
1033.234	-2879
1033.299	-1315
1033.364	-1778
1033.429	-1310
1033.494	-2388
1033.559	-2074
1033.624	-2349
1033.688	-888
1033.753	-3260
1033.818	-1636
1033.883	-2282
1033.948	-1590
1034.013	-2176
1034.077	-913
1034.142	-1589
1034.207	-1311
1034.271	-2072
1034.336	-733
1034.400	-1732
1034.465	-1347
1034.530	-2037
1034.594	-1971
1034.658	-2157
1034.723	-2325
1034.787	-1770
1034.852	-1973
1034.916	-2749
1034.981	-1840
1035.045	-2013
1035.109	-1982
1035.173	-1972
1035.238	-1779
1035.302	-1584
1035.366	-2226
1035.430	-3362
1035.495	-1615
1035.559	-2639
1035.623	-1859
1035.687	-3425
1035.751	-2338
1035.815	-2099
1035.879	-1741
1035.943	-1602
1036.007	-2449
1036.071	-2184
1036.135	-1420
1036.198	-1929
1036.262	-2102
1036.326	-1888
1036.390	-1736
1036.454	-2122
1036.517	-1113
1036.581	-1978
1036.645	-1462
1036.709	-2098
1036.772	-1298
1036.836	-1985
1036.900	-1649
1036.963	-2213
1037.026	-1065
1037.090	-2220
1037.154	-1441
1037.217	-2766
1037.280	-1982
1037.344	-2768
1037.407	-2068
1037.471	-2167
1037.534	-1242
1037.597	-1940
1037.661	-1760
1037.724	-2130
1037.787	-2151
1037.850	-2502
1037.913	-2057
1037.977	-2374
1038.040	-2194
1038.103	-2571
1038.166	-1262
1038.229	-2775
1038.292	-1477
1038.355	-2075
1038.418	-1936
1038.481	-1665
1038.544	-2390
1038.607	-3099
1038.670	-1788
1038.732	-3377
1038.795	-1622
1038.858	-2667
1038.921	-1304
1038.984	-2494
1039.046	-1535
1039.109	-2458
1039.172	-1587
1039.234	-2234
1039.297	-1487
1039.360	-2463
1039.422	-1608
1039.485	-2040
1039.547	-2446
1039.610	-2183
1039.672	-1914
1039.734	-2757
1039.797	-1233
1039.859	-2458
1039.922	-1599
1039.984	-2227
1040.046	-2105
1040.109	-2141
1040.171	-1909
1040.233	-2827
1040.295	-2169
1040.358	-2738
1040.420	-3044
1040.482	-2218
1040.544	-1737
1040.606	-2421
1040.668	-1473
1040.730	-2246
1040.792	-1256
1040.854	-2539
1040.916	-1833
1040.978	-2221
1041.040	-1578
1041.102	-2647
1041.164	-1378
1041.225	-2606
1041.287	-2594
1041.349	-2514
1041.411	-1737
1041.472	-2582
1041.534	-1912
1041.596	-2514
1041.657	-1542
1041.719	-3063
1041.781	-1789
1041.842	-2349
1041.904	-1997
1041.965	-2149
1042.027	-1091
1042.088	-2605
1042.150	-1755
1042.211	-1746
1042.272	-1209
1042.334	-2127
1042.395	-1551
1042.456	-2334
1042.518	-1283
1042.579	-1654
1042.640	-1871
1042.701	-2130
1042.763	-1793
1042.824	-2650
1042.885	-1874
1042.946	-2825
1043.007	-2036
1043.068	-2487
1043.129	-1843
1043.190	-2525
1043.251	-1004
1043.312	-2104
1043.373	-930
1043.434	-2272
1043.495	-1536
1043.556	-2409
1043.616	-1490
1043.677	-1440
1043.738	-1955
1043.799	-2273
1043.859	-834
1043.920	-2237
1043.981	-2415
1044.041	-2057
1044.102	-1255
1044.162	-2417
1044.223	-2078
1044.284	-3102
1044.344	-1494
1044.405	-1931
1044.465	-2696
1044.525	-1593
1044.586	-1009
1044.646	-2319
1044.707	-1327
1044.767	-2132
1044.827	-1598
1044.887	-1305
1044.948	-1192
1045.008	-2130
1045.068	-1446
1045.128	-2245
1045.188	-2300
1045.249	-2172
1045.309	-1876
1045.369	-2311
1045.429	-1906
1045.489	-2442
1045.549	-1327
1045.609	-2373
1045.669	-2347
1045.729	-2533
1045.789	-1716
1045.848	-1927
1045.908	-1490
1045.968	-2127
1046.028	-480
1046.088	-1945
1046.147	-1057
1046.207	-1662
1046.267	-1118
1046.326	-1892
1046.386	-357
1046.446	-901
1046.505	-680
1046.565	-110
1046.624	-155
1046.684	-1655
1046.743	-812
1046.803	-1100
1046.862	-456
1046.922	0
