'Start Wavelength	183.907
'End Wavelength	1046.922
'Gate Delay	5.000
'Gate Width (ms)	1.050
'Laser Output Level	0.000
'X Position	0.000
'Y Position	0.000
'Z Position	0.000
'Grid Point Number	1.000
'Shot Number	100.000
183.907	873.000
183.977	-223.000
184.047	533
184.116	332
184.186	821
184.256	-282
184.325	-115
184.395	-708
184.465	242
184.534	-350
184.604	-389
184.674	93
184.743	-172
184.813	495
184.883	-185
184.952	-180
185.022	567
185.092	-140
185.161	-44
185.231	-133
185.301	-273
185.370	-336
185.440	262
185.509	-299
185.579	-30
185.649	455
185.718	-88
185.788	-39
185.857	259
185.927	157
185.996	72
186.066	-307
186.136	229
186.205	17
186.275	738
186.344	370
186.414	-222
186.483	-606
186.553	178
186.622	321
186.692	428
186.761	-376
186.831	601
186.900	-450
186.970	387
187.039	-46
187.109	538
187.178	-305
187.248	459
187.317	605
187.387	-166
187.456	655
187.526	329
187.595	302
187.664	-126
187.734	243
187.803	-255
187.873	371
187.942	235
188.012	-168
188.081	-296
188.150	-103
188.220	192
188.289	-104
188.358	34
188.428	112
188.497	-179
188.567	721
188.636	424
188.705	452
188.775	493
188.844	-117
188.913	-209
188.983	-366
189.052	-212
189.121	-320
189.191	-139
189.260	330
189.329	-285
189.399	437
189.468	-20
189.537	-177
189.606	345
189.676	80
189.745	476
189.814	154
189.883	657
189.953	-144
190.022	885
190.091	465
190.161	480
190.230	225
190.299	352
190.368	45
190.437	953
190.507	-319
190.576	-197
190.645	427
190.714	277
190.783	-232
190.853	219
190.922	-452
190.991	98
191.060	-538
191.129	-246
191.198	372
191.268	441
191.337	435
191.406	-45
191.475	-226
191.544	-83
191.613	460
191.682	-6
191.752	-346
191.821	769
191.890	-329
191.959	282
192.028	773
192.097	486
192.166	-330
192.235	56
192.304	665
192.373	98
192.442	-781
192.511	248
192.580	-153
192.650	-76
192.719	636
192.788	699
192.857	519
192.926	381
192.995	-305
193.064	156
193.133	-767
193.202	-136
193.271	827
193.340	-335
193.409	147
193.478	678
193.547	316
193.615	733
193.684	1056
193.753	235
193.822	-177
193.891	338
193.960	195
194.029	-193
194.098	-387
194.167	-393
194.236	158
194.305	436
194.374	-409
194.443	211
194.512	282
194.580	615
194.649	340
194.718	575
194.787	357
194.856	38
194.925	501
194.994	-53
195.062	235
195.131	508
195.200	544
195.269	1167
195.338	294
195.407	436
195.475	-448
195.544	188
195.613	-127
195.682	1222
195.751	659
195.819	-329
195.888	440
195.957	931
196.026	76
196.094	596
196.163	477
196.232	157
196.301	382
196.369	870
196.438	702
196.507	708
196.576	-683
196.644	3
196.713	67
196.782	552
196.850	-894
196.919	-18
196.988	131
197.056	140
197.125	-271
197.194	108
197.262	-243
197.331	-300
197.400	-256
197.468	84
197.537	215
197.606	242
197.674	1012
197.743	729
197.812	66
197.880	211
197.949	-251
198.017	-186
198.086	-37
198.155	-459
198.223	101
198.292	-653
198.360	-55
198.429	-543
198.497	-15
198.566	446
198.635	351
198.703	779
198.772	-79
198.840	61
198.909	536
198.977	233
199.046	-333
199.114	38
199.183	54
199.251	-368
199.320	326
199.388	35
199.457	536
199.525	390
199.594	-498
199.662	98
199.731	107
199.799	548
199.867	108
199.936	-274
200.004	-122
200.073	791
200.141	-366
200.210	-194
200.278	-223
200.346	-244
200.415	-157
200.483	308
200.552	392
200.620	-436
200.688	-799
200.757	-73
200.825	144
200.893	-403
200.962	-470
201.030	-138
201.098	-627
201.167	374
201.235	-27
201.303	-740
201.372	-136
201.440	875
201.508	574
201.577	587
201.645	-566
201.713	-2
201.781	-86
201.850	138
201.918	281
201.986	87
202.055	604
202.123	51
202.191	253
202.259	313
202.327	-78
202.396	-286
202.464	333
202.532	676
202.600	1170
202.669	430
202.737	267
202.805	-75
202.873	410
202.941	-132
203.009	-338
203.078	-827
203.146	-333
203.214	-76
203.282	-443
203.350	268
203.418	-187
203.487	361
203.555	-116
203.623	-84
203.691	-514
203.759	-789
203.827	183
203.895	-155
203.963	-1220
204.031	252
204.099	-236
204.168	-163
204.236	17
204.304	397
204.372	-460
204.440	-149
204.508	25
204.576	-1185
204.644	-273
204.712	524
204.780	38
204.848	507
204.916	-305
204.984	-470
205.052	-376
205.120	-79
205.188	-469
205.256	-239
205.324	-109
205.392	-43
205.460	249
205.528	-553
205.596	37
205.664	-395
205.732	289
205.799	121
205.867	1471
205.935	146
206.003	630
206.071	-861
206.139	-424
206.207	281
206.275	557
206.343	484
206.411	593
206.478	354
206.546	245
206.614	-580
206.682	-253
206.750	-169
206.818	-634
206.885	204
206.953	-814
207.021	180
207.089	-662
207.157	-200
207.225	-398
207.292	-460
207.360	94
207.428	-517
207.496	-93
207.563	1034
207.631	-98
207.699	-77
207.767	-588
207.834	-462
207.902	-276
207.970	-455
208.038	-5
208.105	-93
208.173	-289
208.241	594
208.309	426
208.376	-193
208.444	267
208.512	-1272
208.579	-1332
208.647	588
208.715	468
208.782	-378
208.850	-130
208.918	367
208.985	-423
209.053	220
209.120	629
209.188	234
209.256	-396
209.323	-468
209.391	-285
209.459	1745
209.526	241
209.594	-243
209.661	-214
209.729	751
209.796	21
209.864	492
209.932	-905
209.999	1288
210.067	383
210.134	519
210.202	278
210.269	1242
210.337	690
210.404	159
210.472	-483
210.539	366
210.607	-594
210.674	353
210.742	184
210.809	17
210.877	-257
210.944	1185
211.012	-845
211.079	910
211.146	-165
211.214	170
211.281	208
211.349	380
211.416	922
211.484	937
211.551	-495
211.618	194
211.686	170
211.753	-245
211.821	45
211.888	169
211.955	231
212.023	-358
212.090	-527
212.157	290
212.225	182
212.292	21
212.359	1352
212.427	2229
212.494	-488
212.561	229
212.629	124
212.696	749
212.763	386
212.831	-359
212.898	926
212.965	-629
213.032	385
213.100	580
213.167	51
213.234	992
213.301	185
213.369	183
213.436	-46
213.503	-179
213.570	390
213.638	547
213.705	174
213.772	-224
213.839	298
213.906	959
213.973	795
214.041	71
214.108	679
214.175	935
214.242	315
214.309	-79
214.376	455
214.444	795
214.511	-440
214.578	44
214.645	612
214.712	1281
214.779	-57
214.846	-762
214.913	542
214.980	32
215.048	891
215.115	1125
215.182	417
215.249	104
215.316	-147
215.383	547
215.450	525
215.517	209
215.584	602
215.651	874
215.718	264
215.785	1054
215.852	726
215.919	1332
215.986	157
216.053	931
216.120	-121
216.187	1195
216.254	651
216.321	786
216.388	55
216.455	1117
216.522	-21
216.589	921
216.656	1299
216.722	1343
216.789	748
216.856	886
216.923	577
216.990	288
217.057	631
217.124	1155
217.191	225
217.258	1312
217.324	828
217.391	846
217.458	215
217.525	325
217.592	597
217.659	-370
217.725	1188
217.792	987
217.859	1414
217.926	82
217.993	417
218.059	-36
218.126	-178
218.193	6
218.260	-501
218.327	203
218.393	830
218.460	238
218.527	-499
218.594	428
218.660	1231
218.727	993
218.794	369
218.860	177
218.927	337
218.994	-171
219.061	255
219.127	363
219.194	1227
219.261	756
219.327	-232
219.394	812
219.461	-714
219.527	598
219.594	212
219.661	831
219.727	-1057
219.794	865
219.860	-832
219.927	693
219.994	1522
220.060	2384
220.127	1829
220.193	-82
220.260	747
220.326	1818
220.393	930
220.460	1846
220.526	682
220.593	-122
220.659	1594
220.726	449
220.792	1081
220.859	1173
220.925	1750
220.992	3878
221.058	2540
221.125	2085
221.191	1377
221.258	905
221.324	515
221.391	64
221.457	131
221.524	608
221.590	812
221.657	1868
221.723	107
221.789	951
221.856	784
221.922	461
221.989	1020
222.055	522
222.121	-68
222.188	2761
222.254	237
222.321	975
222.387	-3
222.453	855
222.520	747
222.586	103
222.652	445
222.719	75
222.785	598
222.851	1231
222.918	232
222.984	1515
223.050	544
223.116	-925
223.183	791
223.249	161
223.315	-354
223.382	456
223.448	423
223.514	378
223.580	-67
223.647	-577
223.713	-809
223.779	1007
223.845	286
223.911	1528
223.978	-490
224.044	510
224.110	254
224.176	100
224.242	491
224.309	-858
224.375	1055
224.441	379
224.507	-301
224.573	-767
224.639	466
224.705	-357
224.772	-99
224.838	167
224.904	944
224.970	70
225.036	225
225.102	-88
225.168	-265
225.234	316
225.300	-707
225.366	727
225.432	197
225.499	138
225.565	-26
225.631	208
225.697	-181
225.763	500
225.829	63
225.895	1114
225.961	1231
226.027	872
226.093	823
226.159	1542
226.225	1052
226.291	2325
226.357	6017
226.423	3281
226.489	2420
226.554	1088
226.620	1245
226.686	2083
226.752	3713
226.818	3114
226.884	7557
226.950	7365
227.016	2279
227.082	2103
227.148	1293
227.214	1472
227.279	2679
227.345	2077
227.411	793
227.477	1595
227.543	3819
227.609	3223
227.674	3050
227.740	1416
227.806	1031
227.872	279
227.938	1275
228.003	2497
228.069	900
228.135	-59
228.201	1421
228.267	853
228.332	1126
228.398	598
228.464	1235
228.530	-108
228.595	568
228.661	149
228.727	624
228.792	1630
228.858	-311
228.924	-938
228.990	1668
229.055	312
229.121	1295
229.187	323
229.252	612
229.318	465
229.384	905
229.449	1632
229.515	-987
229.581	-980
229.646	1856
229.712	1183
229.777	1813
229.843	2219
229.909	1912
229.974	2822
230.040	1844
230.105	1906
230.171	520
230.236	2812
230.302	2740
230.368	2174
230.433	-172
230.499	1375
230.564	3299
230.630	1299
230.695	440
230.761	1438
230.826	-690
230.892	3478
230.957	506
231.023	297
231.088	-152
231.154	434
231.219	761
231.284	573
231.350	1947
231.415	93
231.481	933
231.546	814
231.612	876
231.677	90
231.742	-688
231.808	1922
231.873	-230
231.939	-947
232.004	1951
232.069	1925
232.135	-177
232.200	-43
232.265	795
232.331	386
232.396	-142
232.461	-21
232.527	-330
232.592	-488
232.657	270
232.723	125
232.788	269
232.853	290
232.918	-60
232.984	123
233.049	-245
233.114	-191
233.179	802
233.245	1096
233.310	942
233.375	-217
233.440	513
233.506	305
233.571	-596
233.636	-126
233.701	602
233.766	1155
233.832	261
233.897	688
233.962	-46
234.027	1740
234.092	553
234.157	1489
234.222	309
234.288	1224
234.353	2017
234.418	2798
234.483	1835
234.548	2135
234.613	927
234.678	1333
234.743	141
234.808	2977
234.873	749
234.938	1905
235.004	709
235.069	1067
235.134	-465
235.199	899
235.264	1165
235.329	-846
235.394	-1
235.459	1083
235.524	11
235.589	1409
235.654	669
235.719	-789
235.784	996
235.849	543
235.913	897
235.978	1038
236.043	1395
236.108	774
236.173	-258
236.238	1594
236.303	-324
236.368	474
236.433	1246
236.498	1244
236.563	1158
236.627	1996
236.692	9730
236.757	6837
236.822	2638
236.887	2258
236.952	2539
237.017	396
237.081	1690
237.146	1690
237.211	3837
237.276	8750
237.341	15348
237.405	6436
237.470	2764
237.535	2143
237.600	1734
237.664	2025
237.729	638
237.794	1358
237.859	3420
237.923	1734
237.988	1308
238.053	1874
238.118	1126
238.182	3777
238.247	4994
238.312	1142
238.376	1578
238.441	682
238.506	2788
238.570	-471
238.635	1591
238.700	834
238.764	-62
238.829	1431
238.893	616
238.958	2215
239.023	2378
239.087	1603
239.152	1339
239.216	888
239.281	1553
239.346	1478
239.410	232
239.475	1008
239.539	3488
239.604	2185
239.668	1364
239.733	556
239.797	1713
239.862	6348
239.926	4442
239.991	2463
240.055	939
240.120	1126
240.184	1467
240.249	66
240.313	782
240.378	2137
240.442	2335
240.507	3987
240.571	508
240.635	1796
240.700	2636
240.764	939
240.829	408
240.893	-285
240.957	1136
241.022	2281
241.086	3234
241.151	2266
241.215	976
241.279	3012
241.344	894
241.408	2576
241.472	1063
241.537	2846
241.601	1216
241.665	619
241.730	1382
241.794	2452
241.858	1789
241.922	1469
241.987	1965
242.051	1543
242.115	613
242.179	2789
242.244	788
242.308	2091
242.372	1305
242.436	2603
242.501	1785
242.565	-58
242.629	711
242.693	1926
242.757	-420
242.822	1472
242.886	1171
242.950	2026
243.014	454
243.078	1814
243.142	1324
243.206	888
243.271	1490
243.335	1687
243.399	2621
243.463	3240
243.527	9480
243.591	3638
243.655	2363
243.719	1264
243.783	1812
243.847	2457
243.911	2414
243.975	5359
244.040	2978
244.104	4043
244.168	2322
244.232	2675
244.296	3639
244.360	2860
244.424	2230
244.488	903
244.552	1654
244.615	650
244.679	1044
244.743	2045
244.807	1505
244.871	2140
244.935	1239
244.999	147
245.063	927
245.127	2878
245.191	2242
245.255	906
245.319	2320
245.383	2383
245.446	2745
245.510	621
245.574	1597
245.638	2447
245.702	310
245.766	4102
245.829	3429
245.893	1100
245.957	1250
246.021	2442
246.085	1691
246.149	2179
246.212	7493
246.276	9884
246.340	4664
246.404	3472
246.467	3829
246.531	3747
246.595	3233
246.659	3937
246.722	1674
246.786	5303
246.850	4261
246.913	3677
246.977	1188
247.041	2684
247.104	3327
247.168	2753
247.232	6278
247.295	13764
247.359	6454
247.423	3185
247.486	5473
247.550	4259
247.614	2903
247.677	5395
247.741	3557
247.804	2237
247.868	2549
247.932	5969
247.995	13531
248.059	5316
248.122	2421
248.186	4312
248.249	6570
248.313	20591
248.376	22925
248.440	14317
248.503	5256
248.567	5825
248.630	6932
248.694	10431
248.757	13789
248.821	22713
248.884	15937
248.948	13119
249.011	17422
249.075	25804
249.138	22374
249.202	9676
249.265	5924
249.328	5810
249.392	4234
249.455	5177
249.519	3104
249.582	3875
249.645	6218
249.709	5472
249.772	2413
249.835	2567
249.899	2355
249.962	4262
250.025	2199
250.089	8051
250.152	12492
250.215	6401
250.279	3972
250.342	4810
250.405	4127
250.468	2913
250.532	4145
250.595	5622
250.658	9704
250.721	17870
250.785	8396
250.848	7221
250.911	3326
250.974	4085
251.038	5363
251.101	12910
251.164	5686
251.227	6931
251.290	5155
251.354	6649
251.417	15140
251.480	16096
251.543	9592
251.606	27296
251.669	20049
251.732	10218
251.795	13804
251.859	13387
251.922	19233
251.985	13265
252.048	8791
252.111	7415
252.174	4940
252.237	12619
252.300	25144
252.363	20627
252.426	28572
252.489	14268
252.552	9805
252.615	5926
252.678	8011
252.741	17431
252.804	16909
252.867	25899
252.930	22445
252.993	15566
253.056	10843
253.119	8028
253.182	5592
253.245	6720
253.308	6479
253.371	6751
253.434	6914
253.497	7998
253.559	13067
253.622	9252
253.685	10619
253.748	13341
253.811	5453
253.874	6544
253.937	5792
254.000	5614
254.062	8319
254.125	14280
254.188	15233
254.251	11310
254.314	5078
254.376	8279
254.439	10754
254.502	10141
254.565	9210
254.628	16189
254.690	10241
254.753	6189
254.816	5564
254.878	4189
254.941	8922
255.004	9926
255.067	4221
255.129	4286
255.192	3463
255.255	3109
255.317	4059
255.380	2803
255.443	2001
255.505	2640
255.568	1831
255.631	1681
255.693	3118
255.756	2128
255.819	2700
255.881	1907
255.944	2087
256.006	1603
256.069	1398
256.132	2533
256.194	2465
256.257	4592
256.319	2229
256.382	2676
256.444	2670
256.507	2936
256.569	1659
256.632	1508
256.694	2731
256.757	5444
256.819	16058
256.882	6617
256.944	3560
257.007	4926
257.069	3838
257.132	2773
257.194	2341
257.257	1977
257.319	1011
257.381	2065
257.444	4711
257.506	18152
257.569	21372
257.631	12842
257.693	7554
257.756	4113
257.818	2634
257.880	2755
257.943	3193
258.005	2176
258.067	2117
258.130	3519
258.192	2852
258.254	5856
258.317	3344
258.379	2576
258.441	5855
258.503	6631
258.566	3835
258.628	6461
258.690	2018
258.753	3482
258.815	6580
258.877	4101
258.939	2705
259.001	2417
259.064	2416
259.126	1729
259.188	2566
259.250	2719
259.312	3134
259.375	7362
259.437	5180
259.499	3008
259.561	2112
259.623	3757
259.685	4365
259.747	2116
259.809	4599
259.872	7519
259.934	11731
259.996	19838
260.058	8475
260.120	2265
260.182	2271
260.244	1825
260.306	993
260.368	2051
260.430	2083
260.492	8204
260.554	13515
260.616	5961
260.678	8365
260.740	9710
260.802	3105
260.864	4068
260.926	1850
260.988	2791
261.050	2863
261.112	10902
261.174	20114
261.236	8558
261.298	3525
261.359	5021
261.421	6286
261.483	1852
261.545	2977
261.607	854
261.669	1886
261.731	2272
261.793	7026
261.854	4389
261.916	4340
261.978	5626
262.040	6625
262.102	3191
262.164	1730
262.225	3237
262.287	2106
262.349	7294
262.411	4967
262.472	2936
262.534	2261
262.596	4357
262.658	2771
262.719	1313
262.781	2952
262.843	3597
262.904	2708
262.966	2592
263.028	2172
263.090	7027
263.151	21120
263.213	13801
263.275	12952
263.336	4732
263.398	2654
263.459	1927
263.521	2268
263.583	6246
263.644	5179
263.706	2660
263.767	1352
263.829	2012
263.891	1377
263.952	1360
264.014	977
264.075	5294
264.137	17183
264.198	7690
264.260	1937
264.321	2838
264.383	7095
264.444	23091
264.506	7846
264.567	4691
264.629	7723
264.690	20172
264.752	7809
264.813	4301
264.875	1966
264.936	4560
264.998	3376
265.059	1740
265.120	976
265.182	3267
265.243	7369
265.305	7868
265.366	2251
265.427	2277
265.489	2335
265.550	875
265.611	3753
265.673	3583
265.734	3269
265.795	1688
265.857	294
265.918	956
265.979	2840
266.040	12588
266.102	11242
266.163	6368
266.224	7616
266.286	4083
266.347	1423
266.408	1670
266.469	1538
266.530	1923
266.592	589
266.653	4144
266.714	8182
266.775	2972
266.836	1909
266.898	2438
266.959	5814
267.020	4542
267.081	2736
267.142	869
267.203	345
267.264	1117
267.326	1970
267.387	1414
267.448	622
267.509	1406
267.570	1708
267.631	479
267.692	49
267.753	822
267.814	413
267.875	3516
267.936	8483
267.997	8204
268.058	6279
268.119	2793
268.180	1991
268.241	1424
268.302	1754
268.363	669
268.424	1574
268.485	2251
268.546	1473
268.607	1947
268.668	1357
268.729	829
268.790	1639
268.851	3170
268.912	7916
268.972	9197
269.033	4311
269.094	2298
269.155	1786
269.216	1419
269.277	973
269.338	865
269.398	1231
269.459	3146
269.520	3463
269.581	4419
269.642	5853
269.702	3420
269.763	2740
269.824	2161
269.885	2452
269.945	6305
270.006	2012
270.067	706
270.128	444
270.188	1551
270.249	1015
270.310	1468
270.370	1373
270.431	1410
270.492	585
270.553	1452
270.613	4639
270.674	9863
270.734	4366
270.795	2441
270.856	3194
270.916	2864
270.977	1611
271.038	2941
271.098	2809
271.159	5662
271.219	5556
271.280	2051
271.340	1861
271.401	1646
271.462	3089
271.522	3645
271.583	2593
271.643	2796
271.704	2258
271.764	3449
271.825	8293
271.885	24231
271.946	33727
272.006	12476
272.066	14880
272.127	25520
272.187	9307
272.248	5826
272.308	5062
272.369	15505
272.429	11093
272.489	8331
272.550	10299
272.610	9316
272.671	7367
272.731	5296
272.791	8162
272.852	5760
272.912	4961
272.972	2731
273.033	2963
273.093	4424
273.153	6875
273.214	5613
273.274	3612
273.334	15581
273.394	25569
273.455	10841
273.515	9865
273.575	23950
273.635	9978
273.696	10822
273.756	21879
273.816	11447
273.876	5096
273.936	6275
273.997	13658
274.057	5359
274.117	4322
274.177	7013
274.237	30759
274.297	25853
274.358	13435
274.418	18365
274.478	16294
274.538	6612
274.598	3326
274.658	7170
274.718	11228
274.778	7031
274.838	3070
274.898	5351
274.958	14443
275.018	20331
275.078	16571
275.138	7229
275.198	3552
275.258	2852
275.318	3551
275.378	7949
275.438	10671
275.498	6321
275.558	7724
275.618	16819
275.678	16858
275.738	14008
275.798	13737
275.858	9573
275.918	3319
275.978	4422
276.038	4296
276.098	3011
276.157	5900
276.217	20567
276.277	9854
276.337	8111
276.397	3672
276.457	5678
276.517	3231
276.576	2935
276.636	2712
276.696	5167
276.756	11433
276.815	8906
276.875	3759
276.935	4098
276.995	4257
277.055	2558
277.114	2534
277.174	3383
277.234	16043
277.293	7823
277.353	3975
277.413	3622
277.472	2772
277.532	3197
277.592	2831
277.651	5145
277.711	10337
277.771	3740
277.830	17350
277.890	15373
277.950	7396
278.009	20388
278.069	8218
278.128	7594
278.188	10742
278.248	6439
278.307	9723
278.367	7959
278.426	2982
278.486	2746
278.545	1287
278.605	1653
278.664	1872
278.724	2715
278.783	8039
278.843	23580
278.902	7979
278.962	4731
279.021	5016
279.081	3337
279.140	3051
279.199	3328
279.259	3530
279.318	3318
279.378	4433
279.437	7010
279.496	28672
279.556	41797
279.615	30821
279.675	9629
279.734	6489
279.793	14279
279.853	27004
279.912	11939
279.971	4762
280.031	4878
280.090	9854
280.149	21196
280.208	10322
280.268	35616
280.327	32986
280.386	9446
280.445	11162
280.505	13406
280.564	7179
280.623	6867
280.682	9529
280.742	14714
280.801	5452
280.860	4030
280.919	4297
280.978	3425
281.037	2792
281.097	2584
281.156	2461
281.215	2354
281.274	3893
281.333	16638
281.392	14061
281.451	3544
281.510	2420
281.569	2694
281.628	1788
281.688	2586
281.747	3614
281.806	4386
281.865	2411
281.924	1719
281.983	2183
282.042	1947
282.101	2683
282.160	1681
282.219	1815
282.278	3347
282.337	10624
282.396	8945
282.454	3738
282.513	4218
282.572	18553
282.631	13895
282.690	3165
282.749	2575
282.808	4714
282.867	4919
282.926	4314
282.985	2866
283.043	2230
283.102	1528
283.161	2489
283.220	7871
283.279	17633
283.338	5836
283.396	3178
283.455	3928
283.514	4064
283.573	7670
283.631	6179
283.690	4302
283.749	2863
283.808	8702
283.866	10372
283.925	3667
283.984	2831
284.043	5560
284.101	6549
284.160	3242
284.219	6131
284.277	4428
284.336	5793
284.395	22850
284.453	19783
284.512	6373
284.570	9419
284.629	8691
284.688	5305
284.746	5121
284.805	4408
284.863	6962
284.922	8843
284.981	7216
285.039	10391
285.098	18261
285.156	46836
285.215	110016
285.273	111613
285.332	57342
285.390	29170
285.449	17597
285.507	11819
285.566	10199
285.624	5917
285.683	5423
285.741	5555
285.799	4648
285.858	4341
285.916	5348
285.975	4008
286.033	3868
286.091	3097
286.150	2709
286.208	2494
286.267	5138
286.325	4619
286.383	9662
286.442	9246
286.500	4155
286.558	2860
286.616	3098
286.675	6408
286.733	6164
286.791	4489
286.850	6201
286.908	6506
286.966	14226
287.024	6168
287.083	3915
287.141	3446
287.199	4673
287.257	7332
287.315	4659
287.374	4435
287.432	13361
287.490	8816
287.548	4443
287.606	3206
287.664	3338
287.723	5566
287.781	9632
287.839	3506
287.897	3422
287.955	4759
288.013	5210
288.071	9251
288.129	27663
288.187	85494
288.245	43049
288.303	14495
288.361	8607
288.419	8480
288.477	6781
288.535	4975
288.593	4417
288.651	3880
288.709	3311
288.767	3919
288.825	4262
288.883	3249
288.941	3988
288.999	3169
289.057	2854
289.115	2878
289.173	4404
289.231	4505
289.289	5514
289.346	4815
289.404	5980
289.462	8648
289.520	9400
289.578	5272
289.636	3421
289.694	2651
289.751	3146
289.809	3072
289.867	3763
289.925	4789
289.983	7656
290.040	3898
290.098	3722
290.156	4224
290.214	6583
290.271	4009
290.329	4203
290.387	3422
290.444	4019
290.502	3307
290.560	4344
290.617	6075
290.675	5367
290.733	3950
290.790	5837
290.848	4414
290.906	6441
290.963	5985
291.021	5278
291.078	5411
291.136	6112
291.194	15577
291.251	39914
291.309	15367
291.366	5815
291.424	4886
291.481	6847
291.539	6999
291.596	5027
291.654	3529
291.711	4574
291.769	4456
291.826	9830
291.884	7614
291.941	4940
291.999	3790
292.056	5822
292.114	6803
292.171	4839
292.228	5330
292.286	7808
292.343	12984
292.401	19655
292.458	12999
292.515	9237
292.573	8169
292.630	9208
292.687	7972
292.745	6676
292.802	9392
292.859	27613
292.917	32964
292.974	22163
293.031	8687
293.089	6117
293.146	6114
293.203	5192
293.260	5472
293.318	7946
293.375	17735
293.432	11639
293.489	6776
293.546	5707
293.604	8163
293.661	16391
293.718	42843
293.775	35893
293.832	15762
293.889	9407
293.947	9389
294.004	9171
294.061	9440
294.118	16173
294.175	35074
294.232	50961
294.289	24094
294.346	12449
294.403	9909
294.460	8273
294.517	7399
294.574	8630
294.631	7511
294.688	9205
294.745	16780
294.802	51002
294.859	73622
294.916	33435
294.973	17302
295.030	15430
295.087	13777
295.144	10188
295.201	8252
295.258	8427
295.315	9257
295.372	19236
295.429	35619
295.486	22689
295.542	15557
295.599	32501
295.656	60858
295.713	45387
295.770	41056
295.827	20187
295.883	11488
295.940	11914
295.997	18560
296.054	19551
296.111	12045
296.167	9371
296.224	7472
296.281	9208
296.338	8878
296.394	7398
296.451	9310
296.508	19658
296.564	40493
296.621	37216
296.678	45522
296.734	70462
296.791	37531
296.848	19532
296.904	18501
296.961	33946
297.018	44801
297.074	40469
297.131	19587
297.187	13086
297.244	15273
297.301	34205
297.357	62643
297.414	31569
297.470	14961
297.527	11145
297.583	9831
297.640	10974
297.696	9576
297.753	9106
297.809	9017
297.866	6968
297.922	6192
297.979	6205
298.035	8371
298.092	11072
298.148	24493
298.204	26711
298.261	16941
298.317	25338
298.374	57187
298.430	40261
298.486	17816
298.543	13502
298.599	11219
298.656	11894
298.712	19388
298.768	30386
298.824	21154
298.881	11573
298.937	8331
298.993	9371
299.050	12137
299.106	12094
299.162	10440
299.218	10342
299.275	7895
299.331	8732
299.387	15428
299.443	42124
299.500	51907
299.556	27401
299.612	14930
299.668	12762
299.724	13866
299.780	15695
299.837	12264
299.893	14680
299.949	34644
300.005	49173
300.061	42798
300.117	65423
300.173	40889
300.229	20403
300.285	19934
300.341	26565
300.397	16651
300.453	11103
300.510	10013
300.566	10858
300.622	11708
300.678	24145
300.734	45511
300.790	43109
300.845	45940
300.901	34479
300.957	41331
301.013	36937
301.069	18422
301.125	13300
301.181	14027
301.237	12365
301.293	9074
301.349	8433
301.405	8564
301.461	8083
301.516	10109
301.572	11464
301.628	19518
301.684	19285
301.740	21936
301.796	32031
301.851	25375
301.907	34708
301.963	39279
302.019	50041
302.074	110563
302.130	125912
302.186	69394
302.242	31063
302.297	20839
302.353	20209
302.409	30104
302.464	31819
302.520	26716
302.576	47490
302.631	59409
302.687	41967
302.743	22364
302.798	14168
302.854	11161
302.910	12218
302.965	15072
303.021	22751
303.076	23924
303.132	27098
303.187	33266
303.243	21790
303.299	12685
303.354	11091
303.410	9617
303.465	10676
303.521	10653
303.576	10977
303.632	12421
303.687	17380
303.743	38335
303.798	41440
303.853	21558
303.909	13393
303.964	12988
304.020	16547
304.075	25474
304.130	24512
304.186	38068
304.241	45694
304.297	38402
304.352	25328
304.358	24347
304.407	16403
304.449	15716
304.463	15499
304.518	16506
304.539	15616
304.573	14190
304.629	13567
304.630	13639
304.684	17224
304.720	27911
304.739	33350
304.794	50579
304.811	45442
304.850	33311
304.902	17991
304.905	16985
304.960	12720
304.992	11842
305.015	11224
305.071	10941
305.083	11052
305.126	11456
305.173	10100
305.181	9885
305.236	9529
305.264	10010
305.292	10521
305.347	14032
305.354	14443
305.402	16900
305.445	14833
305.457	14266
305.512	15302
305.535	15618
305.567	16053
305.622	18226
305.626	18630
305.678	25508
305.716	34013
305.733	37335
305.788	47972
305.807	43507
305.843	35378
305.897	37890
305.898	37900
305.953	43325
305.988	34449
306.008	29388
306.063	24730
306.078	23145
306.118	18762
306.168	12871
306.173	12346
306.228	9948
306.259	9361
306.283	8956
306.338	8840
306.349	8897
306.393	8991
306.440	8665
306.448	8612
306.503	9674
306.530	11177
306.558	13595
306.613	27779
306.620	30486
306.668	46159
306.711	47516
306.723	47422
306.778	38350
306.801	31436
306.833	22528
306.888	13971
306.892	13687
306.943	10749
306.982	10213
306.997	9906
307.052	9347
307.072	9295
307.107	9701
307.162	11839
307.163	11922
307.217	18222
307.253	20878
307.272	21891
307.327	26002
307.343	24188
307.381	19734
307.434	16550
307.436	16507
307.491	21090
307.524	30913
307.546	35995
307.600	38292
307.614	34785
307.655	23080
307.704	13474
307.710	12674
307.765	11862
307.795	14450
307.819	16656
307.874	27672
307.885	27339
307.929	23535
307.975	16797
307.984	15813
308.038	13054
308.065	13880
308.093	17093
308.148	30586
308.156	34906
308.202	58923
308.246	76951
308.257	78672
308.312	50310
308.336	41071
308.366	33432
308.421	26671
308.426	25785
308.475	16796
308.517	12913
308.530	11904
308.585	9664
308.607	9238
308.639	8882
308.694	9378
308.697	9566
308.748	15275
308.787	23618
308.803	25172
308.857	23529
308.877	20259
308.912	15462
308.967	11387
308.967	11418
309.021	12484
309.058	13878
309.076	15447
309.130	24281
309.148	28763
309.185	43906
309.238	70436
309.239	70554
309.293	92009
309.328	85127
309.348	76102
309.402	40079
309.418	32094
309.457	21157
309.508	14353
309.511	13970
309.566	11859
309.598	11721
309.620	12013
309.674	13730
309.688	14558
309.729	15206
309.778	13947
309.783	13787
309.837	11927
309.868	11664
309.892	13735
309.946	21273
309.959	24721
310.001	35599
310.049	44680
310.055	44049
310.109	29999
310.139	21058
310.163	16338
310.218	10255
310.229	9629
310.272	8537
310.319	7730
310.326	7500
310.381	6603
310.409	6349
310.435	6393
310.489	6525
310.499	6600
310.543	6830
310.589	7331
310.598	7311
310.652	7947
310.679	8072
310.706	7688
310.760	6028
310.769	5855
310.814	5314
310.859	5094
310.868	5068
310.923	5227
310.948	5465
310.977	5686
311.031	6278
311.038	6415
311.085	6437
311.128	6001
311.139	5969
311.193	6109
311.218	6194
311.247	5969
311.301	5748
311.308	5752
311.356	5902
311.398	6250
311.410	6170
311.464	5790
311.488	5627
311.518	5355
311.572	4876
311.578	4882
311.626	6212
311.668	7535
311.680	7568
311.734	7783
311.758	7963
311.788	7975
311.842	7949
311.847	8017
311.896	9544
311.937	11185
311.950	10933
312.004	10172
312.027	9824
312.058	8021
312.112	5058
312.117	4829
312.165	5231
312.207	5703
312.297	8822
312.386	6910
312.476	5555
312.566	9582
312.656	5752
312.745	5192
312.835	5955
312.925	6458
313.015	5150
313.104	6560
313.194	4539
313.284	4931
313.374	5605
313.463	5238
313.553	4148
313.643	3842
313.732	4353
313.822	4325
313.912	5344
314.001	6326
314.091	6500
314.180	8862
314.270	7250
314.360	7518
314.449	5789
314.539	4826
314.628	4987
314.718	5623
314.808	5864
314.897	4992
314.987	5363
315.076	4963
315.166	6582
315.255	6929
315.345	6464
315.434	6537
315.524	5940
315.613	6025
315.703	6480
315.792	6823
315.881	7701
315.971	5635
316.060	8680
316.150	11970
316.239	12767
316.328	7030
316.418	4778
316.507	5138
316.597	5520
316.686	5362
316.775	6667
316.865	12757
316.954	4699
317.043	4195
317.133	3453
317.222	3758
317.311	4418
317.400	3551
317.490	6040
317.579	5731
317.668	3820
317.757	6085
317.847	7135
317.936	11323
318.025	10148
318.114	7409
318.203	6603
318.293	14620
318.382	29587
318.471	19501
318.560	24665
318.649	33494
318.738	9190
318.828	5947
318.917	6704
319.006	7342
319.095	15015
319.184	38667
319.273	21618
319.362	11844
319.451	6253
319.540	4545
319.629	8598
319.718	14139
319.807	9259
319.896	14207
319.985	44394
320.074	18348
320.163	7809
320.252	11550
320.341	10921
320.430	11308
320.519	9638
320.608	7067
320.697	6996
320.786	6072
320.875	6145
320.964	7306
321.053	9371
321.142	12925
321.230	13889
321.319	12095
321.408	26651
321.497	13471
321.586	10671
321.675	13166
321.764	14197
321.852	10011
321.941	15736
322.030	10833
322.119	12737
322.207	23764
322.296	18986
322.385	12391
322.474	10165
322.562	26452
322.651	18399
322.740	11156
322.829	16329
322.917	17678
323.006	10374
323.095	8324
323.183	7550
323.272	9752
323.361	14171
323.449	31458
323.538	14397
323.626	25907
323.715	16161
323.804	9716
323.892	24903
323.981	15060
324.069	6877
324.158	14726
324.246	13966
324.335	8036
324.424	10506
324.512	6134
324.601	8073
324.689	13137
324.778	22270
324.866	13021
324.954	6531
325.043	5635
325.131	8933
325.220	14698
325.308	14528
325.397	11578
325.485	8674
325.574	4412
325.662	4570
325.750	5535
325.839	5535
325.927	4741
326.015	5810
326.104	6001
326.192	8129
326.280	5483
326.369	5197
326.457	6504
326.545	8944
326.634	5769
326.722	4329
326.810	3914
326.898	4183
326.987	4633
327.075	7837
327.163	9171
327.251	5972
327.340	10177
327.428	14817
327.516	5022
327.604	4909
327.692	4185
327.781	4926
327.869	7067
327.957	4722
328.045	4904
328.133	3689
328.221	4713
328.309	4363
328.397	4737
328.485	4850
328.574	6516
328.662	14384
328.750	8328
328.838	4879
328.926	4916
329.014	4092
329.102	5988
329.190	15638
329.278	8950
329.366	4169
329.454	3802
329.542	3805
329.630	3132
329.718	3929
329.806	4940
329.893	5394
329.981	4880
330.069	4717
330.157	9707
330.245	27224
330.333	15402
330.421	5092
330.509	5763
330.597	16728
330.684	13184
330.772	7408
330.860	11032
330.948	15993
331.036	6881
331.123	2813
331.211	4400
331.299	5384
331.387	12632
331.475	20704
331.562	6939
331.650	3394
331.738	3857
331.825	5717
331.913	3699
332.001	3246
332.089	5005
332.176	9365
332.264	14715
332.352	12770
332.439	7011
332.527	4965
332.614	3818
332.702	5120
332.790	4132
332.877	8088
332.965	13637
333.052	3854
333.140	4241
333.228	6570
333.315	3833
333.403	4607
333.490	10571
333.578	8017
333.665	5101
333.753	4459
333.840	3523
333.928	4784
334.015	10850
334.103	15919
334.190	44771
334.278	13412
334.365	6886
334.452	4939
334.540	4594
334.627	4448
334.715	7029
334.802	9717
334.889	36937
334.977	34099
335.064	7571
335.151	4166
335.239	6287
335.326	8601
335.413	23511
335.501	32027
335.588	6348
335.675	3879
335.762	7362
335.850	13220
335.937	6697
336.024	13545
336.111	49953
336.199	25935
336.286	6351
336.373	4137
336.460	2706
336.547	3775
336.635	4852
336.722	4520
336.809	4611
336.896	5313
336.983	16952
337.070	38582
337.157	47184
337.245	27477
337.332	19621
337.419	5285
337.506	4913
337.593	5067
337.680	16187
337.767	45903
337.854	13578
337.941	17710
338.028	13985
338.115	5283
338.202	9366
338.289	10691
338.376	27327
338.463	12271
338.550	26579
338.637	27431
338.724	8910
338.811	11636
338.898	4182
338.984	3714
339.071	5943
339.158	4692
339.245	10499
339.332	7488
339.419	9156
339.506	8715
339.593	2240
339.679	3403
339.766	4089
339.853	5204
339.940	7730
340.027	4232
340.113	4664
340.200	5569
340.287	4070
340.374	4630
340.460	7252
340.547	3859
340.634	6575
340.720	15236
340.807	8775
340.894	3173
340.980	3453
341.067	3071
341.154	3547
341.240	5300
341.327	8150
341.414	3963
341.500	3214
341.587	3874
341.674	4072
341.760	6177
341.847	6753
341.933	2836
342.020	1672
342.106	1608
342.193	3334
342.279	5065
342.366	5089
342.452	6418
342.539	4605
342.625	8499
342.712	15822
342.798	7717
342.885	3373
342.971	2327
343.058	2474
343.144	2384
343.230	2249
343.317	2289
343.403	2256
343.490	2103
343.576	2677
343.662	2874
343.749	3441
343.835	3703
343.921	6711
344.008	26696
344.094	58712
344.180	14890
344.267	6281
344.353	19093
344.439	22376
344.525	8845
344.612	4592
344.698	3301
344.784	3058
344.870	2296
344.957	2685
345.043	4040
345.129	3164
345.215	6656
345.301	4218
345.387	3515
345.474	2176
345.560	2059
345.646	2836
345.732	3077
345.818	2833
345.904	3030
345.990	3441
346.076	3622
346.162	5851
346.249	4176
346.335	3054
346.421	2909
346.507	7517
346.593	24502
346.679	7317
346.765	4303
346.851	3284
346.937	2193
347.023	3538
347.108	2962
347.194	2702
347.280	2624
347.366	3050
347.452	8384
347.538	28159
347.624	24072
347.710	22016
347.796	4273
347.882	3504
347.967	3364
348.053	6283
348.139	3432
348.225	2656
348.311	2923
348.397	2183
348.482	3817
348.568	4500
348.654	2297
348.740	2690
348.825	1737
348.911	4407
348.997	13551
349.083	27189
349.168	5929
349.254	2712
349.340	2501
349.425	3163
349.511	3329
349.597	5102
349.682	6831
349.768	21466
349.854	10459
349.939	3338
350.025	2641
350.110	2170
350.196	2083
350.282	1491
350.367	2158
350.453	4661
350.538	4153
350.624	4557
350.709	5414
350.795	2722
350.880	1968
350.966	3036
351.051	3329
351.137	2641
351.222	3433
351.308	6924
351.393	17892
351.479	4715
351.564	1999
351.649	3267
351.735	2406
351.820	1901
351.906	2598
351.991	3693
352.076	12276
352.162	18340
352.247	4549
352.332	3092
352.418	3589
352.503	6873
352.588	28656
352.673	21923
352.759	4842
352.844	3594
352.929	3536
353.014	3721
353.100	4022
353.185	5475
353.270	6894
353.355	8264
353.441	3370
353.526	3705
353.611	5580
353.696	6396
353.781	5270
353.866	2871
353.952	2546
354.037	5240
354.122	13393
354.207	11684
354.292	4064
354.377	3472
354.462	3089
354.547	3016
354.632	4386
354.717	6388
354.802	5898
354.887	3221
354.972	2385
355.057	2837
355.142	1636
355.227	3210
355.312	3770
355.397	9495
355.482	18309
355.567	9512
355.652	7906
355.737	7681
355.822	21487
355.907	18094
355.991	3859
356.076	2820
356.161	3249
356.246	2947
356.331	3224
356.416	5040
356.501	29813
356.585	30859
356.670	5031
356.755	4709
356.840	5764
356.924	21547
357.009	71546
357.094	28241
357.179	7642
357.263	5211
357.348	5644
357.433	5704
357.517	4930
357.602	4054
357.687	2956
357.771	4242
357.856	3723
357.941	4939
358.025	16698
358.110	67488
358.195	33699
358.279	6341
358.364	4721
358.448	15585
358.533	42288
358.617	30618
358.702	30218
358.787	11386
358.871	7800
358.956	6475
359.040	2362
359.125	2259
359.209	2864
359.294	2862
359.378	2928
359.462	5188
359.547	3573
359.631	3380
359.716	1792
359.800	2827
359.885	6675
359.969	2625
360.053	3779
360.138	3053
360.222	4008
360.306	6518
360.391	5784
360.475	6015
360.559	11274
360.644	14668
360.728	10037
360.812	17175
360.896	45159
360.981	23779
361.065	15560
361.149	5360
361.233	4834
361.318	3258
361.402	3442
361.486	3758
361.570	2441
361.654	3136
361.739	8012
361.823	28679
361.907	43415
361.991	8768
362.075	5608
362.159	9811
362.243	9286
362.327	8475
362.411	10379
362.495	6014
362.580	3831
362.664	3613
362.748	1682
362.832	3092
362.916	3286
363.000	14371
363.084	38612
363.168	52488
363.252	13695
363.336	6328
363.420	8972
363.503	33586
363.587	40483
363.671	7166
363.755	5350
363.839	8376
363.923	3388
364.007	6602
364.091	7657
364.175	11737
364.258	52911
364.342	30612
364.426	30791
364.510	17592
364.594	12793
364.677	12333
364.761	37862
364.845	28533
364.929	10817
365.013	8886
365.096	7443
365.180	9180
365.264	15445
365.347	53713
365.431	28440
365.515	8890
365.598	4085
365.682	4793
365.766	10261
365.849	13448
365.933	4660
366.017	9939
366.100	7332
366.184	2693
366.267	3903
366.351	3081
366.435	1480
366.518	1112
366.602	2003
366.685	2604
366.769	3661
366.852	8856
366.936	13735
367.019	5469
367.103	6746
367.186	16140
367.270	3635
367.353	1777
367.436	2919
367.520	2251
367.603	3760
367.687	2865
367.770	7450
367.853	4670
367.937	14917
368.020	23901
368.104	5857
368.187	6651
368.270	9716
368.353	9493
368.437	9095
368.520	21510
368.603	13930
368.687	16331
368.770	31502
368.853	10092
368.936	11655
369.020	14831
369.103	4657
369.186	4389
369.269	4554
369.352	6316
369.436	8566
369.519	5890
369.602	3926
369.685	4174
369.768	2659
369.851	4061
369.934	1528
370.018	3716
370.101	6110
370.184	7048
370.267	6499
370.350	12136
370.433	16770
370.516	26594
370.599	27641
370.682	7496
370.765	20921
370.848	21911
370.931	36522
371.014	17710
371.097	2958
371.180	3579
371.263	2296
371.346	1066
371.429	2489
371.511	2266
371.594	4938
371.677	10949
371.760	16219
371.843	7583
371.926	28394
372.009	67374
372.091	23834
372.174	14314
372.257	34237
372.340	13671
372.423	16674
372.505	22294
372.588	8070
372.671	12322
372.754	34897
372.836	18727
372.919	19382
373.002	38177
373.085	10707
373.167	7390
373.250	16447
373.332	34270
373.415	41437
373.498	79428
373.580	32478
373.663	38165
373.746	52196
373.828	12777
373.911	8308
373.993	7898
374.076	34212
374.159	32581
374.241	11723
374.324	32307
374.406	20998
374.489	23316
374.571	70908
374.654	29733
374.736	14105
374.819	43780
374.901	57649
374.983	57836
375.066	11633
375.148	5735
375.231	26212
375.313	54227
375.395	23709
375.478	5870
375.560	3693
375.643	4117
375.725	12672
375.807	49056
375.890	43418
375.972	18893
376.054	11666
376.136	18987
376.219	8482
376.301	15485
376.383	43382
376.465	17523
376.548	10312
376.630	13728
376.712	38701
376.794	18445
376.877	3618
376.959	2406
377.041	3903
377.123	11674
377.205	14593
377.287	2474
377.369	3403
377.452	3426
377.534	1599
377.616	2169
377.698	2080
377.780	1703
377.862	2791
377.944	3289
378.026	1238
378.108	2403
378.190	1554
378.272	2869
378.354	2190
378.436	1588
378.518	5309
378.600	20891
378.682	14793
378.764	23041
378.846	18069
378.928	7818
379.010	9226
379.091	5037
379.173	2462
379.255	1385
379.337	3466
379.419	10590
379.501	33413
379.583	14954
379.664	3985
379.746	7865
379.828	24554
379.910	29716
379.991	27162
380.073	4743
380.155	3252
380.237	2780
380.318	2241
380.400	3425
380.482	5296
380.564	7654
380.645	7655
380.727	7717
380.809	5310
380.890	5058
380.972	2041
381.053	2987
381.135	3838
381.217	8384
381.298	26129
381.380	13586
381.461	9604
381.543	35612
381.624	43153
381.706	10017
381.787	8414
381.869	9153
381.951	15389
382.032	60376
382.113	42219
382.195	10787
382.276	8895
382.358	13463
382.439	35741
382.521	36649
382.602	57585
382.684	25775
382.765	45375
382.846	39613
382.928	26007
383.009	12611
383.090	9001
383.172	29046
383.253	47025
383.334	26755
383.416	47668
383.497	23791
383.578	6257
383.659	10570
383.741	24581
383.822	68636
383.903	36951
383.984	27892
384.066	67430
384.147	40746
384.228	9109
384.309	6382
384.390	4317
384.471	3678
384.553	4621
384.634	6782
384.715	6729
384.796	3450
384.877	3907
384.958	21161
385.039	25167
385.120	10456
385.201	5581
385.282	7816
385.363	9971
385.444	5562
385.525	12833
385.606	35239
385.687	25740
385.768	9435
385.849	11783
385.930	33201
386.011	55720
386.092	16430
386.173	4604
386.254	5119
386.335	6130
386.416	6665
386.496	17308
386.577	28167
386.658	12386
386.739	7508
386.820	10110
386.901	7733
386.981	6217
387.062	3355
387.143	5066
387.224	22831
387.304	23416
387.385	9930
387.466	8847
387.547	14838
387.627	7313
387.708	9411
387.789	37908
387.869	45575
387.950	13356
388.031	3633
388.111	3863
388.192	16645
388.273	25752
388.353	11889
388.434	4778
388.514	7678
388.595	33034
388.676	46433
388.756	24416
388.837	22979
388.917	13904
388.998	3436
389.078	3918
389.159	2792
389.239	1679
389.320	6294
389.400	3716
389.480	11302
389.561	28145
389.641	14110
389.722	5440
389.802	8593
389.883	11903
389.963	30405
390.043	21224
390.124	10370
390.204	12252
390.284	27892
390.365	17614
390.445	23475
390.525	28669
390.605	19005
390.686	13412
390.766	5604
390.846	2982
390.927	1692
391.007	2924
391.087	4368
391.167	3859
391.247	1951
391.328	6592
391.408	13296
391.488	10021
391.568	1706
391.648	3338
391.728	6251
391.808	5694
391.888	4569
391.969	13890
392.049	24502
392.129	15553
392.209	12793
392.289	29206
392.369	17659
392.449	22692
392.529	12201
392.609	7338
392.689	8544
392.769	24805
392.849	22360
392.929	19466
393.009	44617
393.089	26363
393.169	13277
393.248	33593
393.328	132194
393.408	145905
393.488	38744
393.568	12439
393.648	6317
393.728	4436
393.807	3208
393.887	4391
393.967	3109
394.047	2945
394.127	4030
394.206	5886
394.286	15353
394.366	72730
394.446	81184
394.525	15925
394.605	4284
394.685	8519
394.764	27184
394.844	43732
394.924	28267
395.003	6469
395.083	4297
395.163	3951
395.242	3181
395.322	3336
395.402	922
395.481	4777
395.561	14535
395.640	43953
395.720	29187
395.799	41518
395.879	31279
395.958	8480
396.038	21202
396.117	95421
396.197	108246
396.276	40207
396.356	19002
396.435	19464
396.515	9685
396.594	8135
396.673	13214
396.753	38602
396.832	126635
396.912	105445
396.991	29136
397.070	8782
397.150	4713
397.229	3745
397.308	6237
397.388	8810
397.467	4834
397.546	2230
397.625	450
397.705	4378
397.784	4954
397.863	1757
397.942	2262
398.022	3332
398.101	13109
398.180	44897
398.259	26940
398.338	7158
398.417	3762
398.497	2472
398.576	4098
398.655	1478
398.734	1868
398.813	3398
398.892	11962
398.971	44292
399.050	21953
399.129	2672
399.208	2125
399.287	3000
399.366	1372
399.445	2155
399.524	2254
399.603	1112
399.682	3810
399.761	12519
399.840	42992
399.919	34664
399.998	5322
400.077	1640
400.156	2103
400.235	5219
400.313	2400
400.392	3087
400.471	13264
400.550	20803
400.629	6198
400.708	2903
400.786	4899
400.865	15635
400.944	17271
401.023	6978
401.102	1094
401.180	1727
401.259	2324
401.338	3001
401.416	3959
401.495	3246
401.574	3646
401.652	2297
401.731	4757
401.810	3609
401.888	1533
401.967	1060
402.046	2478
402.124	3375
402.203	4989
402.281	3354
402.360	4195
402.438	19420
402.517	12788
402.596	4586
402.674	4874
402.753	2142
402.831	2011
402.910	2659
402.988	10410
403.066	36292
403.145	21176
403.223	11877
403.302	29537
403.380	22827
403.459	22835
403.537	9744
403.615	4326
403.694	486
403.772	2039
403.850	1419
403.929	983
404.007	1003
404.085	4770
404.164	4134
404.242	894
404.320	3302
404.398	6910
404.477	10873
404.555	46381
404.633	40548
404.711	7206
404.789	3646
404.868	2167
404.946	1068
405.024	1403
405.102	1852
405.180	510
405.258	570
405.336	1571
405.415	1028
405.493	6367
405.571	5706
405.649	1357
405.727	1009
405.805	4281
405.883	2482
405.961	3949
406.039	5671
406.117	1720
406.195	2840
406.273	10411
406.351	42871
406.429	28875
406.507	7516
406.585	3155
406.663	1737
406.740	2889
406.818	1994
406.896	1674
406.974	2148
407.052	2949
407.130	26061
407.208	36035
407.285	7052
407.363	1147
407.441	1655
407.519	823
407.596	1836
407.674	3908
407.752	7345
407.830	15412
407.907	9622
407.985	1960
408.063	1244
408.141	829
408.218	5608
408.296	3702
408.373	2187
408.451	1937
408.529	1310
408.606	479
408.684	746
408.762	565
408.839	510
408.917	237
408.994	964
409.072	424
409.149	1093
409.227	3853
409.304	5036
409.382	1977
409.459	1117
409.537	3482
409.614	2937
409.692	629
409.769	929
409.846	3171
409.924	7029
410.001	4810
410.079	2799
410.156	2321
410.233	1267
410.311	1128
410.388	636
410.465	3969
410.543	4516
410.620	2603
410.697	1542
410.775	2068
410.852	193
410.929	3395
411.006	5941
411.083	3614
411.161	11885
411.238	13028
411.315	6319
411.392	1586
411.469	5342
411.547	7614
411.624	2703
411.701	2259
411.778	1865
411.855	3792
411.932	2222
412.009	587
412.086	1810
412.163	2180
412.240	2927
412.317	5781
412.394	4724
412.471	1888
412.548	371
412.625	1597
412.702	2498
412.779	8233
412.856	5513
412.933	987
413.010	1010
413.087	2661
413.164	13943
413.241	20755
413.318	4182
413.395	4605
413.471	6344
413.548	1971
413.625	2064
413.702	2556
413.779	1673
413.855	928
413.932	-247
414.009	-393
414.086	711
414.162	673
414.239	2403
414.316	12347
414.393	27335
414.469	8824
414.546	1167
414.623	1375
414.699	1106
414.776	1026
414.853	735
414.929	633
415.006	878
415.082	2634
415.159	1910
415.236	843
415.312	834
415.389	2522
415.465	3019
415.542	2424
415.618	284
415.695	2428
415.771	1576
415.848	1442
415.924	1217
416.000	2478
416.077	1401
416.153	-561
416.230	-477
416.306	440
416.383	541
416.459	1415
416.535	401
416.612	489
416.688	139
416.764	97
416.841	-98
416.917	717
416.993	1111
417.069	1656
417.146	1975
417.222	2590
417.298	679
417.374	349
417.451	1473
417.527	1310
417.603	2014
417.679	1362
417.755	1314
417.831	-318
417.908	1062
417.984	1739
418.060	285
418.136	3044
418.212	3524
418.288	1444
418.364	1723
418.440	396
418.516	2544
418.592	5898
418.668	7795
418.744	8642
418.820	6199
418.896	1629
418.972	-464
419.048	1084
419.124	4612
419.200	2635
419.276	584
419.352	85
419.428	561
419.504	786
419.579	1699
419.655	321
419.731	1682
419.807	5624
419.883	9062
419.959	5953
420.034	2338
420.110	3892
420.186	16565
420.262	14089
420.337	2592
420.413	1420
420.489	1222
420.565	1230
420.640	191
420.716	1011
420.792	-752
420.867	1245
420.943	809
421.019	3065
421.094	1841
421.170	1452
421.245	3
421.321	1042
421.397	807
421.472	2655
421.548	3268
421.623	4669
421.699	1947
421.774	2072
421.850	1585
421.925	3723
422.001	2651
422.076	2551
422.152	3240
422.227	5448
422.302	5928
422.378	8261
422.453	16279
422.529	37330
422.604	112549
422.679	188023
422.755	130587
422.830	46773
422.905	17763
422.981	8609
423.056	6698
423.131	5052
423.207	3279
423.282	3780
423.357	6303
423.432	4540
423.508	4545
423.583	9592
423.658	6662
423.733	3124
423.808	3650
423.883	3037
423.959	2258
424.034	1381
424.109	1892
424.184	658
424.259	563
424.334	976
424.409	574
424.484	384
424.559	617
424.634	178
424.709	702
424.784	2561
424.859	2349
424.934	2734
425.009	12592
425.084	22519
425.159	8432
425.234	2491
425.309	75
425.384	709
425.459	-5
425.534	1027
425.609	1505
425.683	121
425.758	866
425.833	2136
425.908	2519
425.983	7510
426.058	21081
426.132	10531
426.207	2492
426.282	6504
426.357	5113
426.431	1498
426.506	1986
426.581	2060
426.655	2026
426.730	452
426.805	713
426.879	1731
426.954	783
427.029	3993
427.103	18915
427.178	46176
427.253	20635
427.327	2834
427.402	4354
427.476	7801
427.551	3193
427.625	2552
427.700	3346
427.774	450
427.849	2771
427.923	1507
427.998	1383
428.072	1434
428.147	5453
428.221	15465
428.296	38173
428.370	18874
428.444	5532
428.519	8105
428.593	17286
428.667	15238
428.742	18015
428.816	13439
428.890	30805
428.965	41939
429.039	17093
429.113	20252
429.188	7596
429.262	2542
429.336	4036
429.410	11913
429.485	9304
429.559	14243
429.633	12624
429.707	2691
429.781	7183
429.855	40224
429.930	56484
430.004	39287
430.078	61752
430.152	47376
430.226	45943
430.300	47400
430.374	8365
430.448	4483
430.522	16106
430.596	49212
430.670	29215
430.744	40873
430.818	65008
430.892	15659
430.966	2757
431.040	1073
431.114	721
431.188	1527
431.262	1408
431.336	1541
431.410	7163
431.484	22016
431.557	12742
431.631	1690
431.705	1321
431.779	6252
431.853	30939
431.927	24322
432.000	2846
432.074	1626
432.148	3343
432.222	2643
432.295	1669
432.369	529
432.443	3197
432.516	19886
432.590	49177
432.664	22229
432.737	3327
432.811	212
432.885	908
432.958	1424
433.032	755
433.106	326
433.179	-424
433.253	1153
433.326	558
433.400	-292
433.473	520
433.547	-23
433.620	1015
433.694	2701
433.767	3290
433.841	317
433.914	42
433.988	46
434.061	1735
434.134	1423
434.208	637
434.281	-366
434.355	-330
434.428	717
434.501	266
434.575	321
434.648	916
434.721	74
434.795	-407
434.868	360
434.941	-225
435.014	138
435.088	-414
435.161	1077
435.234	1916
435.307	4097
435.381	1344
435.454	710
435.527	1864
435.600	1900
435.673	1027
435.746	913
435.819	616
435.892	415
435.966	208
436.039	934
436.112	1169
436.185	219
436.258	522
436.331	-220
436.404	189
436.477	-702
436.550	858
436.623	355
436.696	373
436.769	754
436.842	943
436.915	1655
436.987	2336
437.060	486
437.133	390
437.206	40
437.279	1124
437.352	1057
437.425	83
437.498	1762
437.570	4124
437.643	5560
437.716	729
437.789	827
437.861	6453
437.934	22159
438.007	10717
438.080	1762
438.152	1497
438.225	3246
438.298	22378
438.370	69726
438.443	43449
438.516	19032
438.588	3811
438.661	567
438.734	1234
438.806	1220
438.879	2133
438.951	5513
439.024	12034
439.096	4284
439.169	1184
439.241	303
439.314	988
439.386	3047
439.459	6478
439.531	11436
439.604	4827
439.676	921
439.749	1297
439.821	165
439.893	391
439.966	545
440.038	3964
440.110	3844
440.183	1058
440.255	940
440.327	1793
440.400	12467
440.472	50863
440.544	40043
440.617	7523
440.689	8661
440.761	12194
440.833	19983
440.905	14125
440.978	1825
441.050	502
441.122	1174
441.194	821
441.266	113
441.338	226
441.411	2392
441.483	17271
441.555	30956
441.627	10526
441.699	7119
441.771	6066
441.843	2380
441.915	996
441.987	1165
442.059	540
442.131	1814
442.203	6229
442.275	6428
442.347	5044
442.419	3874
442.491	16725
442.563	46889
442.635	29710
442.706	23735
442.778	21181
442.850	4715
442.922	1501
442.994	2833
443.066	5589
443.137	3748
443.209	2455
443.281	3308
443.353	7979
443.425	25484
443.496	78726
443.568	87089
443.640	38087
443.711	8844
443.783	3907
443.855	2688
443.926	1263
443.998	2701
444.070	4834
444.141	4225
444.213	5775
444.285	6370
444.356	6155
444.428	6111
444.499	3487
444.571	814
444.642	1007
444.714	2447
444.785	4113
444.857	6659
444.928	19128
445.000	13337
445.071	12067
445.143	16340
445.214	8994
445.285	11156
445.357	33535
445.428	62521
445.500	135434
445.571	106908
445.642	53567
445.714	29262
445.785	34255
445.856	11522
445.928	6855
445.999	9390
446.070	7974
446.141	5747
446.213	7285
446.284	5322
446.355	5064
446.426	3378
446.497	2786
446.569	6210
446.640	9803
446.711	7190
446.782	3158
446.853	4273
446.924	4626
446.995	3857
447.066	4139
447.138	7901
447.209	5651
447.280	1306
447.351	-102
447.422	397
447.493	3316
447.564	4893
447.635	5909
447.706	2816
447.777	562
447.847	1666
447.918	1172
447.989	4195
448.060	6353
448.131	14130
448.202	14714
448.273	7890
448.344	4055
448.414	2648
448.485	1251
448.556	1221
448.627	779
448.698	1427
448.768	623
448.839	1937
448.910	7244
448.981	7920
449.051	2867
449.122	1165
449.193	925
449.263	666
449.334	880
449.405	2525
449.475	7143
449.546	6855
449.616	8684
449.687	9258
449.758	2158
449.828	2135
449.899	1156
449.969	364
450.040	762
450.110	2528
450.181	3840
450.251	1746
450.322	1293
450.392	2194
450.463	1452
450.533	403
450.604	2001
450.674	2415
450.744	1080
450.815	1523
450.885	1574
450.955	1882
451.026	1096
451.096	1945
451.166	3784
451.237	11205
451.307	26252
451.377	12349
451.447	2117
451.518	2058
451.588	1454
451.658	2040
451.728	4871
451.799	24170
451.869	33436
451.939	9440
452.009	2373
452.079	890
452.149	2258
452.219	6677
452.289	29616
452.360	26820
452.430	5944
452.500	3068
452.570	4376
452.640	6123
452.710	17723
452.780	32357
452.850	19730
452.920	16851
452.990	8303
453.060	3960
453.129	5168
453.199	7827
453.269	24394
453.339	60779
453.409	97221
453.479	85369
453.549	137742
453.619	156046
453.688	79039
453.758	12174
453.828	3915
453.898	2988
453.968	3372
454.037	2354
454.087	2674
454.107	2735
454.168	1951
454.177	1767
454.247	2385
454.249	2454
454.316	2551
454.330	3404
454.386	5856
454.411	11453
454.456	17466
454.492	22785
454.525	27183
454.574	16004
454.595	11529
454.655	4821
454.665	3963
454.734	7928
454.736	8506
454.804	18287
454.817	23471
454.873	35039
454.898	38264
454.943	41599
454.979	28000
455.013	17845
455.060	12287
455.082	11808
455.141	17793
455.152	17737
455.221	34514
455.222	35469
455.291	46250
455.303	42262
455.360	29244
455.384	28436
455.430	31560
455.465	36239
455.499	36775
455.546	43726
455.569	41916
455.627	27419
455.638	26086
455.707	8044
455.708	8111
455.777	5715
455.789	5906
455.846	6272
455.869	6173
455.916	6277
455.950	7084
455.985	7055
456.031	7293
456.054	7189
456.112	6186
456.124	6208
456.193	7412
456.193	7320
456.262	10389
456.274	11072
456.332	12087
456.355	12784
456.401	11527
456.436	9517
456.470	8222
456.516	6105
456.540	5339
456.597	4924
456.609	4842
456.678	5537
456.678	5483
456.747	5692
456.759	5570
456.817	4610
456.840	4629
456.886	4753
456.920	5368
456.955	6335
457.001	7594
457.024	8904
457.082	12469
457.093	12901
457.162	16971
457.163	17116
457.232	16657
457.243	16054
457.301	11690
457.324	9229
457.370	6936
457.405	7302
457.439	8040
457.485	8133
457.508	8356
457.566	10550
457.577	11016
457.646	13776
457.647	13886
457.715	19295
457.727	20646
457.784	24776
457.808	26877
457.853	29739
457.889	32977
457.922	31667
457.969	26576
457.991	29207
458.050	37863
458.060	38395
458.129	47521
458.130	47950
458.198	38022
458.211	34609
458.267	23658
458.292	17954
458.336	14985
458.372	15472
458.405	20498
458.453	28850
458.474	36131
458.533	59681
458.543	61292
458.611	81329
458.614	82143
458.680	49111
458.694	39520
458.749	24298
458.775	18504
458.818	14491
458.855	13365
458.887	13093
458.936	13799
458.955	13973
459.016	14882
459.024	15027
459.093	15985
459.097	16127
459.162	17334
459.177	17617
459.230	20337
459.257	22028
459.299	25762
459.338	29468
459.368	31694
459.418	35952
459.437	32191
459.499	18591
459.505	18422
459.574	15376
459.579	15317
459.643	14436
459.659	14249
459.711	15108
459.740	15587
459.780	16839
459.820	18678
459.849	19939
459.900	21809
459.917	20840
459.981	17761
459.986	17617
460.054	16114
460.061	15878
460.123	16201
460.141	16569
460.191	19966
460.222	22165
460.260	23080
460.302	24834
460.328	22859
460.382	18000
460.397	18114
460.462	17205
460.465	17247
460.534	20161
460.543	20632
460.602	33459
460.623	38150
460.671	51066
460.703	61924
460.739	55342
460.783	45335
460.808	40097
460.864	21581
460.876	20748
460.944	20312
460.945	20256
461.013	18452
461.024	18183
461.081	19397
461.104	20255
461.150	19728
461.184	18842
461.218	18452
461.264	17837
461.286	18323
461.345	19894
461.355	19996
461.423	20920
461.425	20952
461.491	24307
461.505	25065
461.559	49874
461.585	61449
461.628	101971
461.665	139345
461.696	147383
461.745	164858
461.764	137918
461.825	40067
461.832	39541
461.901	29716
461.905	29557
461.969	27387
461.985	27153
462.037	24963
462.065	23420
462.105	30045
462.145	37033
462.173	54357
462.225	86849
462.241	96542
462.305	137891
462.310	133018
462.378	56505
462.385	47125
462.446	30368
462.465	25696
462.514	24501
462.545	24700
462.582	25224
462.625	25950
462.650	26066
462.705	26138
462.718	27797
462.785	36513
462.786	36922
462.854	60618
462.865	64504
462.922	75395
462.945	80056
462.990	54413
463.025	32640
463.058	29653
463.104	25683
463.126	25311
463.184	25678
463.194	26121
463.262	28426
463.264	28515
463.330	30782
463.344	31172
463.398	35770
463.424	37868
463.466	40097
463.504	42557
463.533	41395
463.583	38879
463.601	40432
463.663	45328
463.669	46760
463.737	63682
463.743	65165
463.805	102556
463.823	113460
463.873	181589
463.903	223278
463.940	228407
463.982	235628
464.008	181813
464.062	62212
464.076	57395
464.142	31314
464.144	31210
464.211	30152
464.221	30121
464.279	31229
464.301	31682
464.347	37048
464.381	40875
464.414	49043
464.461	60354
464.482	61097
464.540	63209
464.550	60145
464.617	37105
464.620	36242
464.685	36575
464.699	36752
464.753	37432
464.779	37717
464.820	39964
464.859	41836
464.888	46633
464.938	54919
464.956	56226
465.018	60965
465.023	59354
465.091	36473
465.098	34056
465.158	34151
465.177	34176
465.226	35861
465.257	36859
465.293	38730
465.336	40935
465.361	44615
465.416	52510
465.428	58781
465.495	92514
465.496	93223
465.563	179992
465.575	194811
465.631	226046
465.654	239354
465.698	137643
465.734	51605
465.765	44605
465.813	33451
465.833	33184
465.893	33989
465.900	33951
465.968	33130
465.972	33006
466.035	31441
466.052	30968
466.102	31710
466.131	32049
466.170	32336
466.210	32528
466.237	33311
466.290	34663
466.304	35084
466.369	36495
466.372	36708
466.439	40971
466.449	41489
466.506	46998
466.528	49023
466.573	76815
466.607	97451
466.641	155632
466.687	236208
466.708	258311
466.766	318318
466.775	291667
466.842	86317
466.845	76386
466.909	54484
466.925	49287
466.977	48223
467.004	47711
467.044	47464
467.083	47005
467.111	47469
467.163	48050
467.178	49066
467.242	52786
467.245	52937
467.312	53682
467.321	53664
467.379	60055
467.400	62188
467.446	74524
467.480	83176
467.559	64482
467.638	51443
467.717	54311
467.796	56684
467.875	63477
467.955	65883
468.034	107557
468.113	266195
468.192	380422
468.271	84075
468.350	51700
468.429	57372
468.508	56151
468.588	52312
468.667	56888
468.746	57952
468.825	56827
468.904	49485
468.983	70283
469.062	130722
469.141	157153
469.220	51828
469.299	51698
469.378	53781
469.456	44867
469.535	45072
469.614	49740
469.693	60806
469.772	92689
469.851	147340
469.930	80973
470.009	42590
470.088	39519
470.166	39586
470.245	42924
470.324	43432
470.403	41434
470.482	40991
470.560	42881
470.639	49329
470.718	54597
470.797	47803
470.875	63966
470.954	108719
471.033	118770
471.111	41454
471.190	39235
471.269	39004
471.347	42087
471.426	49821
471.505	58367
471.583	49328
471.662	44123
471.740	43197
471.819	41861
471.898	41203
471.976	42496
472.055	42917
472.133	57378
472.212	89387
472.290	100217
472.369	53349
472.447	41888
472.526	38364
472.604	40723
472.683	43892
472.761	48563
472.839	43824
472.918	42322
472.996	50910
473.075	65397
473.153	57644
473.231	47477
473.310	61961
473.388	56144
473.466	50104
473.545	46829
473.623	56398
473.701	56661
473.780	41902
473.858	41581
473.936	46435
474.014	42794
474.093	53965
474.171	98229
474.249	156093
474.327	84196
474.405	38538
474.484	37527
474.562	40113
474.640	42786
474.718	48565
474.796	45821
474.874	37502
474.952	34301
475.030	37354
475.108	38688
475.187	39115
475.265	43324
475.343	61042
475.421	67107
475.499	42641
475.577	48543
475.655	74514
475.733	177930
475.811	321332
475.889	285090
475.966	162967
476.044	52107
476.122	64751
476.200	76170
476.278	64353
476.356	55008
476.434	59714
476.512	68174
476.590	84728
476.667	72936
476.745	53203
476.823	54906
476.901	59010
476.979	64160
477.056	57808
477.134	59452
477.212	54823
477.290	53383
477.367	49715
477.445	52793
477.523	52703
477.601	55976
477.678	57395
477.756	75849
477.834	85773
477.911	52427
477.989	50838
478.066	57231
478.144	69726
478.222	65101
478.299	85794
478.377	76412
478.454	47783
478.532	48084
478.609	54460
478.687	55133
478.764	47656
478.842	49548
478.919	53747
478.997	52127
479.074	50071
479.152	70542
479.229	95226
479.307	57725
479.384	44338
479.461	45458
479.539	58105
479.616	74474
479.694	62437
479.771	65942
479.848	67365
479.926	106725
480.003	100677
480.080	48434
480.157	49250
480.235	49242
480.312	49816
480.389	68872
480.467	123498
480.544	151262
480.621	73066
480.698	72471
480.775	84507
480.853	82995
480.930	63461
481.007	66698
481.084	79746
481.161	78222
481.238	76276
481.315	58352
481.392	57529
481.470	59095
481.547	61725
481.624	60178
481.701	58955
481.778	63991
481.855	73959
481.932	115533
482.009	205342
482.086	124880
482.163	61296
482.240	71674
482.317	104760
482.393	83081
482.470	60407
482.547	65397
482.624	59754
482.701	71585
482.778	64283
482.855	49983
482.932	49744
483.009	53582
483.085	63287
483.162	81631
483.239	72763
483.316	53683
483.393	51552
483.469	53174
483.546	66731
483.623	74068
483.699	55161
483.776	57837
483.853	64759
483.930	93250
484.006	241838
484.083	390873
484.160	109213
484.236	88593
484.313	79689
484.389	74768
484.466	65844
484.543	64211
484.619	71411
484.696	76165
484.772	97108
484.849	112779
484.925	71485
485.002	70658
485.078	91047
485.155	103249
485.231	70276
485.308	69302
485.384	76659
485.461	107922
485.537	228407
485.614	265759
485.690	78007
485.766	68272
485.843	71383
485.919	96909
485.995	95422
486.072	63469
486.148	62611
486.224	63706
486.301	77117
486.377	108415
486.453	123591
486.530	80686
486.606	75980
486.682	92122
486.758	172688
486.835	218418
486.911	150530
486.987	286657
487.063	213304
487.139	213236
487.215	143049
487.292	71794
487.368	66383
487.444	93545
487.520	141260
487.596	97284
487.672	100804
487.748	222108
487.824	305596
487.900	119826
487.976	83026
488.052	116512
488.128	168727
488.204	108425
488.280	76205
488.356	98693
488.432	259382
488.508	406432
488.584	100282
488.660	62951
488.736	61202
488.812	64214
488.888	76228
488.964	97442
489.039	210611
489.115	309960
489.191	169472
489.267	72495
489.343	72275
489.418	56582
489.494	52322
489.570	52838
489.646	56840
489.722	59878
489.797	65765
489.873	128811
489.949	331873
490.024	240660
490.100	61933
490.176	56141
490.251	71765
490.327	85889
490.403	60714
490.478	52370
490.554	45683
490.629	47452
490.705	47385
490.781	53670
490.856	60340
490.932	61684
491.007	58993
491.083	57798
491.158	61583
491.234	95557
491.309	258966
491.385	244786
491.460	68711
491.536	70445
491.611	54649
491.686	59671
491.762	76204
491.837	152028
491.913	249811
491.988	352240
492.063	363905
492.139	174121
492.214	107462
492.289	47426
492.365	45235
492.440	58485
492.515	77404
492.590	71291
492.666	53253
492.741	84470
492.816	155745
492.891	66094
492.967	41080
493.042	40481
493.117	39358
493.192	41941
493.267	45987
493.342	70852
493.418	73025
493.493	41751
493.568	39618
493.643	43930
493.718	69657
493.793	121332
493.868	97366
493.943	56239
494.018	46778
494.093	50915
494.168	48956
494.243	38214
494.318	38826
494.393	39124
494.468	36402
494.543	37629
494.618	44418
494.693	43302
494.768	47326
494.842	44587
494.917	35808
494.992	38630
495.067	35670
495.142	34984
495.217	39042
495.292	42257
495.366	53326
495.441	76534
495.516	95924
495.591	113092
495.665	297774
495.740	630841
495.815	238063
495.890	88342
495.964	75863
496.039	75796
496.114	72154
496.188	74061
496.263	72250
496.338	75786
496.412	89963
496.487	99883
496.561	89360
496.636	88306
496.710	77131
496.785	91212
496.860	108580
496.934	75403
497.009	70074
497.083	69094
497.158	71811
497.232	92746
497.307	115922
497.381	81003
497.455	109617
497.530	156736
497.604	87194
497.679	95881
497.753	164444
497.827	189788
497.902	122246
497.976	139272
498.050	299220
498.125	1029263
498.199	932728
498.273	171025
498.348	114926
498.422	94942
498.496	97170
498.570	89924
498.645	78744
498.719	87300
498.793	114040
498.867	205020
498.941	242214
499.016	478522
499.090	1155141
499.164	370118
499.238	80237
499.312	75212
499.386	87668
499.460	87208
499.534	82099
499.609	105376
499.683	185524
499.757	150479
499.831	252338
499.905	869403
499.979	736861
500.053	230824
500.127	209469
500.201	116850
500.275	88884
500.349	87618
500.422	97054
500.496	125662
500.570	225000
500.644	525880
500.718	919633
500.792	211516
500.866	97613
500.940	147599
501.013	108834
501.087	103497
501.161	156911
501.235	222854
501.309	479058
501.382	1034830
501.456	762750
501.530	248691
501.603	470076
501.677	161174
501.751	84988
501.825	97697
501.898	185608
501.972	533129
502.046	291618
502.119	108658
502.193	232916
502.266	572046
502.340	251555
502.413	284236
502.487	552727
502.561	341114
502.634	96010
502.708	71220
502.781	66800
502.855	60278
502.928	59431
503.002	59819
503.075	59140
503.149	68663
503.222	68356
503.295	77768
503.369	95269
503.442	129063
503.516	398852
503.589	989447
503.662	589187
503.736	207616
503.809	498983
503.882	347046
503.956	497317
504.029	399668
504.102	190717
504.175	197571
504.249	90150
504.322	98011
504.395	88776
504.468	64420
504.542	72823
504.615	52171
504.688	47948
504.761	53728
504.834	64517
504.907	65360
504.980	94896
505.053	66981
505.127	75214
505.200	87964
505.273	117622
505.346	66100
505.419	55906
505.492	51825
505.565	44127
505.638	42509
505.711	48691
505.784	48500
505.857	44792
505.930	49958
506.003	48753
506.076	53380
506.149	81996
506.221	103413
506.294	76122
506.367	192839
506.440	602082
506.513	270510
506.586	107104
506.659	60108
506.731	48556
506.804	61750
506.877	81751
506.950	65666
507.022	46674
507.095	79919
507.168	86585
507.241	46261
507.313	38032
507.386	46923
507.459	52971
507.531	39751
507.604	39325
507.677	40508
507.749	34524
507.822	44086
507.894	62920
507.967	61939
508.040	40813
508.112	40204
508.185	43343
508.257	42494
508.330	59426
508.402	44606
508.475	49705
508.547	51624
508.620	56818
508.692	109068
508.765	51267
508.837	38317
508.909	35085
508.982	38554
509.054	41382
509.127	35949
509.199	36338
509.271	35877
509.344	32807
509.416	33863
509.488	36750
509.560	37877
509.633	35893
509.705	41564
509.777	43020
509.849	55421
509.922	39042
509.994	34953
510.066	34271
510.138	34964
510.210	43686
510.283	44601
510.355	40977
510.427	38057
510.499	37871
510.571	38317
510.643	40203
510.715	62264
510.787	53920
510.859	43391
510.931	59642
511.003	64527
511.076	55877
511.148	39332
511.219	44654
511.291	95054
511.363	109649
511.435	38340
511.507	32342
511.579	35173
511.651	34764
511.723	35054
511.795	34209
511.867	37774
511.939	56273
512.010	157305
512.082	96052
512.154	41038
512.226	36572
512.298	41485
512.369	57447
512.441	45402
512.513	45840
512.585	37563
512.656	44008
512.728	53620
512.800	36431
512.871	36557
512.943	34333
513.015	30888
513.086	33792
513.158	37706
513.230	39478
513.301	56868
513.373	58222
513.444	35416
513.516	32345
513.588	33120
513.659	37116
513.731	46167
513.802	44971
513.874	81059
513.945	132793
514.016	45630
514.088	35415
514.159	39166
514.231	50038
514.302	53754
514.374	42258
514.445	58069
514.516	161547
514.588	100371
514.659	62533
514.730	153909
514.802	75582
514.873	39762
514.944	39520
515.016	40576
515.087	52679
515.158	96008
515.229	136042
515.301	39360
515.372	36751
515.443	32117
515.514	31118
515.585	28843
515.656	28386
515.728	29989
515.799	29016
515.870	32447
515.941	35248
516.012	32477
516.083	35161
516.154	40075
516.225	53876
516.296	44770
516.367	37939
516.438	42717
516.509	51883
516.580	69934
516.651	151601
516.722	469888
516.793	232962
516.864	98865
516.935	103123
517.006	100769
517.077	120408
517.148	210424
517.219	315761
517.289	463081
517.360	588569
517.431	199941
517.502	71513
517.573	67659
517.643	67714
517.714	66879
517.785	65311
517.856	68097
517.926	71348
517.997	72085
518.068	75105
518.138	80687
518.209	92616
518.280	197623
518.350	566594
518.421	207164
518.492	77447
518.562	81213
518.633	93939
518.703	82761
518.774	115304
518.845	213107
518.915	193181
518.986	103376
519.056	98660
519.127	148826
519.197	230705
519.268	593188
519.338	349294
519.408	119497
519.479	112157
519.549	82936
519.620	61322
519.690	53917
519.760	58591
519.831	57100
519.901	61013
519.971	51992
520.042	63382
520.112	80317
520.182	68973
520.253	70200
520.323	56909
520.393	57340
520.463	62232
520.534	64000
520.604	91325
520.674	69171
520.744	78553
520.814	95306
520.885	97336
520.955	193354
521.025	665335
521.095	224026
521.165	68447
521.235	68364
521.305	60067
521.375	50288
521.445	54080
521.515	64021
521.585	73002
521.655	69758
521.725	62029
521.795	61322
521.865	54350
521.935	101021
522.005	86104
522.075	53469
522.145	59071
522.215	75231
522.285	108421
522.355	155451
522.424	310437
522.494	234977
522.564	86535
522.634	126916
522.704	311173
522.774	113311
522.843	56475
522.913	52211
522.983	59858
523.053	52478
523.122	53980
523.192	66102
523.262	177852
523.331	151934
523.401	54654
523.471	42660
523.540	46940
523.610	39819
523.680	42700
523.749	47831
523.819	69362
523.888	69006
523.958	45466
524.027	54466
524.097	64760
524.166	51947
524.236	51702
524.305	54152
524.375	47659
524.444	45662
524.514	52759
524.583	58703
524.653	76519
524.722	82648
524.791	53550
524.861	51046
524.930	47560
524.999	50478
525.069	67306
525.138	68159
525.207	91392
525.277	53421
525.346	50931
525.415	49270
525.484	51549
525.554	71920
525.623	61376
525.692	49383
525.761	54910
525.830	51204
525.900	58224
525.969	83738
526.038	97399
526.107	141706
526.176	334769
526.245	255053
526.314	134111
526.383	212315
526.452	236928
526.522	398914
526.591	420860
526.660	187251
526.729	99994
526.797	106531
526.867	190626
526.935	692820
527.004	897602
527.073	410445
527.142	79192
527.211	56642
527.280	57552
527.349	58674
527.418	40549
527.487	43682
527.555	42313
527.624	39214
527.693	38639
527.762	41964
527.831	40253
527.899	43044
527.968	45041
528.037	44881
528.106	49061
528.174	80591
528.243	78426
528.312	115561
528.380	118377
528.449	54198
528.518	42021
528.586	36869
528.655	39490
528.723	39622
528.792	39325
528.861	47352
528.929	43359
528.998	40182
529.066	36055
529.135	37029
529.203	37121
529.272	39033
529.340	39203
529.409	43673
529.477	42697
529.545	65258
529.614	62559
529.682	73856
529.751	82725
529.819	71736
529.887	52152
529.956	42810
530.024	44304
530.092	37618
530.161	42350
530.229	59871
530.297	40438
530.365	37966
530.434	35579
530.502	37351
530.570	35855
530.638	36888
530.707	39919
530.775	44850
530.843	39230
530.911	40628
530.979	36640
531.047	40235
531.115	42780
531.183	41577
531.252	40975
531.320	44451
531.388	39874
531.456	40315
531.524	37748
531.592	38826
531.660	43130
531.728	41407
531.796	39002
531.864	38510
531.932	41892
532.000	40007
532.067	42145
532.135	42101
532.203	45914
532.271	50575
532.339	67056
532.407	141295
532.475	81832
532.542	57077
532.610	58568
532.678	76183
532.746	222178
532.814	492801
532.881	131745
532.949	50886
533.017	43891
533.084	43004
533.152	42177
533.220	42153
533.287	45978
533.355	39326
533.423	40021
533.490	40289
533.558	41091
533.625	40525
533.693	41497
533.761	43898
533.828	46537
533.896	41867
533.963	63257
534.031	72213
534.098	102059
534.166	56763
534.233	40451
534.300	41433
534.368	41984
534.435	41990
534.503	39826
534.570	40249
534.637	40307
534.705	44810
534.772	46096
534.840	58003
534.907	163244
534.974	177619
535.041	54485
535.109	64660
535.176	41072
535.243	37793
535.310	40518
535.378	38292
535.445	37459
535.512	36244
535.579	39366
535.646	39162
535.714	38244
535.781	40014
535.848	40713
535.915	47367
535.982	42027
536.049	41619
536.116	43959
536.183	41794
536.250	42593
536.317	44212
536.384	47756
536.451	59549
536.518	58304
536.585	50356
536.652	61083
536.719	72300
536.786	60774
536.853	54454
536.920	75874
536.987	105670
537.053	92816
537.120	286791
537.187	217528
537.254	50146
537.321	45547
537.388	43837
537.454	40385
537.521	40422
537.588	39772
537.654	43011
537.721	41370
537.788	44089
537.855	37532
537.921	41764
537.988	40934
538.055	41526
538.121	40216
538.188	43628
538.254	55026
538.321	90573
538.388	58672
538.454	45504
538.521	42744
538.587	38933
538.654	39426
538.720	40666
538.787	39230
538.853	45327
538.920	56075
538.986	61585
539.053	51353
539.119	49816
539.185	45750
539.252	50917
539.318	65305
539.385	51936
539.451	50543
539.517	48168
539.583	57626
539.650	117746
539.716	246940
539.782	72283
539.849	43896
539.915	44850
539.981	44129
540.047	48949
540.114	48870
540.180	52068
540.246	47183
540.312	57699
540.378	94593
540.444	88635
540.510	103692
540.576	254533
540.643	82237
540.709	44016
540.775	42801
540.841	47540
540.907	63680
540.973	81345
541.039	57636
541.105	60597
541.171	44252
541.237	43601
541.303	45092
541.369	47138
541.435	53730
541.500	81965
541.566	56150
541.632	42299
541.698	39770
541.764	41591
541.830	41169
541.896	40880
541.961	41169
542.027	43304
542.093	40376
542.159	42684
542.224	45618
542.290	57057
542.356	81396
542.421	86194
542.487	49422
542.553	47629
542.618	57437
542.684	47019
542.750	47177
542.815	57140
542.881	89455
542.947	234517
543.012	148676
543.078	46015
543.143	43699
543.209	48483
543.274	46836
543.340	53036
543.405	103052
543.471	141241
543.536	47376
543.602	44949
543.667	45984
543.732	41855
543.798	41096
543.863	42740
543.928	39325
543.994	38053
544.059	40911
544.124	38235
544.190	39462
544.255	40677
544.320	41328
544.386	42992
544.451	54332
544.516	58450
544.581	61550
544.646	155927
544.712	205087
544.777	62235
544.842	66437
544.907	77251
544.972	63184
545.037	61605
545.102	67761
545.168	67939
545.233	68173
545.298	70740
545.363	80410
545.428	77979
545.493	108095
545.558	203510
545.623	95895
545.688	69224
545.753	63781
545.818	64652
545.883	65515
545.947	64478
546.012	75230
546.077	78175
546.142	66507
546.207	63845
546.272	73360
546.337	74636
546.401	64919
546.466	64610
546.531	65098
546.596	70893
546.661	66800
546.725	65295
546.790	63593
546.855	66946
546.919	66315
546.984	71860
547.049	77316
547.113	94633
547.178	80461
547.243	90127
547.307	93535
547.372	109601
547.436	121070
547.501	89014
547.565	92361
547.630	96929
547.695	100277
547.759	127987
547.823	104232
547.888	86174
547.952	86904
548.017	91938
548.081	105272
548.146	142033
548.210	116750
548.274	93502
548.339	87044
548.403	85001
548.468	81398
548.532	82590
548.596	83895
548.660	86803
548.725	95082
548.789	115184
548.853	112895
548.917	96219
548.982	135524
549.046	127247
549.110	85193
549.174	80608
549.238	84009
549.303	85109
549.367	88583
549.431	85812
549.495	82320
549.559	86543
549.623	91214
549.687	106816
549.751	126327
549.815	114679
549.879	109884
549.943	105758
550.007	112640
550.071	113687
550.135	118780
550.199	110467
550.263	104190
550.327	111191
550.391	143802
550.455	111352
550.519	108678
550.582	113680
550.646	135538
550.710	138294
550.774	117785
550.838	121203
550.901	125033
550.965	130082
551.029	135646
551.093	149788
551.156	180276
551.220	306427
551.284	305082
551.347	182333
551.411	352643
551.475	336391
551.538	130084
551.602	116559
551.666	110121
551.729	105437
551.793	104633
551.856	102916
551.920	100935
551.983	101770
552.047	99398
552.110	98178
552.174	98349
552.237	101255
552.301	97215
552.364	94991
552.428	95507
552.491	97285
552.554	95652
552.618	96307
552.681	99688
552.745	97565
552.808	103814
552.871	108699
552.934	98881
552.998	100160
553.061	106898
553.124	96511
553.187	93484
553.251	98449
553.314	100844
553.377	97809
553.440	104332
553.503	119473
553.567	126901
553.630	99933
553.693	97901
553.756	100808
553.819	93544
553.882	96190
553.945	95435
554.008	91328
554.071	93017
554.134	95265
554.197	90869
554.260	86371
554.323	93608
554.386	95942
554.449	94233
554.512	92630
554.575	91336
554.638	95673
554.701	92625
554.764	88071
554.827	91533
554.889	85819
554.952	79172
555.015	81525
555.078	82540
555.141	83045
555.203	81229
555.266	82263
555.329	85741
555.391	80508
555.454	80367
555.517	82924
555.580	77577
555.642	72430
555.705	74655
555.768	77055
555.830	74642
555.893	71430
555.955	71848
556.018	74002
556.080	73391
556.143	72385
556.206	72970
556.268	77664
556.330	77201
556.393	73920
556.455	77151
556.518	113323
556.580	102964
556.643	67241
556.705	65736
556.767	67641
556.830	69734
556.892	71225
556.955	87923
557.017	74205
557.079	66973
557.142	66686
557.204	70496
557.266	103583
557.328	87949
557.391	64294
557.453	61357
557.515	65119
557.577	73018
557.639	71401
557.701	61180
557.764	62658
557.826	65625
557.888	69420
557.950	65736
558.012	66626
558.074	77821
558.136	122689
558.198	221503
558.260	99527
558.322	72994
558.384	72179
558.446	79254
558.508	83381
558.570	97431
558.632	128914
558.694	165213
558.756	158408
558.818	368266
558.880	763260
558.942	246636
559.003	233306
559.065	120215
559.127	79592
559.189	79740
559.251	89536
559.312	104572
559.374	197331
559.436	544815
559.498	246499
559.559	83947
559.621	82522
559.683	96825
559.744	153826
559.806	346395
559.868	404611
559.929	122244
559.991	102610
560.052	123284
560.114	236853
560.176	155064
560.237	156579
560.299	211416
560.360	85754
560.422	76635
560.483	75294
560.545	71734
560.606	72501
560.667	69696
560.729	69639
560.790	67849
560.852	67705
560.913	68372
560.974	67173
561.036	66886
561.097	67445
561.158	67149
561.220	68076
561.281	67756
561.342	67483
561.403	74339
561.465	83123
561.526	132786
561.587	148567
561.648	75079
561.709	69484
561.771	67290
561.832	66678
561.893	66670
561.954	64894
562.015	63584
562.076	64511
562.137	66328
562.198	66249
562.259	65011
562.320	68312
562.381	72127
562.442	90713
562.503	76840
562.564	66830
562.625	64437
562.686	66666
562.747	83201
562.808	72415
562.869	72245
562.930	94234
562.991	86466
563.051	78872
563.112	72677
563.173	70783
563.234	67264
563.294	66702
563.355	64958
563.416	66759
563.477	65566
563.537	70735
563.598	73908
563.659	71174
563.720	69968
563.780	70914
563.841	70668
563.901	68627
563.962	68282
564.023	69518
564.083	69651
564.144	71176
564.204	72187
564.265	74117
564.325	86227
564.386	151357
564.446	123985
564.507	67517
564.567	65398
564.628	67457
564.688	65401
564.749	67467
564.809	76560
564.869	88671
564.930	67829
564.990	61378
565.050	61249
565.111	61338
565.171	60950
565.231	61321
565.292	58302
565.352	58428
565.412	61722
565.472	62912
565.532	62483
565.593	61832
565.653	59305
565.713	64308
565.773	64238
565.833	67622
565.893	73671
565.953	63536
566.013	62928
566.074	67903
566.134	90543
566.194	140866
566.254	123308
566.314	85914
566.374	66072
566.434	65711
566.494	65246
566.554	62134
566.614	62376
566.673	62210
566.733	65145
566.793	69716
566.853	73027
566.913	66412
566.973	69477
567.033	74915
567.092	80324
567.152	68641
567.212	67923
567.272	69490
567.331	72194
567.391	69386
567.451	74039
567.511	99582
567.570	98267
567.630	63047
567.690	61364
567.749	61495
567.809	60498
567.868	64700
567.928	68377
567.988	74124
568.047	68395
568.107	68740
568.166	70775
568.226	83685
568.285	95799
568.345	84300
568.404	75164
568.464	70292
568.523	69610
568.582	72020
568.642	74607
568.701	82699
568.761	99153
568.820	129988
568.879	125755
568.939	123438
568.998	90684
569.057	73310
569.116	67845
569.176	63128
569.235	59370
569.294	58700
569.353	59367
569.413	63015
569.472	65255
569.531	59970
569.590	57701
569.649	58319
569.708	55867
569.767	62777
569.827	86906
569.886	69090
569.945	54767
570.004	55897
570.063	57619
570.122	60083
570.181	64654
570.240	76261
570.299	78120
570.358	83817
570.417	58945
570.475	54460
570.534	55852
570.593	57785
570.652	65297
570.711	69023
570.770	57589
570.829	61121
570.887	55408
570.946	56700
571.005	52623
571.064	53044
571.122	56285
571.181	66237
571.240	57558
571.299	55621
571.357	61359
571.416	62564
571.475	71843
571.533	72062
571.592	57819
571.650	63035
571.709	53102
571.768	53346
571.826	52681
571.885	50574
571.943	52025
572.002	53647
572.060	55802
572.119	49978
572.177	48655
572.236	49447
572.294	45594
572.352	48940
572.411	50491
572.469	50350
572.528	50542
572.586	52918
572.644	65774
572.703	89532
572.761	62638
572.819	53003
572.877	49127
572.936	46874
572.994	47526
573.052	48057
573.110	53490
573.169	48364
573.227	45247
573.285	45688
573.343	46578
573.401	49405
573.459	45676
573.517	46521
573.576	47476
573.634	48927
573.692	55070
573.750	48644
573.808	48106
573.866	53293
573.924	67724
573.982	63634
574.040	49144
574.098	47673
574.155	44643
574.213	43542
574.271	43651
574.329	47820
574.387	43970
574.445	43358
574.503	42238
574.560	41186
574.618	41456
574.676	40462
574.734	40460
574.792	43271
574.849	42565
574.907	39745
574.965	39601
575.022	38762
575.080	38743
575.138	39239
575.195	41790
575.253	43016
575.311	43519
575.368	40063
575.426	39379
575.483	41292
575.541	40092
575.598	41155
575.656	43420
575.713	42349
575.771	41568
575.828	41606
575.886	42184
575.943	46016
576.001	47742
576.058	47691
576.115	49177
576.173	57497
576.230	62478
576.287	61235
576.345	51956
576.402	48766
576.459	50588
576.517	50863
576.574	54956
576.631	56775
576.688	50439
576.746	47731
576.803	46685
576.860	46240
576.917	46544
576.974	47005
577.031	46609
577.089	47720
577.146	47351
577.203	47938
577.260	48834
577.317	52305
577.374	58975
577.431	54269
577.488	47391
577.545	43516
577.602	43379
577.659	45412
577.716	42701
577.773	43933
577.830	41540
577.886	41711
577.943	42062
578.000	42337
578.057	45918
578.114	43531
578.171	40941
578.227	41888
578.284	42073
578.341	45002
578.398	44850
578.454	48057
578.511	53782
578.568	60962
578.625	50371
578.681	43455
578.738	41254
578.794	42365
578.851	42142
578.908	42489
578.964	44587
579.021	45958
579.077	42878
579.134	40612
579.190	39399
579.247	39815
579.303	40513
579.360	39097
579.416	38056
579.473	38856
579.529	38174
579.586	39771
579.642	39906
579.698	40594
579.755	41446
579.811	39686
579.867	39696
579.924	37797
579.980	38572
580.036	40984
580.093	38873
580.149	41239
580.205	41602
580.261	41128
580.317	44185
580.374	46845
580.430	53417
580.486	50917
580.542	43547
580.598	41602
580.619	41424
580.654	41173
580.692	41839
580.710	42262
580.765	40798
580.767	40810
580.823	41230
580.838	40834
580.879	39966
580.911	40233
580.935	40541
580.984	39543
580.991	39467
581.047	41015
581.057	41297
581.103	42791
581.130	43484
581.159	44317
581.203	44007
581.215	43996
581.270	43516
581.276	43402
581.326	42784
581.349	43642
581.382	45072
581.422	44392
581.438	44161
581.494	47422
581.494	47343
581.550	43908
581.567	44485
581.606	45821
581.640	45220
581.661	44968
581.713	43773
581.717	43714
581.773	42126
581.786	42568
581.829	44207
581.859	44331
581.885	44497
581.932	43823
581.940	43739
581.996	44718
582.004	44431
582.052	42943
582.077	42180
582.107	41469
582.150	43244
582.163	43756
582.219	43567
582.223	43527
582.274	43634
582.296	44187
582.330	45018
582.368	45556
582.386	45878
582.441	41365
582.441	41379
582.497	40483
582.514	40397
582.552	40518
582.587	40931
582.608	41066
582.659	40186
582.663	40148
582.719	39913
582.732	40139
582.774	40846
582.805	41254
582.830	41660
582.877	40174
582.885	39917
582.941	39565
582.950	39542
582.996	39613
583.023	40332
583.052	41122
583.095	40131
583.107	39935
583.162	41546
583.168	41575
583.218	41394
583.240	40633
583.273	39624
583.313	38443
583.328	38009
583.384	39450
583.385	39394
583.439	37743
583.458	37633
583.494	37336
583.531	36409
583.549	36091
583.603	38956
583.605	39030
583.660	37933
583.676	37870
583.715	37741
583.748	38507
583.770	39048
583.820	39053
583.825	39032
583.881	37533
583.893	37518
583.936	37369
583.965	36969
583.991	36765
584.038	37185
584.046	37203
584.101	36997
584.110	36992
584.156	36974
584.183	36999
584.211	36914
584.255	35808
584.266	35545
584.321	34644
584.328	34759
584.376	35394
584.400	35161
584.431	35001
584.472	35679
584.486	35816
584.541	35568
584.545	35574
584.596	35346
584.617	35925
584.651	37089
584.689	37590
584.706	37622
584.761	37447
584.762	37469
584.816	37540
584.834	37447
584.871	37020
584.906	37609
584.926	37956
584.978	37992
584.980	37971
585.035	39257
585.051	39839
585.090	41198
585.123	41675
585.145	41778
585.195	41400
585.200	41387
585.254	42205
585.267	42623
585.309	43421
585.340	45287
585.364	46674
585.412	47526
585.419	47634
585.473	49832
585.484	50886
585.528	55529
585.556	61236
585.583	68465
585.628	87611
585.637	92463
585.692	158339
585.700	170215
585.747	223751
585.772	174735
585.801	109832
585.845	61050
585.856	51992
585.910	44868
585.917	44463
585.965	42483
585.989	41980
586.019	41412
586.061	40977
586.074	40828
586.128	41349
586.133	41599
586.183	44132
586.205	44813
586.237	45450
586.277	45625
586.292	45664
586.346	46377
586.349	46447
586.401	45968
586.421	46593
586.455	47912
586.493	51212
586.509	53607
586.564	66761
586.565	67731
586.618	107126
586.637	102113
586.672	83014
586.709	59461
586.727	49688
586.781	46350
586.781	46277
586.835	43574
586.853	43261
586.889	42837
586.925	41924
586.944	41454
586.996	43166
586.998	43151
587.052	43770
587.068	43985
587.106	44089
587.140	43762
587.161	43624
587.212	44666
587.215	44653
587.269	46138
587.284	46233
587.323	45798
587.356	45260
587.377	45044
587.427	46521
587.431	46555
587.485	46849
587.499	47186
587.539	47855
587.571	48356
587.593	48834
587.643	51283
587.648	51337
587.702	50794
587.715	51184
587.755	52516
587.786	52692
587.810	52576
587.858	52625
587.864	52747
587.917	56780
587.930	57972
587.971	60791
588.001	62437
588.025	63269
588.073	62759
588.079	62778
588.133	65748
588.145	66759
588.187	70191
588.217	73164
588.241	75834
588.288	82246
588.295	83174
588.348	92428
588.360	94870
588.402	103667
588.431	110619
588.456	117429
588.503	131808
588.510	133879
588.564	155129
588.575	160634
588.617	184549
588.646	203836
588.671	226258
588.718	277776
588.725	289926
588.778	404534
588.789	433723
588.832	618589
588.861	763496
588.886	908796
588.932	1179396
588.939	1189554
588.993	1145732
589.004	1139669
589.047	977421
589.075	809059
589.100	653686
589.147	405852
589.154	387014
589.207	291016
589.218	275833
589.261	256660
589.290	250562
589.314	259028
589.361	286576
589.368	297463
589.421	407846
589.433	437510
589.475	643376
589.504	808141
589.528	915674
589.576	1062330
589.582	1042262
589.635	797570
589.647	731150
589.689	461180
589.718	301342
589.742	246123
589.790	165444
589.795	161050
589.849	132312
589.861	128435
589.902	123461
589.932	113459
589.955	102780
590.004	81107
590.009	79632
590.062	72476
590.075	71027
590.115	66940
590.146	63945
590.168	62655
590.218	60972
590.222	60631
590.275	58098
590.289	57583
590.328	56904
590.360	56079
590.381	54793
590.431	52652
590.435	52517
590.488	52768
590.503	52936
590.541	51909
590.574	51114
590.594	50409
590.645	49119
590.647	48961
590.700	48061
590.716	47838
590.753	46676
590.787	46020
590.806	45751
590.859	45583
590.859	45468
590.912	45432
590.930	45656
590.965	44489
591.001	43456
591.018	43535
591.071	44561
591.072	44691
591.124	44237
591.143	44340
591.177	44334
591.214	44633
591.230	44689
591.283	45462
591.285	45608
591.336	45456
591.356	45603
591.389	44469
591.427	43079
591.442	42870
591.495	42825
591.498	42953
591.547	42181
591.569	42003
591.600	41619
591.640	41366
591.653	41373
591.706	42327
591.711	42529
591.759	43135
591.782	44037
591.811	44919
591.853	46092
591.864	45383
591.917	41901
591.924	41633
591.969	41614
591.995	41922
592.022	41822
592.066	42034
592.075	42293
592.127	44956
592.137	45717
592.180	47893
592.208	49137
592.233	46988
592.279	43185
592.285	42790
592.338	41241
592.350	41031
592.390	39521
592.421	38662
592.443	39019
592.491	40262
592.495	40100
592.548	39785
592.562	39842
592.600	39741
592.633	39912
592.653	39551
592.704	38769
592.705	38992
592.775	39290
592.846	37325
592.916	38355
592.987	39233
593.058	38579
593.128	37628
593.199	38037
593.270	37120
593.341	37503
593.411	37839
593.482	36700
593.553	37852
593.623	37219
593.694	37694
593.764	39530
593.835	37433
593.906	37364
593.976	37196
594.047	40153
594.117	43119
594.188	43209
594.258	37494
594.329	36891
594.399	36475
594.470	37075
594.540	37936
594.611	37776
594.681	37196
594.751	37966
594.822	39100
594.892	40489
594.963	41927
595.033	41098
595.103	41310
595.174	43888
595.244	52647
595.314	58370
595.384	42003
595.455	42280
595.525	42507
595.595	43856
595.665	43506
595.736	42219
595.806	42872
595.876	42714
595.946	42935
596.016	42377
596.087	43562
596.157	43089
596.227	43376
596.297	45666
596.367	46783
596.437	50783
596.507	56428
596.577	60240
596.647	49016
596.717	47767
596.787	47946
596.857	48364
596.927	48008
596.997	47415
597.067	48130
597.137	51255
597.207	50937
597.277	50228
597.347	48535
597.417	50070
597.487	48395
597.557	50231
597.626	50233
597.696	51886
597.766	56338
597.836	60680
597.906	50491
597.975	47495
598.045	45847
598.115	47213
598.185	47130
598.254	50787
598.324	54081
598.394	52720
598.464	52240
598.533	51417
598.603	49555
598.672	48625
598.742	49953
598.812	48584
598.881	49087
598.951	49627
599.020	48846
599.090	50910
599.159	50236
599.229	49137
599.299	46958
599.368	50241
599.437	47708
599.507	46939
599.576	46440
599.646	46844
599.715	45740
599.785	46780
599.854	46195
599.924	48536
599.993	47604
600.062	45990
600.132	45660
600.201	48271
600.270	51385
600.340	53643
600.409	50653
600.478	52646
600.547	52513
600.617	51221
600.686	44788
600.755	43487
600.824	42747
600.894	42073
600.963	39748
601.032	40867
601.101	40368
601.170	39760
601.239	39212
601.308	41152
601.378	40010
601.447	39440
601.516	38417
601.585	40323
601.654	41087
601.723	41023
601.792	40424
601.861	41879
601.930	43171
601.999	43957
602.068	41823
602.137	42974
602.206	43253
602.275	43518
602.343	43737
602.412	44063
602.481	42906
602.550	42740
602.619	43910
602.688	44030
602.756	44076
602.825	43250
602.894	45463
602.963	44852
603.032	45960
603.100	44939
603.169	44790
603.238	45234
603.307	44296
603.375	44550
603.444	45713
603.513	45551
603.581	44973
603.650	46811
603.719	42983
603.787	45499
603.856	45944
603.924	47302
603.993	47797
604.061	48601
604.130	49256
604.198	49450
604.267	49983
604.335	51368
604.404	50118
604.472	50830
604.541	51131
604.609	52642
604.678	51959
604.746	52682
604.815	53430
604.883	52642
604.951	53960
605.020	54287
605.088	54458
605.156	54388
605.225	55285
605.293	55190
605.361	55296
605.429	56137
605.498	55163
605.566	56601
605.634	59327
605.702	60713
605.771	62495
605.839	62422
605.907	58741
605.975	59051
606.043	57772
606.111	58814
606.180	58728
606.248	58789
606.316	57729
606.384	59481
606.452	61185
606.520	60033
606.588	58045
606.656	57112
606.724	55657
606.792	53224
606.860	49641
606.928	45288
606.996	44906
607.064	43961
607.132	44413
607.200	47386
607.267	48233
607.335	48215
607.403	49153
607.471	47986
607.539	47495
607.607	46995
607.674	42646
607.742	44375
607.810	42254
607.878	42221
607.946	42621
608.013	45482
608.081	46629
608.149	46355
608.216	46133
608.284	49407
608.352	47956
608.419	49121
608.487	54859
608.555	48082
608.622	47710
608.690	48668
608.757	52969
608.825	53322
608.893	54430
608.960	55059
609.028	56539
609.095	57504
609.163	50391
609.230	45666
609.298	41980
609.365	43601
609.432	46073
609.500	49984
609.567	55029
609.635	61618
609.702	64694
609.769	61282
609.837	51880
609.904	44336
609.971	43331
610.039	48100
610.106	56034
610.173	84619
610.241	159490
610.308	97108
610.375	53535
610.442	46150
610.509	43730
610.577	44628
610.644	46079
610.711	46921
610.778	47253
610.845	49888
610.912	50988
610.980	53834
611.047	54475
611.114	54815
611.181	50261
611.248	50497
611.315	53591
611.382	51882
611.449	54172
611.516	56272
611.583	55257
611.650	56152
611.717	56749
611.784	57220
611.851	60371
611.918	63914
611.984	69245
612.051	88839
612.118	152548
612.185	321609
612.252	188664
612.319	72717
612.386	67174
612.452	64073
612.519	63902
612.586	69895
612.653	63838
612.719	62744
612.786	60325
612.853	58247
612.919	56482
612.986	56841
613.053	53960
613.120	51006
613.186	50666
613.253	52303
613.319	49822
613.386	51149
613.453	52286
613.519	54466
613.586	53513
613.652	60268
613.719	54940
613.785	54531
613.852	51906
613.918	51565
613.985	52366
614.051	54295
614.118	59262
614.184	56270
614.250	50761
614.317	50695
614.383	50931
614.449	51578
614.516	50958
614.582	53276
614.648	51676
614.715	51417
614.781	51389
614.847	53563
614.914	51860
614.980	51910
615.046	50495
615.112	50004
615.179	50987
615.245	52138
615.311	51989
615.377	56493
615.443	55984
615.509	54609
615.575	54256
615.642	53872
615.708	56493
615.774	59573
615.840	64350
615.906	69677
615.972	78810
616.038	111013
616.104	191707
616.170	397081
616.236	301320
616.302	94713
616.368	77736
616.434	64741
616.500	64613
616.565	67124
616.631	72730
616.697	67845
616.763	69020
616.829	85666
616.895	121657
616.961	111414
617.026	67354
617.092	58446
617.158	58113
617.224	57981
617.289	55293
617.355	54410
617.421	55700
617.487	55851
617.552	52419
617.618	51791
617.684	50986
617.749	53598
617.815	48524
617.880	48721
617.946	49351
618.012	51886
618.077	51164
618.143	49906
618.208	49797
618.274	52518
618.339	54485
618.405	48584
618.470	48283
618.536	49679
618.601	53830
618.667	50269
618.732	47172
618.798	46383
618.863	46616
618.928	45380
618.994	48320
619.059	50785
619.124	52922
619.190	49197
619.255	46880
619.320	47939
619.386	46340
619.451	44624
619.516	45508
619.581	45153
619.647	46886
619.712	45588
619.777	45694
619.842	46175
619.907	46512
619.972	47192
620.038	46737
620.103	45924
620.168	43676
620.233	45399
620.298	45158
620.363	44152
620.428	46258
620.493	46961
620.558	45407
620.623	46781
620.688	46592
620.753	45943
620.818	46332
620.883	47220
620.948	45940
621.013	46515
621.078	46191
621.143	47272
621.207	49706
621.272	49683
621.337	51207
621.402	52464
621.467	59407
621.532	60670
621.596	55627
621.661	52450
621.726	49859
621.791	49920
621.855	50918
621.920	51803
621.985	52910
622.049	56423
622.114	54706
622.179	53958
622.243	57516
622.308	55934
622.373	58620
622.437	58543
622.502	54424
622.566	55074
622.631	54056
622.695	55248
622.760	55420
622.824	54224
622.889	54763
622.953	55543
623.018	62648
623.082	60873
623.147	55402
623.211	53365
623.276	53477
623.340	50608
623.404	48989
623.469	51377
623.533	50568
623.597	51290
623.662	50500
623.726	48554
623.790	47253
623.854	48411
623.919	47187
623.983	47776
624.047	49340
624.111	46766
624.176	47961
624.240	52596
624.304	55152
624.368	48489
624.432	48799
624.496	48726
624.560	48204
624.625	49365
624.689	48423
624.753	49468
624.817	48191
624.881	47900
624.945	44401
625.009	44845
625.073	45052
625.137	48154
625.201	49736
625.265	48409
625.329	44830
625.393	45981
625.456	45210
625.520	46467
625.584	48860
625.648	55254
625.712	68439
625.776	111600
625.839	115804
625.903	60976
625.967	45994
626.031	62792
626.095	78382
626.158	47498
626.222	37085
626.286	37007
626.349	35272
626.413	34512
626.477	36617
626.540	34859
626.604	34116
626.668	35337
626.731	33663
626.795	36977
626.858	34712
626.922	34285
626.986	34770
627.049	32724
627.113	33943
627.176	33206
627.240	32579
627.303	32689
627.366	32721
627.430	34044
627.493	33429
627.557	33886
627.620	33454
627.684	33839
627.747	33549
627.810	31019
627.874	31051
627.937	29611
628.000	32983
628.064	31444
628.127	26969
628.190	29987
628.253	28798
628.317	27806
628.380	27296
628.443	28302
628.506	28547
628.569	25734
628.632	26696
628.696	25740
628.759	25526
628.822	25181
628.885	24215
628.948	24929
629.011	25309
629.074	24998
629.137	23202
629.200	25223
629.263	27811
629.326	23154
629.389	22677
629.452	24247
629.515	24571
629.578	23924
629.641	25217
629.704	23661
629.767	23694
629.830	23034
629.892	22334
629.955	21828
630.018	24069
630.081	22029
630.144	24717
630.207	20821
630.269	24670
630.332	24073
630.395	23053
630.458	21161
630.520	20032
630.583	22982
630.646	20946
630.708	20258
630.771	20239
630.834	21120
630.896	20022
630.959	20793
631.021	18615
631.084	21060
631.146	21543
631.209	22989
631.272	19564
631.334	20142
631.397	19096
631.459	18739
631.522	19174
631.584	20392
631.646	20184
631.709	20802
631.771	22003
631.834	21005
631.896	19194
631.958	18139
632.021	19180
632.083	18300
632.145	19982
632.208	19650
632.270	18937
632.332	18630
632.395	17678
632.457	19722
632.519	18139
632.581	20062
632.643	16725
632.706	19289
632.768	17194
632.830	18575
632.892	17621
632.954	18750
633.016	18970
633.078	17422
633.141	17116
633.203	17223
633.265	18045
633.327	17310
633.389	16894
633.451	18812
633.513	19952
633.575	19350
633.637	17608
633.698	17736
633.760	17375
633.822	17959
633.884	17978
633.946	17636
634.008	16896
634.070	17924
634.132	16855
634.193	18088
634.255	17409
634.317	16958
634.379	18136
634.441	17263
634.502	16305
634.564	17205
634.626	15644
634.687	15660
634.749	16126
634.811	16345
634.873	14559
634.934	15818
634.996	16601
635.057	15562
635.119	15650
635.181	16475
635.242	16871
635.304	14479
635.365	17220
635.427	16032
635.488	15554
635.550	15040
635.611	15272
635.673	13743
635.734	16957
635.796	16316
635.857	17090
635.918	16357
635.980	17358
636.041	16105
636.102	16744
636.164	16747
636.225	16532
636.286	15140
636.348	16001
636.409	15575
636.470	14215
636.531	14958
636.593	16034
636.654	16459
636.715	13886
636.776	13787
636.838	13312
636.899	15568
636.960	13987
637.021	13597
637.082	13054
637.143	14116
637.204	12796
637.265	13026
637.326	13921
637.387	13595
637.448	11564
637.509	13621
637.570	13578
637.631	14222
637.692	11993
637.753	10821
637.814	12916
637.875	13385
637.936	13702
637.997	11684
638.058	12335
638.119	14507
638.179	12312
638.240	12288
638.301	12483
638.362	12731
638.423	11979
638.483	14435
638.544	11160
638.605	12394
638.666	11546
638.726	13007
638.787	13173
638.848	12290
638.908	12946
638.969	13328
639.030	11427
639.090	11075
639.151	11605
639.211	12642
639.272	13204
639.332	17248
639.393	13743
639.453	11261
639.514	11303
639.574	11445
639.635	10769
639.695	12819
639.756	10542
639.816	11228
639.877	11642
639.937	16177
639.997	15876
640.058	10961
640.118	10716
640.178	10890
640.239	10470
640.299	11021
640.359	10456
640.420	9931
640.480	11138
640.540	10673
640.600	10652
640.661	10943
640.721	10180
640.781	13109
640.841	9026
640.901	11310
640.961	11443
641.021	11614
641.082	9636
641.142	11893
641.202	11716
641.262	9211
641.322	11213
641.382	9775
641.442	10500
641.502	10044
641.562	11366
641.622	10845
641.682	10277
641.742	11095
641.802	10846
641.861	11723
641.921	10970
641.981	11801
642.041	12574
642.101	12313
642.161	9516
642.221	9224
642.280	10443
642.340	9782
642.400	8929
642.460	11206
642.519	9613
642.579	9687
642.639	11271
642.698	8775
642.758	12214
642.818	10425
642.877	8694
642.937	10857
642.997	10794
643.056	12639
643.116	9096
643.175	11918
643.235	9818
643.294	9995
643.354	10986
643.414	11315
643.473	11268
643.532	12826
643.592	14321
643.651	19198
643.711	28820
643.770	49673
643.830	109788
643.889	207772
643.948	49598
644.008	15134
644.067	10934
644.126	9920
644.186	10048
644.245	9677
644.304	8384
644.363	11347
644.423	7920
644.482	9512
644.541	10098
644.600	7373
644.659	10293
644.719	10671
644.778	13354
644.837	17182
644.896	28605
644.955	53666
645.014	21773
645.073	10656
645.132	9835
645.191	10196
645.250	9340
645.309	11182
645.368	10299
645.427	10338
645.486	11235
645.545	16173
645.604	9273
645.663	9473
645.722	8718
645.781	9630
645.840	9510
645.898	11375
645.957	13792
646.016	15375
646.075	26348
646.134	43637
646.192	109361
646.251	142512
646.310	24738
646.369	11697
646.427	9958
646.486	9457
646.545	8679
646.603	9669
646.662	8570
646.721	8464
646.779	7290
646.838	7372
646.896	9252
646.955	9734
647.014	12402
647.072	16691
647.131	35568
647.189	18227
647.248	7711
647.306	8917
647.365	8702
647.423	6853
647.481	8845
647.540	6084
647.598	7408
647.657	7316
647.715	7595
647.773	6767
647.832	7997
647.890	7281
647.948	7646
648.007	8331
648.065	6490
648.123	7254
648.181	8921
648.240	7858
648.298	6419
648.356	7555
648.414	8225
648.472	7619
648.531	7713
648.589	7451
648.647	6630
648.705	7294
648.763	7197
648.821	7302
648.879	7064
648.937	8771
648.995	8670
649.053	8145
649.111	11734
649.169	14102
649.227	20804
649.285	36312
649.343	89560
649.401	44218
649.459	17127
649.516	12922
649.574	7814
649.632	10992
649.690	11318
649.748	10708
649.806	10623
649.863	14732
649.921	26408
649.979	17923
650.037	8433
650.094	5658
650.152	7353
650.210	6610
650.268	6431
650.325	6645
650.383	6868
650.440	5286
650.498	7062
650.556	6696
650.613	4781
650.671	6818
650.728	7312
650.786	6974
650.843	6349
650.901	5005
650.958	6565
651.016	5046
651.073	6626
651.131	6208
651.188	5333
651.246	6786
651.303	5340
651.360	6540
651.418	5521
651.475	6125
651.532	4450
651.590	5586
651.647	5125
651.704	6785
651.762	5428
651.819	6708
651.876	5692
651.933	6518
651.990	6523
652.048	5195
652.105	6278
652.162	6503
652.219	4140
652.276	5605
652.333	5720
652.390	5159
652.448	5548
652.505	5690
652.562	5273
652.619	5283
652.676	5508
652.733	6219
652.790	5469
652.847	3929
652.904	5055
652.961	4367
653.017	4667
653.074	6285
653.131	6018
653.188	4434
653.245	5552
653.302	5437
653.359	4329
653.415	5208
653.472	4224
653.529	5627
653.586	3902
653.642	4241
653.699	5128
653.756	4524
653.813	4839
653.869	6085
653.926	3123
653.983	5128
654.039	5253
654.096	5341
654.152	5081
654.209	4938
654.266	5453
654.322	4638
654.379	6342
654.435	6729
654.492	6190
654.548	7737
654.605	8858
654.661	6754
654.717	6100
654.774	6208
654.830	5845
654.887	5521
654.943	5198
655.000	6486
655.056	5603
655.112	5763
655.168	4638
655.225	6311
655.281	6219
655.337	7152
655.394	9822
655.450	8613
655.506	7555
655.562	10945
655.618	10577
655.675	4766
655.731	4683
655.787	5317
655.843	5180
655.899	4556
655.955	4834
656.011	5548
656.067	3738
656.123	5041
656.179	4487
656.235	7057
656.291	4021
656.347	5941
656.403	4869
656.459	5444
656.515	5539
656.571	5982
656.627	6016
656.683	5406
656.739	5390
656.795	5735
656.850	4967
656.906	6499
656.962	5583
657.018	4974
657.074	5475
657.129	5731
657.185	6042
657.241	8396
657.297	6651
657.352	5163
657.408	3904
657.464	6185
657.519	5135
657.575	4152
657.630	4945
657.686	4813
657.742	4987
657.797	6041
657.853	5251
657.908	6417
657.964	3583
658.019	5165
658.075	5094
658.130	5081
658.186	3725
658.241	5217
658.297	3935
658.352	5200
658.407	4825
658.463	4435
658.518	5115
658.573	5255
658.629	4195
658.684	4942
658.739	4569
658.795	4354
658.850	4085
658.905	4576
658.960	4932
659.016	4934
659.071	4275
659.126	5308
659.181	4379
659.236	7172
659.291	6764
659.346	5270
659.401	5681
659.457	5547
659.512	5693
659.567	6339
659.622	4855
659.677	5262
659.732	3790
659.787	5590
659.842	6451
659.897	7515
659.952	6365
660.007	5197
660.061	5530
660.116	4815
660.171	4539
660.226	5065
660.281	5344
660.336	4836
660.391	5098
660.445	4653
660.500	5665
660.555	5267
660.610	4284
660.664	5463
660.719	5188
660.774	5766
660.828	4895
660.883	4753
660.938	5348
660.992	4371
661.047	6088
661.101	4777
661.156	5144
661.211	3990
661.265	4438
661.320	4934
661.374	4075
661.429	4763
661.483	5292
661.538	4895
661.592	4708
661.647	5275
661.701	4874
661.755	5369
661.810	4736
661.864	5106
661.919	4972
661.973	5654
662.027	5293
662.081	4867
662.136	3895
662.190	5910
662.244	6018
662.299	5897
662.353	5234
662.407	4796
662.461	5228
662.515	5808
662.569	5562
662.624	6435
662.678	5895
662.732	6312
662.786	4904
662.840	6107
662.894	5522
662.948	5395
663.002	4364
663.056	5282
663.110	4548
663.164	5042
663.218	4702
663.272	5287
663.326	5768
663.380	5399
663.434	6004
663.488	6056
663.542	5939
663.595	5942
663.649	5220
663.703	6244
663.757	5575
663.811	5399
663.864	5376
663.918	5894
663.972	4120
664.026	4508
664.079	5617
664.133	6137
664.187	5550
664.240	4558
664.294	5010
664.348	5476
664.401	4953
664.455	4861
664.508	3973
664.562	5199
664.615	5640
664.669	5244
664.722	4429
664.776	4936
664.829	5093
664.883	6119
664.936	5800
664.990	6189
665.043	6417
665.097	7211
665.150	7906
665.203	5774
665.257	5868
665.310	6733
665.363	7107
665.417	7111
665.470	6732
665.523	6670
665.576	5846
665.630	6801
665.683	6640
665.736	6174
665.789	6706
665.842	5607
665.895	5693
665.949	6228
666.002	5392
666.055	5924
666.108	7317
666.161	6540
666.214	6769
666.267	6693
666.320	7604
666.373	7093
666.426	6228
666.479	6041
666.532	6628
666.585	6811
666.638	7620
666.691	6301
666.744	8096
666.796	6383
666.849	6505
666.902	6528
666.955	5364
667.008	6413
667.060	4876
667.113	4972
667.166	5480
667.219	5579
667.271	6380
667.324	6322
667.377	6188
667.430	5798
667.482	5577
667.535	6278
667.587	6686
667.640	6071
667.693	6478
667.745	8111
667.798	8426
667.850	7841
667.903	6592
667.955	6559
668.008	6735
668.060	7638
668.113	8304
668.165	8024
668.218	8197
668.270	8252
668.322	7598
668.375	7033
668.427	7315
668.479	6750
668.532	7380
668.584	7284
668.636	6220
668.689	7048
668.741	6707
668.793	7458
668.845	6391
668.898	6931
668.950	6378
669.002	7253
669.054	6430
669.106	7071
669.158	7487
669.211	6472
669.263	7152
669.315	7211
669.367	7452
669.419	6836
669.471	6911
669.523	7042
669.575	6934
669.627	6818
669.679	6392
669.731	6865
669.783	6905
669.835	6592
669.886	5756
669.938	6790
669.990	7138
670.042	5620
670.094	6133
670.146	6764
670.197	6868
670.249	7387
670.301	7077
670.353	8526
670.404	8832
670.456	10682
670.508	12845
670.560	17602
670.611	27617
670.663	44484
670.715	102491
670.766	149361
670.818	43375
670.869	11341
670.921	8216
670.972	8406
671.024	7488
671.075	7295
671.127	7697
671.178	6880
671.230	6686
671.281	6424
671.333	7087
671.384	8020
671.436	8534
671.487	9412
671.538	8726
671.590	10381
671.641	11070
671.692	16060
671.744	22884
671.795	16917
671.846	10226
671.897	9172
671.949	8552
672.000	8224
672.051	7464
672.102	8683
672.153	7122
672.204	7421
672.256	7828
672.307	7072
672.358	8252
672.409	7545
672.460	7006
672.511	7508
672.562	7423
672.613	6909
672.664	6323
672.715	7363
672.766	6951
672.817	7314
672.868	6868
672.919	7523
672.970	6497
673.021	6540
673.071	6532
673.122	6524
673.173	6891
673.224	6947
673.275	7299
673.326	7629
673.376	6620
673.427	7018
673.478	6860
673.528	7373
673.579	6687
673.630	7358
673.680	7127
673.731	7205
673.782	6070
673.832	7352
673.883	7851
673.934	7329
673.984	6840
674.035	6466
674.085	6858
674.136	8388
674.186	7330
674.237	7453
674.287	10326
674.338	8071
674.388	7096
674.438	6448
674.489	6042
674.539	6383
674.589	7108
674.640	7799
674.690	6612
674.740	7896
674.791	8433
674.841	7644
674.891	7487
674.942	6779
674.992	7291
675.042	6701
675.092	6297
675.142	6289
675.193	6624
675.243	6364
675.293	6723
675.343	7381
675.393	7203
675.443	7447
675.493	6516
675.543	6086
675.593	7994
675.643	6221
675.693	6411
675.743	7227
675.793	6448
675.843	6158
675.893	6389
675.943	6346
675.993	6688
676.043	6360
676.093	6756
676.142	6664
676.192	6363
676.242	5742
676.292	5350
676.341	6571
676.391	6349
676.441	6221
676.491	6508
676.540	5392
676.590	5708
676.640	5783
676.689	6190
676.739	5447
676.789	6124
676.838	5539
676.888	5680
676.937	5313
676.987	5195
677.037	5732
677.086	4887
677.136	5487
677.185	5381
677.235	5556
677.284	6090
677.333	4888
677.383	4685
677.432	3912
677.482	4760
677.531	5949
677.580	5484
677.630	5781
677.679	4436
677.728	5683
677.778	5239
677.827	4981
677.876	5320
677.925	4923
677.975	6218
678.024	5773
678.073	5597
678.122	7066
678.171	5999
678.220	6186
678.269	7460
678.319	7093
678.368	5942
678.417	6511
678.466	5868
678.515	6942
678.564	6833
678.613	6276
678.662	5615
678.711	6503
678.760	6076
678.809	6303
678.857	5895
678.906	6593
678.955	6210
679.004	6730
679.053	6374
679.102	6089
679.151	5249
679.199	5756
679.248	5421
679.297	6405
679.346	6525
679.394	6134
679.443	5589
679.492	5471
679.540	5454
679.589	7148
679.638	5297
679.686	5834
679.735	5372
679.784	6006
679.832	5791
679.881	5460
679.929	4391
679.978	5315
680.026	4972
680.075	5901
680.123	5368
680.172	5307
680.220	4922
680.268	5420
680.317	4429
680.365	5110
680.414	4558
680.462	5373
680.510	5087
680.559	4434
680.607	4407
680.655	5415
680.703	5099
680.752	4920
680.800	5065
680.848	5051
680.896	4206
680.945	4588
680.993	4676
681.041	4972
681.089	5201
681.137	4184
681.185	4446
681.233	4841
681.258	5255
681.281	5609
681.329	4860
681.377	4127
681.380	4240
681.425	5592
681.473	5609
681.502	5720
681.521	5727
681.569	5505
681.617	5556
681.624	5668
681.665	6117
681.713	5907
681.745	5913
681.761	5862
681.809	5632
681.857	5623
681.867	5589
681.904	5292
681.952	6180
681.989	6012
682.000	5917
682.048	5989
682.096	6072
682.111	6211
682.143	6382
682.191	6483
682.233	7447
682.239	7553
682.286	6780
682.334	6546
682.354	6608
682.382	6617
682.430	6850
682.476	6665
682.477	6628
682.525	6125
682.572	5956
682.598	6299
682.620	6526
682.667	7035
682.715	7125
682.720	7175
682.763	7281
682.810	6516
682.841	6640
682.857	6660
682.905	6384
682.952	7876
682.963	7866
683.000	7680
683.047	7066
683.085	8039
683.095	8275
683.142	6904
683.190	6863
683.206	6982
683.237	7121
683.284	6884
683.328	7794
683.332	7839
683.379	7868
683.426	7166
683.449	7713
683.473	8221
683.521	8179
683.568	7747
683.571	7764
683.615	7701
683.662	8072
683.693	7669
683.709	7382
683.757	7429
683.804	7849
683.814	7920
683.851	8064
683.898	8046
683.936	7853
683.945	7781
683.992	8140
684.039	7806
684.057	8125
684.086	8634
684.133	8715
684.179	8635
684.180	8604
684.227	8435
684.274	9163
684.300	8877
684.321	8603
684.368	8138
684.415	8844
684.422	8832
684.462	8609
684.509	8650
684.543	8455
684.556	8389
684.603	8563
684.649	9509
684.665	9382
684.696	9038
684.743	9237
684.786	9606
684.790	9644
684.837	9364
684.883	10564
684.908	10793
684.930	10811
684.977	10947
685.023	11264
685.029	11225
685.070	10488
685.117	10039
685.150	10046
685.164	10234
685.210	11596
685.257	12118
685.272	12344
685.303	12302
685.350	11327
685.393	11663
685.396	11709
685.443	11634
685.490	12474
685.514	12489
685.536	12300
685.583	12165
685.629	11486
685.636	11473
685.675	11412
685.722	11429
685.757	11192
685.768	11129
685.815	11844
685.861	12282
685.878	12151
685.908	11980
685.954	12762
686.000	13238
686.000	13246
686.047	13948
686.093	15375
686.121	16029
686.139	15750
686.185	14388
686.232	13592
686.242	13342
686.278	12836
686.324	12211
686.363	11930
686.370	11929
686.416	11977
686.463	12818
686.484	12718
686.509	12487
686.555	11860
686.601	11653
686.606	11706
686.647	12342
686.693	12240
686.727	12377
686.739	12439
686.785	12449
686.831	12484
686.848	12406
686.877	12070
686.923	11674
686.969	11773
686.969	11775
687.015	11918
687.061	12498
687.090	12948
687.107	13044
687.153	12708
687.199	12214
687.211	12267
687.245	12642
687.291	12195
687.332	12575
687.336	12631
687.382	13350
687.428	12653
687.453	13344
687.474	13440
687.520	12856
687.565	11785
687.574	11726
687.611	12372
687.657	12516
687.695	12932
687.702	12993
687.748	13119
687.794	13928
687.816	13839
687.839	13358
687.885	12759
687.931	11974
687.937	11981
687.976	12703
688.022	12533
688.058	13217
688.067	13348
688.113	13575
688.158	13129
688.179	13296
688.204	13563
688.249	13880
688.295	14165
688.300	14177
688.340	14356
688.386	14102
688.421	14465
688.431	14498
688.477	13985
688.522	14436
688.542	14116
688.567	13849
688.613	14223
688.658	13887
688.663	13932
688.703	14361
688.749	14040
688.784	14186
688.794	14231
688.839	14503
688.884	14279
688.905	14059
688.930	13652
688.975	13465
689.020	13146
689.026	13169
689.065	13983
689.110	13778
689.146	14316
689.155	14352
689.201	13468
689.246	13615
689.267	13579
689.291	13828
689.336	14650
689.381	13852
689.388	13954
689.426	14357
689.471	14419
689.509	14603
689.516	14630
689.561	14568
689.606	13867
689.630	13983
689.651	14176
689.696	14119
689.741	13868
689.750	13828
689.785	13693
689.830	13837
689.871	13387
689.875	13357
689.920	13415
689.965	13807
689.992	13567
690.010	13581
690.054	13808
690.099	13858
690.112	14003
690.144	14115
690.189	13923
690.233	13632
690.233	13649
690.278	13263
690.323	13651
690.354	13668
690.367	13691
690.412	13609
690.457	13762
690.474	13934
690.501	14127
690.546	13394
690.590	13527
690.595	13519
690.635	13929
690.680	14435
690.716	14218
690.724	14162
690.769	14441
690.813	14677
690.836	14487
690.857	14629
690.902	15034
690.946	16445
690.957	16480
690.991	17125
691.035	18294
691.077	19851
691.080	19885
691.124	19203
691.168	18750
691.198	18528
691.213	18425
691.257	17797
691.301	17591
691.318	17232
691.346	16339
691.390	15407
691.434	14271
691.439	14136
691.478	14677
691.522	15117
691.559	15604
691.567	15660
691.611	15698
691.655	16038
691.680	15901
691.699	15861
691.743	16241
691.787	16151
691.800	16134
691.831	16294
691.875	16510
691.919	16923
691.921	16892
691.964	16789
692.008	17647
692.041	17428
692.052	17336
692.096	17490
692.139	17448
692.162	17385
692.183	17233
692.227	17201
692.271	16640
692.282	16512
692.315	16683
692.359	17101
692.402	17203
692.403	17233
692.447	16901
692.490	17109
692.523	17321
692.534	17529
692.578	17812
692.622	18083
692.643	18147
692.666	17685
692.709	17221
692.753	16153
692.763	15944
692.797	16023
692.840	15874
692.884	16127
692.884	16163
692.928	16716
692.971	17178
693.004	17466
693.015	17435
693.059	17119
693.102	16862
693.124	16679
693.146	16776
693.189	16989
693.233	17170
693.245	17170
693.276	17390
693.320	17919
693.363	17779
693.365	17772
693.407	18484
693.450	18250
693.485	18338
693.493	18431
693.537	18923
693.580	19313
693.605	19539
693.624	19824
693.667	20127
693.710	20566
693.725	20706
693.753	22729
693.797	25825
693.840	28979
693.845	29323
693.883	28015
693.926	25745
693.966	24080
693.970	23892
694.013	21495
694.056	18869
694.086	17113
694.099	17292
694.142	17714
694.185	18373
694.206	18350
694.229	18250
694.272	18538
694.315	18649
694.326	18716
694.358	18962
694.401	18738
694.444	18929
694.446	18881
694.487	18658
694.530	18821
694.566	18574
694.573	18429
694.616	17112
694.659	16208
694.686	15573
694.702	15661
694.745	15559
694.787	15701
694.806	15701
694.830	15839
694.873	16044
694.916	15988
694.926	16034
694.959	16165
695.002	16265
695.044	15958
695.046	15919
695.087	16582
695.130	17332
695.166	17855
695.172	17906
695.215	17847
695.258	17863
695.286	17853
695.301	17858
695.343	17740
695.386	17782
695.406	17659
695.428	17481
695.471	17125
695.514	16731
695.526	16592
695.556	16860
695.599	17209
695.641	17452
695.646	17448
695.684	17322
695.726	17233
695.766	16859
695.769	16908
695.811	17264
695.854	17442
695.886	17780
695.896	17714
695.938	16778
695.981	16113
696.005	15651
696.023	15829
696.065	16261
696.108	16699
696.125	16865
696.150	17183
696.192	17504
696.235	17838
696.245	17889
696.277	17521
696.319	16923
696.361	16320
696.365	16237
696.404	16572
696.446	16805
696.485	16960
696.488	17034
696.530	17508
696.572	17987
696.604	18269
696.614	18227
696.656	17949
696.698	17511
696.724	17281
696.740	17341
696.783	17303
696.825	17316
696.844	17249
696.867	17266
696.909	17209
696.951	17134
696.964	17133
696.992	17184
697.034	17003
697.076	16981
697.083	16886
697.118	17069
697.160	17531
697.202	17918
697.203	17879
697.244	17485
697.286	17235
697.323	16844
697.327	16870
697.369	16812
697.411	16679
697.442	16539
697.453	16713
697.494	17269
697.536	17831
697.562	18159
697.578	18172
697.620	17999
697.661	17854
697.682	17725
697.703	17879
697.744	18114
697.786	18465
697.801	18482
697.828	18521
697.869	18556
697.911	18632
697.921	18586
697.952	18266
697.994	17825
698.035	17391
698.040	17292
698.077	16974
698.118	16508
698.160	16169
698.160	16126
698.201	16439
698.243	16752
698.279	16968
698.284	17050
698.325	17414
698.367	17765
698.399	17993
698.408	17912
698.449	17291
698.491	16716
698.518	16276
698.532	16484
698.573	17000
698.614	17499
698.638	17747
698.656	17907
698.697	18144
698.738	18406
698.757	18479
698.779	18585
698.820	18691
698.862	18794
698.877	18786
698.903	19156
698.944	19664
698.985	20169
698.996	20258
699.026	20065
699.067	19724
699.116	19267
699.235	17564
699.354	18171
699.474	18582
699.593	21757
699.713	20392
699.832	17431
699.951	19074
700.070	17655
700.190	17113
700.309	17060
700.428	20487
700.547	17483
700.667	18092
700.786	20260
700.905	16423
701.024	18422
701.143	17146
701.262	15691
701.381	15592
701.500	16251
701.619	16523
701.738	14765
701.857	16152
701.976	15076
702.095	14788
702.214	16927
702.333	16504
702.452	15441
702.571	15144
702.690	13827
702.809	15217
702.928	13884
703.047	15251
703.165	14398
703.284	13891
703.403	15159
703.522	16873
703.640	16626
703.759	18905
703.878	27818
703.997	16221
704.115	14715
704.234	13833
704.353	13901
704.471	13332
704.590	13105
704.708	12594
704.827	12805
704.946	13983
705.064	15723
705.183	14550
705.301	19943
705.420	30481
705.538	25628
705.656	21031
705.775	19661
705.893	25364
706.012	28758
706.130	22024
706.249	21205
706.367	22361
706.485	24001
706.604	22584
706.722	23106
706.840	26286
706.958	25232
707.077	21140
707.195	20200
707.313	19280
707.431	19441
707.549	19349
707.668	18951
707.786	21456
707.904	18042
708.022	18077
708.140	18448
708.258	17373
708.376	19122
708.494	18631
708.612	21963
708.730	34090
708.848	30767
708.966	28152
709.084	25547
709.202	24968
709.320	26911
709.438	27120
709.556	27036
709.674	26613
709.791	26596
709.909	24585
710.027	23989
710.145	23914
710.263	25365
710.380	24872
710.498	24267
710.616	23895
710.733	23792
710.851	24796
710.969	24383
711.086	23594
711.204	23436
711.322	23613
711.439	23106
711.557	24496
711.674	22935
711.792	22578
711.909	21923
712.027	22092
712.144	21222
712.262	22395
712.379	26622
712.497	40012
712.614	37546
712.732	30605
712.849	28780
712.966	31970
713.084	35927
713.201	31339
713.318	31470
713.436	30146
713.553	29978
713.670	31377
713.787	33816
713.905	33837
714.022	29550
714.139	28949
714.256	31656
714.373	33685
714.490	42457
714.608	78006
714.725	274604
714.842	266283
714.959	36372
715.076	28865
715.193	26073
715.310	26888
715.427	25606
715.544	24253
715.661	26034
715.778	25018
715.895	28456
716.011	28132
716.128	25311
716.245	24552
716.362	25586
716.479	27292
716.596	24153
716.713	23986
716.829	23805
716.946	23646
717.063	22502
717.180	21477
717.296	22057
717.413	22789
717.530	21734
717.646	20790
717.763	21530
717.880	20065
717.996	20311
718.113	21389
718.229	21546
718.346	19969
718.462	20621
718.579	24201
718.695	33259
718.812	29659
718.928	29864
719.045	22840
719.161	18875
719.277	18487
719.394	18737
719.510	20646
719.626	19380
719.743	25605
719.859	24747
719.975	32262
720.092	85553
720.208	170530
720.324	32625
720.440	21610
720.557	23443
720.673	30296
720.789	44133
720.905	95361
721.021	32262
721.137	19768
721.253	19920
721.369	20495
721.486	23561
721.602	31582
721.718	19064
721.834	16570
721.950	16771
722.066	16684
722.181	15319
722.297	17679
722.413	15745
722.529	16451
722.645	14526
722.761	15424
722.877	15309
722.993	15468
723.108	16585
723.224	15678
723.340	16109
723.456	14689
723.571	15594
723.687	14520
723.803	14187
723.918	13460
724.034	15021
724.150	15239
724.265	17405
724.381	37080
724.497	44505
724.612	14889
724.728	12863
724.843	13641
724.959	16817
725.074	35733
725.190	37785
725.305	16284
725.421	13486
725.536	12749
725.651	12729
725.767	11536
725.882	11589
725.997	12217
726.113	13086
726.228	11964
726.343	12434
726.459	11545
726.574	13285
726.689	11817
726.804	11317
726.920	12544
727.035	12128
727.150	13303
727.265	11555
727.380	12133
727.495	11124
727.610	9651
727.725	11280
727.841	11224
727.956	13669
728.071	15439
728.186	10791
728.301	9759
728.416	11358
728.531	10711
728.645	9700
728.760	10574
728.875	9949
728.990	10176
729.105	10775
729.220	10228
729.335	9760
729.449	8948
729.564	9119
729.679	9161
729.794	8025
729.908	11206
730.023	10879
730.138	7973
730.253	9607
730.367	9229
730.482	8686
730.596	9202
730.711	9419
730.826	9303
730.940	8763
731.055	9715
731.169	7859
731.284	8301
731.398	9256
731.513	9935
731.627	10501
731.742	12822
731.856	13338
731.970	9070
732.085	9817
732.199	10966
732.313	14107
732.428	30976
732.542	89652
732.656	51687
732.771	12259
732.885	9649
732.999	10307
733.113	11174
733.227	9746
733.342	8364
733.456	9089
733.570	7773
733.684	8338
733.798	9845
733.912	8361
734.026	7777
734.140	8138
734.254	9645
734.368	19821
734.482	22028
734.596	8719
734.710	8091
734.824	7919
734.938	8412
735.052	7742
735.166	9207
735.280	8923
735.393	7330
735.507	7988
735.621	12454
735.735	24071
735.849	9438
735.962	7743
736.076	8954
736.190	9516
736.303	13451
736.417	17544
736.531	8534
736.644	8633
736.758	6849
736.872	6844
736.985	6667
737.099	6276
737.212	5533
737.326	6635
737.439	7092
737.553	5909
737.666	6273
737.780	5773
737.893	6805
738.007	5505
738.120	5826
738.233	6133
738.347	5837
738.460	6393
738.573	7200
738.687	6636
738.800	6681
738.913	7614
739.026	6187
739.140	6466
739.253	5606
739.366	5560
739.479	6029
739.592	6385
739.705	6138
739.818	6952
739.932	5379
740.045	6268
740.158	5825
740.271	6369
740.384	5675
740.497	5570
740.610	5646
740.723	5592
740.836	6535
740.949	6161
741.062	7886
741.174	7589
741.287	6379
741.400	5072
741.513	5080
741.626	6269
741.739	5845
741.851	5749
741.964	4658
742.077	5275
742.189	5461
742.302	6059
742.415	4997
742.527	5700
742.640	4982
742.753	4890
742.865	4408
742.978	4645
743.090	4766
743.203	5905
743.316	5904
743.428	4641
743.541	4685
743.653	4704
743.766	4669
743.878	4822
743.990	8254
744.103	6646
744.215	4916
744.327	5105
744.440	6782
744.552	9082
744.664	5555
744.777	4581
744.889	4381
745.001	4665
745.113	4580
745.226	4033
745.338	6167
745.450	5365
745.562	4615
745.674	4509
745.786	4476
745.898	4873
746.010	4219
746.122	3848
746.234	4065
746.347	4655
746.459	5041
746.570	4007
746.682	5021
746.794	4309
746.906	4083
747.018	4398
747.130	4247
747.242	3871
747.354	4676
747.466	4302
747.577	4978
747.689	5022
747.801	4395
747.913	3905
748.024	2771
748.136	4746
748.248	3702
748.359	4378
748.471	4773
748.583	4254
748.694	3495
748.806	5632
748.918	6674
749.029	4824
749.141	5693
749.252	4428
749.364	6157
749.475	10639
749.587	7981
749.698	4122
749.809	3437
749.921	3895
750.032	4104
750.144	3324
750.255	3700
750.366	3797
750.478	4374
750.589	4425
750.700	4414
750.811	3633
750.923	5524
751.034	11204
751.145	10262
751.256	3833
751.367	3861
751.479	3031
751.590	3124
751.701	3070
751.812	2588
751.923	3528
752.034	3050
752.145	3011
752.256	4119
752.367	2364
752.478	2957
752.589	3153
752.700	3624
752.811	3391
752.922	3705
753.032	4099
753.143	3634
753.254	2513
753.365	3818
753.476	3064
753.586	2336
753.697	3095
753.808	3544
753.919	2885
754.029	3008
754.140	3275
754.251	3018
754.361	3798
754.472	4121
754.582	3171
754.693	3350
754.804	3012
754.914	2693
755.025	3000
755.135	2953
755.246	3376
755.356	3091
755.466	3521
755.577	3518
755.687	3668
755.798	2924
755.908	2968
756.018	2980
756.129	3185
756.239	3021
756.349	3315
756.460	3372
756.570	3541
756.680	2642
756.790	4000
756.900	4083
757.011	2591
757.121	3011
757.231	2405
757.341	2697
757.451	3138
757.561	3060
757.671	2599
757.781	2386
757.891	2970
758.001	3141
758.111	3503
758.221	3996
758.331	3942
758.441	3149
758.551	5447
758.661	5016
758.771	4121
758.880	4574
758.990	3910
759.100	3848
759.210	4562
759.320	3385
759.429	3759
759.539	3658
759.649	3684
759.758	3939
759.868	4087
759.978	4276
760.087	4200
760.197	4627
760.307	4384
760.416	3523
760.526	3387
760.635	3903
760.745	3965
760.854	3389
760.964	3781
761.073	4709
761.182	4008
761.292	4484
761.401	5690
761.511	3998
761.620	3076
761.729	4868
761.839	3975
761.948	4467
762.057	4613
762.166	3815
762.276	3697
762.385	4721
762.494	4481
762.603	3601
762.712	5260
762.822	4528
762.931	4164
763.040	4328
763.149	4402
763.258	4379
763.367	4008
763.476	4707
763.585	4001
763.694	4110
763.803	5047
763.912	5567
764.021	4246
764.130	4593
764.238	5457
764.347	4826
764.456	4497
764.565	5045
764.674	5486
764.783	4417
764.891	4778
765.000	5629
765.109	5541
765.217	6114
765.326	8165
765.435	10497
765.543	9538
765.652	10270
765.761	12226
765.869	17560
765.978	27366
766.086	47799
766.195	97966
766.303	252681
766.412	588648
766.520	439131
766.629	142336
766.737	55281
766.846	31510
766.954	21445
767.062	17854
767.171	14835
767.279	12105
767.387	9740
767.496	8292
767.604	8487
767.712	7784
767.820	7507
767.928	8252
768.037	6410
768.145	7599
768.253	8381
768.361	6320
768.469	6860
768.577	6408
768.685	7466
768.793	6977
768.901	6928
769.009	7479
769.117	7706
769.225	9819
769.333	14050
769.441	21477
769.549	39156
769.657	91324
769.765	285029
769.873	465373
769.981	166569
770.088	43136
770.196	22172
770.304	14951
770.412	13287
770.519	9884
770.627	8808
770.735	7944
770.842	6842
770.950	6657
771.058	6845
771.165	6553
771.273	7237
771.380	6687
771.488	6394
771.595	6085
771.703	5984
771.810	6347
771.918	5964
772.025	6454
772.133	6073
772.240	5963
772.348	6800
772.455	6415
772.562	6496
772.670	5912
772.777	6834
772.884	4424
772.991	5166
773.099	4759
773.206	4715
773.313	5093
773.420	5100
773.528	4185
773.635	4393
773.742	5186
773.849	4990
773.956	5418
774.063	4890
774.170	4211
774.277	5966
774.384	4774
774.491	4325
774.598	5529
774.705	4633
774.812	6134
774.919	6022
775.026	5282
775.133	5678
775.239	4762
775.346	5263
775.453	5111
775.560	4696
775.667	5275
775.773	4244
775.880	4734
775.987	5715
776.093	3530
776.200	4896
776.307	4647
776.413	4989
776.520	3547
776.627	4647
776.733	4040
776.840	3787
776.946	5535
777.053	4676
777.159	3957
777.266	3066
777.372	4243
777.478	4117
777.585	4946
777.691	3948
777.798	4751
777.904	5051
778.010	6156
778.117	5576
778.223	5106
778.329	5387
778.435	4178
778.542	5065
778.648	4300
778.754	3482
778.860	4495
778.966	5245
779.072	3661
779.178	4275
779.284	4126
779.391	3629
779.497	2932
779.603	5422
779.708	3659
779.815	6397
779.920	13706
780.026	19892
780.132	5288
780.238	3104
780.344	4162
780.450	4058
780.556	3745
780.661	2850
780.767	3570
780.873	3008
780.979	4833
781.085	3215
781.190	4642
781.296	2852
781.402	2811
781.507	3259
781.613	3799
781.719	3259
781.824	4467
781.930	3911
782.035	3584
782.141	3492
782.246	4528
782.352	3418
782.457	2795
782.563	3199
782.668	3504
782.773	3897
782.879	2673
782.984	4117
783.090	4512
783.195	5530
783.300	4845
783.405	3974
783.511	3240
783.616	4354
783.721	3848
783.826	3198
783.932	4237
784.037	3935
784.142	3572
784.247	3515
784.352	3565
784.457	3814
784.562	4035
784.667	2711
784.772	3873
784.877	3428
784.982	3060
785.087	2769
785.192	3430
785.297	3470
785.402	2969
785.507	2318
785.611	3476
785.716	3285
785.821	2688
785.926	3330
786.031	3222
786.135	3477
786.240	3001
786.345	2552
786.450	3748
786.554	3393
786.659	2572
786.763	1549
786.868	3218
786.973	3917
787.077	2875
787.182	2700
787.286	2391
787.391	3381
787.495	2114
787.600	2831
787.704	1790
787.809	3283
787.913	2270
788.017	3021
788.122	2418
788.226	3417
788.330	2123
788.435	3060
788.539	2747
788.643	2471
788.747	2679
788.852	2279
788.956	1890
789.060	2568
789.164	2151
789.268	2068
789.372	2368
789.476	2155
789.580	1494
789.684	1775
789.788	2264
789.892	2127
789.996	2961
790.100	2004
790.204	2841
790.308	2138
790.412	2163
790.516	2058
790.620	1834
790.724	2593
790.828	2574
790.931	1373
791.035	3035
791.139	2199
791.242	1921
791.346	3126
791.450	2146
791.554	2409
791.657	1634
791.761	2521
791.864	2958
791.968	2656
792.072	2609
792.175	2312
792.279	2430
792.382	2563
792.486	2648
792.589	2514
792.693	2483
792.796	1760
792.899	2644
793.003	2233
793.106	772
793.209	1744
793.313	3342
793.416	1052
793.519	3254
793.623	3920
793.726	4735
793.829	1949
793.932	1894
794.035	1854
794.138	2489
794.242	2361
794.345	2558
794.448	3511
794.551	4674
794.654	7213
794.757	9978
794.860	4895
794.963	3292
795.066	1145
795.169	2600
795.272	1319
795.375	2198
795.477	1699
795.580	1863
795.683	609
795.786	800
795.889	1041
795.991	2785
796.094	2896
796.197	2086
796.300	2314
796.402	1088
796.505	1014
796.608	1544
796.710	2131
796.813	1841
796.915	1554
797.018	2235
797.120	1704
797.223	293
797.326	2884
797.428	1691
797.530	1532
797.633	1601
797.735	3092
797.838	6014
797.940	4626
798.042	1015
798.145	1577
798.247	1842
798.349	517
798.452	1901
798.554	1098
798.656	648
798.758	2029
798.860	1232
798.962	1330
799.065	1389
799.167	845
799.269	2700
799.371	2422
799.473	2737
799.575	3182
799.677	3375
799.779	3664
799.881	3449
799.983	2354
800.085	1630
800.187	2048
800.289	629
800.390	1940
800.492	1760
800.594	1943
800.696	1042
800.798	1537
800.899	443
801.001	1079
801.103	1028
801.205	1149
801.306	1448
801.408	620
801.509	958
801.611	1726
801.713	1778
801.814	1325
801.916	979
802.017	906
802.119	407
802.220	1568
802.322	504
802.423	4360
802.525	1805
802.626	1515
802.727	1804
802.829	1971
802.930	-406
803.031	2620
803.133	1284
803.234	1754
803.335	595
803.436	21
803.538	1135
803.639	233
803.740	1351
803.841	661
803.942	1202
804.043	2112
804.144	1065
804.245	1303
804.346	-492
804.447	1516
804.548	2502
804.649	3074
804.750	1119
804.851	706
804.952	986
805.053	829
805.154	-419
805.255	1485
805.355	385
805.456	487
805.557	-757
805.658	-88
805.758	1155
805.859	775
805.960	910
806.061	113
806.161	955
806.262	1564
806.362	766
806.463	1116
806.564	1248
806.664	1308
806.765	2665
806.865	2789
806.966	967
807.066	345
807.166	1692
807.267	1567
807.367	-449
807.468	1130
807.568	-662
807.668	1711
807.769	312
807.869	264
807.969	746
808.069	1235
808.170	630
808.270	829
808.370	2162
808.470	2289
808.570	647
808.670	-48
808.770	806
808.870	681
808.970	1081
809.070	750
809.170	527
809.271	1221
809.370	905
809.470	311
809.570	808
809.670	473
809.770	865
809.870	595
809.970	488
810.070	233
810.169	713
810.269	-776
810.369	1644
810.469	372
810.568	-527
810.668	-278
810.768	572
810.867	851
810.967	381
811.066	125
811.166	163
811.265	1021
811.365	-594
811.464	797
811.564	455
811.663	577
811.763	-317
811.862	345
811.962	1372
812.061	-48
812.160	-307
812.260	-193
812.359	-24
812.458	-73
812.557	681
812.657	526
812.756	787
812.855	397
812.954	602
813.053	115
813.153	1027
813.252	-16
813.351	1014
813.450	-37
813.549	275
813.648	839
813.747	128
813.846	1136
813.945	742
814.044	807
814.143	355
814.242	426
814.341	-44
814.439	902
814.538	362
814.637	543
814.736	604
814.835	1373
814.933	186
815.032	961
815.131	798
815.229	1005
815.328	1350
815.427	1349
815.525	981
815.624	1355
815.722	737
815.821	1290
815.919	653
816.018	118
816.116	1113
816.215	1002
816.313	1233
816.412	935
816.510	1383
816.609	2754
816.707	1960
816.805	1342
816.904	888
817.002	1794
817.100	2569
817.198	2170
817.296	1223
817.395	2134
817.493	3393
817.591	2298
817.689	3796
817.787	3992
817.885	7452
817.983	14074
818.081	28522
818.179	74548
818.277	191443
818.375	149682
818.473	32833
818.571	12575
818.669	9517
818.767	7224
818.865	8165
818.963	9164
819.061	13150
819.158	25251
819.256	58559
819.354	142137
819.452	312209
819.549	184168
819.647	43497
819.745	16306
819.842	10862
819.940	7122
820.038	6154
820.135	4465
820.233	4232
820.330	3125
820.428	1777
820.525	3267
820.623	2067
820.720	2191
820.818	2303
820.915	2142
821.012	1012
821.110	-40
821.207	2078
821.304	797
821.402	1443
821.499	2318
821.596	1382
821.693	1440
821.791	2146
821.888	2092
821.985	5714
822.082	4072
822.179	1492
822.276	1160
822.373	364
822.470	864
822.567	1118
822.664	98
822.761	1422
822.858	-521
822.955	702
823.052	860
823.149	1299
823.246	1018
823.343	-10
823.440	1176
823.536	-181
823.633	613
823.730	57
823.827	796
823.923	378
824.020	951
824.117	206
824.213	-1099
824.310	-108
824.407	-235
824.503	672
824.600	347
824.696	28
824.793	1483
824.889	-6
824.986	322
825.082	286
825.179	707
825.275	620
825.371	-483
825.468	388
825.564	-420
825.660	1133
825.757	680
825.853	787
825.949	-216
826.045	791
826.142	-235
826.238	180
826.334	602
826.430	-337
826.526	636
826.622	-953
826.718	368
826.814	1069
826.910	1300
827.006	-397
827.102	355
827.198	1065
827.294	360
827.390	-4
827.486	1042
827.582	-1081
827.678	-957
827.774	642
827.869	-859
827.965	1149
828.061	-840
828.157	701
828.252	577
828.348	-396
828.444	1586
828.539	-424
828.635	-779
828.731	399
828.826	-108
828.922	209
829.017	76
829.113	805
829.208	399
829.304	-1057
829.399	1042
829.495	-201
829.590	1384
829.685	-435
829.781	742
829.876	-740
829.971	167
830.066	-42
830.162	307
830.257	-102
830.352	1147
830.447	838
830.543	950
830.638	367
830.733	1386
830.828	75
830.923	719
831.018	148
831.113	590
831.208	-263
831.303	455
831.398	563
831.493	488
831.588	502
831.683	-814
831.778	-63
831.873	428
831.967	592
832.062	-611
832.157	-680
832.252	1028
832.346	153
832.441	1012
832.536	1103
832.631	4899
832.725	3380
832.820	399
832.914	163
833.009	217
833.104	240
833.198	1046
833.293	-134
833.387	760
833.482	-3
833.576	4
833.670	1129
833.765	30
833.859	723
833.954	1035
834.048	-596
834.142	895
834.237	-908
834.331	261
834.425	456
834.519	1
834.613	173
834.708	-159
834.802	390
834.896	-397
834.990	52
835.084	418
835.178	179
835.272	160
835.366	273
835.460	299
835.554	659
835.648	861
835.742	-783
835.836	-466
835.930	-1571
836.024	659
836.117	1118
836.211	407
836.305	2807
836.399	3400
836.493	-17
836.586	1000
836.680	-270
836.774	-760
836.867	393
836.961	127
837.055	-373
837.148	-539
837.242	444
837.335	-215
837.429	289
837.522	283
837.616	1237
837.709	3869
837.803	2626
837.896	1192
837.989	-26
838.083	2379
838.176	5702
838.269	5121
838.363	506
838.456	107
838.549	1458
838.642	2362
838.735	5918
838.829	2464
838.922	-77
839.015	28
839.108	-307
839.201	739
839.294	-129
839.387	793
839.480	182
839.573	1412
839.666	2856
839.759	845
839.852	-379
839.945	98
840.038	-189
840.131	-474
840.223	-140
840.316	-246
840.409	-255
840.502	-986
840.594	897
840.687	-1113
840.780	-217
840.873	375
840.965	489
841.058	2677
841.150	4813
841.243	3055
841.336	997
841.428	435
841.521	-357
841.613	-480
841.706	581
841.798	-638
841.890	-189
841.983	-961
842.075	678
842.167	456
842.260	512
842.352	2314
842.444	2371
842.537	6341
842.629	8861
842.721	1025
842.813	47
842.905	-563
842.997	670
843.090	495
843.182	3110
843.274	7191
843.366	15288
843.458	29819
843.550	17726
843.642	1778
843.734	826
843.826	1248
843.918	1975
844.009	925
844.101	-648
844.193	120
844.285	-339
844.377	491
844.469	1267
844.560	-758
844.652	-89
844.744	7
844.835	100
844.927	153
845.019	1267
845.110	597
845.202	291
845.293	72
845.385	-1131
845.476	-320
845.568	647
845.659	563
845.751	141
845.842	-989
845.934	-231
846.025	140
846.116	770
846.208	-94
846.299	-364
846.390	-134
846.482	359
846.573	1166
846.664	1736
846.755	2093
846.846	2174
846.937	-1173
847.029	-288
847.120	-774
847.211	-246
847.302	1150
847.393	-902
847.484	144
847.575	-441
847.666	-287
847.757	647
847.847	747
847.938	-436
848.029	-892
848.120	-381
848.211	720
848.302	-802
848.392	-231
848.483	-27
848.574	-343
848.664	-234
848.755	-131
848.846	292
848.936	-738
849.027	-223
849.118	-325
849.208	-867
849.299	463
849.389	708
849.480	2685
849.570	5283
849.661	10674
849.751	19783
849.841	6451
849.932	453
850.022	-328
850.112	492
850.203	-837
850.293	362
850.383	-631
850.474	-317
850.564	-680
850.654	-305
850.744	-53
850.834	391
850.924	-595
851.014	90
851.104	66
851.194	-317
851.284	53
851.374	605
851.464	115
851.554	950
851.644	911
851.734	1810
851.824	2143
851.914	275
852.004	608
852.094	-953
852.183	-501
852.273	-174
852.363	-1018
852.452	-198
852.542	-311
852.632	-716
852.721	101
852.811	-421
852.901	-147
852.990	-99
853.080	-192
853.169	-248
853.259	-200
853.348	421
853.438	635
853.527	1231
853.617	1465
853.706	4003
853.795	6660
853.885	18422
853.974	35099
854.063	65188
854.152	106897
854.242	37518
854.331	4532
854.420	1675
854.509	1240
854.598	1080
854.687	1038
854.777	1740
854.866	232
854.955	796
855.044	40
855.133	-805
855.222	256
855.311	-285
855.400	-224
855.488	-561
855.577	-347
855.666	-86
855.755	-4
855.844	133
855.933	-289
856.021	-448
856.110	-336
856.199	-547
856.288	-157
856.376	-414
856.465	-757
856.554	-298
856.642	-394
856.731	-200
856.819	315
856.908	-404
856.996	-715
857.085	-1163
857.173	-15
857.262	-119
857.350	188
857.438	-747
857.527	-7
857.615	-916
857.703	-34
857.792	-776
857.880	186
857.968	-614
858.056	-678
858.145	-178
858.233	196
858.321	-1222
858.409	559
858.497	-1731
858.585	-1175
858.673	253
858.761	-768
858.849	-238
858.937	-350
859.025	-264
859.113	72
859.201	-1508
859.289	390
859.377	-1256
859.465	-73
859.552	-372
859.640	62
859.728	383
859.816	-623
859.903	230
859.991	-669
860.079	-52
860.166	135
860.254	-732
860.342	-706
860.429	-699
860.517	-476
860.604	0
860.692	-188
860.779	79
860.867	-746
860.954	-600
861.042	-103
861.129	184
861.216	323
861.304	-280
861.391	-394
861.478	-256
861.565	-831
861.653	314
861.740	-1332
861.827	-298
861.914	571
862.001	-713
862.089	-624
862.176	-253
862.263	-871
862.350	-76
862.437	-351
862.524	-448
862.611	-742
862.698	-353
862.785	55
862.871	-980
862.958	25
863.045	-648
863.132	-568
863.219	-819
863.306	-1425
863.392	119
863.479	-314
863.566	-678
863.652	-355
863.739	-281
863.826	-130
863.912	-533
863.999	-939
864.086	-580
864.172	-257
864.259	-308
864.345	-167
864.432	-75
864.518	-517
864.604	-96
864.691	-136
864.777	-44
864.863	-331
864.950	895
865.036	-767
865.122	286
865.209	1662
865.295	513
865.381	848
865.467	661
865.553	1733
865.639	751
865.726	3703
865.812	8228
865.898	18759
865.984	27724
866.070	52673
866.156	58357
866.242	13014
866.328	3408
866.414	672
866.499	613
866.585	586
866.671	-27
866.757	1322
866.843	289
866.928	8
867.014	229
867.100	1338
867.186	360
867.271	991
867.357	2073
867.442	2609
867.528	1163
867.614	95
867.699	697
867.785	499
867.870	79
867.956	818
868.041	388
868.127	191
868.212	1813
868.297	516
868.383	599
868.468	1273
868.553	2393
868.639	2552
868.724	6623
868.809	5810
868.894	787
868.979	444
869.065	862
869.150	-699
869.235	409
869.320	250
869.405	-554
869.490	91
869.575	-126
869.660	281
869.745	290
869.830	-824
869.915	27
870.000	-319
870.085	79
870.169	-415
870.254	-670
870.339	-829
870.424	-485
870.509	214
870.593	402
870.678	-144
870.763	99
870.847	-174
870.932	-920
871.016	91
871.101	-477
871.186	-425
871.270	259
871.355	-829
871.439	312
871.523	-330
871.608	-633
871.692	-159
871.777	382
871.861	298
871.945	-113
872.030	299
872.114	461
872.198	-627
872.282	328
872.367	-277
872.451	-323
872.535	-780
872.619	-395
872.703	-281
872.787	-76
872.871	-353
872.955	-489
873.039	-1316
873.123	18
873.207	703
873.291	393
873.375	-982
873.459	-68
873.543	-772
873.627	-240
873.711	-968
873.794	-94
873.878	-496
873.962	-837
874.045	-1059
874.129	-593
874.137	-519
874.213	213
874.245	-52
874.296	-478
874.352	-701
874.380	-817
874.460	-846
874.464	-847
874.547	-317
874.568	-462
874.631	-907
874.676	-635
874.714	-401
874.784	-273
874.798	-254
874.881	407
874.892	262
874.965	-723
874.999	-270
875.048	367
875.107	-850
875.131	-1365
875.215	-485
875.215	-485
875.298	-383
875.323	-331
875.381	-254
875.430	-539
875.465	-705
875.538	-140
875.548	-73
875.631	-96
875.646	-154
875.714	-519
875.753	-503
875.798	-353
875.861	166
875.881	275
875.964	-532
875.968	-551
876.047	-692
876.076	-376
876.130	139
876.183	-264
876.213	-469
876.291	-64
876.296	-34
876.379	179
876.398	57
876.462	-420
876.506	-371
876.545	-365
876.613	-216
876.628	-141
876.711	-134
876.721	-65
876.794	398
876.828	187
876.877	-195
876.935	-13
876.960	88
877.043	68
877.043	66
877.125	-68
877.150	108
877.208	429
877.258	-9
877.291	-317
877.365	118
877.374	174
877.456	-238
877.472	-169
877.539	135
877.579	158
877.622	184
877.687	30
877.704	-20
877.787	82
877.794	93
877.869	325
877.901	285
877.952	133
878.008	-19
878.034	-63
878.115	-41
878.117	-36
878.199	195
878.222	259
878.282	336
878.329	463
878.364	459
878.437	-297
878.447	-363
878.529	-200
878.544	-108
878.611	210
878.651	320
878.694	531
878.758	165
878.776	38
878.858	430
878.865	421
878.941	122
878.972	-174
879.023	-437
879.078	-18
879.105	187
879.185	741
879.187	749
879.269	525
879.292	285
879.351	-106
879.399	-46
879.433	-137
879.506	320
879.516	425
879.598	134
879.613	159
879.680	47
879.720	165
879.762	307
879.827	218
879.844	216
879.926	567
879.933	534
880.007	64
880.040	-28
880.089	195
880.147	764
880.171	802
880.253	567
880.254	564
880.335	999
880.360	1203
880.417	1543
880.467	2209
880.499	2694
880.574	3032
880.580	3017
880.662	1018
880.680	868
880.744	553
880.787	658
880.825	644
880.893	-12
880.907	-99
880.989	-9
881.000	-3
881.070	279
881.106	365
881.152	503
881.213	671
881.233	647
881.315	370
881.319	376
881.396	797
881.426	771
881.478	646
881.532	749
881.559	734
881.639	73
881.641	58
881.722	585
881.745	367
881.803	493
881.852	602
881.885	508
881.958	649
881.966	662
882.047	1208
882.064	1123
882.129	1059
882.171	1450
882.210	1972
882.277	2785
882.291	2748
882.372	1663
882.383	1510
882.454	859
882.489	929
882.535	1132
882.596	708
882.616	571
882.697	422
882.702	423
882.778	958
882.808	1097
882.859	781
882.914	414
882.940	503
883.020	661
883.021	666
883.102	543
883.127	713
883.183	1130
883.233	1004
883.264	771
883.339	342
883.345	352
883.426	696
883.445	718
883.507	501
883.551	301
883.587	277
883.657	674
883.668	817
883.749	1566
883.763	1583
883.830	778
883.869	596
883.910	750
883.975	916
883.991	977
884.072	1125
884.081	1152
884.152	1142
884.187	952
884.233	833
884.292	956
884.314	892
884.394	550
884.398	523
884.475	364
884.504	390
884.555	567
884.610	622
884.636	667
884.716	391
884.716	400
884.797	1148
884.821	1387
884.877	1207
884.927	590
884.958	449
885.033	759
885.038	774
885.118	696
885.139	611
885.199	808
885.244	1044
885.279	863
885.350	601
885.359	676
885.439	1063
885.456	1159
885.520	1425
885.561	1532
885.600	1321
885.667	1128
885.680	1231
885.760	1588
885.773	1627
885.840	1311
885.878	1340
885.920	1129
885.984	344
886.000	515
886.080	1637
886.089	1739
886.160	1159
886.195	865
886.240	983
886.300	1044
886.320	1063
886.400	1442
886.406	1456
886.480	1593
886.511	1536
886.560	1769
886.616	2002
886.640	1917
886.720	1729
886.722	1714
886.800	1168
886.827	959
886.879	1385
886.932	1905
886.959	1850
887.038	1557
887.039	1570
887.119	1782
887.143	1955
887.198	1862
887.248	1651
887.278	1669
887.354	1610
887.358	1617
887.437	1785
887.459	1756
887.517	2056
887.564	2310
887.596	2090
887.669	1546
887.676	1571
887.755	1850
887.774	1874
887.835	1572
887.880	1416
887.914	1613
887.985	1945
887.994	1906
888.073	1483
888.090	1381
888.153	2097
888.195	2520
888.232	2406
888.300	2332
888.311	2376
888.391	2435
888.405	2451
888.470	2004
888.510	1655
888.549	1796
888.615	2152
888.628	2182
888.708	2188
888.720	2196
888.787	2552
888.825	2659
888.866	2410
888.930	2073
888.945	2096
889.024	2156
889.035	2154
889.103	2234
889.140	2251
889.182	1928
889.245	1462
889.261	1464
889.340	1414
889.349	1405
889.419	1722
889.454	1864
889.498	1866
889.559	1861
889.577	1843
889.656	1737
889.664	1721
889.735	2072
889.768	2229
889.814	2269
889.873	2307
889.978	1128
890.083	2313
890.187	1751
890.292	2381
890.397	1834
890.501	2765
890.606	1561
890.710	2277
890.815	1269
890.919	1730
891.024	1242
891.128	2369
891.233	1860
891.337	2478
891.442	1991
891.546	1907
891.650	1592
891.755	1266
891.859	2290
891.963	1842
892.068	2479
892.172	1801
892.276	1360
892.380	1693
892.484	1354
892.589	2288
892.693	2251
892.797	1349
892.901	1322
893.005	1740
893.109	2034
893.213	2072
893.317	2135
893.421	2041
893.525	1124
893.629	1519
893.733	2240
893.837	928
893.941	1546
894.045	2836
894.148	1687
894.252	1525
894.356	2203
894.460	2526
894.564	2168
894.667	1779
894.771	1491
894.875	1345
894.978	2392
895.082	2238
895.186	2118
895.289	2268
895.393	2149
895.496	2345
895.600	1057
895.703	2216
895.807	1468
895.910	1447
896.014	1633
896.117	1683
896.221	1331
896.324	1895
896.427	2591
896.531	2020
896.634	1387
896.737	2066
896.840	2201
896.944	2151
897.047	1559
897.150	1984
897.253	1585
897.356	1686
897.460	1603
897.563	1079
897.666	2511
897.769	1508
897.872	2273
897.975	1490
898.078	1143
898.181	1733
898.284	2213
898.387	1262
898.490	2092
898.593	2109
898.695	1160
898.798	2024
898.901	3124
899.004	1506
899.107	1783
899.209	1933
899.312	1771
899.415	1902
899.518	1884
899.620	1690
899.723	1499
899.826	2647
899.928	3577
900.031	1394
900.133	2032
900.236	1910
900.338	933
900.441	1665
900.543	1579
900.646	2008
900.748	1029
900.851	1181
900.953	1324
901.055	1135
901.158	2007
901.260	1721
901.362	1553
901.465	1876
901.567	1305
901.669	2228
901.771	1623
901.873	1668
901.976	1575
902.078	1436
902.180	683
902.282	1902
902.384	1505
902.486	2242
902.588	1999
902.690	2792
902.792	1755
902.894	1490
902.996	1608
903.098	2049
903.200	1270
903.302	1539
903.404	1182
903.505	1500
903.607	1250
903.709	2704
903.811	2048
903.913	1564
904.014	903
904.116	1884
904.218	869
904.319	2024
904.421	1935
904.523	1436
904.624	931
904.726	2408
904.827	1205
904.929	1494
905.030	1101
905.132	1576
905.233	1654
905.335	1229
905.436	1726
905.537	1504
905.639	2463
905.740	1545
905.841	927
905.943	1837
906.044	972
906.145	1815
906.247	1303
906.348	1897
906.449	1739
906.550	1428
906.651	2155
906.752	1574
906.854	1769
906.955	1542
907.056	1493
907.157	1974
907.258	1753
907.359	1606
907.460	1264
907.561	1513
907.662	336
907.762	2135
907.863	664
907.964	2154
908.065	2523
908.166	1337
908.267	1429
908.367	1413
908.468	1330
908.569	2100
908.670	2496
908.770	2662
908.871	2744
908.971	2868
909.072	3623
909.173	2186
909.273	1483
909.374	1760
909.474	1441
909.575	1410
909.675	1486
909.776	2105
909.876	1264
909.977	1894
910.077	955
910.177	1153
910.278	1712
910.378	1284
910.478	949
910.579	2137
910.679	1327
910.779	1332
910.879	1681
910.980	1469
911.080	312
911.180	1997
911.280	1099
911.380	845
911.480	2123
911.580	1874
911.680	1843
911.780	2400
911.880	1790
911.980	1687
912.080	1266
912.180	1807
912.280	1432
912.380	1768
912.480	1452
912.580	1970
912.679	950
912.779	1444
912.879	977
912.979	1072
913.078	1232
913.178	901
913.278	1458
913.377	379
913.477	1928
913.577	1218
913.676	2050
913.776	1706
913.875	1444
913.975	1416
914.074	568
914.174	1465
914.273	1370
914.373	1838
914.472	1111
914.572	1387
914.671	1887
914.770	1323
914.870	1664
914.969	1249
915.068	1307
915.167	1569
915.267	1000
915.366	1303
915.465	1312
915.564	1938
915.663	1537
915.763	827
915.862	1423
915.961	1579
916.060	1798
916.159	1347
916.258	1596
916.357	1366
916.456	812
916.555	2113
916.654	1344
916.752	1928
916.851	1985
916.950	2165
917.049	1319
917.148	1017
917.247	1230
917.345	1530
917.444	1397
917.543	957
917.642	1107
917.740	1151
917.839	1140
917.937	2144
918.036	1659
918.135	1305
918.233	1147
918.332	773
918.430	1555
918.529	983
918.627	705
918.726	1588
918.824	608
918.923	1281
919.021	1062
919.119	1438
919.218	831
919.316	1865
919.414	833
919.512	1468
919.611	1346
919.709	1616
919.807	1489
919.905	1157
920.003	1001
920.102	1158
920.200	1318
920.298	1894
920.396	1553
920.494	1671
920.592	1582
920.690	1353
920.788	756
920.886	1678
920.984	1851
921.082	2359
921.180	2350
921.277	1975
921.375	2044
921.473	2082
921.571	1431
921.669	1828
921.766	1435
921.864	1864
921.962	1757
922.060	1502
922.157	1903
922.255	1430
922.352	1781
922.450	2680
922.548	1229
922.645	2006
922.743	2360
922.840	2821
922.938	3201
923.035	3835
923.133	3730
923.230	3372
923.327	4194
923.425	4287
923.522	3279
923.619	4083
923.717	3230
923.814	3079
923.911	3859
924.008	3550
924.106	2881
924.203	3340
924.300	3073
924.397	3430
924.494	3391
924.591	3356
924.688	3357
924.786	3036
924.883	3434
924.979	2469
925.077	2429
925.173	3152
925.270	2791
925.367	2714
925.464	3517
925.561	3490
925.658	3537
925.755	3332
925.852	3463
925.948	3487
926.045	2952
926.142	2771
926.239	3162
926.335	2996
926.432	2565
926.529	3230
926.625	2853
926.722	2780
926.818	2811
926.915	3646
927.011	2946
927.108	2809
927.204	3319
927.301	2773
927.397	2936
927.494	3232
927.590	2453
927.687	2060
927.783	3221
927.879	2814
927.976	2511
928.072	3305
928.168	1958
928.264	2621
928.361	2343
928.457	3599
928.553	2446
928.649	2627
928.745	2747
928.841	1964
928.937	3017
929.033	2802
929.129	2768
929.225	2431
929.321	2947
929.417	2008
929.513	2415
929.609	2280
929.705	2294
929.801	3085
929.897	2135
929.993	2566
930.089	2845
930.184	1921
930.280	2530
930.376	3223
930.471	3082
930.567	2502
930.663	1991
930.758	2527
930.854	1924
930.950	2749
931.045	2298
931.141	1802
931.236	2938
931.332	2133
931.427	2661
931.523	2365
931.618	2620
931.714	2406
931.809	2682
931.905	2913
932.000	2045
932.095	1775
932.191	2806
932.286	2461
932.381	2702
932.476	2391
932.572	2233
932.667	1981
932.762	1592
932.857	1910
932.952	2564
933.047	2637
933.142	2477
933.237	1533
933.332	1963
933.427	2368
933.522	1629
933.617	1132
933.712	2497
933.807	2430
933.902	2255
933.997	2612
934.092	2247
934.187	1524
934.282	2259
934.376	2131
934.471	2725
934.566	1124
934.661	980
934.755	1642
934.850	1605
934.945	1964
935.039	2077
935.134	1380
935.228	2059
935.323	2942
935.417	1324
935.512	1442
935.606	1012
935.701	2442
935.795	2393
935.890	2136
935.984	1819
936.079	2220
936.173	1813
936.267	2320
936.362	1511
936.456	2699
936.550	2959
936.644	2300
936.738	1259
936.833	1634
936.927	1629
937.021	2251
937.115	2533
937.209	1168
937.303	2827
937.397	1416
937.491	1608
937.585	1992
937.679	1800
937.773	2007
937.867	1493
937.961	1619
938.055	1845
938.149	2716
938.243	1461
938.337	1396
938.430	1483
938.524	1877
938.618	1523
938.712	1828
938.805	2024
938.899	2054
938.993	1951
939.086	1673
939.180	1791
939.274	1504
939.367	1460
939.461	2446
939.554	1340
939.648	1652
939.741	1290
939.835	1514
939.928	2421
940.022	1728
940.115	1784
940.208	2026
940.302	2214
940.395	2344
940.488	1157
940.582	1619
940.675	1107
940.768	1450
940.861	1617
940.954	2644
941.048	1243
941.141	1322
941.234	1299
941.327	1640
941.420	2147
941.513	2318
941.606	1732
941.699	2137
941.792	1464
941.885	1741
941.978	1429
942.071	1823
942.164	1034
942.257	1110
942.349	1588
942.442	1269
942.535	1045
942.628	1392
942.721	1541
942.813	876
942.906	2544
942.999	2414
943.091	2215
943.184	1944
943.277	1735
943.369	1494
943.462	1277
943.554	1728
943.647	1284
943.739	1497
943.832	570
943.924	1488
944.017	1578
944.109	980
944.201	1189
944.294	1996
944.386	1479
944.478	2014
944.571	1015
944.663	1307
944.755	1764
944.847	1556
944.940	2076
945.032	-82
945.124	1383
945.216	1649
945.308	949
945.400	2404
945.492	1397
945.584	1714
945.676	2268
945.768	1483
945.860	1898
945.952	1719
946.044	1801
946.136	1467
946.228	739
946.320	1253
946.412	853
946.503	2034
946.595	3011
946.687	1703
946.779	860
946.870	1120
946.962	485
947.054	1329
947.145	1119
947.237	1328
947.329	1157
947.420	1434
947.512	1650
947.603	984
947.695	908
947.786	1821
947.878	712
947.969	1668
948.061	988
948.152	1430
948.243	938
948.335	1873
948.426	742
948.517	962
948.609	1048
948.700	1223
948.791	702
948.882	856
948.973	614
949.065	624
949.156	1747
949.247	160
949.338	1434
949.429	544
949.520	526
949.611	966
949.702	1568
949.793	826
949.884	964
949.975	1019
950.066	1091
950.157	743
950.247	1206
950.338	1038
950.429	1070
950.520	1367
950.611	783
950.701	1340
950.792	1630
950.883	2597
950.973	495
951.064	2289
951.155	1891
951.245	2521
951.336	1492
951.427	424
951.517	1378
951.608	1281
951.698	1466
951.788	851
951.879	1262
951.969	1500
952.060	1417
952.150	1336
952.240	1895
952.331	336
952.421	2271
952.511	310
952.602	1495
952.692	1289
952.782	509
952.872	789
952.962	173
953.052	1202
953.143	792
953.233	1801
953.323	1609
953.413	874
953.503	685
953.593	1756
953.683	1078
953.773	932
953.863	985
953.953	635
954.042	1080
954.132	1687
954.222	1611
954.312	1772
954.402	1677
954.492	3068
954.581	5319
954.671	3243
954.761	271
954.850	1557
954.940	414
955.030	354
955.119	851
955.209	1007
955.298	655
955.388	1181
955.477	1424
955.567	720
955.656	696
955.746	1424
955.835	783
955.925	1240
956.014	1394
956.103	1159
956.193	1090
956.282	1317
956.371	952
956.461	426
956.550	817
956.639	535
956.728	1195
956.817	1121
956.906	1439
956.995	1946
957.085	336
957.174	1076
957.263	715
957.352	1207
957.441	1505
957.530	328
957.619	739
957.708	1097
957.796	363
957.885	843
957.974	416
958.063	531
958.152	168
958.241	1138
958.329	159
958.418	327
958.507	904
958.596	1626
958.684	591
958.773	725
958.861	956
958.950	1376
959.039	467
959.127	544
959.216	1097
959.304	1438
959.393	805
959.481	862
959.570	824
959.658	759
959.746	1287
959.835	3209
959.923	6147
960.011	3205
960.100	1355
960.188	879
960.276	502
960.365	1232
960.453	588
960.541	68
960.629	698
960.717	474
960.805	-222
960.893	-20
960.981	674
961.069	1603
961.158	215
961.245	1154
961.333	1563
961.421	-360
961.509	336
961.597	1121
961.685	711
961.773	820
961.861	606
961.949	1179
962.036	424
962.124	1391
962.212	-479
962.299	810
962.387	393
962.475	641
962.562	-218
962.650	1925
962.738	900
962.825	-629
962.913	336
963.000	846
963.088	1011
963.175	849
963.263	888
963.350	874
963.438	1814
963.525	2319
963.612	4689
963.700	8847
963.787	26273
963.874	13637
963.962	1696
964.049	378
964.136	644
964.223	297
964.310	200
964.398	469
964.485	656
964.572	2619
964.659	4673
964.746	5318
964.833	711
964.920	535
965.007	192
965.094	464
965.181	588
965.268	564
965.355	551
965.441	362
965.528	-629
965.615	672
965.702	-414
965.789	-307
965.875	83
965.962	578
966.049	153
966.136	560
966.222	44
966.309	294
966.395	553
966.482	524
966.569	-274
966.655	313
966.742	58
966.828	743
966.915	604
967.001	54
967.087	-321
967.174	867
967.260	2557
967.347	3825
967.433	8191
967.519	20670
967.605	7340
967.692	757
967.778	-217
967.864	151
967.950	-256
968.036	132
968.123	486
968.209	578
968.295	-177
968.381	899
968.467	162
968.553	-1125
968.639	520
968.725	16
968.811	3265
968.897	3615
968.983	-44
969.069	-310
969.154	273
969.240	753
969.326	-716
969.412	-932
969.497	411
969.583	-665
969.669	37
969.755	802
969.840	933
969.926	480
970.012	-1
970.097	1261
970.183	499
970.268	1716
970.354	2670
970.439	4383
970.525	13147
970.610	4217
970.696	766
970.781	208
970.866	-892
970.952	622
971.037	-548
971.122	50
971.208	172
971.293	512
971.378	-808
971.463	778
971.549	-219
971.634	314
971.719	656
971.804	1868
971.889	2185
971.974	3
972.059	-121
972.144	874
972.229	277
972.314	-79
972.399	439
972.484	298
972.569	743
972.654	1624
972.739	6027
972.824	7589
972.908	1022
972.993	343
973.078	-306
973.163	603
973.247	68
973.332	-1245
973.417	1177
973.501	-371
973.586	70
973.671	468
973.755	73
973.840	830
973.924	463
974.009	1006
974.093	648
974.178	2461
974.262	4291
974.346	6066
974.431	1054
974.515	-768
974.600	695
974.684	807
974.768	-244
974.852	1027
974.937	-1697
975.021	742
975.105	-277
975.189	-186
975.273	372
975.358	526
975.442	-579
975.526	-156
975.610	-364
975.694	-1129
975.778	-171
975.862	96
975.946	-1344
976.030	1159
976.114	-251
976.198	-27
976.281	-435
976.365	636
976.449	-5
976.533	542
976.617	-350
976.700	941
976.784	94
976.868	1113
976.951	3142
977.035	2316
977.119	18
977.202	-174
977.286	421
977.369	33
977.453	720
977.536	237
977.620	489
977.703	-501
977.787	81
977.870	725
977.953	1319
978.037	-206
978.120	1268
978.203	2824
978.287	7332
978.370	3140
978.453	-298
978.536	437
978.620	2182
978.703	4704
978.786	1451
978.869	75
978.952	-1311
979.035	457
979.118	175
979.201	-712
979.284	-10
979.367	101
979.450	202
979.533	-514
979.616	-684
979.699	-385
979.782	74
979.865	-376
979.948	-1135
980.030	-270
980.113	-40
980.196	-753
980.279	154
980.361	-602
980.444	-686
980.526	113
980.609	238
980.692	-388
980.774	131
980.857	-1663
980.939	1212
981.022	-754
981.104	-7
981.187	283
981.269	468
981.352	243
981.434	-489
981.516	-158
981.599	-436
981.681	-13
981.763	-14
981.846	403
981.928	-560
982.010	-171
982.092	-970
982.174	-517
982.256	653
982.339	-114
982.421	98
982.503	-425
982.585	-1692
982.667	-212
982.749	-1328
982.831	444
982.913	-630
982.995	-54
983.077	-784
983.158	1923
983.240	-658
983.322	379
983.404	751
983.486	35
983.568	20
983.649	-8
983.731	339
983.813	-436
983.894	93
983.976	-314
984.058	-396
984.139	239
984.221	-1369
984.302	567
984.384	-362
984.465	-1177
984.547	359
984.628	-1067
984.710	160
984.791	657
984.872	-998
984.954	-90
985.035	-434
985.116	194
985.198	-592
985.279	734
985.360	-457
985.441	-310
985.522	-26
985.604	501
985.685	-1493
985.766	650
985.847	1628
985.928	-997
986.009	-351
986.090	142
986.171	163
986.252	-889
986.333	92
986.414	32
986.495	389
986.576	291
986.656	603
986.737	125
986.818	-63
986.899	-61
986.980	-722
987.060	377
987.141	-475
987.222	933
987.302	230
987.383	1041
987.464	-369
987.544	53
987.625	341
987.705	1083
987.786	95
987.866	-185
987.947	138
988.027	-105
988.108	452
988.188	796
988.268	-316
988.349	-474
988.429	-335
988.509	129
988.589	-212
988.670	-1961
988.750	1097
988.830	-367
988.910	-30
988.990	796
989.070	-59
989.151	37
989.231	-332
989.311	730
989.391	-502
989.471	335
989.551	-1020
989.631	-761
989.711	923
989.791	-539
989.870	-1381
989.950	513
990.030	-769
990.110	97
990.190	-1089
990.269	-584
990.349	-756
990.429	181
990.509	30
990.588	-782
990.668	-121
990.747	-708
990.827	-278
990.907	554
990.986	-770
991.066	-560
991.145	-1115
991.225	1262
991.304	-688
991.383	164
991.463	-452
991.542	432
991.622	-610
991.701	-355
991.780	-732
991.859	-651
991.939	-170
992.018	74
992.097	-295
992.176	-39
992.256	-494
992.335	-1189
992.414	-642
992.493	-391
992.572	-676
992.651	196
992.730	204
992.809	-237
992.888	-599
992.967	-593
993.046	30
993.125	-1086
993.203	-488
993.282	577
993.361	-314
993.440	-966
993.519	-1290
993.597	90
993.676	-1021
993.755	-29
993.834	-696
993.912	-1060
993.991	30
994.069	-337
994.148	-115
994.226	-438
994.305	-879
994.384	-753
994.462	-35
994.540	-1464
994.619	-997
994.697	-450
994.776	-1529
994.854	442
994.932	-707
995.011	96
995.089	-1300
995.167	-1017
995.245	-363
995.324	-1185
995.402	-261
995.480	-512
995.558	-1000
995.636	-1206
995.714	-365
995.792	118
995.870	-2295
995.948	-1105
996.026	-714
996.104	-1627
996.182	-219
996.260	-1164
996.338	60
996.416	-1334
996.494	-669
996.572	-6
996.649	-789
996.727	-1444
996.805	-346
996.883	-979
996.960	-1355
997.038	-912
997.116	-1364
997.193	-800
997.271	-1157
997.348	-1190
997.426	-1141
997.504	-1023
997.581	-517
997.658	243
997.736	-1542
997.813	-1241
997.891	-504
997.968	-1033
998.046	-963
998.123	-540
998.200	-899
998.277	-1543
998.355	-215
998.432	-2372
998.509	-778
998.586	-233
998.663	-809
998.741	-1609
998.818	-1005
998.895	-958
998.972	-367
999.049	-351
999.126	-1269
999.203	-309
999.280	-1199
999.357	-1255
999.434	-1071
999.511	-1329
999.587	-1205
999.664	-1510
999.741	-590
999.818	-257
999.895	-1186
999.971	-1545
1000.048	-1525
1000.125	204
1000.202	-957
1000.278	-455
1000.355	-609
1000.431	-1814
1000.508	-1874
1000.584	-1668
1000.661	-1070
1000.738	-1615
1000.814	-1519
1000.890	-199
1000.967	-884
1001.043	-1063
1001.120	-1944
1001.196	-321
1001.272	-2140
1001.349	-1590
1001.425	-367
1001.501	-951
1001.577	-2184
1001.654	-1452
1001.730	-1562
1001.806	-1341
1001.882	-1526
1001.958	-613
1002.034	-1535
1002.110	-1050
1002.186	-1907
1002.262	-910
1002.338	-1208
1002.414	-972
1002.490	-1357
1002.566	-1244
1002.642	-2177
1002.718	-747
1002.794	-2353
1002.870	-1304
1002.945	-1631
1003.021	-1409
1003.097	-2130
1003.173	-652
1003.248	-1910
1003.324	-664
1003.400	-1019
1003.475	-2664
1003.551	-1772
1003.626	-1480
1003.702	-1636
1003.777	-1515
1003.853	-1238
1003.928	-1930
1004.004	-2116
1004.079	-636
1004.155	-947
1004.230	-2249
1004.305	-627
1004.381	-1423
1004.456	-1531
1004.531	-1560
1004.607	-1682
1004.682	-1589
1004.757	-2020
1004.832	-1314
1004.907	-1441
1004.982	-1239
1005.057	-1239
1005.133	-1295
1005.208	-1242
1005.283	-1618
1005.358	-804
1005.433	-1966
1005.508	-1344
1005.583	-2147
1005.657	-1475
1005.732	-523
1005.807	-1627
1005.882	-1172
1005.957	-1017
1006.032	-1125
1006.106	-1560
1006.181	-1836
1006.256	-1219
1006.331	-2197
1006.405	-1458
1006.480	-1419
1006.554	-1812
1006.629	-1352
1006.704	-1755
1006.778	-1577
1006.853	-1415
1006.927	-2020
1007.002	-1989
1007.076	-1161
1007.150	-1628
1007.225	-1282
1007.299	-1811
1007.373	-2436
1007.448	-1472
1007.522	114
1007.596	-1682
1007.671	-1569
1007.745	-1136
1007.819	-2224
1007.893	-1884
1007.967	-682
1008.041	-2798
1008.115	-1283
1008.190	-2317
1008.264	-1387
1008.338	-2966
1008.412	-2160
1008.486	-1851
1008.560	-1870
1008.633	-2362
1008.707	-1213
1008.781	-2054
1008.855	-2338
1008.929	-1144
1009.003	-2513
1009.076	-1850
1009.150	-1640
1009.224	-1872
1009.298	-1506
1009.371	-1984
1009.445	-693
1009.519	-2223
1009.592	-2709
1009.666	-2122
1009.739	-1394
1009.813	-2805
1009.886	-1018
1009.960	-2277
1010.033	-1248
1010.107	-1746
1010.180	-2075
1010.253	-1386
1010.327	-1025
1010.400	-2264
1010.473	-2219
1010.547	-1209
1010.620	-1826
1010.693	-2210
1010.766	-2785
1010.840	-1087
1010.913	-1585
1010.986	-2152
1011.059	-1550
1011.132	-1623
1011.205	-1000
1011.278	-1759
1011.351	-2154
1011.424	-2344
1011.497	-2493
1011.570	-1691
1011.643	-1176
1011.716	-2518
1011.789	-1901
1011.862	-1950
1011.934	-686
1012.007	-2315
1012.080	-1594
1012.153	-1638
1012.225	-707
1012.298	-1685
1012.371	-2819
1012.443	-1673
1012.516	-2676
1012.588	-1913
1012.661	-1512
1012.733	-2454
1012.806	-1961
1012.879	-1363
1012.951	-2014
1013.023	-1948
1013.096	-939
1013.168	-2551
1013.241	-211
1013.313	-1953
1013.385	-1703
1013.458	-2294
1013.530	-2097
1013.602	-2470
1013.674	-1643
1013.746	-2872
1013.819	-1781
1013.891	-1287
1013.963	-2530
1014.035	-1466
1014.107	-1994
1014.179	-1476
1014.251	-2186
1014.323	-1470
1014.395	-1035
1014.467	-2475
1014.539	-1383
1014.611	-3193
1014.683	-1419
1014.754	-1845
1014.826	-1900
1014.898	-1066
1014.970	-2091
1015.042	-989
1015.113	-1737
1015.185	-2173
1015.257	-2910
1015.328	-1117
1015.400	-1686
1015.471	-1802
1015.543	-1801
1015.615	-1347
1015.686	-2004
1015.757	-2426
1015.829	-1245
1015.901	-2654
1015.972	-1500
1016.043	-1431
1016.115	-964
1016.186	-1594
1016.257	-1897
1016.328	-1562
1016.400	-1360
1016.471	-1901
1016.542	-2013
1016.613	-2003
1016.685	-1330
1016.756	-1358
1016.827	-2326
1016.898	-2370
1016.969	-908
1017.040	-2590
1017.111	-1413
1017.182	-2009
1017.253	-1525
1017.324	-2319
1017.395	-1015
1017.466	-1184
1017.537	-1067
1017.608	-1762
1017.678	-2289
1017.749	-1672
1017.820	-1247
1017.891	-1952
1017.961	-1533
1018.032	-2532
1018.103	-336
1018.173	-1747
1018.244	-1930
1018.315	-1107
1018.385	-1320
1018.456	-1524
1018.526	-1533
1018.597	-1662
1018.667	-1548
1018.738	-1347
1018.808	-758
1018.878	-2008
1018.949	-2237
1019.019	-1823
1019.089	-1709
1019.160	-1583
1019.230	-2082
1019.300	-1683
1019.371	-1734
1019.441	-1561
1019.511	-1486
1019.581	-2185
1019.651	-995
1019.721	-1428
1019.791	-1213
1019.861	-2133
1019.931	-1266
1020.001	-1372
1020.071	-1313
1020.141	-1436
1020.211	-1181
1020.281	-1686
1020.351	-1721
1020.421	-1616
1020.491	-1929
1020.560	-2517
1020.630	-1392
1020.700	-1558
1020.770	-2142
1020.839	-2110
1020.909	-1736
1020.979	-2181
1021.048	-2066
1021.118	-1043
1021.187	-1887
1021.257	-2262
1021.326	-995
1021.396	-1244
1021.465	-1445
1021.535	-1881
1021.604	-1175
1021.674	-1368
1021.743	-1876
1021.812	-1959
1021.882	-1718
1021.951	-1661
1022.020	-1750
1022.089	-1508
1022.159	-1171
1022.228	-1293
1022.297	-992
1022.366	-1598
1022.435	-2041
1022.504	-1253
1022.573	-1149
1022.642	-1585
1022.711	-2371
1022.781	-1494
1022.849	-2049
1022.918	-1481
1022.987	-1182
1023.056	-2106
1023.125	-972
1023.194	-1917
1023.263	-1528
1023.331	-2288
1023.400	-1913
1023.469	-1327
1023.538	-1382
1023.606	-2388
1023.675	-1193
1023.744	-1569
1023.812	-1981
1023.881	-2211
1023.949	-1463
1024.018	-1949
1024.086	-2878
1024.155	-1706
1024.223	-2051
1024.292	-2341
1024.360	-1153
1024.429	-2074
1024.497	-2179
1024.565	-1905
1024.634	-1364
1024.702	-2243
1024.770	-1649
1024.838	-2280
1024.907	-1755
1024.975	-1727
1025.043	-1183
1025.111	-2715
1025.179	-851
1025.247	-2039
1025.315	-1152
1025.383	-2126
1025.451	-2267
1025.519	-1486
1025.587	-1540
1025.655	-1057
1025.723	-1937
1025.791	-2409
1025.859	-1366
1025.927	-1207
1025.995	-1807
1026.062	-1804
1026.130	-1381
1026.198	-2146
1026.266	-1547
1026.333	-2294
1026.401	-767
1026.469	-1876
1026.536	-842
1026.604	-2588
1026.671	-1513
1026.739	-2284
1026.806	-1954
1026.874	-1693
1026.941	-1849
1027.009	-1826
1027.076	-2605
1027.144	-1458
1027.211	-1478
1027.278	-3491
1027.345	-1840
1027.413	-1658
1027.480	-1903
1027.547	-1262
1027.614	-1753
1027.682	-1515
1027.749	-2130
1027.816	-2205
1027.883	-1420
1027.950	-1491
1028.017	-2345
1028.084	-1511
1028.151	-2622
1028.218	-1996
1028.285	-1899
1028.352	-2554
1028.419	-1216
1028.486	-2308
1028.553	-1371
1028.619	-1939
1028.686	-2017
1028.753	-1948
1028.820	-2173
1028.886	-2302
1028.953	-1279
1029.020	-2412
1029.086	-2272
1029.153	-2470
1029.220	-2177
1029.286	-1902
1029.353	-1694
1029.419	-2017
1029.486	-1729
1029.552	-2839
1029.619	-1808
1029.685	-1997
1029.751	-2167
1029.818	-958
1029.884	-2497
1029.951	-1061
1030.017	-1860
1030.083	-1905
1030.149	-1832
1030.216	-1715
1030.282	-2065
1030.348	-1883
1030.414	-1366
1030.480	-2701
1030.546	-1877
1030.612	-1627
1030.678	-1732
1030.744	-2278
1030.810	-1787
1030.876	-1854
1030.942	-2550
1031.008	-2527
1031.074	-1926
1031.140	-1838
1031.206	-1461
1031.272	-2850
1031.337	-3139
1031.403	-2756
1031.469	-2403
1031.534	-2070
1031.600	-1850
1031.666	-2607
1031.731	-2559
1031.797	-3247
1031.863	-2530
1031.928	-2552
1031.994	-1393
1032.059	-2619
1032.125	-2066
1032.190	-2543
1032.256	-2279
1032.321	-2974
1032.386	-2619
1032.452	-1768
1032.517	-1571
1032.582	-2504
1032.647	-2049
1032.713	-2692
1032.778	-1472
1032.843	-2583
1032.908	-2590
1032.974	-2607
1033.039	-1741
1033.104	-1688
1033.169	-2352
1033.234	-1869
1033.299	-2390
1033.364	-1535
1033.429	-1897
1033.494	-1761
1033.559	-2043
1033.624	-2136
1033.688	-2179
1033.753	-2124
1033.818	-1919
1033.883	-2313
1033.948	-1672
1034.013	-1855
1034.077	-2852
1034.142	-1767
1034.207	-1881
1034.271	-1308
1034.336	-713
1034.400	-1141
1034.465	-1773
1034.530	-2846
1034.594	-1924
1034.658	-2114
1034.723	-2121
1034.787	-2549
1034.852	-1973
1034.916	-2377
1034.981	-2789
1035.045	-1925
1035.109	-2123
1035.173	-2323
1035.238	-2252
1035.302	-2354
1035.366	-2239
1035.430	-2838
1035.495	-2786
1035.559	-2829
1035.623	-1757
1035.687	-2908
1035.751	-2301
1035.815	-2932
1035.879	-2218
1035.943	-3291
1036.007	-2840
1036.071	-2125
1036.135	-3304
1036.198	-2275
1036.262	-2206
1036.326	-2622
1036.390	-2171
1036.454	-2328
1036.517	-1797
1036.581	-2076
1036.645	-2330
1036.709	-2909
1036.772	-2039
1036.836	-2376
1036.900	-2251
1036.963	-2256
1037.026	-2226
1037.090	-2042
1037.154	-2463
1037.217	-1853
1037.280	-1917
1037.344	-2654
1037.407	-3485
1037.471	-2797
1037.534	-2096
1037.597	-3271
1037.661	-2530
1037.724	-2452
1037.787	-2127
1037.850	-3078
1037.913	-2316
1037.977	-2397
1038.040	-2167
1038.103	-2258
1038.166	-1674
1038.229	-1784
1038.292	-2051
1038.355	-2561
1038.418	-2147
1038.481	-1819
1038.544	-2370
1038.607	-2423
1038.670	-2340
1038.732	-2145
1038.795	-3141
1038.858	-2678
1038.921	-3373
1038.984	-2538
1039.046	-2972
1039.109	-2836
1039.172	-2617
1039.234	-3128
1039.297	-2749
1039.360	-3020
1039.422	-2274
1039.485	-3002
1039.547	-2176
1039.610	-2269
1039.672	-2304
1039.734	-1829
1039.797	-2878
1039.859	-2568
1039.922	-2192
1039.984	-2376
1040.046	-3288
1040.109	-2609
1040.171	-2469
1040.233	-2330
1040.295	-2781
1040.358	-3407
1040.420	-2877
1040.482	-3535
1040.544	-1730
1040.606	-1364
1040.668	-2558
1040.730	-2539
1040.792	-2337
1040.854	-2503
1040.916	-2465
1040.978	-3033
1041.040	-1355
1041.102	-2847
1041.164	-2666
1041.225	-2646
1041.287	-2728
1041.349	-2568
1041.411	-2561
1041.472	-2921
1041.534	-2958
1041.596	-3080
1041.657	-2095
1041.719	-2498
1041.781	-2780
1041.842	-2650
1041.904	-2382
1041.965	-2583
1042.027	-2224
1042.088	-2097
1042.150	-2008
1042.211	-2567
1042.272	-2607
1042.334	-2896
1042.395	-2297
1042.456	-2858
1042.518	-1730
1042.579	-2299
1042.640	-2262
1042.701	-2120
1042.763	-2792
1042.824	-3203
1042.885	-1937
1042.946	-2415
1043.007	-2457
1043.068	-2954
1043.129	-2475
1043.190	-2831
1043.251	-1767
1043.312	-2747
1043.373	-2137
1043.434	-1943
1043.495	-1336
1043.556	-2805
1043.616	-1573
1043.677	-2370
1043.738	-2321
1043.799	-2541
1043.859	-2347
1043.920	-2456
1043.981	-1839
1044.041	-2650
1044.102	-2932
1044.162	-3331
1044.223	-2626
1044.284	-2689
1044.344	-2623
1044.405	-2435
1044.465	-2281
1044.525	-2342
1044.586	-2386
1044.646	-1526
1044.707	-2169
1044.767	-2338
1044.827	-1488
1044.887	-1936
1044.948	-1421
1045.008	-2192
1045.068	-2039
1045.128	-2492
1045.188	-2386
1045.249	-1307
1045.309	-2243
1045.369	-2871
1045.429	-2291
1045.489	-1410
1045.549	-1861
1045.609	-2511
1045.669	-2157
1045.729	-1733
1045.789	-2207
1045.848	-2753
1045.908	-982
1045.968	-2391
1046.028	-1952
1046.088	-1934
1046.147	-1465
1046.207	-2553
1046.267	-1844
1046.326	-2116
1046.386	-1838
1046.446	-1343
1046.505	-2147
1046.565	-630
1046.624	-1916
1046.684	-1127
1046.743	-451
1046.803	-677
1046.862	-271
1046.922	0
