'Start Wavelength	183.907
'End Wavelength	1046.922
'Gate Delay	5.000
'Gate Width (ms)	1.050
'Laser Output Level	0.000
'X Position	0.000
'Y Position	0.000
'Z Position	0.000
'Grid Point Number	1.000
'Shot Number	100.000
183.907	-132.000
183.977	195.000
184.047	-112
184.116	696
184.186	-39
184.256	85
184.325	-461
184.395	-564
184.465	465
184.534	847
184.604	162
184.674	660
184.743	-648
184.813	-150
184.883	-303
184.952	-598
185.022	546
185.092	33
185.161	-249
185.231	-146
185.301	635
185.370	862
185.440	-443
185.509	764
185.579	-425
185.649	569
185.718	486
185.788	1284
185.857	29
185.927	418
185.996	428
186.066	371
186.136	462
186.205	434
186.275	-263
186.344	-29
186.414	555
186.483	265
186.553	1064
186.622	2319
186.692	515
186.761	1177
186.831	156
186.900	592
186.970	369
187.039	450
187.109	651
187.178	751
187.248	852
187.317	928
187.387	180
187.456	1011
187.526	284
187.595	477
187.664	-84
187.734	569
187.803	806
187.873	392
187.942	865
188.012	875
188.081	413
188.150	1065
188.220	1752
188.289	2516
188.358	1259
188.428	1216
188.497	386
188.567	837
188.636	795
188.705	515
188.775	310
188.844	698
188.913	733
188.983	628
189.052	-596
189.121	732
189.191	-79
189.260	1326
189.329	751
189.399	467
189.468	638
189.537	394
189.606	675
189.676	203
189.745	571
189.814	1450
189.883	38
189.953	1137
190.022	988
190.091	3953
190.161	5371
190.230	2262
190.299	791
190.368	1052
190.437	770
190.507	1861
190.576	692
190.645	1354
190.714	743
190.783	595
190.853	581
190.922	1431
190.991	1342
191.060	680
191.129	250
191.198	1262
191.268	-209
191.337	744
191.406	843
191.475	1199
191.544	-148
191.613	1476
191.682	948
191.752	1367
191.821	578
191.890	558
191.959	-170
192.028	947
192.097	202
192.166	253
192.235	378
192.304	282
192.373	383
192.442	973
192.511	697
192.580	-116
192.650	289
192.719	1029
192.788	975
192.857	699
192.926	223
192.995	645
193.064	1166
193.133	1868
193.202	989
193.271	1318
193.340	936
193.409	1453
193.478	2051
193.547	2152
193.615	2172
193.684	2458
193.753	913
193.822	1333
193.891	380
193.960	1654
194.029	925
194.098	1032
194.167	2
194.236	1229
194.305	71
194.374	1097
194.443	798
194.512	1827
194.580	1121
194.649	1970
194.718	1674
194.787	1017
194.856	278
194.925	1715
194.994	567
195.062	1677
195.131	593
195.200	1296
195.269	2525
195.338	1810
195.407	814
195.475	1346
195.544	1616
195.613	1767
195.682	270
195.751	1849
195.819	1803
195.888	928
195.957	2177
196.026	2405
196.094	1390
196.163	1991
196.232	881
196.301	1691
196.369	1282
196.438	1562
196.507	1368
196.576	1428
196.644	998
196.713	948
196.782	1100
196.850	1584
196.919	1108
196.988	1512
197.056	454
197.125	1406
197.194	1586
197.262	618
197.331	820
197.400	467
197.468	442
197.537	1125
197.606	1130
197.674	2673
197.743	5260
197.812	2022
197.880	5085
197.949	3406
198.017	4477
198.086	3383
198.155	1326
198.223	2543
198.292	6584
198.360	3283
198.429	2040
198.497	1785
198.566	2866
198.635	6859
198.703	3246
198.772	2621
198.840	7198
198.909	7754
198.977	1982
199.046	1570
199.114	1569
199.183	1622
199.251	1541
199.320	1231
199.388	1042
199.457	1459
199.525	1109
199.594	1305
199.662	366
199.731	1219
199.799	1337
199.867	2324
199.936	1743
200.004	1496
200.073	1431
200.141	688
200.210	1057
200.278	1484
200.346	1199
200.415	2017
200.483	2059
200.552	2019
200.620	1153
200.688	1867
200.757	1103
200.825	1279
200.893	606
200.962	1495
201.030	856
201.098	1436
201.167	2061
201.235	1619
201.303	1144
201.372	2343
201.440	1704
201.508	2108
201.577	1493
201.645	1844
201.713	883
201.781	1374
201.850	1629
201.918	2203
201.986	1189
202.055	2495
202.123	1070
202.191	1535
202.259	1546
202.327	1683
202.396	1113
202.464	1533
202.532	2979
202.600	11583
202.669	6114
202.737	1786
202.805	1430
202.873	1469
202.941	1499
203.009	1719
203.078	714
203.146	1755
203.214	259
203.282	1290
203.350	1493
203.418	1033
203.487	1217
203.555	971
203.623	275
203.691	1911
203.759	571
203.827	1330
203.895	1658
203.963	1408
204.031	1256
204.099	1463
204.168	1053
204.236	1150
204.304	1903
204.372	2262
204.440	1413
204.508	1674
204.576	939
204.644	1697
204.712	810
204.780	1515
204.848	1298
204.916	953
204.984	791
205.052	1239
205.120	1792
205.188	1833
205.256	1502
205.324	848
205.392	969
205.460	1316
205.528	750
205.596	2102
205.664	1201
205.732	1791
205.799	6850
205.867	11898
205.935	2233
206.003	2560
206.071	1507
206.139	987
206.207	974
206.275	1547
206.343	559
206.411	2084
206.478	1826
206.546	1334
206.614	1179
206.682	1383
206.750	1687
206.818	3009
206.885	3398
206.953	753
207.021	2302
207.089	2402
207.157	745
207.225	1026
207.292	1030
207.360	1658
207.428	1656
207.496	1521
207.563	1119
207.631	1907
207.699	976
207.767	1951
207.834	1200
207.902	1491
207.970	1065
208.038	1388
208.105	1415
208.173	2534
208.241	1413
208.309	2947
208.376	1541
208.444	5583
208.512	2619
208.579	845
208.647	2046
208.715	4033
208.782	2382
208.850	1256
208.918	2070
208.985	1508
209.053	1961
209.120	1922
209.188	1077
209.256	1849
209.323	1047
209.391	3374
209.459	2740
209.526	1395
209.594	1128
209.661	2570
209.729	1063
209.796	2359
209.864	1245
209.932	1837
209.999	2194
210.067	2439
210.134	2441
210.202	2731
210.269	3281
210.337	5015
210.404	1823
210.472	1765
210.539	1977
210.607	2103
210.674	3899
210.742	2783
210.809	2007
210.877	3004
210.944	3315
211.012	2335
211.079	3532
211.146	2315
211.214	2284
211.281	5090
211.349	4535
211.416	2813
211.484	3133
211.551	2773
211.618	1672
211.686	2346
211.753	1244
211.821	2783
211.888	2078
211.955	2855
212.023	2462
212.090	2399
212.157	2478
212.225	2865
212.292	5142
212.359	13158
212.427	40350
212.494	16895
212.561	5390
212.629	3665
212.696	2849
212.763	3285
212.831	1996
212.898	2980
212.965	1707
213.032	2767
213.100	2539
213.167	2716
213.234	3423
213.301	2448
213.369	1674
213.436	2568
213.503	1681
213.570	2754
213.638	1725
213.705	2302
213.772	1193
213.839	2883
213.906	4241
213.973	3742
214.041	1934
214.108	2850
214.175	2652
214.242	1506
214.309	2021
214.376	2530
214.444	1366
214.511	3044
214.578	2577
214.645	3044
214.712	3852
214.779	2906
214.846	2126
214.913	3336
214.980	3185
215.048	4429
215.115	4271
215.182	3652
215.249	3017
215.316	3121
215.383	1899
215.450	3274
215.517	2143
215.584	3248
215.651	2186
215.718	2385
215.785	4159
215.852	3677
215.919	3994
215.986	4216
216.053	2673
216.120	909
216.187	2936
216.254	4070
216.321	2762
216.388	3093
216.455	3475
216.522	2698
216.589	3637
216.656	9280
216.722	8640
216.789	4617
216.856	4157
216.923	2826
216.990	2978
217.057	3624
217.124	3698
217.191	2993
217.258	4245
217.324	5880
217.391	5453
217.458	4392
217.525	2726
217.592	3268
217.659	2408
217.725	4788
217.792	7215
217.859	7626
217.926	3219
217.993	3015
218.059	2696
218.126	3310
218.193	1578
218.260	2555
218.327	1705
218.393	3119
218.460	2573
218.527	1668
218.594	4060
218.660	8136
218.727	8923
218.794	3581
218.860	2744
218.927	1748
218.994	2106
219.061	2616
219.127	4514
219.194	7359
219.261	3231
219.327	2275
219.394	2479
219.461	1947
219.527	1302
219.594	6460
219.661	4309
219.727	1844
219.794	3501
219.860	2232
219.927	2494
219.994	5740
220.060	11155
220.127	8106
220.193	3157
220.260	3214
220.326	4588
220.393	6204
220.460	8201
220.526	5625
220.593	3642
220.659	5564
220.726	5069
220.792	17356
220.859	12548
220.925	10647
220.992	13469
221.058	19220
221.125	23404
221.191	19001
221.258	6423
221.324	4740
221.391	4510
221.457	3136
221.524	3829
221.590	5395
221.657	22971
221.723	16494
221.789	14002
221.856	13606
221.922	6079
221.989	4574
222.055	3454
222.121	2764
222.188	5000
222.254	4375
222.321	3416
222.387	1971
222.453	1595
222.520	1657
222.586	1925
222.652	2651
222.719	1097
222.785	2335
222.851	1717
222.918	1382
222.984	2037
223.050	1622
223.116	577
223.183	2484
223.249	1771
223.315	1644
223.382	2011
223.448	2041
223.514	2088
223.580	1648
223.647	1076
223.713	2016
223.779	1394
223.845	1368
223.911	1786
223.978	926
224.044	2168
224.110	1841
224.176	2400
224.242	2331
224.309	1210
224.375	2296
224.441	1834
224.507	1838
224.573	1995
224.639	3018
224.705	1105
224.772	2058
224.838	1675
224.904	3167
224.970	2074
225.036	2566
225.102	2477
225.168	3267
225.234	2258
225.300	2767
225.366	2986
225.432	1809
225.499	2404
225.565	2730
225.631	2400
225.697	3522
225.763	2731
225.829	3145
225.895	4023
225.961	7793
226.027	6045
226.093	4987
226.159	4501
226.225	5878
226.291	12491
226.357	22827
226.423	11242
226.489	7816
226.554	4206
226.620	5100
226.686	6566
226.752	9357
226.818	10833
226.884	32054
226.950	27767
227.016	10129
227.082	6795
227.148	6125
227.214	6545
227.279	4998
227.345	4045
227.411	4157
227.477	6452
227.543	16571
227.609	16156
227.674	7478
227.740	4156
227.806	4393
227.872	2796
227.938	3230
228.003	5347
228.069	2953
228.135	2110
228.201	2632
228.267	2547
228.332	4171
228.398	5480
228.464	4643
228.530	2649
228.595	3055
228.661	2912
228.727	6858
228.792	4966
228.858	2991
228.924	2710
228.990	5611
229.055	3823
229.121	4775
229.187	3575
229.252	5000
229.318	2708
229.384	3705
229.449	4406
229.515	2170
229.581	1282
229.646	4168
229.712	3630
229.777	11934
229.843	12916
229.909	7667
229.974	6758
230.040	7302
230.105	3699
230.171	5432
230.236	6135
230.302	9520
230.368	8070
230.433	4704
230.499	4206
230.564	3910
230.630	3206
230.695	3472
230.761	4127
230.826	2703
230.892	7118
230.957	4347
231.023	3255
231.088	3129
231.154	3014
231.219	3419
231.284	5890
231.350	6824
231.415	3258
231.481	3313
231.546	2066
231.612	2883
231.677	1941
231.742	1948
231.808	3652
231.873	2098
231.939	684
232.004	7559
232.069	8360
232.135	3633
232.200	2743
232.265	3360
232.331	2792
232.396	2441
232.461	2092
232.527	2330
232.592	2421
232.657	3679
232.723	9577
232.788	7673
232.853	3527
232.918	3128
232.984	1956
233.049	3006
233.114	8320
233.179	8179
233.245	12059
233.310	17836
233.375	4300
233.440	4620
233.506	2120
233.571	2280
233.636	3346
233.701	3303
233.766	9401
233.832	14429
233.897	5114
233.962	4519
234.027	6106
234.092	4462
234.157	4081
234.222	5427
234.288	9016
234.353	32452
234.418	28347
234.483	14980
234.548	8948
234.613	6926
234.678	5399
234.743	7775
234.808	31941
234.873	20512
234.938	7524
235.004	6407
235.069	5878
235.134	5144
235.199	4929
235.264	5000
235.329	2797
235.394	4385
235.459	7643
235.524	6945
235.589	5062
235.654	3772
235.719	2556
235.784	4688
235.849	5698
235.913	17557
235.978	18864
236.043	22352
236.108	7763
236.173	7282
236.238	7551
236.303	4790
236.368	3825
236.433	9679
236.498	20816
236.563	8975
236.627	11744
236.692	45881
236.757	34321
236.822	15347
236.887	14995
236.952	9631
237.017	7613
237.081	9754
237.146	9599
237.211	16303
237.276	44308
237.341	89742
237.405	41772
237.470	15941
237.535	14308
237.600	9267
237.664	6817
237.729	5968
237.794	5415
237.859	11447
237.923	13822
237.988	8341
238.053	14025
238.118	15868
238.182	40368
238.247	37866
238.312	18298
238.376	13219
238.441	10006
238.506	8774
238.570	4604
238.635	5441
238.700	4878
238.764	4804
238.829	17321
238.893	24302
238.958	10340
239.023	8486
239.087	5398
239.152	6937
239.216	4358
239.281	5509
239.346	4150
239.410	4493
239.475	6824
239.539	39061
239.604	33817
239.668	9754
239.733	6612
239.797	11298
239.862	29722
239.926	39685
239.991	15125
240.055	6916
240.120	6048
240.184	5665
240.249	4996
240.313	5121
240.378	6182
240.442	22444
240.507	41398
240.571	11982
240.635	18150
240.700	26368
240.764	8279
240.829	5808
240.893	4445
240.957	5558
241.022	22364
241.086	43555
241.151	19825
241.215	7512
241.279	10494
241.344	22888
241.408	9431
241.472	6229
241.537	7015
241.601	6739
241.665	4468
241.730	4958
241.794	6539
241.858	5539
241.922	5689
241.987	5189
242.051	4414
242.115	3631
242.179	4547
242.244	4313
242.308	5067
242.372	6002
242.436	7952
242.501	6385
242.565	5055
242.629	4931
242.693	4525
242.757	3596
242.822	5081
242.886	6846
242.950	6315
243.014	7377
243.078	6827
243.142	7406
243.206	5766
243.271	7226
243.335	5959
243.399	9635
243.463	36707
243.527	109995
243.591	32988
243.655	13290
243.719	8642
243.783	8694
243.847	12989
243.911	18201
243.975	21589
244.040	14568
244.104	8386
244.168	6502
244.232	11032
244.296	14618
244.360	15347
244.424	10919
244.488	9591
244.552	9236
244.615	5499
244.679	6210
244.743	7655
244.807	8758
244.871	5731
244.935	5575
244.999	3953
245.063	5554
245.127	6799
245.191	11329
245.255	9971
245.319	9580
245.383	7981
245.446	7874
245.510	5317
245.574	6364
245.638	6778
245.702	6595
245.766	19453
245.829	11276
245.893	9125
245.957	6784
246.021	7646
246.085	8162
246.149	10773
246.212	26766
246.276	42401
246.340	17963
246.404	11683
246.467	12216
246.531	19408
246.595	12625
246.659	11011
246.722	9470
246.786	11740
246.850	13100
246.913	17705
246.977	8162
247.041	8480
247.104	9263
247.168	8429
247.232	24187
247.295	58156
247.359	28108
247.423	11752
247.486	22044
247.550	13805
247.614	9597
247.677	12611
247.741	9519
247.804	8295
247.868	12070
247.932	21775
247.995	53317
248.059	18519
248.122	8805
248.186	12713
248.249	21608
248.313	87795
248.376	87769
248.440	56862
248.503	20377
248.567	16035
248.630	22768
248.694	28297
248.757	35498
248.821	94265
248.884	48179
248.948	45163
249.011	68446
249.075	108313
249.138	92295
249.202	32188
249.265	21236
249.328	32478
249.392	20363
249.455	14669
249.519	11781
249.582	13974
249.645	23374
249.709	17546
249.772	12007
249.835	12452
249.899	16703
249.962	13070
250.025	11985
250.089	32762
250.152	45236
250.215	19537
250.279	15465
250.342	15363
250.405	14954
250.468	12286
250.532	16511
250.595	25856
250.658	100740
250.721	172581
250.785	55772
250.848	29255
250.911	18416
250.974	16969
251.038	25206
251.101	56095
251.164	28036
251.227	26710
251.290	22872
251.354	31899
251.417	143474
251.480	138783
251.543	81109
251.606	267474
251.669	194284
251.732	64603
251.795	71818
251.859	73309
251.922	169637
251.985	92360
252.048	33149
252.111	25104
252.174	24165
252.237	43669
252.300	107570
252.363	102715
252.426	224940
252.489	90799
252.552	44786
252.615	32204
252.678	31680
252.741	78719
252.804	96069
252.867	221901
252.930	131165
252.993	69066
253.056	38352
253.119	27726
253.182	22439
253.245	34053
253.308	26817
253.371	28506
253.434	26991
253.497	23647
253.559	50516
253.622	32774
253.685	39987
253.748	38130
253.811	20308
253.874	28663
253.937	27208
254.000	17684
254.062	33610
254.125	55337
254.188	39920
254.251	36413
254.314	19089
254.376	33785
254.439	35708
254.502	29651
254.565	34552
254.628	61767
254.690	34492
254.753	19297
254.816	17111
254.878	18644
254.941	39449
255.004	42619
255.067	17899
255.129	16594
255.192	10593
255.255	9390
255.317	11385
255.380	8766
255.443	6622
255.505	7247
255.568	7033
255.631	7131
255.693	8817
255.756	6439
255.819	7902
255.881	6348
255.944	6994
256.006	7247
256.069	8246
256.132	6545
256.194	10873
256.257	36350
256.319	27225
256.382	24340
256.444	11768
256.507	8423
256.569	7597
256.632	7775
256.694	14958
256.757	23697
256.819	64639
256.882	24568
256.944	13202
257.007	11901
257.069	14509
257.132	9790
257.194	7794
257.257	7577
257.319	8372
257.381	7779
257.444	18761
257.506	81419
257.569	91067
257.631	71774
257.693	35195
257.756	17257
257.818	17855
257.880	10242
257.943	9308
258.005	7693
258.067	8334
258.130	6320
258.192	9801
258.254	24710
258.317	14118
258.379	9580
258.441	30410
258.503	27918
258.566	41840
258.628	57176
258.690	14101
258.753	12309
258.815	20889
258.877	12243
258.939	8121
259.001	7235
259.064	8073
259.126	11692
259.188	17766
259.250	10567
259.312	14518
259.375	47424
259.437	27855
259.499	10380
259.561	8475
259.623	8604
259.685	7943
259.747	10063
259.809	38067
259.872	76228
259.934	104715
259.996	84906
260.058	21358
260.120	11399
260.182	9902
260.244	8200
260.306	6971
260.368	7516
260.430	7289
260.492	11761
260.554	34238
260.616	34716
260.678	51893
260.740	79918
260.802	20373
260.864	12960
260.926	10588
260.988	11109
261.050	10972
261.112	15454
261.174	62368
261.236	60691
261.298	17363
261.359	33669
261.421	51161
261.483	13016
261.545	10677
261.607	7106
261.669	8259
261.731	20086
261.793	52586
261.854	19706
261.916	13253
261.978	8639
262.040	11257
262.102	10872
262.164	20804
262.225	16185
262.287	9483
262.349	22150
262.411	19191
262.472	9858
262.534	23614
262.596	53151
262.658	16492
262.719	9895
262.781	14645
262.843	49827
262.904	21815
262.966	13781
263.028	17360
263.090	77555
263.151	194817
263.213	57171
263.275	25112
263.336	13115
263.398	11160
263.459	7989
263.521	8602
263.583	20858
263.644	15440
263.706	7180
263.767	5781
263.829	5959
263.891	4737
263.952	4328
264.014	4439
264.075	5013
264.137	9877
264.198	9483
264.260	4367
264.321	4778
264.383	12804
264.444	20578
264.506	7403
264.567	5589
264.629	7906
264.690	10588
264.752	7796
264.813	5481
264.875	4566
264.936	5230
264.998	4154
265.059	4542
265.120	5804
265.182	7029
265.243	25260
265.305	26063
265.366	7989
265.427	5662
265.489	6356
265.550	3074
265.611	6795
265.673	5739
265.734	4598
265.795	3259
265.857	4382
265.918	4083
265.979	10003
266.040	47735
266.102	38912
266.163	11663
266.224	10915
266.286	6662
266.347	6076
266.408	6044
266.469	8615
266.530	6693
266.592	5329
266.653	12993
266.714	23235
266.775	7648
266.836	5596
266.898	4879
266.959	7852
267.020	6043
267.081	5973
267.142	3678
267.203	5006
267.264	3727
267.326	7021
267.387	4031
267.448	4398
267.509	5356
267.570	6279
267.631	3790
267.692	3888
267.753	4399
267.814	4838
267.875	12009
267.936	29446
267.997	9500
268.058	7663
268.119	6143
268.180	7138
268.241	5332
268.302	5139
268.363	4539
268.424	5599
268.485	6676
268.546	4670
268.607	3166
268.668	3906
268.729	3347
268.790	4510
268.851	6063
268.912	16175
268.972	20100
269.033	10887
269.094	5266
269.155	4955
269.216	4525
269.277	7482
269.338	5208
269.398	5163
269.459	5757
269.520	8167
269.581	11061
269.642	13753
269.702	8167
269.763	7432
269.824	5157
269.885	8004
269.945	12647
270.006	5907
270.067	4957
270.128	6005
270.188	4249
270.249	5039
270.310	3798
270.370	5911
270.431	5691
270.492	5196
270.553	5176
270.613	13387
270.674	27607
270.734	12959
270.795	6391
270.856	10520
270.916	9134
270.977	5905
271.038	7990
271.098	8238
271.159	12822
271.219	15168
271.280	6301
271.340	6353
271.401	8035
271.462	28953
271.522	13496
271.583	8247
271.643	9017
271.704	7199
271.764	8644
271.825	19591
271.885	72693
271.946	108367
272.006	31319
272.066	44390
272.127	85816
272.187	26244
272.248	14765
272.308	16475
272.369	59838
272.429	32677
272.489	20913
272.550	20885
272.610	19297
272.671	17096
272.731	18719
272.791	34337
272.852	15831
272.912	13765
272.972	8608
273.033	9154
273.093	16115
273.153	13093
273.214	8926
273.274	11066
273.334	34330
273.394	81038
273.455	31163
273.515	28970
273.575	65339
273.635	29234
273.696	41320
273.756	87761
273.816	34304
273.876	19974
273.936	47402
273.997	85652
274.057	21822
274.117	16057
274.177	21727
274.237	91833
274.297	88691
274.358	67408
274.418	66756
274.478	46266
274.538	19462
274.598	19378
274.658	72463
274.718	95143
274.778	35307
274.838	18031
274.898	40195
274.958	132964
275.018	99382
275.078	57309
275.138	22674
275.198	14291
275.258	11911
275.318	14451
275.378	24332
275.438	22886
275.498	16873
275.558	52910
275.618	113022
275.678	61798
275.738	30617
275.798	22868
275.858	11720
275.918	9665
275.978	11145
276.038	10490
276.098	8531
276.157	17369
276.217	49262
276.277	22672
276.337	16181
276.397	10567
276.457	11940
276.517	8922
276.576	7930
276.636	7402
276.696	13489
276.756	31242
276.815	25698
276.875	12091
276.935	14584
276.995	12772
277.055	9203
277.114	10081
277.174	13250
277.234	40193
277.293	19161
277.353	11225
277.413	9436
277.472	10741
277.532	11068
277.592	14206
277.651	47862
277.711	96752
277.771	31972
277.830	99414
277.890	83625
277.950	61791
278.009	185895
278.069	68685
278.128	63092
278.188	94543
278.248	39604
278.307	102817
278.367	66524
278.426	23024
278.486	15044
278.545	13193
278.605	12168
278.664	11700
278.724	12789
278.783	32595
278.843	88609
278.902	28589
278.962	19047
279.021	20959
279.081	42442
279.140	42335
279.199	22301
279.259	19966
279.318	22103
279.378	30711
279.437	58079
279.496	195841
279.556	549461
279.615	474470
279.675	136475
279.734	76077
279.793	111447
279.853	174620
279.912	63038
279.971	34979
280.031	31066
280.090	53346
280.149	96641
280.208	87089
280.268	355432
280.327	401233
280.386	105905
280.445	62121
280.505	52800
280.564	30585
280.623	24010
280.682	30361
280.742	41049
280.801	17753
280.860	13370
280.919	12360
280.978	12168
281.037	11491
281.097	9713
281.156	11262
281.215	10255
281.274	14803
281.333	52840
281.392	43545
281.451	12836
281.510	11004
281.569	8602
281.628	9407
281.688	8210
281.747	9028
281.806	8961
281.865	7193
281.924	7349
281.983	8464
282.042	5934
282.101	6166
282.160	6865
282.219	7362
282.278	8463
282.337	26272
282.396	19827
282.454	9349
282.513	12048
282.572	38015
282.631	24626
282.690	9793
282.749	7667
282.808	11211
282.867	9887
282.926	9802
282.985	7166
283.043	6561
283.102	7676
283.161	9316
283.220	20521
283.279	48464
283.338	15743
283.396	9430
283.455	9261
283.514	10421
283.573	14939
283.631	12898
283.690	9267
283.749	8557
283.808	17010
283.866	22037
283.925	9697
283.984	10040
284.043	13544
284.101	15014
284.160	10228
284.219	11748
284.277	11781
284.336	18359
284.395	54456
284.453	50879
284.512	20364
284.570	24063
284.629	21887
284.688	20946
284.746	24247
284.805	27941
284.863	34783
284.922	43650
284.981	49084
285.039	70043
285.098	124492
285.156	303379
285.215	679396
285.273	685695
285.332	343549
285.390	170354
285.449	103970
285.507	73671
285.566	54789
285.624	43172
285.683	31918
285.741	25637
285.799	21867
285.858	19680
285.916	17166
285.975	14323
286.033	12602
286.091	11713
286.150	9731
286.208	10816
286.267	11403
286.325	12631
286.383	17270
286.442	14772
286.500	10043
286.558	8850
286.616	7344
286.675	11511
286.733	9859
286.791	10035
286.850	10643
286.908	13173
286.966	22647
287.024	10533
287.083	8023
287.141	8067
287.199	7987
287.257	13059
287.315	9450
287.374	10714
287.432	21654
287.490	15583
287.548	10524
287.606	8623
287.664	8778
287.723	11340
287.781	13362
287.839	9543
287.897	9726
287.955	12739
288.013	20427
288.071	49538
288.129	191564
288.187	580695
288.245	257082
288.303	73209
288.361	41794
288.419	32295
288.477	23166
288.535	18441
288.593	13669
288.651	10636
288.709	8575
288.767	8262
288.825	8140
288.883	6530
288.941	6053
288.999	6543
289.057	5287
289.115	6088
289.173	5682
289.231	7688
289.289	8378
289.346	7809
289.404	7749
289.462	13333
289.520	13170
289.578	7174
289.636	5085
289.694	4664
289.751	4541
289.809	5762
289.867	4138
289.925	6683
289.983	8222
290.040	5090
290.098	4512
290.156	5988
290.214	7415
290.271	5808
290.329	5263
290.387	4978
290.444	4301
290.502	3234
290.560	3486
290.617	4020
290.675	6159
290.733	5208
290.790	5713
290.848	5418
290.906	6444
290.963	7375
291.021	5675
291.078	5488
291.136	5860
291.194	15935
291.251	37342
291.309	13099
291.366	5075
291.424	5765
291.481	6127
291.539	6533
291.596	7309
291.654	4710
291.711	3171
291.769	6634
291.826	13006
291.884	10096
291.941	5001
291.999	5159
292.056	6701
292.114	7112
292.171	4854
292.228	5909
292.286	7519
292.343	15059
292.401	18707
292.458	13101
292.515	8288
292.573	10498
292.630	9458
292.687	10950
292.745	7434
292.802	7573
292.859	19852
292.917	52178
292.974	31310
293.031	11350
293.089	8304
293.146	6300
293.203	6577
293.260	5808
293.318	10481
293.375	9934
293.432	5007
293.489	5837
293.546	6457
293.604	13046
293.661	44008
293.718	103537
293.775	46041
293.832	22586
293.889	17551
293.947	23443
294.004	16996
294.061	12936
294.118	21058
294.175	36787
294.232	28245
294.289	15281
294.346	8430
294.403	8241
294.460	11381
294.517	9407
294.574	6363
294.631	6622
294.688	9069
294.745	24945
294.802	92013
294.859	73040
294.916	33971
294.973	27033
295.030	17797
295.087	13935
295.144	10144
295.201	9609
295.258	8378
295.315	11336
295.372	38023
295.429	81308
295.486	32427
295.542	14166
295.599	17295
295.656	26609
295.713	31638
295.770	64542
295.827	25500
295.883	11240
295.940	9986
295.997	16973
296.054	17287
296.111	9990
296.167	6912
296.224	5631
296.281	4973
296.338	4891
296.394	6163
296.451	9663
296.508	26385
296.564	52929
296.621	33048
296.678	76705
296.734	120553
296.791	41296
296.848	19555
296.904	20453
296.961	42614
297.018	76986
297.074	59441
297.131	21933
297.187	16024
297.244	23936
297.301	83237
297.357	163375
297.414	60207
297.470	21729
297.527	12917
297.583	11712
297.640	11958
297.696	9715
297.753	7458
297.809	6919
297.866	5347
297.922	5847
297.979	6148
298.035	8303
298.092	13596
298.148	42683
298.204	44500
298.261	21458
298.317	32422
298.374	102408
298.430	65994
298.486	30940
298.543	22396
298.599	17664
298.656	15647
298.712	25739
298.768	62948
298.824	48780
298.881	17575
298.937	10279
298.993	8754
299.050	11602
299.106	10440
299.162	8392
299.218	8547
299.275	8447
299.331	10945
299.387	22820
299.443	89349
299.500	106595
299.556	44123
299.612	18867
299.668	16198
299.724	23957
299.780	28514
299.837	17235
299.893	21599
299.949	69424
300.005	88572
300.061	72508
300.117	129478
300.173	68088
300.229	27338
300.285	28576
300.341	31867
300.397	17995
300.453	11301
300.510	10906
300.566	11223
300.622	17504
300.678	48676
300.734	85887
300.790	75455
300.845	97277
300.901	61387
300.957	77135
301.013	57777
301.069	24990
301.125	16444
301.181	16539
301.237	12665
301.293	9122
301.349	7858
301.405	7697
301.461	7436
301.516	7655
301.572	9497
301.628	18186
301.684	17191
301.740	24114
301.796	42000
301.851	29870
301.907	47544
301.963	53099
302.019	90199
302.074	263310
302.130	268162
302.186	118685
302.242	44278
302.297	27706
302.353	26655
302.409	47947
302.464	44775
302.520	36431
302.576	84111
302.631	102161
302.687	53978
302.743	22878
302.798	13210
302.854	11097
302.910	10636
302.965	12338
303.021	21808
303.076	22130
303.132	27808
303.187	32852
303.243	17385
303.299	8955
303.354	8547
303.410	6555
303.465	7098
303.521	7457
303.576	7824
303.632	12236
303.687	24459
303.743	80613
303.798	74488
303.853	28973
303.909	13863
303.964	10864
304.020	16403
304.075	25880
304.130	22586
304.186	39163
304.241	40953
304.297	32383
304.352	17922
304.358	17131
304.407	10711
304.449	10625
304.463	10603
304.518	12354
304.539	11671
304.573	10582
304.629	12094
304.630	12259
304.684	20680
304.720	46104
304.739	58857
304.794	100784
304.811	86349
304.850	51117
304.902	21781
304.905	19938
304.960	12602
304.992	11309
305.015	10414
305.071	10139
305.083	9735
305.126	8217
305.173	7263
305.181	7129
305.236	5946
305.264	6600
305.292	7328
305.347	8782
305.354	9010
305.402	10319
305.445	9866
305.457	9782
305.512	12959
305.535	13418
305.567	13946
305.622	15059
305.626	15594
305.678	29745
305.716	61414
305.733	72593
305.788	92312
305.807	80676
305.843	61399
305.897	80339
305.898	80491
305.953	87293
305.988	57731
306.008	41659
306.063	21833
306.078	19346
306.118	14510
306.168	10588
306.173	10263
306.228	8263
306.259	7842
306.283	7593
306.338	6637
306.349	6630
306.393	6654
306.440	7504
306.448	7671
306.503	8252
306.530	8591
306.558	10701
306.613	22151
306.620	24218
306.668	42198
306.711	68045
306.723	71257
306.778	59745
306.801	45866
306.833	29764
306.888	13239
306.892	12655
306.943	9367
306.982	8191
306.997	7827
307.052	7627
307.072	7507
307.107	7677
307.162	7989
307.163	8019
307.217	12013
307.253	14204
307.272	14772
307.327	15886
307.343	15377
307.381	13949
307.434	13651
307.436	14116
307.491	28771
307.524	43074
307.546	48147
307.600	58610
307.614	54075
307.655	33564
307.704	15376
307.710	14564
307.765	13485
307.795	15906
307.819	19021
307.874	29111
307.885	29438
307.929	23801
307.975	17989
307.984	18123
308.038	23192
308.065	28112
308.093	50847
308.148	113028
308.156	129719
308.202	230716
308.246	301889
308.257	296055
308.312	152614
308.336	102902
308.366	77353
308.421	53150
308.426	50908
308.475	31887
308.517	20951
308.530	19289
308.585	16651
308.607	15853
308.639	16082
308.694	17830
308.697	17992
308.748	27994
308.787	39203
308.803	39205
308.857	32042
308.877	28326
308.912	25420
308.967	24033
308.967	24052
309.021	35689
309.058	45964
309.076	57222
309.130	100546
309.148	117183
309.185	212330
309.238	378592
309.239	380216
309.293	470242
309.328	443962
309.348	379422
309.402	172293
309.418	122507
309.457	83697
309.508	53219
309.511	52677
309.566	55902
309.598	60485
309.620	76946
309.674	127630
309.688	140835
309.729	135670
309.778	111143
309.783	108186
309.837	70598
309.868	52110
309.892	57164
309.946	76640
309.959	83592
310.001	109656
310.049	133676
310.055	129200
310.109	75968
310.139	45480
310.163	36015
310.218	22252
310.229	20048
310.272	16152
310.319	12751
310.326	12355
310.381	10002
310.409	8974
310.435	8504
310.489	7486
310.499	7402
310.543	7654
310.589	8043
310.598	8011
310.652	7750
310.679	7446
310.706	6627
310.760	5369
310.769	5171
310.814	5290
310.859	5396
310.868	5449
310.923	5890
310.948	6161
310.977	7719
311.031	10703
311.038	11146
311.085	10133
311.128	8527
311.139	8309
311.193	7620
311.218	7093
311.247	6324
311.301	5211
311.308	5080
311.356	5597
311.398	5993
311.410	5840
311.464	5149
311.488	4814
311.518	4959
311.572	5297
311.578	5346
311.626	9036
311.668	12318
311.680	11970
311.734	10006
311.758	9146
311.788	9230
311.842	9471
311.847	9483
311.896	10224
311.937	10869
311.950	10839
312.004	10648
312.027	10540
312.058	9513
312.112	7671
312.117	7483
312.165	6712
312.207	6056
312.297	6264
312.386	5203
312.476	8227
312.566	21359
312.656	10382
312.745	5184
312.835	5332
312.925	6865
313.015	6586
313.104	5992
313.194	5815
313.284	6872
313.374	9655
313.463	8619
313.553	6770
313.643	5704
313.732	5061
313.822	4468
313.912	6358
314.001	8919
314.091	8521
314.180	8733
314.270	11752
314.360	12280
314.449	11379
314.539	6274
314.628	6027
314.718	6872
314.808	10223
314.897	7388
314.987	8180
315.076	11067
315.166	14786
315.255	11975
315.345	12863
315.434	12119
315.524	12386
315.613	16908
315.703	29804
315.792	70373
315.881	305548
315.971	102147
316.060	30107
316.150	26086
316.239	25467
316.328	10330
316.418	7110
316.507	9019
316.597	12413
316.686	11454
316.775	13943
316.865	25296
316.954	8856
317.043	7251
317.133	9056
317.222	8152
317.311	8386
317.400	9200
317.490	16687
317.579	21370
317.668	22169
317.757	43772
317.847	127224
317.936	508212
318.025	160808
318.114	98403
318.203	47198
318.293	25560
318.382	43840
318.471	32261
318.560	33711
318.649	35883
318.738	12434
318.828	13198
318.917	15514
319.006	12745
319.095	29160
319.184	54369
319.273	47167
319.362	35837
319.451	12479
319.540	12241
319.629	28613
319.718	49778
319.807	16354
319.896	24386
319.985	73198
320.074	38904
320.163	10022
320.252	17119
320.341	10527
320.430	9972
320.519	22973
320.608	12934
320.697	9769
320.786	10726
320.875	16465
320.964	22732
321.053	37202
321.142	50782
321.230	55164
321.319	35282
321.408	82668
321.497	33425
321.586	33390
321.675	29610
321.764	30187
321.852	20276
321.941	47262
322.030	32591
322.119	30156
322.207	87892
322.296	41683
322.385	23235
322.474	36742
322.562	111946
322.651	54313
322.740	40768
322.829	55377
322.917	38092
323.006	30158
323.095	26554
323.183	16382
323.272	23901
323.361	41886
323.449	108802
323.538	36296
323.626	72191
323.715	47918
323.804	19171
323.892	65272
323.981	44951
324.069	13070
324.158	30513
324.246	32402
324.335	16634
324.424	31716
324.512	10816
324.601	14582
324.689	27799
324.778	51737
324.866	31774
324.954	9948
325.043	9034
325.131	16952
325.220	23922
325.308	30652
325.397	23935
325.485	16921
325.574	7302
325.662	6710
325.750	9588
325.839	8345
325.927	5744
326.015	10025
326.104	12024
326.192	17919
326.280	5811
326.369	6743
326.457	12413
326.545	24766
326.634	10018
326.722	5673
326.810	7847
326.898	6277
326.987	9148
327.075	23156
327.163	20933
327.251	9142
327.340	17382
327.428	26381
327.516	7917
327.604	9341
327.692	7276
327.781	8537
327.869	11159
327.957	9853
328.045	12198
328.133	5291
328.221	7161
328.309	7507
328.397	5493
328.485	9547
328.574	16118
328.662	58400
328.750	28864
328.838	9315
328.926	6042
329.014	6093
329.102	8875
329.190	19192
329.278	16187
329.366	4116
329.454	3492
329.542	4029
329.630	3872
329.718	5098
329.806	7625
329.893	5915
329.981	3378
330.069	4142
330.157	9623
330.245	28853
330.333	14179
330.421	7146
330.509	14162
330.597	67643
330.684	41634
330.772	10003
330.860	8897
330.948	8853
331.036	6243
331.123	3848
331.211	3341
331.299	4965
331.387	8739
331.475	18440
331.562	7689
331.650	4454
331.738	4745
331.825	7051
331.913	3913
332.001	4793
332.089	5871
332.176	11299
332.264	28282
332.352	23745
332.439	8678
332.527	6284
332.614	4359
332.702	6821
332.790	6493
332.877	16721
332.965	34807
333.052	15917
333.140	16551
333.228	45738
333.315	11974
333.403	7817
333.490	16835
333.578	24663
333.665	62510
333.753	28344
333.840	8180
333.928	8906
334.015	18317
334.103	26690
334.190	77578
334.278	23344
334.365	15522
334.452	14782
334.540	9427
334.627	10425
334.715	13656
334.802	26970
334.889	124019
334.977	141074
335.064	28103
335.151	12879
335.239	8680
335.326	11922
335.413	33122
335.501	44137
335.588	10614
335.675	8863
335.762	8728
335.850	13964
335.937	17448
336.024	37558
336.111	138313
336.199	74975
336.286	20487
336.373	10818
336.460	7532
336.547	6861
336.635	8855
336.722	8095
336.809	6187
336.896	11612
336.983	23138
337.070	49708
337.157	70163
337.245	70693
337.332	53024
337.419	8339
337.506	5159
337.593	5557
337.680	11672
337.767	31908
337.854	14916
337.941	16866
338.028	25796
338.115	8713
338.202	7882
338.289	18917
338.376	75322
338.463	23024
338.550	18452
338.637	21839
338.724	11335
338.811	20181
338.898	6184
338.984	4663
339.071	5526
339.158	8765
339.245	28655
339.332	17052
339.419	16053
339.506	15373
339.593	4040
339.679	6087
339.766	5222
339.853	8582
339.940	24007
340.027	8315
340.113	7277
340.200	12197
340.287	7756
340.374	10678
340.460	20756
340.547	8131
340.634	16534
340.720	67641
340.807	40632
340.894	7026
340.980	6820
341.067	6911
341.154	7871
341.240	13202
341.327	33655
341.414	9880
341.500	7863
341.587	6972
341.674	6644
341.760	21330
341.847	26749
341.933	10379
342.020	3492
342.106	4128
342.193	8502
342.279	17581
342.366	11850
342.452	23393
342.539	12213
342.625	28265
342.712	76456
342.798	30178
342.885	10986
342.971	4891
343.058	3926
343.144	5664
343.230	6415
343.317	6195
343.403	5246
343.490	4819
343.576	4943
343.662	6541
343.749	8716
343.835	11031
343.921	20615
344.008	143111
344.094	357342
344.180	75891
344.267	25359
344.353	81549
344.439	83579
344.525	34031
344.612	11836
344.698	10449
344.784	7892
344.870	6007
344.957	6955
345.043	13628
345.129	9067
345.215	19943
345.301	11427
345.387	8024
345.474	3983
345.560	4331
345.646	5830
345.732	5740
345.818	7485
345.904	6469
345.990	10348
346.076	8464
346.162	11143
346.249	7381
346.335	5491
346.421	8026
346.507	32550
346.593	131060
346.679	29372
346.765	7587
346.851	8563
346.937	8282
347.023	6071
347.108	8270
347.194	7084
347.280	6681
347.366	10745
347.452	36916
347.538	162049
347.624	105341
347.710	78419
347.796	11281
347.882	5969
347.967	5697
348.053	5349
348.139	5229
348.225	5672
348.311	7315
348.397	5552
348.482	8677
348.568	10611
348.654	6375
348.740	11846
348.825	13304
348.911	16247
348.997	66521
349.083	146489
349.168	21060
349.254	7824
349.340	7012
349.425	5955
349.511	9614
349.597	10132
349.682	23220
349.768	80421
349.854	38814
349.939	5851
350.025	4602
350.110	3840
350.196	4670
350.282	3576
350.367	4185
350.453	9109
350.538	10199
350.624	8160
350.709	8003
350.795	5091
350.880	6597
350.966	6260
351.051	10229
351.137	7982
351.222	7039
351.308	22566
351.393	71078
351.479	16681
351.564	6371
351.649	6358
351.735	6346
351.820	4996
351.906	5971
351.991	7225
352.076	42583
352.162	68487
352.247	13553
352.332	8338
352.418	16935
352.503	18610
352.588	95370
352.673	83613
352.759	18947
352.844	9426
352.929	10312
353.014	15434
353.100	10231
353.185	22600
353.270	29864
353.355	27759
353.441	8167
353.526	8199
353.611	23341
353.696	29412
353.781	16377
353.866	7306
353.952	8829
354.037	22871
354.122	55312
354.207	49290
354.292	18490
354.377	7626
354.462	6254
354.547	11275
354.632	9097
354.717	13135
354.802	25405
354.887	9678
354.972	5573
355.057	4905
355.142	5112
355.227	7877
355.312	15449
355.397	34830
355.482	89202
355.567	42886
355.652	28286
355.737	31328
355.822	96373
355.907	82047
355.991	13006
356.076	6358
356.161	7129
356.246	5975
356.331	8542
356.416	21000
356.501	164611
356.585	182172
356.670	22694
356.755	16252
356.840	21946
356.924	108889
357.009	429622
357.094	154953
357.179	32210
357.263	25121
357.348	19359
357.433	18080
357.517	17874
357.602	16635
357.687	12993
357.771	14998
357.856	17796
357.941	17642
358.025	76772
358.110	402234
358.195	183004
358.279	24634
358.364	18360
358.448	63967
358.533	178554
358.617	127412
358.702	127444
358.787	45666
358.871	25606
358.956	22002
359.040	9181
359.125	6174
359.209	6670
359.294	9089
359.378	13847
359.462	19663
359.547	11989
359.631	6593
359.716	5533
359.800	5396
359.885	9296
359.969	8437
360.053	7606
360.138	6747
360.222	13380
360.306	26474
360.391	18472
360.475	21005
360.559	53237
360.644	68731
360.728	52178
360.812	82649
360.896	263345
360.981	93719
361.065	43740
361.149	12811
361.233	13989
361.318	12960
361.402	20510
361.486	12573
361.570	9110
361.654	13564
361.739	34103
361.823	158713
361.907	264830
361.991	42294
362.075	23177
362.159	54905
362.243	39545
362.327	39148
362.411	53263
362.495	25658
362.580	12739
362.664	9567
362.748	9772
362.832	13554
362.916	24787
363.000	81787
363.084	240412
363.168	324143
363.252	70129
363.336	23185
363.420	25316
363.503	47467
363.587	53778
363.671	16566
363.755	15578
363.839	24362
363.923	12860
364.007	28112
364.091	30391
364.175	25856
364.258	89372
364.342	104548
364.426	186289
364.510	104735
364.594	37708
364.677	41900
364.761	221822
364.845	160644
364.929	45586
365.013	37595
365.096	30000
365.180	37460
365.264	21653
365.347	70835
365.431	30073
365.515	11395
365.598	10379
365.682	7411
365.766	7288
365.849	8179
365.933	10011
366.017	10597
366.100	6032
366.184	4036
366.267	6911
366.351	6550
366.435	6504
366.518	5542
366.602	6021
366.685	7161
366.769	8594
366.852	9536
366.936	22582
367.019	17211
367.103	7138
367.186	9626
367.270	6021
367.353	4709
367.436	7100
367.520	5897
367.603	10817
367.687	16223
367.770	32804
367.853	17106
367.937	55311
368.020	102704
368.104	24352
368.187	21727
368.270	31556
368.353	24716
368.437	28267
368.520	49222
368.603	39674
368.687	63670
368.770	131047
368.853	30282
368.936	24990
369.020	19407
369.103	10202
369.186	7364
369.269	8044
369.352	19535
369.436	28128
369.519	16666
369.602	8129
369.685	9536
369.768	10198
369.851	7677
369.934	6102
370.018	8873
370.101	25716
370.184	18883
370.267	11058
370.350	23007
370.433	35186
370.516	119208
370.599	222915
370.682	80479
370.765	66098
370.848	79661
370.931	163968
371.014	55853
371.097	11667
371.180	9568
371.263	4938
371.346	4729
371.429	6746
371.511	6045
371.594	15088
371.677	20683
371.760	15896
371.843	20914
371.926	121901
372.009	321526
372.091	91621
372.174	54464
372.257	154679
372.340	57657
372.423	25808
372.505	23336
372.588	14506
372.671	44587
372.754	162401
372.836	78378
372.919	23048
373.002	38063
373.085	21233
373.167	23515
373.250	64104
373.332	149518
373.415	192153
373.498	442892
373.580	162259
373.663	300895
373.746	399808
373.828	72291
373.911	24373
373.993	19352
374.076	37259
374.159	36323
374.241	34756
374.324	129166
374.406	87215
374.489	112832
374.571	361141
374.654	139927
374.736	59013
374.819	211909
374.901	300231
374.983	326436
375.066	51439
375.148	15184
375.231	31890
375.313	59519
375.395	28663
375.478	11977
375.560	10292
375.643	14399
375.725	54722
375.807	271011
375.890	188842
375.972	54161
376.054	33228
376.136	41220
376.219	22148
376.301	67781
376.383	239303
376.465	87411
376.548	52449
376.630	60159
376.712	193212
376.794	90308
376.877	10510
376.959	6222
377.041	8784
377.123	7487
377.205	8933
377.287	4700
377.369	7223
377.452	7913
377.534	7849
377.616	6632
377.698	7185
377.780	5612
377.862	8255
377.944	8581
378.026	4629
378.108	5194
378.190	5315
378.272	5272
378.354	4140
378.436	3685
378.518	7959
378.600	24158
378.682	28389
378.764	86329
378.846	71480
378.928	15852
379.010	25531
379.091	14795
379.173	7298
379.255	6537
379.337	11269
379.419	40152
379.501	129374
379.583	49316
379.664	11349
379.746	32113
379.828	82739
379.910	116598
379.991	107108
380.073	17792
380.155	11686
380.237	9517
380.318	7331
380.400	7985
380.482	21056
380.564	33167
380.645	33572
380.727	31824
380.809	16694
380.890	11362
380.972	10386
381.053	9081
381.135	11512
381.217	28201
381.298	89703
381.380	43998
381.461	35287
381.543	184586
381.624	245029
381.706	41822
381.787	19223
381.869	21640
381.951	76156
382.032	334498
382.113	209573
382.195	39730
382.276	26843
382.358	60975
382.439	177561
382.521	190143
382.602	320817
382.684	134825
382.765	245240
382.846	295688
382.928	487334
383.009	272070
383.090	170912
383.172	641237
383.253	1007406
383.334	324566
383.416	294187
383.497	158330
383.578	78215
383.659	145828
383.741	535098
383.822	1400614
383.903	729845
383.984	222757
384.066	332103
384.147	205175
384.228	45619
384.309	34523
384.390	27744
384.471	19931
384.553	20547
384.634	27250
384.715	29143
384.796	15165
384.877	19766
384.958	79650
385.039	103276
385.120	34533
385.201	16972
385.282	17067
385.363	16449
385.444	18782
385.525	33898
385.606	131740
385.687	120837
385.768	22178
385.849	25891
385.930	138149
386.011	266644
386.092	67369
386.173	14853
386.254	10661
386.335	11736
386.416	13055
386.496	49540
386.577	86751
386.658	26692
386.739	15822
386.820	13395
386.901	9566
386.981	11644
387.062	9386
387.143	21908
387.224	85333
387.304	79923
387.385	27898
387.466	15579
387.547	17101
387.627	16595
387.708	31365
387.789	148200
387.869	201115
387.950	52396
388.031	10200
388.111	7019
388.192	12631
388.273	18449
388.353	14448
388.434	13509
388.514	28963
388.595	153952
388.676	202409
388.756	85070
388.837	80004
388.917	51602
388.998	10322
389.078	11195
389.159	10743
389.239	10200
389.320	17253
389.400	15661
389.480	28383
389.561	90815
389.641	45759
389.722	16241
389.802	25111
389.883	36832
389.963	110552
390.043	65509
390.124	15186
390.204	29266
390.284	99053
390.365	62006
390.445	43979
390.525	174653
390.605	175361
390.686	52209
390.766	23889
390.846	13189
390.927	8522
391.007	9928
391.087	12159
391.167	16550
391.247	13096
391.328	14906
391.408	16323
391.488	12158
391.568	9021
391.648	15327
391.728	21056
391.808	21632
391.888	23013
391.969	48456
392.049	83737
392.129	33692
392.209	40176
392.289	109982
392.369	58942
392.449	28978
392.529	27773
392.609	33986
392.689	42032
392.769	118945
392.849	111467
392.929	75344
393.009	167913
393.089	178935
393.169	219724
393.248	638616
393.328	1877503
393.408	2010512
393.488	715553
393.568	226281
393.648	110855
393.728	69922
393.807	47322
393.887	39187
393.967	30789
394.047	30701
394.127	28827
394.206	32424
394.286	82614
394.366	420506
394.446	472655
394.525	88840
394.605	25612
394.685	21576
394.764	29549
394.844	48116
394.924	43083
395.003	23657
395.083	17732
395.163	17728
395.242	15728
395.322	17467
395.402	11646
395.481	16161
395.561	24230
395.640	67068
395.720	73312
395.799	59733
395.879	44197
395.958	33289
396.038	105762
396.117	545093
396.197	622104
396.276	134976
396.356	48161
396.435	46219
396.515	52642
396.594	83118
396.673	171582
396.753	610202
396.832	1698769
396.912	1317595
396.991	345978
397.070	105589
397.150	57087
397.229	39301
397.308	45176
397.388	70350
397.467	38752
397.546	18485
397.625	14282
397.705	19365
397.784	19728
397.863	12806
397.942	9612
398.022	9700
398.101	14963
398.180	38235
398.259	20583
398.338	12253
398.417	11814
398.497	8556
398.576	8570
398.655	7215
398.734	6955
398.813	6712
398.892	12503
398.971	40227
399.050	21494
399.129	6013
399.208	6126
399.287	6003
399.366	3997
399.445	4851
399.524	5490
399.603	5522
399.682	12550
399.761	26708
399.840	48978
399.919	35731
399.998	6204
400.077	3688
400.156	4346
400.235	7159
400.313	3584
400.392	6291
400.471	41584
400.550	74720
400.629	19249
400.708	8736
400.786	5241
400.865	7410
400.944	10766
401.023	9671
401.102	3181
401.180	3105
401.259	2834
401.338	4533
401.416	8462
401.495	7238
401.574	4505
401.652	4561
401.731	7115
401.810	7442
401.888	5474
401.967	3601
402.046	7543
402.124	7657
402.203	9648
402.281	7026
402.360	9395
402.438	14026
402.517	8038
402.596	5483
402.674	3753
402.753	3240
402.831	3728
402.910	5899
402.988	29482
403.066	118500
403.145	66782
403.223	32202
403.302	95487
403.380	68993
403.459	69270
403.537	28221
403.615	9364
403.694	3738
403.772	4108
403.850	3413
403.929	3488
404.007	4611
404.085	13777
404.164	19708
404.242	5881
404.320	5632
404.398	9816
404.477	40794
404.555	235042
404.633	212366
404.711	26399
404.789	8020
404.868	7700
404.946	5722
405.024	2734
405.102	3283
405.180	2649
405.258	2710
405.336	4144
405.415	3812
405.493	9378
405.571	11579
405.649	4267
405.727	3019
405.805	6741
405.883	7798
405.961	6721
406.039	5481
406.117	3881
406.195	10057
406.273	48383
406.351	199776
406.429	113926
406.507	13144
406.585	4155
406.663	6523
406.740	9969
406.818	8981
406.896	4066
406.974	5368
407.052	14494
407.130	109107
407.208	165397
407.285	30487
407.363	4806
407.441	6085
407.519	4805
407.596	5949
407.674	13397
407.752	32816
407.830	27632
407.907	12040
407.985	6561
408.063	4543
408.141	2100
408.218	6051
408.296	6648
408.373	8609
408.451	8048
408.529	8016
408.606	3548
408.684	3047
408.762	2248
408.839	2611
408.917	1840
408.994	3523
409.072	3466
409.149	4180
409.227	8829
409.304	12155
409.382	10089
409.459	11519
409.537	17456
409.614	15067
409.692	9850
409.769	10301
409.846	18677
409.924	22984
410.001	13846
410.079	10363
410.156	7524
410.233	7624
410.311	6276
410.388	5469
410.465	5707
410.543	6597
410.620	4618
410.697	6111
410.775	7920
410.852	4044
410.929	8457
411.006	9983
411.083	5502
411.161	11060
411.238	11332
411.315	4764
411.392	4142
411.469	7381
411.547	7505
411.624	3454
411.701	3254
411.778	6306
411.855	16295
411.932	8268
412.009	2994
412.086	3035
412.163	4004
412.240	4357
412.317	4906
412.394	4590
412.471	2112
412.548	3014
412.625	3099
412.702	4367
412.779	8919
412.856	5947
412.933	1258
413.010	2720
413.087	5765
413.164	39199
413.241	60090
413.318	14870
413.395	8228
413.471	13629
413.548	5944
413.625	3258
413.702	4609
413.779	3366
413.855	885
413.932	1523
414.009	352
414.086	1886
414.162	2412
414.239	6254
414.316	36112
414.393	91961
414.469	32084
414.546	3866
414.623	2226
414.699	2575
414.776	4909
414.853	2811
414.929	2561
415.006	2283
415.082	2936
415.159	2785
415.236	2923
415.312	3698
415.389	10233
415.465	14528
415.542	6984
415.618	3896
415.695	8785
415.771	5643
415.848	6132
415.924	4058
416.000	1765
416.077	3083
416.153	363
416.230	948
416.306	1164
416.383	2055
416.459	1444
416.535	1525
416.612	1511
416.688	2600
416.764	3034
416.841	3028
416.917	2721
416.993	1778
417.069	3783
417.146	5303
417.222	5839
417.298	4389
417.374	2182
417.451	3417
417.527	5631
417.603	7603
417.679	4363
417.755	2821
417.831	1386
417.908	2437
417.984	2238
418.060	1212
418.136	11069
418.212	16983
418.288	6291
418.364	2816
418.440	3690
418.516	6643
418.592	5250
418.668	15410
418.744	28898
418.820	21852
418.896	4988
418.972	1786
419.048	2938
419.124	13412
419.200	9971
419.276	2681
419.352	1043
419.428	1668
419.504	3714
419.579	6648
419.655	5234
419.731	4502
419.807	17831
419.883	37791
419.959	25306
420.034	7631
420.110	11942
420.186	56204
420.262	44817
420.337	6520
420.413	5482
420.489	3634
420.565	2871
420.640	3084
420.716	3689
420.792	2356
420.867	3862
420.943	3233
421.019	8620
421.094	6881
421.170	3670
421.245	2935
421.321	3857
421.397	4314
421.472	7780
421.548	18513
421.623	14697
421.699	7942
421.774	7682
421.850	8224
421.925	13957
422.001	14178
422.076	10829
422.152	12201
422.227	21174
422.302	24670
422.378	34498
422.453	64179
422.529	154091
422.604	445378
422.679	744229
422.755	500585
422.830	176732
422.905	69649
422.981	38037
423.056	25398
423.131	18290
423.207	14970
423.282	13558
423.357	23400
423.432	16472
423.508	15397
423.583	33008
423.658	24036
423.733	7276
423.808	8186
423.883	12279
423.959	10709
424.034	9142
424.109	7349
424.184	4296
424.259	2968
424.334	3555
424.409	2402
424.484	3941
424.559	4972
424.634	4791
424.709	10410
424.784	9738
424.859	5355
424.934	7859
425.009	38286
425.084	66873
425.159	24255
425.234	3785
425.309	1528
425.384	2292
425.459	3470
425.534	2474
425.609	1985
425.683	2141
425.758	2268
425.833	3324
425.908	5094
425.983	22699
426.058	72108
426.132	30052
426.207	5077
426.282	3876
426.357	2203
426.431	2113
426.506	2918
426.581	2208
426.655	2804
426.730	3505
426.805	2898
426.879	3602
426.954	3399
427.029	8418
427.103	62641
427.178	168623
427.253	71751
427.327	7290
427.402	3518
427.476	4572
427.551	3569
427.625	2684
427.700	3114
427.774	819
427.849	2688
427.923	361
427.998	2431
428.072	2853
428.147	10350
428.221	52898
428.296	174495
428.370	93858
428.444	9736
428.519	5861
428.593	7814
428.667	6761
428.742	8515
428.816	14911
428.890	88785
428.965	154768
429.039	37777
429.113	10276
429.188	4877
429.262	2495
429.336	7962
429.410	28809
429.485	17368
429.559	6648
429.633	5652
429.707	3776
429.781	14201
429.855	88724
429.930	154882
430.004	49303
430.078	35688
430.152	57807
430.226	224342
430.300	240054
430.374	35424
430.448	9152
430.522	13680
430.596	34580
430.670	39018
430.744	182742
430.818	277715
430.892	53629
430.966	8800
431.040	3913
431.114	1461
431.188	1345
431.262	2379
431.336	1899
431.410	6033
431.484	14413
431.557	13474
431.631	3609
431.705	5542
431.779	29926
431.853	152215
431.927	109191
432.000	11985
432.074	4349
432.148	3066
432.222	2253
432.295	2072
432.369	1911
432.443	6711
432.516	56876
432.590	166790
432.664	57773
432.737	6586
432.811	1740
432.885	734
432.958	1269
433.032	504
433.106	523
433.179	625
433.253	619
433.326	359
433.400	165
433.473	558
433.547	452
433.620	1669
433.694	4929
433.767	5835
433.841	1635
433.914	735
433.988	370
434.061	1264
434.134	1309
434.208	111
434.281	499
434.355	1046
434.428	1131
434.501	277
434.575	122
434.648	1008
434.721	-18
434.795	166
434.868	832
434.941	1220
435.014	575
435.088	1593
435.161	3872
435.234	8874
435.307	9660
435.381	5151
435.454	6001
435.527	9370
435.600	8716
435.673	6557
435.746	4837
435.819	2555
435.892	2836
435.966	1987
436.039	1001
436.112	1600
436.185	-407
436.258	1113
436.331	-4
436.404	882
436.477	103
436.550	298
436.623	1014
436.696	581
436.769	1417
436.842	2143
436.915	1166
436.987	3131
437.060	1814
437.133	-552
437.206	216
437.279	904
437.352	536
437.425	1399
437.498	1678
437.570	6198
437.643	6563
437.716	1640
437.789	875
437.861	5296
437.934	15831
438.007	6697
438.080	1423
438.152	3020
438.225	9435
438.298	81228
438.370	245272
438.443	95573
438.516	17758
438.588	4002
438.661	758
438.734	1456
438.806	2504
438.879	3984
438.951	3437
439.024	7833
439.096	2325
439.169	776
439.241	443
439.314	572
439.386	572
439.459	3623
439.531	6142
439.604	2686
439.676	524
439.749	121
439.821	285
439.893	771
439.966	1141
440.038	2410
440.110	2423
440.183	2172
440.255	706
440.327	4184
440.400	27001
440.472	139358
440.544	95160
440.617	10713
440.689	5668
440.761	7847
440.833	12813
440.905	8159
440.978	633
441.050	736
441.122	789
441.194	490
441.266	888
441.338	765
441.411	5058
441.483	41377
441.555	64091
441.627	13163
441.699	3543
441.771	2775
441.843	1191
441.915	215
441.987	1096
442.059	1270
442.131	1523
442.203	4386
442.275	5403
442.347	6235
442.419	11793
442.491	71761
442.563	190665
442.635	77607
442.706	20395
442.778	14045
442.850	4149
442.922	2678
442.994	3129
443.066	6869
443.137	5565
443.209	4923
443.281	8939
443.353	20026
443.425	87091
443.496	337024
443.568	333398
443.640	122927
443.711	22793
443.783	8738
443.855	5442
443.926	3254
443.998	2250
444.070	3660
444.141	2889
444.213	7196
444.285	9767
444.356	7764
444.428	4369
444.499	2473
444.571	1401
444.642	2128
444.714	3140
444.785	7264
444.857	5749
444.928	7201
445.000	5659
445.071	6995
445.143	10313
445.214	12124
445.285	15642
445.357	44706
445.428	202904
445.500	499283
445.571	308073
445.642	165672
445.714	50066
445.785	22008
445.856	10918
445.928	11313
445.999	8884
446.070	6096
446.141	7090
446.213	9189
446.284	4714
446.355	2539
446.426	702
446.497	2661
446.569	3664
446.640	8852
446.711	8545
446.782	3087
446.853	3190
446.924	3531
446.995	4043
447.066	2111
447.138	2130
447.209	1586
447.280	14
447.351	247
447.422	15
447.493	695
447.564	3335
447.635	8514
447.706	3096
447.777	467
447.847	117
447.918	-425
447.989	1738
448.060	2479
448.131	5172
448.202	6818
448.273	6817
448.344	2057
448.414	1403
448.485	2218
448.556	795
448.627	349
448.698	444
448.768	21
448.839	166
448.910	1849
448.981	2084
449.051	2499
449.122	351
449.193	353
449.263	-26
449.334	568
449.405	1982
449.475	9193
449.546	4472
449.616	2672
449.687	2198
449.758	94
449.828	-539
449.899	833
449.969	-582
450.040	-9
450.110	1095
450.181	1040
450.251	1067
450.322	136
450.392	786
450.463	373
450.533	-478
450.604	405
450.674	53
450.744	559
450.815	-224
450.885	1401
450.955	764
451.026	581
451.096	-145
451.166	538
451.237	1770
451.307	5410
451.377	2164
451.447	757
451.518	53
451.588	1034
451.658	399
451.728	1092
451.799	5399
451.869	5791
451.939	-129
452.009	522
452.079	-517
452.149	1081
452.219	493
452.289	5831
452.360	4154
452.430	1066
452.500	2648
452.570	4211
452.640	7747
452.710	19310
452.780	24320
452.850	22485
452.920	23023
452.990	7481
453.060	2822
453.129	4346
453.199	3377
453.269	8203
453.339	17660
453.409	27166
453.479	24440
453.549	35589
453.619	34561
453.688	13440
453.758	2344
453.828	516
453.898	206
453.968	427
454.037	342
454.087	181
454.107	100
454.168	-85
454.177	-134
454.247	215
454.249	216
454.316	-297
454.330	-115
454.386	489
454.411	875
454.456	1298
454.492	2877
454.525	4252
454.574	2823
454.595	2211
454.655	1122
454.665	942
454.734	1128
454.736	1209
454.804	2971
454.817	3793
454.873	6683
454.898	7013
454.943	7391
454.979	5413
455.013	3651
455.060	2188
455.082	1655
455.141	1475
455.152	1373
455.221	4904
455.222	5000
455.291	8374
455.303	8070
455.360	6189
455.384	7336
455.430	8638
455.465	7653
455.499	6819
455.546	5997
455.569	5395
455.627	5188
455.638	5227
455.707	1484
455.708	1501
455.777	781
455.789	818
455.846	1006
455.869	994
455.916	989
455.950	839
455.985	543
456.031	914
456.054	1062
456.112	1103
456.124	1110
456.193	910
456.193	891
456.262	1585
456.274	1620
456.332	1612
456.355	2035
456.401	2537
456.436	2092
456.470	1553
456.516	1068
456.540	946
456.597	1507
456.609	1560
456.678	2066
456.678	2053
456.747	431
456.759	510
456.817	924
456.840	1207
456.886	1693
456.920	1503
456.955	1358
457.001	1662
457.024	2026
457.082	2677
457.093	2655
457.162	4010
457.163	4042
457.232	4260
457.243	4032
457.301	2782
457.324	2152
457.370	1401
457.405	2161
457.439	2802
457.485	2712
457.508	2866
457.566	3488
457.577	3665
457.646	5278
457.647	5331
457.715	13953
457.727	15837
457.784	28033
457.808	35863
457.853	43005
457.889	49263
457.922	47274
457.969	31269
457.991	33644
458.050	45247
458.060	47234
458.129	77143
458.130	78137
458.198	70698
458.211	62872
458.267	34956
458.292	23661
458.336	16101
458.372	15061
458.405	21385
458.453	33667
458.474	44458
458.533	82180
458.543	84245
458.611	122784
458.614	123483
458.680	70388
458.694	53790
458.749	25305
458.775	17485
458.818	10324
458.855	8152
458.887	6637
458.936	5307
458.955	4920
459.016	4376
459.024	4308
459.093	4714
459.097	4699
459.162	4748
459.177	5040
459.230	5878
459.257	6239
459.299	6538
459.338	6895
459.368	7266
459.418	7486
459.437	6856
459.499	4952
459.505	4908
459.574	4019
459.579	4044
459.643	4569
459.659	4427
459.711	3888
459.740	3958
459.780	4478
459.820	5102
459.849	4945
459.900	4235
459.917	4185
459.981	4003
459.986	3969
460.054	4445
460.061	4380
460.123	4591
460.141	4980
460.191	6576
460.222	7548
460.260	8345
460.302	9507
460.328	8473
460.382	5384
460.397	5395
460.462	4994
460.465	5000
460.534	6329
460.543	6492
460.602	14943
460.623	18253
460.671	27563
460.703	35306
460.739	31498
460.783	25360
460.808	21296
460.864	6578
460.876	5771
460.944	4667
460.945	4645
461.013	4372
461.024	4377
461.081	5593
461.104	6431
461.150	6428
461.184	5644
461.218	5203
461.264	4748
461.286	4598
461.345	4374
461.355	4273
461.423	4019
461.425	3991
461.491	3618
461.505	3758
461.559	6039
461.585	6819
461.628	9229
461.665	12058
461.696	13293
461.745	16051
461.764	14681
461.825	7187
461.832	7141
461.901	6982
461.905	7097
461.969	6028
461.985	5426
462.037	5272
462.065	5297
462.105	4481
462.145	3988
462.173	5481
462.225	8293
462.241	8674
462.305	10386
462.310	10257
462.378	8225
462.385	7891
462.446	6682
462.465	6405
462.514	6908
462.545	7289
462.582	6399
462.625	5198
462.650	5046
462.705	4880
462.718	4871
462.785	4829
462.786	4851
462.854	5898
462.865	6098
462.922	6740
462.945	7094
462.990	6195
463.025	5216
463.058	4793
463.104	4130
463.126	4331
463.184	5273
463.194	5352
463.262	5243
463.264	5269
463.330	5650
463.344	5561
463.398	5686
463.424	5813
463.466	5690
463.504	5661
463.533	5891
463.583	6117
463.601	6305
463.663	6990
463.669	7139
463.737	8794
463.743	8977
463.805	11343
463.823	11927
463.873	13732
463.903	14822
463.940	15591
463.982	16665
464.008	13900
464.062	7363
464.076	7133
464.142	5747
464.144	5736
464.211	5515
464.221	5478
464.279	6528
464.301	7006
464.347	7058
464.381	7155
464.414	7482
464.461	7674
464.482	7579
464.540	7279
464.550	7359
464.617	7960
464.620	7973
464.685	9244
464.699	9472
464.753	10771
464.779	11539
464.820	10999
464.859	10175
464.888	9507
464.938	8403
464.956	8548
465.018	9002
465.023	8899
465.091	7536
465.098	7356
465.158	7533
465.177	7689
465.226	7931
465.257	7921
465.293	8768
465.336	9856
465.361	11301
465.416	14391
465.428	14378
465.495	14623
465.496	14653
465.563	15626
465.575	15817
465.631	18100
465.654	19159
465.698	13832
465.734	9033
465.765	8302
465.813	7253
465.833	7341
465.893	7799
465.900	7813
465.968	7771
465.972	7749
466.035	8271
466.052	8402
466.102	8101
466.131	7957
466.170	8075
466.210	8038
466.237	8132
466.290	8386
466.304	8355
466.369	8034
466.372	8092
466.439	9378
466.449	9544
466.506	10123
466.528	10320
466.573	12242
466.607	13647
466.641	19705
466.687	28093
466.708	30067
466.766	35480
466.775	33478
466.842	17868
466.845	17090
466.909	13536
466.925	12703
466.977	11400
467.004	10689
467.044	11219
467.083	11748
467.111	12580
467.163	14037
467.178	14180
467.242	14665
467.245	14677
467.312	14299
467.321	14225
467.379	12779
467.400	12208
467.446	12702
467.480	13022
467.559	11935
467.638	12216
467.717	12592
467.796	16575
467.875	19763
467.955	15131
468.034	16425
468.113	28475
468.192	37598
468.271	18702
468.350	19677
468.429	29115
468.508	33693
468.588	21087
468.667	14406
468.746	13431
468.825	12155
468.904	12180
468.983	12944
469.062	16441
469.141	19488
469.220	10271
469.299	11153
469.378	10840
469.456	12902
469.535	12012
469.614	11969
469.693	12431
469.772	14332
469.851	17624
469.930	15549
470.009	15013
470.088	17532
470.166	26805
470.245	49257
470.324	63678
470.403	33495
470.482	20076
470.560	16392
470.639	16946
470.718	20405
470.797	14588
470.875	15494
470.954	19303
471.033	17108
471.111	10440
471.190	11021
471.269	9795
471.347	9697
471.426	10507
471.505	10098
471.583	11675
471.662	11148
471.740	10963
471.819	9230
471.898	10766
471.976	11018
472.055	10198
472.133	10500
472.212	12421
472.290	11238
472.369	10187
472.447	8411
472.526	9746
472.604	11366
472.683	13968
472.761	15946
472.839	12354
472.918	12270
472.996	10095
473.075	11825
473.153	11274
473.231	10177
473.310	13078
473.388	12409
473.466	12137
473.545	15083
473.623	23114
473.701	24075
473.780	12480
473.858	10540
473.936	12345
474.014	11898
474.093	14061
474.171	14998
474.249	16504
474.327	13945
474.405	11387
474.484	10984
474.562	10626
474.640	11104
474.718	10677
474.796	10763
474.874	9786
474.952	8786
475.030	9859
475.108	10783
475.187	10772
475.265	15501
475.343	29151
475.421	33832
475.499	10755
475.577	9820
475.655	11682
475.733	18776
475.811	25725
475.889	22173
475.966	17276
476.044	12062
476.122	20855
476.200	29070
476.278	20603
476.356	8885
476.434	11329
476.512	17155
476.590	26860
476.667	19699
476.745	9138
476.823	10161
476.901	9370
476.979	9318
477.056	9280
477.134	9854
477.212	10926
477.290	10455
477.367	8352
477.445	8339
477.523	7781
477.601	9191
477.678	8968
477.756	9089
477.834	9864
477.911	9464
477.989	9915
478.066	8698
478.144	10747
478.222	18758
478.299	38307
478.377	32912
478.454	9591
478.532	9347
478.609	10791
478.687	12034
478.764	9243
478.842	10638
478.919	12102
478.997	10839
479.074	8322
479.152	8603
479.229	10484
479.307	8231
479.384	7617
479.461	7418
479.539	7491
479.616	9354
479.694	8654
479.771	9412
479.848	8623
479.926	10327
480.003	13249
480.080	9627
480.157	8915
480.235	7650
480.312	8945
480.389	8093
480.467	11868
480.544	13067
480.621	9550
480.698	11162
480.775	11784
480.853	10467
480.930	8373
481.007	8281
481.084	8936
481.161	9024
481.238	9358
481.315	7785
481.392	7684
481.470	8061
481.547	8133
481.624	7783
481.701	8295
481.778	8436
481.855	9686
481.932	12679
482.009	16556
482.086	14352
482.163	14502
482.240	27292
482.317	56121
482.393	36922
482.470	12671
482.547	11441
482.624	10523
482.701	11345
482.778	10581
482.855	9127
482.932	8623
483.009	9601
483.085	12726
483.162	15711
483.239	15414
483.316	13235
483.393	14138
483.469	11361
483.546	11495
483.623	10516
483.699	8822
483.776	9506
483.853	10579
483.930	13250
484.006	23623
484.083	34736
484.160	23611
484.236	33886
484.313	26341
484.389	20296
484.466	20950
484.543	19764
484.619	23780
484.696	27696
484.772	22443
484.849	20576
484.925	18455
485.002	17333
485.078	18965
485.155	20157
485.231	16144
485.308	16000
485.384	17315
485.461	19755
485.537	25779
485.614	29314
485.690	17371
485.766	17411
485.843	21253
485.919	37017
485.995	40007
486.072	16659
486.148	16554
486.224	15177
486.301	16770
486.377	19618
486.453	21737
486.530	18466
486.606	21837
486.682	22560
486.758	26585
486.835	29036
486.911	25593
486.987	41777
487.063	77382
487.139	120899
487.215	77579
487.292	29225
487.368	23738
487.444	28560
487.520	41901
487.596	47382
487.672	91174
487.748	306512
487.824	460561
487.900	128164
487.976	38837
488.052	29242
488.128	35280
488.204	26286
488.280	19347
488.356	19919
488.432	30449
488.508	41771
488.584	23867
488.660	19888
488.736	19540
488.812	21324
488.888	29888
488.964	42699
489.039	118403
489.115	191895
489.191	100646
489.267	19236
489.343	15540
489.418	14439
489.494	13551
489.570	12166
489.646	15123
489.722	13977
489.797	13340
489.873	17459
489.949	30209
490.024	27159
490.100	14543
490.176	14132
490.251	22774
490.327	33163
490.403	16701
490.478	12973
490.554	12468
490.629	11587
490.705	12081
490.781	14113
490.856	14385
490.932	17511
491.007	20143
491.083	15477
491.158	12951
491.234	13726
491.309	24198
491.385	22998
491.460	12842
491.536	14126
491.611	15754
491.686	20063
491.762	30492
491.837	76359
491.913	121045
491.988	177702
492.063	233411
492.139	40395
492.214	17311
492.289	12768
492.365	14320
492.440	16917
492.515	13304
492.590	12102
492.666	10862
492.741	14556
492.816	16840
492.891	11021
492.967	11691
493.042	11467
493.117	10224
493.192	10388
493.267	16862
493.342	34573
493.418	39306
493.493	12257
493.568	10144
493.643	10378
493.718	13632
493.793	21308
493.868	32261
493.943	21245
494.018	12935
494.093	9314
494.168	11186
494.243	9502
494.318	9433
494.393	9088
494.468	9456
494.543	10535
494.618	13583
494.693	11361
494.768	9183
494.842	10139
494.917	11083
494.992	11101
495.067	10722
495.142	9755
495.217	12033
495.292	13424
495.366	14201
495.441	17546
495.516	24639
495.591	40649
495.665	170697
495.740	423669
495.815	157901
495.890	17467
495.964	10929
496.039	12886
496.114	11342
496.188	12388
496.263	11785
496.338	9995
496.412	10954
496.487	13598
496.561	20096
496.636	21052
496.710	12257
496.785	14328
496.860	14726
496.934	11888
497.009	12496
497.083	12101
497.158	10825
497.232	13296
497.307	16949
497.381	13506
497.455	14316
497.530	15420
497.604	12460
497.679	12097
497.753	17849
497.827	23691
497.902	22539
497.976	24687
498.050	54958
498.125	208935
498.199	223749
498.273	53722
498.348	40429
498.422	30338
498.496	29548
498.570	27785
498.645	14430
498.719	12181
498.793	16069
498.867	23240
498.941	29078
499.016	78103
499.090	215870
499.164	80973
499.238	13826
499.312	13097
499.386	19567
499.460	16405
499.534	13222
499.609	15852
499.683	18829
499.757	17420
499.831	34628
499.905	131488
499.979	125494
500.053	23481
500.127	32882
500.201	37140
500.275	18232
500.349	14555
500.422	17636
500.496	32304
500.570	77523
500.644	102926
500.718	141308
500.792	36181
500.866	12215
500.940	13021
501.013	13118
501.087	14967
501.161	32101
501.235	34929
501.309	40802
501.382	107462
501.456	104716
501.530	31989
501.603	34250
501.677	17923
501.751	10348
501.825	15544
501.898	17569
501.972	41613
502.046	29892
502.119	12564
502.193	27402
502.266	49254
502.340	23758
502.413	20838
502.487	38903
502.561	23961
502.634	13197
502.708	16596
502.781	13644
502.855	11027
502.928	7739
503.002	8453
503.075	8229
503.149	8205
503.222	8220
503.295	7521
503.369	9669
503.442	12506
503.516	30898
503.589	76169
503.662	51880
503.736	22319
503.809	41381
503.882	41522
503.956	58220
504.029	80176
504.102	170747
504.175	247671
504.249	75415
504.322	26701
504.395	17737
504.468	11326
504.542	10559
504.615	7607
504.688	9566
504.761	7772
504.834	12867
504.907	17704
504.980	35042
505.053	12674
505.127	17919
505.200	18712
505.273	10048
505.346	7391
505.419	6198
505.492	6656
505.565	6193
505.638	6097
505.711	5761
505.784	5125
505.857	5253
505.930	6574
506.003	4272
506.076	7509
506.149	7162
506.221	7340
506.294	9350
506.367	17265
506.440	59354
506.513	38596
506.586	12008
506.659	8069
506.731	8731
506.804	11602
506.877	19870
506.950	8834
507.022	8082
507.095	6740
507.168	11800
507.241	9809
507.313	8365
507.386	10000
507.459	19678
507.531	10191
507.604	7205
507.677	7266
507.749	5844
507.822	11486
507.894	22407
507.967	24247
508.040	10878
508.112	11758
508.185	10895
508.257	8589
508.330	20621
508.402	9802
508.475	7297
508.547	9175
508.620	8486
508.692	11504
508.765	8650
508.837	5863
508.909	7255
508.982	6972
509.054	11033
509.127	7798
509.199	6097
509.271	4848
509.344	5735
509.416	5529
509.488	6941
509.560	7911
509.633	10034
509.705	13189
509.777	10806
509.849	19153
509.922	10975
509.994	6441
510.066	7222
510.138	5578
510.210	13928
510.283	10921
510.355	10827
510.427	9375
510.499	9461
510.571	9706
510.643	9994
510.715	21861
510.787	18505
510.859	10395
510.931	12495
511.003	20580
511.076	17647
511.148	7840
511.219	7567
511.291	10512
511.363	11287
511.435	7217
511.507	6832
511.579	8063
511.651	7885
511.723	7969
511.795	7867
511.867	6745
511.939	9565
512.010	13153
512.082	12300
512.154	8751
512.226	9015
512.298	13902
512.369	20997
512.441	16155
512.513	20640
512.585	13315
512.656	12948
512.728	14111
512.800	10799
512.871	10241
512.943	10435
513.015	9046
513.086	11986
513.158	12430
513.230	13162
513.301	24155
513.373	33438
513.444	14708
513.516	10404
513.588	10904
513.659	14001
513.731	20384
513.802	17046
513.874	40674
513.945	80876
514.016	23302
514.088	10934
514.159	12608
514.231	19999
514.302	20281
514.374	13218
514.445	10169
514.516	17874
514.588	13153
514.659	12403
514.730	15545
514.802	19086
514.873	11741
514.944	13312
515.016	12268
515.087	16817
515.158	15122
515.229	17503
515.301	10302
515.372	12882
515.443	9287
515.514	9570
515.585	9050
515.656	10884
515.728	11136
515.799	9719
515.870	12575
515.941	13926
516.012	13232
516.083	17319
516.154	22831
516.225	37688
516.296	34885
516.367	31855
516.438	39044
516.509	53683
516.580	83258
516.651	279274
516.722	1056484
516.793	437539
516.864	74453
516.935	69826
517.006	82162
517.077	117542
517.148	284756
517.219	1203543
517.289	1875334
517.360	270127
517.431	63049
517.502	28484
517.573	26633
517.643	23866
517.714	25137
517.785	30370
517.856	35550
517.926	48404
517.997	63648
518.068	89362
518.138	125017
518.209	203484
518.280	770081
518.350	2851905
518.421	1083573
518.492	113584
518.562	55721
518.633	49985
518.703	54140
518.774	104359
518.845	290516
518.915	290947
518.986	75748
519.056	42980
519.127	67206
519.197	83251
519.268	101401
519.338	49689
519.408	22000
519.479	38747
519.549	29042
519.620	17410
519.690	10373
519.760	11258
519.831	12793
519.901	12584
519.971	9497
520.042	9801
520.112	10314
520.182	17524
520.253	21548
520.323	10088
520.393	11695
520.463	18833
520.534	10163
520.604	21958
520.674	12325
520.744	12439
520.814	26889
520.885	27573
520.955	21251
521.025	69642
521.095	30707
521.165	9098
521.235	8234
521.305	7786
521.375	8767
521.445	11377
521.515	20557
521.585	23638
521.655	21008
521.725	16949
521.795	13115
521.865	6946
521.935	11069
522.005	9333
522.075	8001
522.145	9307
522.215	9116
522.285	12462
522.355	14843
522.424	25666
522.494	23140
522.564	21307
522.634	54766
522.704	183309
522.774	67678
522.843	13235
522.913	13029
522.983	20637
523.053	14153
523.122	13889
523.192	23407
523.262	103576
523.331	101201
523.401	15710
523.471	9150
523.540	10630
523.610	6943
523.680	8286
523.749	6495
523.819	7837
523.888	7966
523.958	7768
524.027	8172
524.097	8112
524.166	7752
524.236	12309
524.305	11547
524.375	8623
524.444	6054
524.514	9663
524.583	7484
524.653	8042
524.722	10078
524.791	7389
524.861	9154
524.930	8277
524.999	9548
525.069	16205
525.138	8781
525.207	10162
525.277	9287
525.346	10922
525.415	10718
525.484	11571
525.554	12079
525.623	13568
525.692	15368
525.761	20095
525.830	24749
525.900	32043
525.969	50419
526.038	89788
526.107	189923
526.176	588048
526.245	480701
526.314	140291
526.383	285072
526.452	406277
526.522	647941
526.591	653179
526.660	156966
526.729	84814
526.797	89256
526.867	165981
526.935	676046
527.004	1427180
527.073	809853
527.142	72410
527.211	28779
527.280	25614
527.349	24653
527.418	11821
527.487	11894
527.555	9613
527.624	8860
527.693	8005
527.762	9687
527.831	8738
527.899	8552
527.968	8212
528.037	8120
528.106	13223
528.174	27575
528.243	19087
528.312	24401
528.380	40907
528.449	9886
528.518	9464
528.586	4860
528.655	7248
528.723	5587
528.792	5721
528.861	6747
528.929	5018
528.998	6374
529.066	5596
529.135	5295
529.203	4929
529.272	3498
529.340	7540
529.409	8023
529.477	5239
529.545	6162
529.614	8329
529.682	5847
529.751	8219
529.819	11016
529.887	8186
529.956	6223
530.024	7871
530.092	4969
530.161	10764
530.229	21357
530.297	10137
530.365	7337
530.434	6545
530.502	4667
530.570	7027
530.638	5309
530.707	9179
530.775	8802
530.843	6299
530.911	6276
530.979	6647
531.047	5986
531.115	6356
531.183	5874
531.252	6417
531.320	5773
531.388	5167
531.456	6616
531.524	5697
531.592	8017
531.660	9733
531.728	6652
531.796	6270
531.864	7217
531.932	7676
532.000	7214
532.067	8244
532.135	9384
532.203	11892
532.271	12831
532.339	25940
532.407	84309
532.475	48165
532.542	19007
532.610	20742
532.678	30845
532.746	128341
532.814	352397
532.881	86155
532.949	14189
533.017	10912
533.084	7902
533.152	7295
533.220	8359
533.287	11025
533.355	8310
533.423	7802
533.490	6556
533.558	8617
533.625	8494
533.693	8690
533.761	8787
533.828	10120
533.896	10907
533.963	24298
534.031	30963
534.098	45903
534.166	20528
534.233	10066
534.300	12249
534.368	12156
534.435	11966
534.503	11939
534.570	14675
534.637	17392
534.705	21657
534.772	27117
534.840	51995
534.907	251773
534.974	343825
535.041	38237
535.109	15824
535.176	11126
535.243	11210
535.310	12468
535.378	10153
535.445	10045
535.512	9023
535.579	10806
535.646	8956
535.714	9391
535.781	11156
535.848	11184
535.915	10090
535.982	10146
536.049	9551
536.116	11210
536.183	10328
536.250	10432
536.317	11223
536.384	15734
536.451	25632
536.518	28880
536.585	16635
536.652	22209
536.719	35461
536.786	29440
536.853	19915
536.920	29305
536.987	51533
537.053	47969
537.120	168859
537.187	152210
537.254	18700
537.321	13346
537.388	14283
537.454	11132
537.521	10119
537.588	11268
537.654	12130
537.721	14363
537.788	14413
537.855	11774
537.921	12336
537.988	12113
538.055	12739
538.121	11529
538.188	14145
538.254	23847
538.321	57296
538.388	34318
538.454	13659
538.521	12374
538.587	12228
538.654	11459
538.720	11337
538.787	11017
538.853	12679
538.920	15424
538.986	13413
539.053	12033
539.119	13870
539.185	14552
539.252	17739
539.318	29552
539.385	20603
539.451	15962
539.517	17147
539.583	19935
539.650	42578
539.716	123654
539.782	36521
539.849	15701
539.915	14288
539.981	16338
540.047	20098
540.114	16910
540.180	17797
540.246	17685
540.312	25356
540.378	53601
540.444	55242
540.510	49830
540.576	142452
540.643	46887
540.709	13258
540.775	13574
540.841	12833
540.907	15095
540.973	18525
541.039	24798
541.105	31964
541.171	16483
541.237	13544
541.303	14397
541.369	18358
541.435	24407
541.500	48739
541.566	30770
541.632	13651
541.698	11685
541.764	12398
541.830	11468
541.896	11047
541.961	12240
542.027	13091
542.093	14617
542.159	14920
542.224	16348
542.290	22848
542.356	44109
542.421	59027
542.487	22303
542.553	13957
542.618	14256
542.684	13862
542.750	15141
542.815	17735
542.881	30183
542.947	119326
543.012	92274
543.078	14690
543.143	12418
543.209	14582
543.274	15061
543.340	18430
543.405	43562
543.471	74453
543.536	18642
543.602	11990
543.667	10851
543.732	12991
543.798	10341
543.863	11977
543.928	11435
543.994	10526
544.059	12575
544.124	12207
544.190	13056
544.255	13097
544.320	13941
544.386	15037
544.451	23461
544.516	28175
544.581	26450
544.646	71284
544.712	121025
544.777	23424
544.842	14914
544.907	13262
544.972	13108
545.037	13676
545.102	15164
545.168	14795
545.233	16217
545.298	16902
545.363	18682
545.428	23853
545.493	44362
545.558	101970
545.623	41464
545.688	16174
545.753	16096
545.818	14401
545.883	16886
545.947	15502
546.012	17583
546.077	17631
546.142	19168
546.207	20386
546.272	28804
546.337	30983
546.401	22498
546.466	20628
546.531	20464
546.596	23415
546.661	25633
546.725	23948
546.790	23785
546.855	26170
546.919	28158
546.984	31496
547.049	35361
547.113	38958
547.178	41224
547.243	48223
547.307	55742
547.372	64678
547.436	64196
547.501	62433
547.565	68358
547.630	70597
547.695	67527
547.759	62621
547.823	62140
547.888	60664
547.952	64361
548.017	65569
548.081	69383
548.146	71070
548.210	70416
548.274	73325
548.339	73362
548.403	65485
548.468	62075
548.532	60680
548.596	62136
548.660	62484
548.725	69842
548.789	77898
548.853	74351
548.917	68937
548.982	67854
549.046	62201
549.110	54642
549.174	55359
549.238	65317
549.303	70653
549.367	75088
549.431	70171
549.495	66125
549.559	65645
549.623	76487
549.687	86802
549.751	94168
549.815	100401
549.879	99504
549.943	93590
550.007	98929
550.071	99085
550.135	95104
550.199	86396
550.263	82499
550.327	78007
550.391	81730
550.455	88562
550.519	92165
550.582	101509
550.646	122050
550.710	126849
550.774	113485
550.838	114666
550.901	117676
550.965	126147
551.029	129770
551.093	141501
551.156	156159
551.220	192822
551.284	242708
551.347	173354
551.411	137732
551.475	133751
551.538	123766
551.602	114141
551.666	108498
551.729	99803
551.793	95734
551.856	95707
551.920	94124
551.983	93761
552.047	93812
552.110	93430
552.174	93928
552.237	97402
552.301	90615
552.364	86320
552.428	83788
552.491	87977
552.554	92250
552.618	92274
552.681	96389
552.745	98741
552.808	135462
552.871	172481
552.934	116296
552.998	93773
553.061	87749
553.124	83803
553.187	82503
553.251	85613
553.314	84751
553.377	84949
553.440	91615
553.503	97246
553.567	102343
553.630	91524
553.693	91145
553.756	89950
553.819	88794
553.882	85074
553.945	85350
554.008	85850
554.071	86680
554.134	86947
554.197	81354
554.260	81000
554.323	84505
554.386	83789
554.449	85436
554.512	85515
554.575	81988
554.638	82600
554.701	81670
554.764	80438
554.827	77406
554.889	73965
554.952	69224
555.015	67421
555.078	69565
555.141	70207
555.203	70160
555.266	68653
555.329	70332
555.391	65736
555.454	67762
555.517	66037
555.580	62126
555.642	58368
555.705	57906
555.768	57089
555.830	56514
555.893	53084
555.955	51007
556.018	51882
556.080	52679
556.143	53852
556.206	52440
556.268	52355
556.330	53346
556.393	50507
556.455	47828
556.518	51379
556.580	52451
556.643	45298
556.705	44825
556.767	43750
556.830	45401
556.892	46441
556.955	61662
557.017	49930
557.079	42283
557.142	41531
557.204	44876
557.266	71872
557.328	60658
557.391	35806
557.453	34261
557.515	35699
557.577	40310
557.639	42368
557.701	37062
557.764	36233
557.826	38013
557.888	42901
557.950	45396
558.012	50190
558.074	68192
558.136	154335
558.198	408411
558.260	146568
558.322	52632
558.384	53911
558.446	62400
558.508	75655
558.570	94800
558.632	135709
558.694	193015
558.756	240666
558.818	708975
558.880	1787343
558.942	575950
559.003	433063
559.065	216439
559.127	80275
559.189	80929
559.251	94411
559.312	139309
559.374	328847
559.436	1155861
559.498	576421
559.559	93663
559.621	81144
559.683	94875
559.744	152890
559.806	517104
559.868	822873
559.929	153589
559.991	81857
560.052	126734
560.114	387260
560.176	251294
560.237	209372
560.299	370086
560.360	77694
560.422	28206
560.483	22455
560.545	20666
560.606	19000
560.667	17284
560.729	17484
560.790	17428
560.852	16280
560.913	16124
560.974	15351
561.036	16162
561.097	17345
561.158	16982
561.220	18358
561.281	18229
561.342	17799
561.403	21427
561.465	28269
561.526	68689
561.587	93978
561.648	24074
561.709	16328
561.771	16382
561.832	15079
561.893	14766
561.954	13068
562.015	13509
562.076	13690
562.137	14398
562.198	13694
562.259	14956
562.320	14971
562.381	18246
562.442	26193
562.503	20599
562.564	13714
562.625	13470
562.686	12787
562.747	15671
562.808	13424
562.869	12368
562.930	12011
562.991	12883
563.051	12501
563.112	12208
563.173	12065
563.234	11204
563.294	12094
563.355	12230
563.416	13380
563.477	12162
563.537	11207
563.598	12562
563.659	12973
563.720	12328
563.780	12627
563.841	13526
563.901	12210
563.962	10945
564.023	11638
564.083	11813
564.144	12778
564.204	11059
564.265	11812
564.325	12409
564.386	16167
564.446	15769
564.507	11058
564.567	11461
564.628	10634
564.688	11147
564.749	10308
564.809	11664
564.869	12445
564.930	11568
564.990	11819
565.050	10007
565.111	11229
565.171	11395
565.231	10400
565.292	11650
565.352	10370
565.412	11623
565.472	11659
565.532	13839
565.593	12021
565.653	10379
565.713	12076
565.773	14083
565.833	18185
565.893	24302
565.953	12489
566.013	11011
566.074	11109
566.134	12894
566.194	16096
566.254	20324
566.314	12873
566.374	10952
566.434	10273
566.494	11398
566.554	9883
566.614	11011
566.673	10799
566.733	12275
566.793	12361
566.853	12121
566.913	10902
566.973	11926
567.033	12459
567.092	13822
567.152	14322
567.212	14342
567.272	11560
567.331	11906
567.391	11121
567.451	12553
567.511	14157
567.570	13965
567.630	10759
567.690	11734
567.749	11829
567.809	11307
567.868	13007
567.928	13318
567.988	13103
568.047	14146
568.107	14710
568.166	18294
568.226	23273
568.285	31381
568.345	24974
568.404	20458
568.464	19526
568.523	18321
568.582	19686
568.642	22082
568.701	25547
568.761	30161
568.820	45783
568.879	42314
568.939	30200
568.998	22729
569.057	17468
569.116	15840
569.176	15819
569.235	12987
569.294	12596
569.353	13349
569.413	11620
569.472	10233
569.531	10159
569.590	10691
569.649	10696
569.708	11085
569.767	11665
569.827	16465
569.886	14668
569.945	11296
570.004	12922
570.063	11951
570.122	12137
570.181	12569
570.240	11321
570.299	13148
570.358	15944
570.417	12290
570.475	10870
570.534	13377
570.593	13752
570.652	13978
570.711	13943
570.770	12881
570.829	13482
570.887	14953
570.946	17911
571.005	12582
571.064	12824
571.122	15991
571.181	15115
571.240	11893
571.299	9871
571.357	10491
571.416	10731
571.475	10717
571.533	11384
571.592	10865
571.650	12147
571.709	11565
571.768	13524
571.826	13189
571.885	10712
571.943	9494
572.002	9374
572.060	10141
572.119	8108
572.177	9040
572.236	8456
572.294	9958
572.352	10699
572.411	9906
572.469	9323
572.528	9111
572.586	9148
572.644	11864
572.703	15610
572.761	11182
572.819	9003
572.877	8608
572.936	8244
572.994	8909
573.052	9185
573.110	10310
573.169	10827
573.227	9314
573.285	8429
573.343	9599
573.401	8026
573.459	9008
573.517	7925
573.576	10272
573.634	10283
573.692	11112
573.750	9827
573.808	8396
573.866	7960
573.924	10197
573.982	8753
574.040	9486
574.098	8895
574.155	9980
574.213	8342
574.271	7976
574.329	10999
574.387	9090
574.445	7932
574.503	7011
574.560	7643
574.618	7594
574.676	8140
574.734	8897
574.792	7934
574.849	7768
574.907	7253
574.965	7425
575.022	6659
575.080	6519
575.138	7730
575.195	7646
575.253	8597
575.311	10344
575.368	7846
575.426	7189
575.483	7022
575.541	6845
575.598	6445
575.656	7136
575.713	8016
575.771	8930
575.828	7471
575.886	7236
575.943	7741
576.001	6938
576.058	7114
576.115	7764
576.173	9036
576.230	9955
576.287	14313
576.345	11048
576.402	7489
576.459	8331
576.517	6574
576.574	8222
576.631	6748
576.688	6468
576.746	6204
576.803	5499
576.860	6364
576.917	7358
576.974	6597
577.031	6639
577.089	6689
577.146	6230
577.203	6005
577.260	8615
577.317	6544
577.374	6909
577.431	6584
577.488	8027
577.545	6663
577.602	7460
577.659	6958
577.716	6394
577.773	5678
577.830	6095
577.886	6155
577.943	6662
578.000	6124
578.057	6815
578.114	6732
578.171	6552
578.227	6508
578.284	5479
578.341	6799
578.398	6781
578.454	6648
578.511	6866
578.568	8458
578.625	7416
578.681	5909
578.738	6465
578.794	6340
578.851	6414
578.908	6703
578.964	6707
579.021	7578
579.077	7495
579.134	6351
579.190	6720
579.247	7403
579.303	6442
579.360	5842
579.416	6878
579.473	6211
579.529	6223
579.586	5757
579.642	6857
579.698	6579
579.755	7083
579.811	7083
579.867	6852
579.924	5517
579.980	6525
580.036	6540
580.093	6847
580.149	6974
580.205	6737
580.261	6796
580.317	7498
580.374	7284
580.430	9130
580.486	8290
580.542	6155
580.598	7102
580.619	7549
580.654	8333
580.692	7796
580.710	7544
580.765	7409
580.767	7412
580.823	6558
580.838	6827
580.879	7556
580.911	7690
580.935	7798
580.984	7147
580.991	7069
581.047	7202
581.057	7213
581.103	7253
581.130	6912
581.159	6591
581.203	6577
581.215	6578
581.270	6807
581.276	6793
581.326	6714
581.349	6694
581.382	6653
581.422	6808
581.438	6899
581.494	6477
581.494	6478
581.550	7059
581.567	7338
581.606	7878
581.640	7535
581.661	7346
581.713	7743
581.717	7781
581.773	7005
581.786	6890
581.829	6462
581.859	6479
581.885	6528
581.932	6323
581.940	6288
581.996	7619
582.004	7553
582.052	7186
582.077	6904
582.107	6597
582.150	6033
582.163	5858
582.219	6516
582.223	6501
582.274	6345
582.296	6560
582.330	7018
582.368	7137
582.386	7179
582.441	6666
582.441	6666
582.497	7124
582.514	6846
582.552	6490
582.587	6814
582.608	7011
582.659	6596
582.663	6556
582.719	7288
582.732	7127
582.774	6677
582.805	6798
582.830	6827
582.877	6751
582.885	6776
582.941	6707
582.950	6873
582.996	7583
583.023	7262
583.052	6983
583.095	6899
583.107	6842
583.162	6724
583.168	6772
583.218	7262
583.240	7084
583.273	6726
583.313	6975
583.328	7148
583.384	7068
583.385	7066
583.439	6761
583.458	6805
583.494	6956
583.531	7019
583.549	7104
583.603	6866
583.605	6855
583.660	7055
583.676	7042
583.715	6881
583.748	6792
583.770	6893
583.820	7422
583.825	7436
583.881	7361
583.893	7183
583.936	6740
583.965	6891
583.991	6981
584.038	7019
584.046	7019
584.101	6583
584.110	6569
584.156	6571
584.183	6881
584.211	7275
584.255	7406
584.266	7368
584.321	6915
584.328	6989
584.376	7968
584.400	8012
584.431	7915
584.472	7324
584.486	7129
584.541	7935
584.545	7944
584.596	7971
584.617	7851
584.651	7979
584.689	8634
584.706	8738
584.761	8331
584.762	8331
584.816	8485
584.834	8801
584.871	9366
584.906	9819
584.926	10126
584.978	10319
584.980	10331
585.035	11530
585.051	12006
585.090	13280
585.123	14462
585.145	15192
585.195	16672
585.200	16870
585.254	19864
585.267	21095
585.309	25070
585.340	27584
585.364	29701
585.412	34415
585.419	35180
585.473	42890
585.484	45516
585.528	59355
585.556	72124
585.583	95779
585.628	158541
585.637	180660
585.692	388447
585.700	427509
585.747	576768
585.772	474796
585.801	285637
585.845	95162
585.856	69207
585.910	34749
585.917	31699
585.965	24047
585.989	21173
586.019	18663
586.061	16946
586.074	16568
586.128	15625
586.133	15617
586.183	16060
586.205	16065
586.237	15846
586.277	14628
586.292	14080
586.346	12908
586.349	12897
586.401	13490
586.421	13450
586.455	13353
586.493	13871
586.509	14504
586.564	16063
586.565	16154
586.618	20579
586.637	20880
586.672	20002
586.709	19727
586.727	19942
586.781	21416
586.781	21412
586.835	16473
586.853	15431
586.889	14274
586.925	13234
586.944	12913
586.996	13150
586.998	13163
587.052	13229
587.068	13255
587.106	13700
587.140	13867
587.161	13793
587.212	14266
587.215	14294
587.269	14329
587.284	14284
587.323	14205
587.356	14747
587.377	15245
587.427	15891
587.431	15894
587.485	15356
587.499	15237
587.539	15389
587.571	15950
587.593	16621
587.643	17797
587.648	17866
587.702	18730
587.715	18986
587.755	19355
587.786	19328
587.810	19712
587.858	20296
587.864	20406
587.917	22402
587.930	22763
587.971	24240
588.001	25325
588.025	25789
588.073	26867
588.079	27203
588.133	30266
588.145	31038
588.187	33451
588.217	35203
588.241	37398
588.288	42852
588.295	43700
588.348	50783
588.360	52475
588.402	59351
588.431	64444
588.456	68324
588.503	76886
588.510	78599
588.564	95445
588.575	99418
588.617	114832
588.646	126566
588.671	139331
588.718	168783
588.725	176617
588.778	252819
588.789	273325
588.832	449905
588.861	598225
588.886	853588
588.932	1432286
588.939	1482153
588.993	1780145
589.004	1756958
589.047	1017919
589.075	570827
589.100	400530
589.147	201873
589.154	192760
589.207	151347
589.218	144660
589.261	141281
589.290	143025
589.314	150913
589.361	173586
589.368	183479
589.421	280253
589.433	306755
589.475	567957
589.504	787331
589.528	1030699
589.576	1535228
589.582	1495219
589.635	801409
589.647	658594
589.689	317235
589.718	137984
589.742	109797
589.790	69175
589.795	67069
589.849	51687
589.861	48801
589.902	43299
589.932	39449
589.955	37184
590.004	32247
590.009	31873
590.062	29103
590.075	28345
590.115	27005
590.146	26188
590.168	25731
590.218	24649
590.222	24623
590.275	24419
590.289	24356
590.328	23895
590.360	23263
590.381	22918
590.431	22208
590.435	22209
590.488	22194
590.503	22197
590.541	22352
590.574	22617
590.594	22488
590.645	21648
590.647	21621
590.700	20803
590.716	20459
590.753	20318
590.787	20422
590.806	20685
590.859	21372
590.859	21386
590.912	21410
590.930	21400
590.965	21495
591.001	21586
591.018	21332
591.071	20423
591.072	20405
591.124	20846
591.143	20994
591.177	20956
591.214	20889
591.230	21154
591.283	22046
591.285	22068
591.336	23983
591.356	24729
591.389	24657
591.427	24306
591.442	23687
591.495	21250
591.498	21059
591.547	20974
591.569	20980
591.600	21059
591.640	21159
591.653	21167
591.706	20939
591.711	20925
591.759	21009
591.782	20914
591.811	21551
591.853	22656
591.864	22757
591.917	22932
591.924	22947
591.969	22176
591.995	21734
592.022	21649
592.066	21419
592.075	21616
592.127	22845
592.137	23057
592.180	23955
592.208	24455
592.233	23668
592.279	22181
592.285	22324
592.338	23434
592.350	23674
592.390	23184
592.421	22791
592.443	23028
592.491	23511
592.495	23572
592.548	24255
592.562	24436
592.600	24361
592.633	24261
592.653	24137
592.704	23653
592.705	23801
592.775	24473
592.846	25631
592.916	27039
592.987	28252
593.058	26142
593.128	25414
593.199	24332
593.270	24507
593.341	23916
593.411	27162
593.482	28419
593.553	27629
593.623	26599
593.694	27893
593.764	27688
593.835	27635
593.906	26988
593.976	28563
594.047	28329
594.117	30844
594.188	31331
594.258	30297
594.329	30183
594.399	30783
594.470	31398
594.540	33698
594.611	33308
594.681	33238
594.751	33245
594.822	36402
594.892	37269
594.963	37057
595.033	37187
595.103	37168
595.174	38970
595.244	43119
595.314	45102
595.384	41543
595.455	41510
595.525	43750
595.595	44429
595.665	45759
595.736	43241
595.806	43769
595.876	44854
595.946	44327
596.016	46486
596.087	47902
596.157	47426
596.227	48049
596.297	50358
596.367	53461
596.437	56288
596.507	58057
596.577	59734
596.647	58696
596.717	60712
596.787	62131
596.857	61631
596.927	63122
596.997	61720
597.067	62185
597.137	64079
597.207	63440
597.277	64812
597.347	62381
597.417	60180
597.487	61575
597.557	61602
597.626	64771
597.696	64364
597.766	64836
597.836	62319
597.906	57864
597.975	56876
598.045	56268
598.115	59012
598.185	64027
598.254	71846
598.324	78932
598.394	80208
598.464	77305
598.533	75466
598.603	69945
598.672	67514
598.742	70467
598.812	68518
598.881	70731
598.951	68907
599.020	71832
599.090	72762
599.159	75982
599.229	70982
599.299	69797
599.368	73035
599.437	70871
599.507	64597
599.576	62442
599.646	61863
599.715	60448
599.785	60855
599.854	60081
599.924	58694
599.993	58742
600.062	58103
600.132	60636
600.201	64966
600.270	76194
600.340	79254
600.409	76650
600.478	75547
600.547	79001
600.617	70536
600.686	56438
600.755	52163
600.824	50904
600.894	48008
600.963	46930
601.032	45803
601.101	44934
601.170	42891
601.239	41640
601.308	43588
601.378	44261
601.447	41727
601.516	41872
601.585	45139
601.654	48125
601.723	43839
601.792	44162
601.861	44839
601.930	49463
601.999	52802
602.068	50444
602.137	53995
602.206	54732
602.275	50991
602.343	57233
602.412	57613
602.481	51762
602.550	50476
602.619	51987
602.688	53568
602.756	52244
602.825	54045
602.894	53921
602.963	55714
603.032	56399
603.100	55579
603.169	56105
603.238	55848
603.307	57526
603.375	58489
603.444	59509
603.513	60499
603.581	61438
603.650	62445
603.719	62023
603.787	63622
603.856	66765
603.924	67400
603.993	69452
604.061	70740
604.130	74049
604.198	77541
604.267	78451
604.335	78869
604.404	80276
604.472	79525
604.541	81211
604.609	81263
604.678	83552
604.746	81994
604.815	85018
604.883	86693
604.951	86264
605.020	88862
605.088	91502
605.156	92777
605.225	93945
605.293	93825
605.361	94901
605.429	95656
605.498	98205
605.566	103218
605.634	107750
605.702	108094
605.771	113258
605.839	112127
605.907	109738
605.975	105989
606.043	104049
606.111	103862
606.180	102882
606.248	102128
606.316	100738
606.384	103368
606.452	106505
606.520	115961
606.588	111570
606.656	110006
606.724	107470
606.792	100020
606.860	90069
606.928	81718
606.996	79401
607.064	77054
607.132	80055
607.200	84218
607.267	88061
607.335	89568
607.403	89813
607.471	87364
607.539	86057
607.607	85059
607.674	75102
607.742	76090
607.810	77383
607.878	76435
607.946	77472
608.013	81740
608.081	83511
608.149	84334
608.216	86392
608.284	88505
608.352	89818
608.419	87121
608.487	87986
608.555	84448
608.622	88358
608.690	92676
608.757	102874
608.825	104248
608.893	104736
608.960	101076
609.028	96530
609.095	93651
609.163	91361
609.230	81640
609.298	75839
609.365	79490
609.432	86801
609.500	92934
609.567	108147
609.635	122837
609.702	130009
609.769	123363
609.837	96965
609.904	83256
609.971	88738
610.039	105385
610.106	145184
610.173	299089
610.241	703821
610.308	352339
610.375	114661
610.442	91219
610.509	85831
610.577	85886
610.644	86658
610.711	89713
610.778	91235
610.845	95114
610.912	101026
610.980	104526
611.047	106756
611.114	104233
611.181	100608
611.248	98777
611.315	106219
611.382	107348
611.449	112334
611.516	114589
611.583	114161
611.650	114546
611.717	115623
611.784	121830
611.851	130231
611.918	147607
611.984	180101
612.051	273416
612.118	588008
612.185	1469327
612.252	843522
612.319	204949
612.386	158596
612.452	142632
612.519	132143
612.586	130808
612.653	131481
612.719	135288
612.786	128521
612.853	117899
612.919	114372
612.986	118523
613.053	110680
613.120	104145
613.186	99757
613.253	103086
613.319	101858
613.386	100293
613.453	104430
613.519	107852
613.586	112498
613.652	125517
613.719	114715
613.785	112450
613.852	105696
613.918	101705
613.985	103091
614.051	108181
614.118	111480
614.184	106466
614.250	103226
614.317	105787
614.383	103439
614.449	106701
614.516	105810
614.582	106024
614.648	102973
614.715	102893
614.781	99976
614.847	100175
614.914	98907
614.980	97141
615.046	96702
615.112	99654
615.179	101190
615.245	102041
615.311	101340
615.377	105313
615.443	106642
615.509	106800
615.575	111814
615.642	110924
615.708	116178
615.774	124036
615.840	134802
615.906	154722
615.972	199806
616.038	327566
616.104	725639
616.170	1774308
616.236	1395427
616.302	313493
616.368	219965
616.434	152894
616.500	141542
616.565	159028
616.631	206356
616.697	161768
616.763	171089
616.829	274328
616.895	501382
616.961	455303
617.026	179858
617.092	119463
617.158	110919
617.224	105835
617.289	99269
617.355	91825
617.421	89309
617.487	90767
617.552	85470
617.618	84027
617.684	83128
617.749	86235
617.815	80388
617.880	77842
617.946	78522
618.012	81238
618.077	80921
618.143	77985
618.208	78370
618.274	84001
618.339	85731
618.405	69941
618.470	70515
618.536	69538
618.601	68897
618.667	63018
618.732	60417
618.798	59475
618.863	59099
618.928	58509
618.994	62524
619.059	64489
619.124	77094
619.190	63808
619.255	59038
619.320	58889
619.386	60000
619.451	57113
619.516	56544
619.581	57120
619.647	59737
619.712	57333
619.777	56853
619.842	57030
619.907	58977
619.972	58608
620.038	59469
620.103	56004
620.168	55362
620.233	57721
620.298	58096
620.363	58303
620.428	59934
620.493	61393
620.558	61900
620.623	61655
620.688	62444
620.753	61914
620.818	62587
620.883	63816
620.948	62908
621.013	62643
621.078	61905
621.143	61948
621.207	63942
621.272	62766
621.337	63167
621.402	60252
621.467	61650
621.532	61554
621.596	61135
621.661	57621
621.726	57207
621.791	56846
621.855	60198
621.920	59330
621.985	58414
622.049	59636
622.114	61640
622.179	60039
622.243	61697
622.308	63675
622.373	67761
622.437	64903
622.502	60174
622.566	60259
622.631	60168
622.695	60982
622.760	60756
622.824	61111
622.889	63409
622.953	66728
623.018	82330
623.082	82030
623.147	67064
623.211	63656
623.276	64812
623.340	58676
623.404	57925
623.469	58225
623.533	59137
623.597	57120
623.662	58308
623.726	52366
623.790	49053
623.854	47761
623.919	50466
623.983	50389
624.047	51862
624.111	51537
624.176	53178
624.240	54460
624.304	58522
624.368	52401
624.432	53168
624.496	54644
624.560	62191
624.625	64027
624.689	59161
624.753	59659
624.817	56786
624.881	53752
624.945	49340
625.009	48082
625.073	50118
625.137	54014
625.201	62538
625.265	61426
625.329	52379
625.393	55387
625.456	53330
625.520	53860
625.584	57814
625.648	58237
625.712	63408
625.776	73304
625.839	72299
625.903	49603
625.967	43447
626.031	50640
626.095	63318
626.158	50913
626.222	39056
626.286	36532
626.349	33534
626.413	32347
626.477	35773
626.540	34045
626.604	32547
626.668	32677
626.731	31942
626.795	31034
626.858	33299
626.922	30414
626.986	32140
627.049	29850
627.113	34147
627.176	31557
627.240	30531
627.303	31224
627.366	30836
627.430	31478
627.493	30762
627.557	29941
627.620	31275
627.684	31567
627.747	33260
627.810	28302
627.874	26804
627.937	25308
628.000	28255
628.064	26759
628.127	22434
628.190	23604
628.253	22823
628.317	21731
628.380	22395
628.443	19970
628.506	20252
628.569	19442
628.632	18624
628.696	18742
628.759	18420
628.822	18096
628.885	16757
628.948	16104
629.011	18226
629.074	17494
629.137	16086
629.200	15956
629.263	17084
629.326	13679
629.389	15320
629.452	15666
629.515	15097
629.578	15386
629.641	17517
629.704	16228
629.767	17564
629.830	15504
629.892	15170
629.955	13720
630.018	17631
630.081	19197
630.144	23243
630.207	16453
630.269	17740
630.332	14777
630.395	15559
630.458	14316
630.520	14717
630.583	15919
630.646	14291
630.708	13690
630.771	14067
630.834	15451
630.896	14383
630.959	14967
631.021	14486
631.084	14108
631.146	16241
631.209	15540
631.272	14875
631.334	15329
631.397	14610
631.459	16436
631.522	19788
631.584	18935
631.646	20648
631.709	23149
631.771	27125
631.834	21187
631.896	18657
631.958	15957
632.021	17872
632.083	14492
632.145	15035
632.208	14513
632.270	15856
632.332	13423
632.395	13174
632.457	15144
632.519	13465
632.581	13447
632.643	12980
632.706	14253
632.768	12317
632.830	13602
632.892	14224
632.954	13818
633.016	14721
633.078	13366
633.141	14205
633.203	13304
633.265	14729
633.327	13519
633.389	14394
633.451	16222
633.513	19167
633.575	17172
633.637	18533
633.698	17583
633.760	17384
633.822	16691
633.884	17635
633.946	17676
634.008	19603
634.070	19063
634.132	21347
634.193	24425
634.255	28092
634.317	27316
634.379	28076
634.441	23455
634.502	21014
634.564	19072
634.626	19076
634.687	18597
634.749	14867
634.811	15492
634.873	13705
634.934	13725
634.996	14640
635.057	13523
635.119	14673
635.181	14519
635.242	16347
635.304	12749
635.365	17407
635.427	14923
635.488	16560
635.550	13593
635.611	16104
635.673	14104
635.734	17462
635.796	19512
635.857	22683
635.918	21923
635.980	28226
636.041	27208
636.102	31850
636.164	32179
636.225	31197
636.286	23391
636.348	22885
636.409	18101
636.470	15965
636.531	14828
636.593	15067
636.654	13361
636.715	13143
636.776	12671
636.838	11930
636.899	12157
636.960	11694
637.021	12503
637.082	12452
637.143	12467
637.204	10550
637.265	10262
637.326	11879
637.387	11864
637.448	11338
637.509	11398
637.570	10884
637.631	11182
637.692	9425
637.753	8297
637.814	10441
637.875	9802
637.936	11393
637.997	9531
638.058	9972
638.119	10273
638.179	9738
638.240	9795
638.301	9978
638.362	8584
638.423	10280
638.483	9846
638.544	8756
638.605	9777
638.666	9635
638.726	10083
638.787	10539
638.848	8830
638.908	9417
638.969	9241
639.030	9262
639.090	8580
639.151	8912
639.211	10240
639.272	14715
639.332	21865
639.393	13487
639.453	10989
639.514	11686
639.574	9312
639.635	8150
639.695	9061
639.756	8786
639.816	10163
639.877	11943
639.937	21694
639.997	27072
640.058	9852
640.118	9093
640.178	8734
640.239	8319
640.299	8031
640.359	8591
640.420	9788
640.480	11988
640.540	14107
640.600	14694
640.661	12078
640.721	11334
640.781	15039
640.841	9318
640.901	9964
640.961	10586
641.021	10982
641.082	13705
641.142	17736
641.202	12059
641.262	6205
641.322	9422
641.382	6330
641.442	9004
641.502	7673
641.562	8640
641.622	8371
641.682	10162
641.742	12084
641.802	10698
641.861	9585
641.921	9853
641.981	10551
642.041	9506
642.101	11428
642.161	7629
642.221	6803
642.280	7496
642.340	6521
642.400	7086
642.460	8753
642.519	7102
642.579	7453
642.639	8937
642.698	5234
642.758	10398
642.818	8648
642.877	7471
642.937	8498
642.997	10324
643.056	15361
643.116	9656
643.175	9164
643.235	8554
643.294	9914
643.354	11140
643.414	13110
643.473	17043
643.532	22360
643.592	36655
643.651	60991
643.711	110080
643.770	219988
643.830	543110
643.889	1123902
643.948	251075
644.008	41059
644.067	23756
644.126	15216
644.186	14192
644.245	11829
644.304	9633
644.363	11687
644.423	9351
644.482	8995
644.541	11026
644.600	9543
644.659	15561
644.719	20073
644.778	33410
644.837	58027
644.896	127020
644.955	290547
645.014	87099
645.073	18248
645.132	12968
645.191	11237
645.250	10472
645.309	11044
645.368	12825
645.427	18364
645.486	31000
645.545	55280
645.604	16090
645.663	10964
645.722	11147
645.781	12295
645.840	15764
645.898	21721
645.957	33767
646.016	53924
646.075	103424
646.134	203987
646.192	557884
646.251	797392
646.310	109197
646.369	27581
646.427	21790
646.486	13953
646.545	12267
646.603	9857
646.662	10105
646.721	9671
646.779	9433
646.838	9942
646.896	14759
646.955	20269
647.014	32614
647.072	65448
647.131	184919
647.189	82397
647.248	12373
647.306	7681
647.365	8158
647.423	4463
647.481	8275
647.540	5109
647.598	6671
647.657	5734
647.715	6659
647.773	4551
647.832	7249
647.890	3952
647.948	5135
648.007	6323
648.065	4375
648.123	5006
648.181	6685
648.240	5035
648.298	4723
648.356	5072
648.414	6283
648.472	5170
648.531	5788
648.589	4521
648.647	4960
648.705	4659
648.763	6227
648.821	5918
648.879	6483
648.937	8432
648.995	11851
649.053	16557
649.111	26272
649.169	44624
649.227	79993
649.285	172297
649.343	499466
649.401	225382
649.459	44589
649.516	25311
649.574	11964
649.632	13060
649.690	12981
649.748	15984
649.806	22381
649.863	43909
649.921	127207
649.979	81580
650.037	10743
650.094	5349
650.152	6901
650.210	4126
650.268	4644
650.325	3673
650.383	4401
650.440	2792
650.498	3727
650.556	3654
650.613	3843
650.671	3580
650.728	4223
650.786	3582
650.843	6647
650.901	3656
650.958	3183
651.016	3103
651.073	3132
651.131	2121
651.188	2468
651.246	3146
651.303	2115
651.360	2461
651.418	3060
651.475	2618
651.532	1940
651.590	2975
651.647	2714
651.704	2321
651.762	3357
651.819	3296
651.876	2798
651.933	2306
651.990	3628
652.048	1734
652.105	2702
652.162	2828
652.219	2548
652.276	2509
652.333	3749
652.390	1349
652.448	2670
652.505	2309
652.562	3375
652.619	2578
652.676	2817
652.733	3226
652.790	2484
652.847	1546
652.904	2691
652.961	1000
653.017	1367
653.074	3015
653.131	2860
653.188	2134
653.245	2123
653.302	1897
653.359	2411
653.415	2575
653.472	2007
653.529	2442
653.586	2282
653.642	1940
653.699	2242
653.756	1853
653.813	2101
653.869	2813
653.926	2343
653.983	1802
654.039	3615
654.096	1272
654.152	3164
654.209	659
654.266	2544
654.322	1299
654.379	1965
654.435	3138
654.492	2823
654.548	4050
654.605	6328
654.661	3503
654.717	2089
654.774	2648
654.830	2310
654.887	1992
654.943	1969
655.000	2528
655.056	2688
655.112	2374
655.168	2349
655.225	2052
655.281	3731
655.337	2594
655.394	2913
655.450	2857
655.506	3301
655.562	3166
655.618	4599
655.675	1685
655.731	3383
655.787	1848
655.843	3485
655.899	2331
655.955	3944
656.011	4073
656.067	4414
656.123	5394
656.179	6350
656.235	7585
656.291	5705
656.347	4894
656.403	4750
656.459	4103
656.515	4468
656.571	3068
656.627	3720
656.683	2017
656.739	4008
656.795	3402
656.850	3159
656.906	4403
656.962	3672
657.018	1890
657.074	3105
657.129	3573
657.185	6299
657.241	12985
657.297	7472
657.352	2235
657.408	2560
657.464	3514
657.519	1836
657.575	1171
657.630	1974
657.686	1261
657.742	1861
657.797	1715
657.853	1818
657.908	2586
657.964	2019
658.019	1495
658.075	1691
658.130	1654
658.186	1293
658.241	1826
658.297	1129
658.352	964
658.407	1964
658.463	501
658.518	1946
658.573	1025
658.629	996
658.684	875
658.739	1734
658.795	830
658.850	1203
658.905	926
658.960	2033
659.016	894
659.071	1940
659.126	1304
659.181	2863
659.236	6568
659.291	6494
659.346	1898
659.401	1923
659.457	2322
659.512	1708
659.567	2214
659.622	1731
659.677	541
659.732	1311
659.787	1300
659.842	1100
659.897	1566
659.952	2278
660.007	1295
660.061	1823
660.116	507
660.171	982
660.226	2116
660.281	2139
660.336	568
660.391	2348
660.445	1489
660.500	1173
660.555	880
660.610	1412
660.664	1499
660.719	1613
660.774	1528
660.828	1498
660.883	1680
660.938	2022
660.992	312
661.047	1768
661.101	918
661.156	905
661.211	950
661.265	1222
661.320	512
661.374	1444
661.429	968
661.483	1725
661.538	-3
661.592	479
661.647	249
661.701	1794
661.755	1355
661.810	1710
661.864	587
661.919	1128
661.973	1879
662.027	960
662.081	4
662.136	1593
662.190	681
662.244	1853
662.299	875
662.353	1552
662.407	1391
662.461	1401
662.515	1866
662.569	1223
662.624	539
662.678	740
662.732	1212
662.786	1350
662.840	1263
662.894	1128
662.948	1205
663.002	1190
663.056	1714
663.110	1084
663.164	1104
663.218	1718
663.272	1401
663.326	2205
663.380	2294
663.434	1936
663.488	1091
663.542	1142
663.595	1099
663.649	987
663.703	1791
663.757	2253
663.811	583
663.864	1737
663.918	944
663.972	864
664.026	586
664.079	1533
664.133	1758
664.187	1194
664.240	489
664.294	944
664.348	783
664.401	1853
664.455	1238
664.508	866
664.562	1241
664.615	1642
664.669	1553
664.722	1425
664.776	1142
664.829	1733
664.883	1066
664.936	795
664.990	1903
665.043	1945
665.097	388
665.150	1962
665.203	492
665.257	950
665.310	1671
665.363	1829
665.417	1679
665.470	1617
665.523	1656
665.576	1405
665.630	735
665.683	1356
665.736	1601
665.789	1131
665.842	120
665.895	1495
665.949	1395
666.002	1263
666.055	1264
666.108	2444
666.161	1003
666.214	2370
666.267	1966
666.320	2862
666.373	1570
666.426	1801
666.479	1784
666.532	1376
666.585	2008
666.638	1915
666.691	1080
666.744	1695
666.796	895
666.849	1759
666.902	1551
666.955	1255
667.008	1183
667.060	1043
667.113	1037
667.166	1566
667.219	1676
667.271	1720
667.324	1601
667.377	1485
667.430	1355
667.482	1488
667.535	1141
667.587	2098
667.640	3401
667.693	3421
667.745	6640
667.798	6684
667.850	1243
667.903	1666
667.955	727
668.008	1696
668.060	1339
668.113	957
668.165	1175
668.218	1207
668.270	709
668.322	1696
668.375	696
668.427	1596
668.479	1526
668.532	1532
668.584	1564
668.636	2138
668.689	665
668.741	1462
668.793	1096
668.845	797
668.898	1843
668.950	790
669.002	335
669.054	1723
669.106	1530
669.158	1330
669.211	1364
669.263	985
669.315	1044
669.367	1775
669.419	605
669.471	2222
669.523	1604
669.575	2290
669.627	1439
669.679	1451
669.731	1741
669.783	2703
669.835	2228
669.886	743
669.938	1289
669.990	869
670.042	-56
670.094	1929
670.146	901
670.197	1641
670.249	1413
670.301	1926
670.353	2170
670.404	3712
670.456	3579
670.508	6918
670.560	9003
670.611	16033
670.663	27252
670.715	66312
670.766	103032
670.818	28220
670.869	5482
670.921	3981
670.972	3012
671.024	2775
671.075	1609
671.127	1866
671.178	1880
671.230	2429
671.281	2139
671.333	2738
671.384	3263
671.436	4424
671.487	6058
671.538	9898
671.590	13720
671.641	23895
671.692	45270
671.744	87715
671.795	53777
671.846	15300
671.897	6880
671.949	4727
672.000	3055
672.051	2326
672.102	2377
672.153	2638
672.204	2171
672.256	1411
672.307	1326
672.358	1689
672.409	1070
672.460	1119
672.511	1055
672.562	1884
672.613	1097
672.664	1228
672.715	1187
672.766	978
672.817	1265
672.868	986
672.919	1981
672.970	1469
673.021	438
673.071	195
673.122	1192
673.173	1313
673.224	617
673.275	1176
673.326	-194
673.376	851
673.427	549
673.478	1125
673.528	372
673.579	1178
673.630	117
673.680	2193
673.731	259
673.782	1456
673.832	-82
673.883	1286
673.934	728
673.984	514
674.035	640
674.085	509
674.136	1683
674.186	947
674.237	1218
674.287	1986
674.338	887
674.388	1385
674.438	954
674.489	1803
674.539	1544
674.589	1354
674.640	566
674.690	1094
674.740	1091
674.791	846
674.841	512
674.891	564
674.942	108
674.992	1400
675.042	265
675.092	1239
675.142	107
675.193	1216
675.243	296
675.293	554
675.343	48
675.393	772
675.443	749
675.493	1222
675.543	685
675.593	653
675.643	684
675.693	1429
675.743	946
675.793	961
675.843	348
675.893	209
675.943	835
675.993	986
676.043	265
676.093	739
676.142	-486
676.192	1360
676.242	614
676.292	-136
676.341	290
676.391	490
676.441	23
676.491	347
676.540	-118
676.590	811
676.640	50
676.689	611
676.739	-811
676.789	453
676.838	-174
676.888	446
676.937	-382
676.987	410
677.037	177
677.086	209
677.136	447
677.185	521
677.235	-63
677.284	758
677.333	-736
677.383	-145
677.432	-555
677.482	817
677.531	1224
677.580	-108
677.630	-715
677.679	-371
677.728	334
677.778	-22
677.827	-571
677.876	132
677.925	-100
677.975	380
678.024	-374
678.073	335
678.122	756
678.171	406
678.220	228
678.269	389
678.319	1699
678.368	1126
678.417	422
678.466	467
678.515	880
678.564	706
678.613	20
678.662	544
678.711	611
678.760	392
678.809	35
678.857	664
678.906	-457
678.955	497
679.004	533
679.053	902
679.102	-457
679.151	-568
679.199	-353
679.248	521
679.297	-714
679.346	-266
679.394	100
679.443	631
679.492	-148
679.540	273
679.589	-541
679.638	331
679.686	466
679.735	623
679.784	12
679.832	1029
679.881	550
679.929	380
679.978	-98
680.026	601
680.075	588
680.123	328
680.172	-957
680.220	342
680.268	-366
680.317	77
680.365	-155
680.414	314
680.462	-88
680.510	610
680.559	-253
680.607	-316
680.655	-661
680.703	-70
680.752	434
680.800	349
680.848	-162
680.896	306
680.945	44
680.993	-109
681.041	-120
681.089	1114
681.137	-717
681.185	99
681.233	-695
681.258	-267
681.281	129
681.329	-551
681.377	-244
681.380	-247
681.425	-459
681.473	965
681.502	233
681.521	-298
681.569	192
681.617	-659
681.624	-536
681.665	174
681.713	87
681.745	351
681.761	467
681.809	-2
681.857	465
681.867	420
681.904	218
681.952	985
681.989	524
682.000	374
682.048	223
682.096	13
682.111	214
682.143	601
682.191	528
682.233	1305
682.239	1413
682.286	-509
682.334	301
682.354	203
682.382	12
682.430	492
682.476	-414
682.477	-438
682.525	655
682.572	-4
682.598	90
682.620	130
682.667	61
682.715	1052
682.720	1039
682.763	838
682.810	648
682.841	422
682.857	272
682.905	831
682.952	677
682.963	581
683.000	200
683.047	385
683.085	805
683.095	913
683.142	385
683.190	971
683.206	865
683.237	659
683.284	795
683.328	504
683.332	472
683.379	561
683.426	-131
683.449	-9
683.473	131
683.521	933
683.568	1310
683.571	1266
683.615	495
683.662	1460
683.693	678
683.709	251
683.757	670
683.804	875
683.814	897
683.851	952
683.898	945
683.936	1206
683.945	1273
683.992	1054
684.039	953
684.057	1140
684.086	1406
684.133	1613
684.179	1018
684.180	988
684.227	2085
684.274	1085
684.300	2064
684.321	2814
684.368	1338
684.415	1654
684.422	1580
684.462	1014
684.509	1132
684.543	924
684.556	895
684.603	1138
684.649	815
684.665	917
684.696	1150
684.743	1074
684.786	1562
684.790	1584
684.837	995
684.883	2014
684.908	1533
684.930	1161
684.977	2221
685.023	1164
685.029	1273
685.070	1933
685.117	1156
685.150	1559
685.164	1730
685.210	1137
685.257	1998
685.272	1798
685.303	1371
685.350	2408
685.393	1542
685.396	1483
685.443	2231
685.490	3493
685.514	3307
685.536	2883
685.583	2047
685.629	2105
685.636	1991
685.675	1559
685.722	1914
685.757	1999
685.768	2007
685.815	2548
685.861	1200
685.878	1375
685.908	1735
685.954	1984
686.000	2306
686.000	2308
686.047	2359
686.093	2340
686.121	2537
686.139	2601
686.185	2257
686.232	1377
686.242	1617
686.278	2483
686.324	1591
686.363	1869
686.370	1916
686.416	1460
686.463	2418
686.484	1870
686.509	1336
686.555	2037
686.601	1524
686.606	1596
686.647	2064
686.693	1478
686.727	1772
686.739	1929
686.785	1752
686.831	1950
686.848	1907
686.877	1800
686.923	1824
686.969	1797
686.969	1795
687.015	2265
687.061	1613
687.090	2011
687.107	2295
687.153	2504
687.199	1978
687.211	1910
687.245	1784
687.291	2315
687.332	2398
687.336	2393
687.382	2397
687.428	2434
687.453	2650
687.474	2831
687.520	2679
687.565	2715
687.574	2631
687.611	2211
687.657	2584
687.695	2217
687.702	2184
687.748	2346
687.794	2773
687.816	2543
687.839	2195
687.885	2300
687.931	2542
687.937	2480
687.976	2336
688.022	3035
688.058	2473
688.067	2318
688.113	3061
688.158	2669
688.179	2660
688.204	2586
688.249	2796
688.295	2491
688.300	2485
688.340	2681
688.386	2951
688.421	2445
688.431	2296
688.477	2559
688.522	3364
688.542	3296
688.567	3224
688.613	2705
688.658	3628
688.663	3604
688.703	3218
688.749	3355
688.784	2964
688.794	2908
688.839	2942
688.884	3192
688.905	3224
688.930	3212
688.975	2852
689.020	3055
689.026	3028
689.065	2776
689.110	2677
689.146	2276
689.155	2224
689.201	2586
689.246	2573
689.267	2829
689.291	3094
689.336	2722
689.381	2797
689.388	2831
689.426	3049
689.471	2664
689.509	2930
689.516	2981
689.561	3022
689.606	3127
689.630	3051
689.651	2962
689.696	2818
689.741	3450
689.750	3348
689.785	3138
689.830	3526
689.871	3309
689.875	3255
689.920	3108
689.965	2754
689.992	2744
690.010	2950
690.054	3160
690.099	3318
690.112	3404
690.144	3498
690.189	3430
690.233	2994
690.233	2998
690.278	3754
690.323	3422
690.354	3464
690.367	3446
690.412	3517
690.457	3168
690.474	3026
690.501	2960
690.546	3484
690.590	3274
690.595	3254
690.635	3188
690.680	3160
690.716	3236
690.724	3245
690.769	2999
690.813	4003
690.836	3694
690.857	3459
690.902	3528
690.946	3631
690.957	3723
690.991	4015
691.035	3462
691.077	4154
691.080	4200
691.124	3814
691.168	4210
691.198	3811
691.213	3591
691.257	4173
691.301	3815
691.318	3864
691.346	3989
691.390	3879
691.434	4006
691.439	3973
691.478	3730
691.522	3946
691.559	3828
691.567	3880
691.611	4369
691.655	4472
691.680	4755
691.699	4647
691.743	3896
691.787	3672
691.800	3531
691.831	3515
691.875	3476
691.919	3439
691.921	3429
691.964	3605
692.008	3929
692.041	3824
692.052	3752
692.096	3882
692.139	4002
692.162	3886
692.183	3701
692.227	3599
692.271	3270
692.282	3279
692.315	3611
692.359	3869
692.402	3851
692.403	3860
692.447	3805
692.490	4061
692.523	3909
692.534	3884
692.578	4399
692.622	3893
692.643	4109
692.666	4202
692.709	3678
692.753	3876
692.763	3816
692.797	3762
692.840	3702
692.884	3605
692.884	3615
692.928	3983
692.971	3748
693.004	3869
693.015	3946
693.059	3912
693.102	4230
693.124	4148
693.146	4054
693.189	4156
693.233	3963
693.245	4095
693.276	4464
693.320	4212
693.363	4289
693.365	4271
693.407	4108
693.450	4121
693.485	4054
693.493	4079
693.537	4309
693.580	4375
693.605	4535
693.624	4704
693.667	4950
693.710	5123
693.725	5188
693.753	5158
693.797	4927
693.840	4814
693.845	4802
693.883	5011
693.926	5104
693.966	5276
693.970	5263
694.013	4828
694.056	4564
694.086	4108
694.099	4044
694.142	4245
694.185	4394
694.206	4421
694.229	4622
694.272	4772
694.315	5063
694.326	5085
694.358	5181
694.401	5666
694.444	6105
694.446	6111
694.487	6592
694.530	6589
694.566	6975
694.573	6876
694.616	5944
694.659	5355
694.686	4651
694.702	4615
694.745	4665
694.787	4822
694.806	4855
694.830	4933
694.873	4719
694.916	5174
694.926	5098
694.959	4912
695.002	5246
695.044	5154
695.046	5144
695.087	5264
695.130	5254
695.166	5467
695.172	5507
695.215	5003
695.258	5325
695.286	5242
695.301	5200
695.343	5246
695.386	4931
695.406	4907
695.428	5145
695.471	5370
695.514	5891
695.526	5903
695.556	5834
695.599	6297
695.641	6271
695.646	6255
695.684	5742
695.726	5325
695.766	4849
695.769	4870
695.811	4928
695.854	5188
695.886	5134
695.896	5098
695.938	5260
695.981	4963
696.005	4990
696.023	5234
696.065	5576
696.108	6083
696.125	6236
696.150	6130
696.192	5962
696.235	5744
696.245	5706
696.277	5936
696.319	6044
696.361	6176
696.365	6158
696.404	5997
696.446	6165
696.485	6097
696.488	6129
696.530	6361
696.572	6486
696.604	6670
696.614	6633
696.656	6338
696.698	6034
696.724	5785
696.740	5759
696.783	5781
696.825	5728
696.844	5725
696.867	5808
696.909	5795
696.951	5815
696.964	5835
696.992	5954
697.034	5966
697.076	6031
697.083	6040
697.118	6254
697.160	6359
697.202	6520
697.203	6503
697.244	6383
697.286	6391
697.323	6269
697.327	6316
697.369	6705
697.411	6913
697.442	7153
697.453	7255
697.494	7510
697.536	7868
697.562	7965
697.578	8015
697.620	8258
697.661	8312
697.682	8384
697.703	8565
697.744	8880
697.786	9163
697.801	9242
697.828	9191
697.869	9067
697.911	8859
697.921	8808
697.952	8507
697.994	8040
698.035	7576
698.040	7500
698.077	7558
698.118	7601
698.160	7607
698.160	7585
698.201	7639
698.243	7611
698.279	7707
698.284	7741
698.325	7760
698.367	7794
698.399	7784
698.408	7861
698.449	8121
698.491	8396
698.518	8566
698.532	8605
698.573	8627
698.614	8656
698.638	8649
698.656	8635
698.697	8542
698.738	8459
698.757	8400
698.779	8360
698.820	8220
698.862	8099
698.877	8031
698.903	8341
698.944	8801
698.985	9255
698.996	9357
699.026	9126
699.067	8770
699.116	8323
699.235	7059
699.354	6996
699.474	8707
699.593	8311
699.713	8697
699.832	8943
699.951	9989
700.070	9410
700.190	8491
700.309	8950
700.428	8478
700.547	8773
700.667	8317
700.786	7830
700.905	7623
701.024	7821
701.143	7764
701.262	7369
701.381	7811
701.500	8734
701.619	9900
701.738	7370
701.857	7668
701.976	7711
702.095	8065
702.214	10060
702.333	9464
702.452	8188
702.571	7375
702.690	7535
702.809	7567
702.928	8019
703.047	7983
703.165	7098
703.284	6288
703.403	7586
703.522	7023
703.640	7850
703.759	9353
703.878	9894
703.997	6245
704.115	7694
704.234	6470
704.353	7405
704.471	6447
704.590	6177
704.708	5884
704.827	6644
704.946	6170
705.064	6253
705.183	6038
705.301	7381
705.420	6318
705.538	6834
705.656	5809
705.775	5393
705.893	6964
706.012	6691
706.130	6204
706.249	6606
706.367	6520
706.485	5891
706.604	6000
706.722	7063
706.840	8509
706.958	7374
707.077	6140
707.195	6611
707.313	5716
707.431	5973
707.549	4872
707.668	5145
707.786	6791
707.904	4633
708.022	5738
708.140	5130
708.258	6287
708.376	6097
708.494	5343
708.612	6128
708.730	6792
708.848	6530
708.966	7566
709.084	7711
709.202	6347
709.320	5797
709.438	5789
709.556	5894
709.674	6160
709.791	5764
709.909	5553
710.027	5799
710.145	6040
710.263	5801
710.380	5063
710.498	5575
710.616	5866
710.733	5781
710.851	5319
710.969	5833
711.086	5396
711.204	6441
711.322	5152
711.439	5103
711.557	4979
711.674	5367
711.792	5126
711.909	4919
712.027	5335
712.144	5509
712.262	5774
712.379	5849
712.497	7742
712.614	6027
712.732	6497
712.849	6818
712.966	7059
713.084	9567
713.201	5912
713.318	7096
713.436	5295
713.553	6563
713.670	7744
713.787	7094
713.905	5942
714.022	6659
714.139	7141
714.256	12341
714.373	19378
714.490	42112
714.608	130083
714.725	582577
714.842	496534
714.959	32328
715.076	13180
715.193	9997
715.310	9059
715.427	6962
715.544	7749
715.661	7880
715.778	5721
715.895	6767
716.011	6877
716.128	6705
716.245	7357
716.362	10223
716.479	8718
716.596	6373
716.713	5714
716.829	5791
716.946	5736
717.063	5223
717.180	4919
717.296	4617
717.413	5351
717.530	5801
717.646	4942
717.763	4941
717.880	3974
717.996	4558
718.113	5637
718.229	4651
718.346	4298
718.462	6010
718.579	9292
718.695	21222
718.812	10437
718.928	6042
719.045	5244
719.161	4252
719.277	4390
719.394	5217
719.510	5326
719.626	6643
719.743	9001
719.859	14889
719.975	36921
720.092	168732
720.208	336972
720.324	31528
720.440	8328
720.557	8640
720.673	15819
720.789	13011
720.905	12873
721.021	5243
721.137	4812
721.253	4192
721.369	4322
721.486	4310
721.602	4837
721.718	4599
721.834	4495
721.950	4389
722.066	4535
722.181	3615
722.297	4577
722.413	4415
722.529	4693
722.645	3845
722.761	4168
722.877	3933
722.993	4147
723.108	6202
723.224	4672
723.340	4135
723.456	4036
723.571	3720
723.687	3022
723.803	3455
723.918	4098
724.034	3402
724.150	3484
724.265	3981
724.381	6002
724.497	6934
724.612	2849
724.728	2918
724.843	3775
724.959	3912
725.074	6301
725.190	5656
725.305	3304
725.421	3462
725.536	2875
725.651	3348
725.767	2778
725.882	3390
725.997	2703
726.113	3926
726.228	3238
726.343	3355
726.459	2609
726.574	3024
726.689	3318
726.804	3989
726.920	2949
727.035	2594
727.150	3199
727.265	2840
727.380	4288
727.495	3599
727.610	2974
727.725	2291
727.841	3279
727.956	3909
728.071	2840
728.186	2840
728.301	3487
728.416	4513
728.531	3426
728.645	3114
728.760	4493
728.875	5636
728.990	5048
729.105	3588
729.220	4698
729.335	4736
729.449	3330
729.564	3076
729.679	1971
729.794	2707
729.908	3307
730.023	3358
730.138	2647
730.253	2835
730.367	2993
730.482	3025
730.596	3320
730.711	5037
730.826	4023
730.940	3691
731.055	3573
731.169	3919
731.284	3615
731.398	3194
731.513	3787
731.627	3363
731.742	5037
731.856	5150
731.970	6159
732.085	8656
732.199	11900
732.313	25799
732.428	70580
732.542	212351
732.656	103409
732.771	17082
732.885	9276
732.999	8008
733.113	7212
733.227	6316
733.342	6739
733.456	5201
733.570	5619
733.684	5608
733.798	4301
733.912	4737
734.026	4819
734.140	4286
734.254	4456
734.368	6935
734.482	5579
734.596	4073
734.710	4027
734.824	5276
734.938	3315
735.052	4811
735.166	5409
735.280	5828
735.393	4042
735.507	4529
735.621	4825
735.735	6118
735.849	4256
735.962	3299
736.076	4718
736.190	4083
736.303	5019
736.417	5284
736.531	4398
736.644	4033
736.758	4090
736.872	3902
736.985	4656
737.099	3407
737.212	3671
737.326	3595
737.439	4119
737.553	3070
737.666	4640
737.780	3071
737.893	4296
738.007	4282
738.120	3388
738.233	3982
738.347	3642
738.460	3968
738.573	4783
738.687	4435
738.800	5385
738.913	6282
739.026	4776
739.140	3284
739.253	4089
739.366	3854
739.479	3382
739.592	3447
739.705	3786
739.818	4067
739.932	3169
740.045	3539
740.158	3336
740.271	3510
740.384	3093
740.497	3850
740.610	4862
740.723	4844
740.836	5103
740.949	5370
741.062	7302
741.174	6113
741.287	3284
741.400	4171
741.513	4104
741.626	5383
741.739	5062
741.851	3418
741.964	3913
742.077	4262
742.189	5311
742.302	9681
742.415	8123
742.527	4457
742.640	3624
742.753	3445
742.865	3021
742.978	3420
743.090	3053
743.203	4519
743.316	2672
743.428	2874
743.541	2945
743.653	3424
743.766	3443
743.878	3279
743.990	4436
744.103	9139
744.215	14078
744.327	5248
744.440	6557
744.552	8354
744.664	4944
744.777	2986
744.889	2544
745.001	3006
745.113	3044
745.226	2262
745.338	2793
745.450	2888
745.562	2283
745.674	2598
745.786	2961
745.898	2913
746.010	3391
746.122	2116
746.234	3028
746.347	2486
746.459	2589
746.570	3526
746.682	8404
746.794	18318
746.906	8715
747.018	3392
747.130	2647
747.242	2845
747.354	2475
747.466	2282
747.577	2225
747.689	3464
747.801	3264
747.913	1938
748.024	1796
748.136	2171
748.248	1834
748.359	2342
748.471	1952
748.583	1965
748.694	1928
748.806	2585
748.918	2460
749.029	2786
749.141	2747
749.252	4117
749.364	4348
749.475	9594
749.587	4408
749.698	2018
749.809	2210
749.921	1383
750.032	1483
750.144	1955
750.255	1609
750.366	1761
750.478	2953
750.589	2905
750.700	2629
750.811	3018
750.923	4804
751.034	12657
751.145	11581
751.256	2089
751.367	1740
751.479	2400
751.590	1769
751.701	1093
751.812	1555
751.923	2899
752.034	1898
752.145	1808
752.256	1553
752.367	1641
752.478	1554
752.589	2199
752.700	2013
752.811	1938
752.922	2183
753.032	2796
753.143	3365
753.254	1163
753.365	2852
753.476	1874
753.586	1514
753.697	769
753.808	2236
753.919	1923
754.029	1547
754.140	1447
754.251	1236
754.361	1040
754.472	1400
754.582	1985
754.693	1755
754.804	2083
754.914	1785
755.025	1390
755.135	1647
755.246	1732
755.356	1499
755.466	2113
755.577	1818
755.687	1492
755.798	1321
755.908	1811
756.018	1746
756.129	1835
756.239	1299
756.349	1177
756.460	1735
756.570	1879
756.680	2108
756.790	2123
756.900	2624
757.011	1289
757.121	1738
757.231	1283
757.341	1695
757.451	893
757.561	1207
757.671	1527
757.781	1110
757.891	1988
758.001	1373
758.111	2047
758.221	2569
758.331	3229
758.441	2709
758.551	4798
758.661	3793
758.771	2351
758.880	2157
758.990	1766
759.100	1310
759.210	1228
759.320	2258
759.429	2529
759.539	1862
759.649	2501
759.758	3703
759.868	3521
759.978	3149
760.087	3752
760.197	3974
760.307	2633
760.416	3451
760.526	3343
760.635	3390
760.745	3254
760.854	4145
760.964	4019
761.073	4609
761.182	3774
761.292	3898
761.401	3037
761.511	2010
761.620	1573
761.729	2421
761.839	1665
761.948	1851
762.057	1541
762.166	2081
762.276	1263
762.385	2247
762.494	1925
762.603	1584
762.712	1414
762.822	1518
762.931	1727
763.040	878
763.149	1103
763.258	1051
763.367	1387
763.476	1988
763.585	1097
763.694	1888
763.803	1310
763.912	1797
764.021	1549
764.130	1449
764.238	2317
764.347	1989
764.456	1460
764.565	1143
764.674	1336
764.783	969
764.891	1074
765.000	2628
765.109	1913
765.217	1600
765.326	2299
765.435	2841
765.543	2601
765.652	2521
765.761	3723
765.869	4416
765.978	5936
766.086	11844
766.195	24364
766.303	76601
766.412	287809
766.520	204694
766.629	24226
766.737	8715
766.846	5229
766.954	3929
767.062	3827
767.171	2494
767.279	2329
767.387	1967
767.496	1968
767.604	1931
767.712	1223
767.820	1827
767.928	1531
768.037	1485
768.145	1856
768.253	1466
768.361	1041
768.469	932
768.577	1338
768.685	1550
768.793	1197
768.901	1001
769.009	2081
769.117	1129
769.225	2119
769.333	3838
769.441	4694
769.549	9848
769.657	23958
769.765	96959
769.873	222732
769.981	45603
770.088	6570
770.196	4118
770.304	2838
770.412	2291
770.519	2481
770.627	1336
770.735	1760
770.842	2209
770.950	2734
771.058	1708
771.165	2409
771.273	2464
771.380	1785
771.488	2233
771.595	2278
771.703	1894
771.810	2911
771.918	2998
772.025	3272
772.133	2116
772.240	2904
772.348	4612
772.455	2065
772.562	2737
772.670	2803
772.777	3280
772.884	2257
772.991	2607
773.099	3261
773.206	2633
773.313	3052
773.420	2399
773.528	1748
773.635	2819
773.742	2919
773.849	3653
773.956	3170
774.063	2660
774.170	2106
774.277	2953
774.384	2496
774.491	2328
774.598	3190
774.705	2757
774.812	4431
774.919	3266
775.026	3129
775.133	2956
775.239	2312
775.346	2247
775.453	2445
775.560	3311
775.667	2715
775.773	2113
775.880	2181
775.987	3018
776.093	2692
776.200	2440
776.307	1575
776.413	2716
776.520	2529
776.627	2326
776.733	2352
776.840	2733
776.946	6673
777.053	13632
777.159	33697
777.266	19291
777.372	27906
777.478	23848
777.585	10948
777.691	3797
777.798	3527
777.904	3208
778.010	4878
778.117	3293
778.223	2338
778.329	2400
778.435	1007
778.542	2470
778.648	1611
778.754	1285
778.860	2619
778.966	1680
779.072	1584
779.178	1331
779.284	2533
779.391	1295
779.497	1026
779.603	3265
779.708	554
779.815	1922
779.920	1903
780.026	3274
780.132	1505
780.238	2047
780.344	1297
780.450	2629
780.556	930
780.661	639
780.767	1410
780.873	1221
780.979	1861
781.085	1265
781.190	1687
781.296	1560
781.402	1615
781.507	609
781.613	1725
781.719	428
781.824	1157
781.930	2089
782.035	1035
782.141	1697
782.246	1418
782.352	537
782.457	1227
782.563	1431
782.668	1859
782.773	1731
782.879	1355
782.984	2441
783.090	2753
783.195	5022
783.300	1730
783.405	1654
783.511	1016
783.616	1808
783.721	1158
783.826	127
783.932	1847
784.037	1662
784.142	680
784.247	973
784.352	1067
784.457	1937
784.562	1545
784.667	681
784.772	710
784.877	516
784.982	1590
785.087	987
785.192	2356
785.297	949
785.402	1266
785.507	1194
785.611	1075
785.716	766
785.821	998
785.926	927
786.031	734
786.135	1962
786.240	1509
786.345	25
786.450	957
786.554	821
786.659	39
786.763	372
786.868	1056
786.973	1467
787.077	553
787.182	750
787.286	981
787.391	1186
787.495	638
787.600	824
787.704	119
787.809	815
787.913	-294
788.017	1733
788.122	1014
788.226	489
788.330	-288
788.435	339
788.539	854
788.643	922
788.747	545
788.852	535
788.956	398
789.060	1388
789.164	731
789.268	47
789.372	1675
789.476	-293
789.580	250
789.684	912
789.788	580
789.892	336
789.996	957
790.100	570
790.204	340
790.308	265
790.412	1015
790.516	1026
790.620	1
790.724	604
790.828	-149
790.931	-85
791.035	1734
791.139	746
791.242	-238
791.346	1644
791.450	458
791.554	322
791.657	-205
791.761	1729
791.864	1005
791.968	1550
792.072	1063
792.175	769
792.279	649
792.382	473
792.486	1398
792.589	623
792.693	823
792.796	-807
792.899	1676
793.003	968
793.106	-375
793.209	381
793.313	1302
793.416	-520
793.519	2495
793.623	3685
793.726	4600
793.829	1231
793.932	75
794.035	-174
794.138	1133
794.242	1388
794.345	1294
794.448	1503
794.551	3351
794.654	5091
794.757	3005
794.860	1321
794.963	978
795.066	390
795.169	1183
795.272	-6
795.375	1302
795.477	410
795.580	688
795.683	-1248
795.786	410
795.889	-438
795.991	1278
796.094	1117
796.197	-1036
796.300	579
796.402	-398
796.505	-126
796.608	248
796.710	611
796.813	911
796.915	546
797.018	1730
797.120	529
797.223	-785
797.326	1398
797.428	166
797.530	-587
797.633	438
797.735	1370
797.838	764
797.940	1089
798.042	-222
798.145	-115
798.247	950
798.349	-918
798.452	698
798.554	-750
798.656	-187
798.758	2123
798.860	385
798.962	578
799.065	-793
799.167	-851
799.269	1243
799.371	1061
799.473	1159
799.575	-225
799.677	569
799.779	3087
799.881	2486
799.983	2305
800.085	-53
800.187	-42
800.289	-796
800.390	514
800.492	353
800.594	915
800.696	-237
800.798	-197
800.899	-759
801.001	78
801.103	-1
801.205	-320
801.306	10
801.408	-379
801.509	519
801.611	159
801.713	290
801.814	-753
801.916	-8
802.017	405
802.119	7
802.220	-61
802.322	-1186
802.423	2123
802.525	-1245
802.626	196
802.727	825
802.829	400
802.930	-1455
803.031	1595
803.133	8
803.234	534
803.335	-24
803.436	-292
803.538	330
803.639	-867
803.740	221
803.841	-832
803.942	233
804.043	359
804.144	-19
804.245	472
804.346	-44
804.447	-434
804.548	1583
804.649	3111
804.750	156
804.851	-541
804.952	36
805.053	512
805.154	-857
805.255	691
805.355	-150
805.456	208
805.557	-247
805.658	-499
805.758	684
805.859	-234
805.960	-543
806.061	-841
806.161	-532
806.262	695
806.362	-459
806.463	-598
806.564	639
806.664	-782
806.765	-1077
806.865	-168
806.966	-600
807.066	-883
807.166	449
807.267	397
807.367	-172
807.468	-328
807.568	-1268
807.668	614
807.769	754
807.869	-646
807.969	-314
808.069	-428
808.170	106
808.270	-1082
808.370	1110
808.470	993
808.570	338
808.670	93
808.770	-184
808.870	-526
808.970	-331
809.070	396
809.170	-1006
809.271	-559
809.370	-981
809.470	94
809.570	-431
809.670	-660
809.770	-433
809.870	401
809.970	-404
810.070	-779
810.169	-414
810.269	-1197
810.369	1494
810.469	-697
810.568	-706
810.668	-782
810.768	-550
810.867	-274
810.967	-1593
811.066	-465
811.166	-1028
811.265	-255
811.365	-1086
811.464	-465
811.564	437
811.663	385
811.763	-1626
811.862	342
811.962	-285
812.061	219
812.160	-676
812.260	-111
812.359	-15
812.458	-1216
812.557	61
812.657	-1128
812.756	73
812.855	-5
812.954	-1059
813.053	-755
813.153	-783
813.252	-432
813.351	176
813.450	-977
813.549	-915
813.648	-324
813.747	-614
813.846	166
813.945	-309
814.044	-180
814.143	-22
814.242	534
814.341	-498
814.439	-303
814.538	70
814.637	561
814.736	344
814.835	126
814.933	-481
815.032	215
815.131	819
815.229	799
815.328	1224
815.427	1480
815.525	527
815.624	1309
815.722	541
815.821	1151
815.919	675
816.018	236
816.116	1295
816.215	837
816.313	1122
816.412	808
816.510	1748
816.609	2344
816.707	2554
816.805	1298
816.904	1143
817.002	1771
817.100	2500
817.198	2912
817.296	1875
817.395	1633
817.493	2289
817.591	824
817.689	1862
817.787	2516
817.885	3947
817.983	6061
818.081	12772
818.179	31456
818.277	80742
818.375	62915
818.473	20720
818.571	9450
818.669	6583
818.767	7463
818.865	5352
818.963	5265
819.061	7041
819.158	12778
819.256	28424
819.354	68434
819.452	148180
819.549	85926
819.647	22857
819.745	8606
819.842	5941
819.940	5026
820.038	3595
820.135	2676
820.233	3490
820.330	2046
820.428	1345
820.525	2628
820.623	1608
820.720	1225
820.818	2574
820.915	1970
821.012	3026
821.110	1187
821.207	1748
821.304	1015
821.402	3103
821.499	6646
821.596	11062
821.693	6683
821.791	3061
821.888	2747
821.985	6785
822.082	5652
822.179	3811
822.276	4784
822.373	2872
822.470	1218
822.567	1405
822.664	-167
822.761	1116
822.858	-75
822.955	544
823.052	305
823.149	1221
823.246	1260
823.343	282
823.440	654
823.536	890
823.633	81
823.730	727
823.827	1319
823.923	1273
824.020	1974
824.117	2490
824.213	3680
824.310	2190
824.407	658
824.503	646
824.600	508
824.696	81
824.793	1220
824.889	912
824.986	713
825.082	863
825.179	720
825.275	458
825.371	307
825.468	673
825.564	-604
825.660	358
825.757	992
825.853	305
825.949	-408
826.045	170
826.142	-728
826.238	17
826.334	1316
826.430	-626
826.526	433
826.622	-472
826.718	107
826.814	-87
826.910	525
827.006	70
827.102	-319
827.198	539
827.294	137
827.390	583
827.486	-625
827.582	-1041
827.678	-1099
827.774	465
827.869	-1082
827.965	1131
828.061	-423
828.157	78
828.252	346
828.348	-1413
828.444	683
828.539	-700
828.635	-127
828.731	584
828.826	-870
828.922	694
829.017	476
829.113	623
829.208	-305
829.304	-416
829.399	1240
829.495	-132
829.590	605
829.685	-978
829.781	877
829.876	158
829.971	-1426
830.066	-910
830.162	209
830.257	422
830.352	-208
830.447	466
830.543	198
830.638	-1252
830.733	719
830.828	-141
830.923	611
831.018	411
831.113	41
831.208	-1465
831.303	-508
831.398	142
831.493	182
831.588	717
831.683	-890
831.778	-464
831.873	-612
831.967	527
832.062	-45
832.157	-507
832.252	704
832.346	-752
832.441	1523
832.536	751
832.631	4667
832.725	3196
832.820	-526
832.914	-1209
833.009	276
833.104	550
833.198	685
833.293	-1066
833.387	-436
833.482	-1409
833.576	-360
833.670	1119
833.765	595
833.859	-238
833.954	1426
834.048	49
834.142	-148
834.237	-1199
834.331	-6
834.425	-39
834.519	-1275
834.613	33
834.708	-1054
834.802	-171
834.896	-976
834.990	-1162
835.084	-609
835.178	-212
835.272	-555
835.366	-324
835.460	809
835.554	-1360
835.648	-959
835.742	-411
835.836	17
835.930	-1510
836.024	-186
836.117	62
836.211	-339
836.305	-933
836.399	-6
836.493	-1613
836.586	93
836.680	-989
836.774	-1116
836.867	440
836.961	-1182
837.055	-1202
837.148	-399
837.242	314
837.335	-586
837.429	79
837.522	-724
837.616	-77
837.709	730
837.803	-300
837.896	-368
837.989	-909
838.083	-260
838.176	-587
838.269	-690
838.363	487
838.456	-223
838.549	456
838.642	1855
838.735	5029
838.829	1978
838.922	-515
839.015	274
839.108	-1428
839.201	-68
839.294	-246
839.387	-795
839.480	-738
839.573	-541
839.666	-185
839.759	-756
839.852	-850
839.945	68
840.038	-713
840.131	-1181
840.223	-1051
840.316	-26
840.409	-403
840.502	-1315
840.594	-162
840.687	-1089
840.780	-368
840.873	-1063
840.965	-946
841.058	376
841.150	-12
841.243	-1400
841.336	108
841.428	-764
841.521	-1040
841.613	-894
841.706	-576
841.798	-243
841.890	419
841.983	-1810
842.075	-413
842.167	-1278
842.260	-1171
842.352	-26
842.444	-1176
842.537	-123
842.629	446
842.721	-935
842.813	-173
842.905	-1596
842.997	-477
843.090	-1063
843.182	-501
843.274	-667
843.366	1190
843.458	1969
843.550	1666
843.642	-245
843.734	-530
843.826	-888
843.918	113
844.009	463
844.101	-1472
844.193	-348
844.285	-85
844.377	1598
844.469	3408
844.560	6711
844.652	6478
844.744	1286
844.835	-118
844.927	139
845.019	-692
845.110	-1317
845.202	-335
845.293	-319
845.385	-939
845.476	-955
845.568	105
845.659	-1350
845.751	-227
845.842	-1521
845.934	-1286
846.025	-1280
846.116	-458
846.208	-434
846.299	-914
846.390	-909
846.482	-246
846.573	11
846.664	-60
846.755	439
846.846	557
846.937	-1758
847.029	-972
847.120	-1312
847.211	-1712
847.302	-154
847.393	-1828
847.484	-1087
847.575	-792
847.666	-1080
847.757	-846
847.847	-779
847.938	-612
848.029	-846
848.120	-915
848.211	-561
848.302	-1436
848.392	-602
848.483	-20
848.574	-1232
848.664	-1327
848.755	-498
848.846	-818
848.936	-1241
849.027	-369
849.118	574
849.208	542
849.299	2341
849.389	5618
849.480	13926
849.570	29034
849.661	57131
849.751	92301
849.841	31574
849.932	3374
850.022	879
850.112	716
850.203	600
850.293	-188
850.383	-192
850.474	-1017
850.564	-685
850.654	-671
850.744	-669
850.834	-656
850.924	-883
851.014	245
851.104	-193
851.194	-139
851.284	-347
851.374	-172
851.464	-649
851.554	-415
851.644	-606
851.734	-531
851.824	-343
851.914	-629
852.004	207
852.094	-926
852.183	-253
852.273	391
852.363	-73
852.452	163
852.542	-422
852.632	-445
852.721	195
852.811	-533
852.901	215
852.990	1016
853.080	556
853.169	464
853.259	1173
853.348	1033
853.438	3273
853.527	5428
853.617	8377
853.706	17728
853.795	34731
853.885	77423
853.974	142015
854.063	258735
854.152	363749
854.242	142314
854.331	30900
854.420	11374
854.509	7136
854.598	5178
854.687	3365
854.777	3623
854.866	1391
854.955	1331
855.044	690
855.133	643
855.222	644
855.311	-431
855.400	462
855.488	39
855.577	251
855.666	-361
855.755	-338
855.844	-344
855.933	-500
856.021	-238
856.110	387
856.199	-981
856.288	-314
856.376	-599
856.465	-537
856.554	314
856.642	-458
856.731	-209
856.819	-908
856.908	-360
856.996	-66
857.085	-664
857.173	-920
857.262	-1709
857.350	-980
857.438	-413
857.527	-471
857.615	-897
857.703	-796
857.792	-975
857.880	-1340
857.968	-1462
858.056	-1294
858.145	-903
858.233	-1005
858.321	-560
858.409	65
858.497	56
858.585	-908
858.673	-658
858.761	-1015
858.849	-856
858.937	-520
859.025	-56
859.113	-421
859.201	-1257
859.289	585
859.377	391
859.465	497
859.552	-661
859.640	-680
859.728	-94
859.816	-1650
859.903	-642
859.991	-1034
860.079	-715
860.166	-1244
860.254	-1140
860.342	-233
860.429	-1823
860.517	-995
860.604	-167
860.692	-210
860.779	-1242
860.867	-1065
860.954	-1061
861.042	-554
861.129	-493
861.216	-1136
861.304	-204
861.391	-975
861.478	-848
861.565	-256
861.653	-281
861.740	-1234
861.827	-902
861.914	-243
862.001	-625
862.089	-513
862.176	-864
862.263	-1127
862.350	-835
862.437	-1192
862.524	-396
862.611	-74
862.698	1355
862.785	2473
862.871	2949
862.958	-23
863.045	-402
863.132	-892
863.219	-1008
863.306	-1779
863.392	-648
863.479	-879
863.566	-1144
863.652	-979
863.739	-786
863.826	-1439
863.912	-1243
863.999	-1302
864.086	-1011
864.172	-979
864.259	-1004
864.345	293
864.432	-1183
864.518	-370
864.604	-361
864.691	-484
864.777	279
864.863	231
864.950	543
865.036	482
865.122	2045
865.209	2284
865.295	2214
865.381	2322
865.467	3587
865.553	6248
865.639	9439
865.726	17942
865.812	37964
865.898	74417
865.984	109802
866.070	200891
866.156	204620
866.242	58863
866.328	13738
866.414	6155
866.499	3482
866.585	3330
866.671	3229
866.757	2421
866.843	2161
866.928	992
867.014	1250
867.100	1078
867.186	1630
867.271	1944
867.357	1553
867.442	1589
867.528	1653
867.614	2168
867.699	2372
867.785	4755
867.870	8322
867.956	10006
868.041	6479
868.127	3574
868.212	5179
868.297	6376
868.383	3151
868.468	4213
868.553	4942
868.639	3864
868.724	6677
868.809	5714
868.894	1749
868.979	310
869.065	2
869.150	-89
869.235	321
869.320	314
869.405	567
869.490	-230
869.575	161
869.660	411
869.745	828
869.830	385
869.915	490
870.000	1069
870.085	605
870.169	2182
870.254	2443
870.339	361
870.424	-448
870.509	892
870.593	-30
870.678	-175
870.763	-199
870.847	-280
870.932	856
871.016	1343
871.101	1653
871.186	349
871.270	402
871.355	-742
871.439	475
871.523	1187
871.608	-180
871.692	881
871.777	3193
871.861	1214
871.945	384
872.030	669
872.114	178
872.198	-131
872.282	-920
872.367	-18
872.451	-5
872.535	172
872.619	-721
872.703	-1249
872.787	259
872.871	777
872.955	-599
873.039	-182
873.123	-411
873.207	136
873.291	-220
873.375	-800
873.459	-828
873.543	-567
873.627	-764
873.711	343
873.794	-157
873.878	-643
873.962	-1112
874.045	-760
874.129	-1379
874.137	-1271
874.213	-186
874.245	-342
874.296	-594
874.352	-776
874.380	-867
874.460	-456
874.464	-441
874.547	-887
874.568	-460
874.631	830
874.676	-9
874.714	-713
874.784	-281
874.798	-195
874.881	861
874.892	674
874.965	-653
874.999	-316
875.048	164
875.107	-291
875.131	-491
875.215	-284
875.215	-284
875.298	-860
875.323	-480
875.381	352
875.430	4
875.465	-215
875.538	-177
875.548	-179
875.631	-701
875.646	-677
875.714	-517
875.753	-490
875.798	-484
875.861	-130
875.881	4
875.964	307
875.968	272
876.047	-441
876.076	-391
876.130	-269
876.183	-51
876.213	53
876.291	174
876.296	180
876.379	-973
876.398	-800
876.462	-117
876.506	-271
876.545	-500
876.613	-130
876.628	-18
876.711	-338
876.721	-284
876.794	134
876.828	110
876.877	-33
876.935	-730
876.960	-949
877.043	85
877.043	83
877.125	-343
877.150	-46
877.208	633
877.258	45
877.291	-378
877.365	-336
877.374	-318
877.456	-251
877.472	-344
877.539	-586
877.579	-381
877.622	-344
877.687	-218
877.704	-109
877.787	-580
877.794	-564
877.869	-543
877.901	-232
877.952	246
878.008	-33
878.034	-156
878.115	-340
878.117	-343
878.199	-506
878.222	-570
878.282	-665
878.329	-204
878.364	166
878.437	-2
878.447	-55
878.529	-641
878.544	-622
878.611	-339
878.651	-301
878.694	-241
878.758	223
878.776	362
878.858	-260
878.865	-242
878.941	-352
878.972	-495
879.023	-580
879.078	-343
879.105	-96
879.185	720
879.187	729
879.269	535
879.292	365
879.351	128
879.399	-38
879.433	-292
879.506	-139
879.516	-106
879.598	-255
879.613	-310
879.680	-131
879.720	86
879.762	96
879.827	-28
879.844	-70
879.926	42
879.933	38
880.007	234
880.040	332
880.089	389
880.147	1292
880.171	1797
880.253	3134
880.254	3147
880.335	5526
880.360	6061
880.417	7853
880.467	12076
880.499	15086
880.574	17668
880.580	17383
880.662	5651
880.680	4183
880.744	1222
880.787	452
880.825	317
880.893	110
880.907	71
880.989	373
881.000	426
881.070	676
881.106	309
881.152	15
881.213	530
881.233	521
881.315	-368
881.319	-414
881.396	-202
881.426	33
881.478	195
881.532	402
881.559	437
881.639	-87
881.641	-92
881.722	145
881.745	137
881.803	496
881.852	710
881.885	577
881.958	564
881.966	565
882.047	349
882.064	319
882.129	556
882.171	849
882.210	1224
882.277	1867
882.291	1895
882.372	987
882.383	929
882.454	533
882.489	369
882.535	361
882.596	288
882.616	325
882.697	570
882.702	561
882.778	214
882.808	259
882.859	217
882.914	26
882.940	-21
883.020	-318
883.021	-311
883.102	565
883.127	685
883.183	546
883.233	414
883.264	329
883.339	27
883.345	35
883.426	237
883.445	335
883.507	193
883.551	-127
883.587	34
883.657	649
883.668	724
883.749	959
883.763	942
883.830	268
883.869	133
883.910	295
883.975	420
883.991	443
884.072	269
884.081	296
884.152	523
884.187	437
884.233	607
884.292	1128
884.314	970
884.394	-178
884.398	-227
884.475	7
884.504	92
884.555	258
884.610	504
884.636	456
884.716	268
884.716	274
884.797	513
884.821	501
884.877	543
884.927	754
884.958	612
885.033	252
885.038	271
885.118	472
885.139	528
885.199	673
885.244	625
885.279	680
885.350	950
885.359	935
885.439	724
885.456	637
885.520	446
885.561	473
885.600	370
885.667	-79
885.680	-111
885.760	40
885.773	-24
885.840	73
885.878	349
885.920	606
885.984	850
886.000	869
886.080	502
886.089	535
886.160	949
886.195	997
886.240	998
886.300	1010
886.320	1029
886.400	996
886.406	985
886.480	731
886.511	661
886.560	1039
886.616	1321
886.640	1199
886.720	749
886.722	737
886.800	598
886.827	437
886.879	182
886.932	-15
886.959	274
887.038	1126
887.039	1134
887.119	1076
887.143	1096
887.198	1389
887.248	1640
887.278	1451
887.354	740
887.358	747
887.437	929
887.459	951
887.517	1024
887.564	1058
887.596	1009
887.669	875
887.676	874
887.755	874
887.774	857
887.835	550
887.880	273
887.914	326
887.985	416
887.994	492
888.073	1173
888.090	1306
888.153	1175
888.195	965
888.232	673
888.300	365
888.311	415
888.391	638
888.405	669
888.470	657
888.510	600
888.549	754
888.615	1127
888.628	1139
888.708	1102
888.720	1086
888.787	743
888.825	541
888.866	726
888.930	996
888.945	1032
889.024	1203
889.035	1221
889.103	838
889.140	609
889.182	826
889.245	1156
889.261	1095
889.340	768
889.349	724
889.419	1201
889.454	1446
889.498	1108
889.559	617
889.577	527
889.656	122
889.664	82
889.735	909
889.768	1301
889.814	1148
889.873	934
889.978	821
890.083	843
890.187	911
890.292	614
890.397	1201
890.501	777
890.606	718
890.710	408
890.815	1981
890.919	354
891.024	1479
891.128	1744
891.233	494
891.337	1169
891.442	811
891.546	747
891.650	1168
891.755	1161
891.859	1534
891.963	1436
892.068	1260
892.172	950
892.276	57
892.380	872
892.484	599
892.589	1606
892.693	2052
892.797	735
892.901	878
893.005	694
893.109	2256
893.213	945
893.317	1341
893.421	668
893.525	564
893.629	21
893.733	1479
893.837	706
893.941	669
894.045	243
894.148	251
894.252	887
894.356	809
894.460	1691
894.564	793
894.667	393
894.771	209
894.875	778
894.978	280
895.082	-75
895.186	1076
895.289	549
895.393	1193
895.496	1226
895.600	703
895.703	173
895.807	261
895.910	505
896.014	721
896.117	157
896.221	1942
896.324	815
896.427	391
896.531	-323
896.634	904
896.737	243
896.840	810
896.944	1257
897.047	178
897.150	1522
897.253	861
897.356	699
897.460	804
897.563	566
897.666	648
897.769	1019
897.872	136
897.975	65
898.078	481
898.181	-413
898.284	-318
898.387	767
898.490	805
898.593	377
898.695	108
898.798	346
898.901	643
899.004	637
899.107	253
899.209	332
899.312	1075
899.415	461
899.518	414
899.620	-60
899.723	498
899.826	952
899.928	1647
900.031	1100
900.133	734
900.236	-34
900.338	134
900.441	916
900.543	141
900.646	833
900.748	14
900.851	994
900.953	777
901.055	796
901.158	872
901.260	274
901.362	803
901.465	-862
901.567	1318
901.669	743
901.771	-114
901.873	1092
901.976	587
902.078	249
902.180	477
902.282	19
902.384	-116
902.486	1034
902.588	160
902.690	-253
902.792	1039
902.894	762
902.996	218
903.098	1000
903.200	4
903.302	441
903.404	866
903.505	92
903.607	753
903.709	303
903.811	850
903.913	-29
904.014	382
904.116	385
904.218	996
904.319	882
904.421	1115
904.523	1929
904.624	1201
904.726	302
904.827	717
904.929	1052
905.030	693
905.132	909
905.233	1183
905.335	252
905.436	622
905.537	230
905.639	960
905.740	1071
905.841	1372
905.943	1150
906.044	1228
906.145	791
906.247	669
906.348	536
906.449	645
906.550	903
906.651	-374
906.752	-112
906.854	403
906.955	434
907.056	200
907.157	918
907.258	787
907.359	283
907.460	867
907.561	282
907.662	-111
907.762	790
907.863	100
907.964	386
908.065	532
908.166	-55
908.267	599
908.367	-216
908.468	297
908.569	-381
908.670	316
908.770	1149
908.871	916
908.971	1014
909.072	384
909.173	329
909.273	1004
909.374	792
909.474	401
909.575	952
909.675	223
909.776	660
909.876	728
909.977	392
910.077	1016
910.177	670
910.278	60
910.378	-142
910.478	457
910.579	57
910.679	638
910.779	203
910.879	638
910.980	637
911.080	309
911.180	357
911.280	-125
911.380	296
911.480	956
911.580	-335
911.680	838
911.780	-57
911.880	1125
911.980	318
912.080	212
912.180	920
912.280	896
912.380	-101
912.480	-78
912.580	-123
912.679	275
912.779	444
912.879	510
912.979	535
913.078	15
913.178	108
913.278	-204
913.377	782
913.477	504
913.577	514
913.676	1477
913.776	191
913.875	546
913.975	708
914.074	714
914.174	11
914.273	-437
914.373	552
914.472	758
914.572	-6
914.671	166
914.770	-32
914.870	582
914.969	-407
915.068	683
915.167	711
915.267	555
915.366	-241
915.465	287
915.564	-78
915.663	712
915.763	21
915.862	829
915.961	292
916.060	256
916.159	-136
916.258	-279
916.357	604
916.456	737
916.555	1339
916.654	179
916.752	348
916.851	260
916.950	-33
917.049	198
917.148	98
917.247	789
917.345	400
917.444	328
917.543	237
917.642	774
917.740	326
917.839	915
917.937	227
918.036	523
918.135	505
918.233	461
918.332	414
918.430	431
918.529	585
918.627	631
918.726	1021
918.824	625
918.923	300
919.021	-39
919.119	-149
919.218	108
919.316	-103
919.414	894
919.512	-439
919.611	1374
919.709	765
919.807	956
919.905	827
920.003	1382
920.102	142
920.200	183
920.298	475
920.396	190
920.494	230
920.592	376
920.690	813
920.788	695
920.886	343
920.984	1234
921.082	554
921.180	1050
921.277	531
921.375	1164
921.473	1375
921.571	1097
921.669	864
921.766	1139
921.864	858
921.962	1395
922.060	1246
922.157	1249
922.255	1003
922.352	1398
922.450	1572
922.548	1384
922.645	1524
922.743	1685
922.840	3012
922.938	4443
923.035	4142
923.133	3415
923.230	3854
923.327	4965
923.425	4434
923.522	4122
923.619	2800
923.717	3392
923.814	3133
923.911	4230
924.008	3762
924.106	3287
924.203	3252
924.300	3211
924.397	3433
924.494	3812
924.591	4230
924.688	2763
924.786	3627
924.883	3413
924.979	3477
925.077	2705
925.173	2654
925.270	3995
925.367	3580
925.464	3967
925.561	3624
925.658	3422
925.755	4296
925.852	5370
925.948	3928
926.045	4764
926.142	5137
926.239	6174
926.335	4055
926.432	4391
926.529	5731
926.625	5988
926.722	4544
926.818	4150
926.915	2946
927.011	2961
927.108	3217
927.204	2958
927.301	3028
927.397	3582
927.494	3056
927.590	1929
927.687	1812
927.783	3202
927.879	3152
927.976	1674
928.072	2783
928.168	2204
928.264	2514
928.361	2320
928.457	2280
928.553	2588
928.649	2624
928.745	2379
928.841	2348
928.937	2749
929.033	2757
929.129	2727
929.225	2356
929.321	2190
929.417	1720
929.513	2785
929.609	2315
929.705	2215
929.801	2753
929.897	1956
929.993	2606
930.089	2124
930.184	1962
930.280	2354
930.376	2477
930.471	1767
930.567	2569
930.663	1950
930.758	2191
930.854	1589
930.950	1731
931.045	2041
931.141	1499
931.236	3125
931.332	2612
931.427	2353
931.523	2756
931.618	2125
931.714	1030
931.809	1561
931.905	1977
932.000	1077
932.095	1558
932.191	2443
932.286	2271
932.381	2230
932.476	1560
932.572	1599
932.667	1158
932.762	1935
932.857	1617
932.952	2412
933.047	1932
933.142	1702
933.237	1965
933.332	2440
933.427	2614
933.522	1786
933.617	1932
933.712	1501
933.807	2376
933.902	2227
933.997	1657
934.092	1293
934.187	1546
934.282	1342
934.376	1783
934.471	2438
934.566	1300
934.661	1398
934.755	1631
934.850	2991
934.945	2093
935.039	1206
935.134	750
935.228	1291
935.323	2136
935.417	1394
935.512	685
935.606	927
935.701	1747
935.795	1349
935.890	1107
935.984	1499
936.079	1187
936.173	1543
936.267	622
936.362	789
936.456	1671
936.550	2462
936.644	1599
936.738	749
936.833	444
936.927	1067
937.021	1314
937.115	1783
937.209	1498
937.303	1880
937.397	837
937.491	1520
937.585	1083
937.679	1731
937.773	898
937.867	702
937.961	655
938.055	1630
938.149	1371
938.243	624
938.337	1652
938.430	1266
938.524	3495
938.618	4212
938.712	4121
938.805	1576
938.899	1707
938.993	1986
939.086	2700
939.180	5747
939.274	6678
939.367	3496
939.461	2367
939.554	976
939.648	1122
939.741	568
939.835	1985
939.928	2383
940.022	1599
940.115	1836
940.208	1904
940.302	1519
940.395	1905
940.488	293
940.582	2068
940.675	338
940.768	312
940.861	1501
940.954	2082
941.048	163
941.141	833
941.234	446
941.327	1611
941.420	2164
941.513	1467
941.606	878
941.699	743
941.792	1047
941.885	1298
941.978	799
942.071	830
942.164	729
942.257	722
942.349	1260
942.442	1142
942.535	-113
942.628	614
942.721	1773
942.813	378
942.906	1143
942.999	565
943.091	861
943.184	697
943.277	1034
943.369	159
943.462	175
943.554	940
943.647	383
943.739	1704
943.832	1228
943.924	-573
944.017	450
944.109	-108
944.201	975
944.294	1046
944.386	964
944.478	-30
944.571	-243
944.663	581
944.755	695
944.847	1038
944.940	925
945.032	-155
945.124	-221
945.216	983
945.308	579
945.400	593
945.492	246
945.584	615
945.676	604
945.768	392
945.860	996
945.952	739
946.044	2052
946.136	215
946.228	620
946.320	-147
946.412	290
946.503	590
946.595	993
946.687	26
946.779	-639
946.870	534
946.962	-326
947.054	-75
947.145	725
947.237	499
947.329	20
947.420	-155
947.512	411
947.603	445
947.695	997
947.786	-411
947.878	-77
947.969	166
948.061	656
948.152	-2
948.243	887
948.335	216
948.426	-47
948.517	-521
948.609	746
948.700	149
948.791	-379
948.882	490
948.973	-190
949.065	43
949.156	-109
949.247	-556
949.338	1023
949.429	-825
949.520	-324
949.611	-498
949.702	974
949.793	571
949.884	572
949.975	-44
950.066	-267
950.157	162
950.247	-249
950.338	-399
950.429	-3
950.520	-213
950.611	758
950.701	-3
950.792	514
950.883	-301
950.973	535
951.064	383
951.155	251
951.245	733
951.336	-36
951.427	-837
951.517	1022
951.608	456
951.698	-573
951.788	662
951.879	88
951.969	-15
952.060	-300
952.150	93
952.240	1277
952.331	-1247
952.421	909
952.511	-793
952.602	453
952.692	-1229
952.782	-247
952.872	-830
952.962	-168
953.052	-246
953.143	-442
953.233	-21
953.323	31
953.413	-337
953.503	609
953.593	219
953.683	-118
953.773	-1011
953.863	-540
953.953	-651
954.042	354
954.132	-84
954.222	660
954.312	-136
954.402	-96
954.492	243
954.581	130
954.671	-363
954.761	-352
954.850	756
954.940	-79
955.030	-656
955.119	-726
955.209	-148
955.298	-135
955.388	-434
955.477	890
955.567	-869
955.656	175
955.746	-639
955.835	7
955.925	-968
956.014	-77
956.103	-275
956.193	853
956.282	-255
956.371	202
956.461	158
956.550	-38
956.639	346
956.728	113
956.817	-343
956.906	98
956.995	-231
957.085	-622
957.174	-362
957.263	-159
957.352	-1243
957.441	228
957.530	-121
957.619	-131
957.708	-236
957.796	-524
957.885	30
957.974	-1042
958.063	-385
958.152	-1351
958.241	-325
958.329	75
958.418	-804
958.507	-1011
958.596	1267
958.684	-267
958.773	-138
958.861	-302
958.950	-407
959.039	55
959.127	-755
959.216	24
959.304	-704
959.393	-886
959.481	-927
959.570	-636
959.658	-1593
959.746	-1381
959.835	66
959.923	-424
960.011	-1796
960.100	-99
960.188	434
960.276	116
960.365	-1300
960.453	-788
960.541	-931
960.629	-721
960.717	-682
960.805	-1465
960.893	-291
960.981	-365
961.069	6
961.158	321
961.245	322
961.333	-361
961.421	-1110
961.509	-66
961.597	-36
961.685	-1170
961.773	-1039
961.861	-1245
961.949	-66
962.036	-1119
962.124	-407
962.212	-966
962.299	-632
962.387	-1650
962.475	-860
962.562	-1021
962.650	-55
962.738	-610
962.825	-1033
962.913	-847
963.000	-1066
963.088	-792
963.175	-986
963.263	-711
963.350	-878
963.438	-218
963.525	-1318
963.612	498
963.700	-996
963.787	1247
963.874	-395
963.962	140
964.049	-21
964.136	-612
964.223	-978
964.310	-961
964.398	-915
964.485	-873
964.572	-1420
964.659	286
964.746	-1121
964.833	-1366
964.920	-633
965.007	-807
965.094	-600
965.181	-751
965.268	187
965.355	-722
965.441	-750
965.528	-780
965.615	-781
965.702	-1035
965.789	-1404
965.875	-938
965.962	-629
966.049	-745
966.136	265
966.222	-820
966.309	-1096
966.395	203
966.482	-326
966.569	-679
966.655	-563
966.742	-730
966.828	-1038
966.915	-612
967.001	-1271
967.087	-1222
967.174	-1047
967.260	342
967.347	-658
967.433	-1533
967.519	334
967.605	-1049
967.692	-1053
967.778	-1197
967.864	-979
967.950	-323
968.036	-1328
968.123	-423
968.209	-1284
968.295	-1556
968.381	693
968.467	-1255
968.553	-1539
968.639	60
968.725	-1234
968.811	-265
968.897	-364
968.983	-1296
969.069	-1350
969.154	-103
969.240	-635
969.326	-1446
969.412	-1823
969.497	-617
969.583	-1411
969.669	-125
969.755	-625
969.840	-684
969.926	270
970.012	-648
970.097	814
970.183	-28
970.268	-1497
970.354	-929
970.439	-796
970.525	265
970.610	-1452
970.696	-584
970.781	-977
970.866	-2460
970.952	-868
971.037	-1417
971.122	-1484
971.208	-1082
971.293	-859
971.378	-724
971.463	-1464
971.549	-798
971.634	-1221
971.719	-1645
971.804	-1648
971.889	-321
971.974	-1787
972.059	-874
972.144	-768
972.229	-1491
972.314	-1763
972.399	-1034
972.484	-1316
972.569	-474
972.654	-2569
972.739	-102
972.824	-1113
972.908	-1424
972.993	-1297
973.078	-470
973.163	-1569
973.247	-846
973.332	-1919
973.417	-529
973.501	-1736
973.586	-1003
973.671	-815
973.755	-754
973.840	21
973.924	-602
974.009	-438
974.093	-1136
974.178	-450
974.262	-532
974.346	-1112
974.431	-1003
974.515	-1064
974.600	-578
974.684	-1088
974.768	-2139
974.852	22
974.937	-1673
975.021	-822
975.105	-523
975.189	-1214
975.273	-414
975.358	-1679
975.442	-1692
975.526	-1093
975.610	-1862
975.694	-585
975.778	-203
975.862	-623
975.946	-2685
976.030	-901
976.114	-1662
976.198	-541
976.281	-1229
976.365	-707
976.449	-292
976.533	-1400
976.617	-1305
976.700	-1143
976.784	-429
976.868	-1154
976.951	-707
977.035	-798
977.119	-1052
977.202	-645
977.286	-1308
977.369	-1062
977.453	-365
977.536	-1592
977.620	-440
977.703	-580
977.787	-1646
977.870	-541
977.953	13
978.037	-2613
978.120	-722
978.203	-1624
978.287	-1213
978.370	-1462
978.453	-802
978.536	-390
978.620	-977
978.703	-1518
978.786	-1290
978.869	-1176
978.952	-1454
979.035	213
979.118	408
979.201	-1505
979.284	-356
979.367	-1643
979.450	-292
979.533	-1816
979.616	-1180
979.699	-1684
979.782	-783
979.865	-1330
979.948	-2055
980.030	-1522
980.113	-188
980.196	-2661
980.279	-1512
980.361	-1472
980.444	-1699
980.526	-953
980.609	-494
980.692	-200
980.774	-412
980.857	-1726
980.939	72
981.022	-1324
981.104	-889
981.187	-1214
981.269	-723
981.352	-1849
981.434	-1583
981.516	-1469
981.599	-673
981.681	-1409
981.763	-723
981.846	-1444
981.928	-790
982.010	-1539
982.092	-1306
982.174	-1013
982.256	-554
982.339	-946
982.421	-1168
982.503	-1132
982.585	-1535
982.667	-1289
982.749	-1276
982.831	-707
982.913	-1935
982.995	-1257
983.077	-1001
983.158	-945
983.240	-2029
983.322	-1247
983.404	-26
983.486	-1519
983.568	-140
983.649	-1836
983.731	-1315
983.813	-1683
983.894	-848
983.976	-886
984.058	-1511
984.139	-299
984.221	-1603
984.302	-513
984.384	-973
984.465	-1210
984.547	-570
984.628	-1315
984.710	-466
984.791	-962
984.872	-1520
984.954	-1913
985.035	-1042
985.116	-1527
985.198	-1627
985.279	-513
985.360	-1451
985.441	-1487
985.522	-406
985.604	-842
985.685	-1942
985.766	-180
985.847	-404
985.928	-1604
986.009	-1047
986.090	-493
986.171	686
986.252	-1264
986.333	-777
986.414	-961
986.495	-386
986.576	-645
986.656	-607
986.737	-934
986.818	-1332
986.899	-1314
986.980	-896
987.060	-158
987.141	-1228
987.222	-663
987.302	-1199
987.383	-136
987.464	-1047
987.544	-731
987.625	-832
987.705	-263
987.786	-247
987.866	-740
987.947	-544
988.027	-1822
988.108	-782
988.188	-362
988.268	-1482
988.349	-39
988.429	-1188
988.509	-269
988.589	-1081
988.670	-2492
988.750	-446
988.830	-847
988.910	-338
988.990	-1770
989.070	-361
989.151	-1389
989.231	-2050
989.311	-617
989.391	-1744
989.471	-1017
989.551	-996
989.631	-1697
989.711	101
989.791	-1188
989.870	-1468
989.950	-315
990.030	-1184
990.110	-2134
990.190	-1102
990.269	-1442
990.349	-938
990.429	-1035
990.509	-1525
990.588	-2247
990.668	-1602
990.747	-1075
990.827	-1172
990.907	-678
990.986	-1046
991.066	-915
991.145	-1911
991.225	-684
991.304	-1329
991.383	-1592
991.463	-1356
991.542	-383
991.622	-731
991.701	-2215
991.780	-1932
991.859	-997
991.939	-841
992.018	-1295
992.097	-488
992.176	-1718
992.256	-1113
992.335	-2566
992.414	-791
992.493	-1879
992.572	-2393
992.651	-745
992.730	-1537
992.809	-1156
992.888	-1895
992.967	-1329
993.046	-1036
993.125	-2278
993.203	-1014
993.282	-1473
993.361	-1529
993.440	-728
993.519	-1679
993.597	-989
993.676	-1764
993.755	-1128
993.834	-1373
993.912	-1932
993.991	-598
994.069	-1919
994.148	-1683
994.226	-1843
994.305	-1661
994.384	-2975
994.462	-12
994.540	-1792
994.619	-2450
994.697	-1569
994.776	-1028
994.854	-980
994.932	-1935
995.011	-1490
995.089	-1647
995.167	-1917
995.245	-1632
995.324	-2119
995.402	-1136
995.480	-2218
995.558	-732
995.636	-2179
995.714	-866
995.792	-1079
995.870	-1999
995.948	-1534
996.026	-1682
996.104	-2553
996.182	-1415
996.260	-2106
996.338	-1375
996.416	-2606
996.494	-1550
996.572	-873
996.649	-2298
996.727	-2701
996.805	-1035
996.883	-1221
996.960	-1924
997.038	-1763
997.116	-1815
997.193	-2241
997.271	-1639
997.348	-2276
997.426	-1606
997.504	-2572
997.581	-888
997.658	-1389
997.736	-3519
997.813	-2675
997.891	-1195
997.968	-1595
998.046	-1538
998.123	-2954
998.200	-1514
998.277	-3193
998.355	-992
998.432	-2734
998.509	-2232
998.586	-1394
998.663	-1713
998.741	-1715
998.818	-2164
998.895	-1956
998.972	-1092
999.049	-2918
999.126	-1771
999.203	-2028
999.280	-1766
999.357	-2800
999.434	-1827
999.511	-2364
999.587	-1792
999.664	-1861
999.741	-1269
999.818	-2028
999.895	-1337
999.971	-2176
1000.048	-1928
1000.125	-1435
1000.202	-2083
1000.278	-2635
1000.355	-1491
1000.431	-2200
1000.508	-2188
1000.584	-1640
1000.661	-1805
1000.738	-2839
1000.814	-1653
1000.890	-1869
1000.967	-1934
1001.043	-1828
1001.120	-3291
1001.196	-2463
1001.272	-1752
1001.349	-1777
1001.425	-1807
1001.501	-2551
1001.577	-2704
1001.654	-2286
1001.730	-1708
1001.806	-1927
1001.882	-2315
1001.958	-1048
1002.034	-1860
1002.110	-1818
1002.186	-2637
1002.262	-3134
1002.338	-2161
1002.414	-1616
1002.490	-1423
1002.566	-2393
1002.642	-3387
1002.718	-1510
1002.794	-2366
1002.870	-2198
1002.945	-3010
1003.021	-2271
1003.097	-2560
1003.173	-2054
1003.248	-3159
1003.324	-1912
1003.400	-2407
1003.475	-2374
1003.551	-2685
1003.626	-2699
1003.702	-2539
1003.777	-2654
1003.853	-2759
1003.928	-2353
1004.004	-2455
1004.079	-1764
1004.155	-1383
1004.230	-2221
1004.305	-1821
1004.381	-2636
1004.456	-2297
1004.531	-2102
1004.607	-1782
1004.682	-2798
1004.757	-2214
1004.832	-2755
1004.907	-2596
1004.982	-1595
1005.057	-1831
1005.133	-2236
1005.208	-2179
1005.283	-2675
1005.358	-1131
1005.433	-2620
1005.508	-2016
1005.583	-2137
1005.657	-2435
1005.732	-1748
1005.807	-2572
1005.882	-2471
1005.957	-2445
1006.032	-1956
1006.106	-2600
1006.181	-2096
1006.256	-1636
1006.331	-3064
1006.405	-3102
1006.480	-2156
1006.554	-2256
1006.629	-2846
1006.704	-2592
1006.778	-2663
1006.853	-1878
1006.927	-3021
1007.002	-2529
1007.076	-2236
1007.150	-2397
1007.225	-2237
1007.299	-2399
1007.373	-2839
1007.448	-2213
1007.522	-2293
1007.596	-2315
1007.671	-3011
1007.745	-2167
1007.819	-2242
1007.893	-2346
1007.967	-2321
1008.041	-3398
1008.115	-1843
1008.190	-2486
1008.264	-1745
1008.338	-2710
1008.412	-2854
1008.486	-2686
1008.560	-2258
1008.633	-2686
1008.707	-2635
1008.781	-1442
1008.855	-3119
1008.929	-2175
1009.003	-2143
1009.076	-2810
1009.150	-2423
1009.224	-1710
1009.298	-2019
1009.371	-2886
1009.445	-2464
1009.519	-2547
1009.592	-2667
1009.666	-1676
1009.739	-2130
1009.813	-3047
1009.886	-1926
1009.960	-2913
1010.033	-1555
1010.107	-1555
1010.180	-2623
1010.253	-2230
1010.327	-2330
1010.400	-2006
1010.473	-2100
1010.547	-1590
1010.620	-2352
1010.693	-2305
1010.766	-2463
1010.840	-2289
1010.913	-2234
1010.986	-2491
1011.059	-2165
1011.132	-2200
1011.205	-1624
1011.278	-1390
1011.351	-2586
1011.424	-1222
1011.497	-2679
1011.570	-2257
1011.643	-2267
1011.716	-2695
1011.789	-2085
1011.862	-2737
1011.934	-1460
1012.007	-2993
1012.080	-2741
1012.153	-2346
1012.225	-2283
1012.298	-2459
1012.371	-2894
1012.443	-2259
1012.516	-3352
1012.588	-2074
1012.661	-1353
1012.733	-2608
1012.806	-2118
1012.879	-2723
1012.951	-2775
1013.023	-2932
1013.096	-2550
1013.168	-2973
1013.241	-1480
1013.313	-3396
1013.385	-2531
1013.458	-2834
1013.530	-1942
1013.602	-2610
1013.674	-1921
1013.746	-2878
1013.819	-2989
1013.891	-2480
1013.963	-3183
1014.035	-2634
1014.107	-2694
1014.179	-2010
1014.251	-2491
1014.323	-1324
1014.395	-2323
1014.467	-2774
1014.539	-2562
1014.611	-2762
1014.683	-2684
1014.754	-2308
1014.826	-3169
1014.898	-2498
1014.970	-3891
1015.042	-2154
1015.113	-2641
1015.185	-3425
1015.257	-3686
1015.328	-2466
1015.400	-3122
1015.471	-2575
1015.543	-3472
1015.615	-2725
1015.686	-2317
1015.757	-2971
1015.829	-2248
1015.901	-2580
1015.972	-1834
1016.043	-2329
1016.115	-2709
1016.186	-2183
1016.257	-2957
1016.328	-1934
1016.400	-1828
1016.471	-3146
1016.542	-3518
1016.613	-1807
1016.685	-2866
1016.756	-2188
1016.827	-2439
1016.898	-3003
1016.969	-1734
1017.040	-2855
1017.111	-3125
1017.182	-2363
1017.253	-2959
1017.324	-2297
1017.395	-1978
1017.466	-1691
1017.537	-2768
1017.608	-2611
1017.678	-2624
1017.749	-2689
1017.820	-2587
1017.891	-3251
1017.961	-3332
1018.032	-2063
1018.103	-3107
1018.173	-2959
1018.244	-2895
1018.315	-3050
1018.385	-2043
1018.456	-2801
1018.526	-3245
1018.597	-3582
1018.667	-2075
1018.738	-2895
1018.808	-2953
1018.878	-3040
1018.949	-2580
1019.019	-2164
1019.089	-2546
1019.160	-2233
1019.230	-3130
1019.300	-2945
1019.371	-3053
1019.441	-2879
1019.511	-1916
1019.581	-1912
1019.651	-2517
1019.721	-2353
1019.791	-3097
1019.861	-2933
1019.931	-2949
1020.001	-2916
1020.071	-2788
1020.141	-1765
1020.211	-2635
1020.281	-2320
1020.351	-3162
1020.421	-2487
1020.491	-3002
1020.560	-3271
1020.630	-2385
1020.700	-2575
1020.770	-3153
1020.839	-3175
1020.909	-2709
1020.979	-3221
1021.048	-2750
1021.118	-2417
1021.187	-3065
1021.257	-2179
1021.326	-2918
1021.396	-3318
1021.465	-3465
1021.535	-3095
1021.604	-2720
1021.674	-2312
1021.743	-3446
1021.812	-2946
1021.882	-3568
1021.951	-2568
1022.020	-2585
1022.089	-2419
1022.159	-2853
1022.228	-2717
1022.297	-2735
1022.366	-2938
1022.435	-2711
1022.504	-2332
1022.573	-2568
1022.642	-2600
1022.711	-2943
1022.781	-2245
1022.849	-2298
1022.918	-3103
1022.987	-2461
1023.056	-2665
1023.125	-2779
1023.194	-2893
1023.263	-2784
1023.331	-2174
1023.400	-3109
1023.469	-3732
1023.538	-2836
1023.606	-2287
1023.675	-3006
1023.744	-3298
1023.812	-3097
1023.881	-2617
1023.949	-3055
1024.018	-3181
1024.086	-2849
1024.155	-2677
1024.223	-3676
1024.292	-2251
1024.360	-3197
1024.429	-3118
1024.497	-3535
1024.565	-3249
1024.634	-1941
1024.702	-2246
1024.770	-3242
1024.838	-3387
1024.907	-2571
1024.975	-3718
1025.043	-3025
1025.111	-4020
1025.179	-2903
1025.247	-2864
1025.315	-2589
1025.383	-3189
1025.451	-3444
1025.519	-2978
1025.587	-2733
1025.655	-3212
1025.723	-2804
1025.791	-2870
1025.859	-3033
1025.927	-2774
1025.995	-2701
1026.062	-2604
1026.130	-3520
1026.198	-3097
1026.266	-3278
1026.333	-2778
1026.401	-2562
1026.469	-2690
1026.536	-2247
1026.604	-3633
1026.671	-3352
1026.739	-3265
1026.806	-3484
1026.874	-3380
1026.941	-3291
1027.009	-3339
1027.076	-3441
1027.144	-2130
1027.211	-3795
1027.278	-3369
1027.345	-2866
1027.413	-3490
1027.480	-3466
1027.547	-3225
1027.614	-3789
1027.682	-3072
1027.749	-3579
1027.816	-3026
1027.883	-2784
1027.950	-2762
1028.017	-2810
1028.084	-2703
1028.151	-3993
1028.218	-3470
1028.285	-3330
1028.352	-2602
1028.419	-3175
1028.486	-3577
1028.553	-3728
1028.619	-2997
1028.686	-2705
1028.753	-2368
1028.820	-3783
1028.886	-4347
1028.953	-3348
1029.020	-3279
1029.086	-3864
1029.153	-3140
1029.220	-2715
1029.286	-2959
1029.353	-2671
1029.419	-2909
1029.486	-3477
1029.552	-2569
1029.619	-3816
1029.685	-3550
1029.751	-2972
1029.818	-3021
1029.884	-3486
1029.951	-2467
1030.017	-2877
1030.083	-3296
1030.149	-3231
1030.216	-3186
1030.282	-2647
1030.348	-3318
1030.414	-2791
1030.480	-3050
1030.546	-3170
1030.612	-2882
1030.678	-3545
1030.744	-3205
1030.810	-2638
1030.876	-3596
1030.942	-3731
1031.008	-3266
1031.074	-2684
1031.140	-2449
1031.206	-2868
1031.272	-3759
1031.337	-2517
1031.403	-3175
1031.469	-3029
1031.534	-3284
1031.600	-2749
1031.666	-3783
1031.731	-3474
1031.797	-3359
1031.863	-4028
1031.928	-3123
1031.994	-4133
1032.059	-3349
1032.125	-3556
1032.190	-3507
1032.256	-3151
1032.321	-3741
1032.386	-2657
1032.452	-2768
1032.517	-3347
1032.582	-2944
1032.647	-3551
1032.713	-3297
1032.778	-3503
1032.843	-2979
1032.908	-3397
1032.974	-3143
1033.039	-3931
1033.104	-2590
1033.169	-3561
1033.234	-3012
1033.299	-2514
1033.364	-3035
1033.429	-3457
1033.494	-2973
1033.559	-3386
1033.624	-2916
1033.688	-3097
1033.753	-3725
1033.818	-3569
1033.883	-2853
1033.948	-4125
1034.013	-3103
1034.077	-2702
1034.142	-2336
1034.207	-2228
1034.271	-1942
1034.336	-757
1034.400	-1502
1034.465	-1885
1034.530	-2049
1034.594	-2945
1034.658	-2973
1034.723	-3419
1034.787	-3330
1034.852	-3250
1034.916	-3741
1034.981	-2626
1035.045	-3011
1035.109	-2649
1035.173	-2653
1035.238	-3562
1035.302	-2866
1035.366	-2779
1035.430	-3056
1035.495	-3364
1035.559	-2753
1035.623	-3194
1035.687	-3656
1035.751	-3156
1035.815	-3250
1035.879	-4868
1035.943	-4270
1036.007	-2816
1036.071	-2952
1036.135	-2483
1036.198	-3327
1036.262	-3184
1036.326	-4108
1036.390	-2981
1036.454	-2545
1036.517	-2351
1036.581	-2725
1036.645	-2222
1036.709	-1701
1036.772	-3177
1036.836	-3084
1036.900	-3099
1036.963	-2654
1037.026	-3505
1037.090	-3702
1037.154	-3386
1037.217	-3212
1037.280	-3239
1037.344	-2292
1037.407	-3499
1037.471	-2234
1037.534	-4220
1037.597	-2887
1037.661	-3515
1037.724	-3197
1037.787	-3691
1037.850	-3319
1037.913	-3638
1037.977	-2514
1038.040	-3234
1038.103	-3212
1038.166	-3721
1038.229	-3628
1038.292	-3197
1038.355	-2945
1038.418	-3038
1038.481	-2813
1038.544	-3533
1038.607	-3369
1038.670	-2668
1038.732	-2990
1038.795	-3550
1038.858	-3371
1038.921	-3663
1038.984	-3212
1039.046	-3368
1039.109	-3479
1039.172	-2453
1039.234	-3230
1039.297	-3310
1039.360	-2691
1039.422	-3130
1039.485	-3292
1039.547	-3310
1039.610	-3940
1039.672	-2816
1039.734	-3656
1039.797	-3761
1039.859	-2634
1039.922	-3663
1039.984	-3255
1040.046	-3932
1040.109	-2733
1040.171	-3360
1040.233	-3365
1040.295	-3262
1040.358	-3832
1040.420	-2976
1040.482	-3218
1040.544	-3598
1040.606	-3174
1040.668	-3208
1040.730	-3522
1040.792	-3587
1040.854	-3606
1040.916	-3632
1040.978	-3880
1041.040	-3553
1041.102	-3736
1041.164	-3600
1041.225	-3824
1041.287	-3254
1041.349	-3240
1041.411	-3805
1041.472	-2724
1041.534	-3612
1041.596	-3421
1041.657	-3314
1041.719	-2776
1041.781	-3660
1041.842	-3242
1041.904	-3703
1041.965	-3590
1042.027	-3127
1042.088	-3066
1042.150	-3380
1042.211	-3958
1042.272	-2787
1042.334	-2981
1042.395	-3728
1042.456	-3134
1042.518	-3569
1042.579	-3229
1042.640	-3331
1042.701	-3700
1042.763	-3308
1042.824	-3604
1042.885	-3383
1042.946	-2844
1043.007	-4199
1043.068	-2876
1043.129	-3716
1043.190	-4400
1043.251	-3044
1043.312	-3488
1043.373	-2756
1043.434	-3817
1043.495	-3557
1043.556	-3241
1043.616	-3522
1043.677	-3871
1043.738	-3379
1043.799	-3095
1043.859	-2591
1043.920	-2895
1043.981	-3504
1044.041	-2765
1044.102	-3448
1044.162	-3223
1044.223	-3230
1044.284	-3492
1044.344	-3100
1044.405	-2977
1044.465	-3041
1044.525	-4139
1044.586	-3695
1044.646	-2980
1044.707	-3467
1044.767	-2933
1044.827	-2634
1044.887	-2765
1044.948	-2054
1045.008	-3428
1045.068	-3319
1045.128	-3655
1045.188	-3077
1045.249	-2858
1045.309	-3010
1045.369	-2222
1045.429	-2896
1045.489	-3199
1045.549	-3086
1045.609	-3082
1045.669	-2706
1045.729	-2787
1045.789	-3490
1045.848	-2473
1045.908	-2873
1045.968	-2513
1046.028	-3259
1046.088	-2340
1046.147	-2089
1046.207	-2702
1046.267	-2828
1046.326	-2836
1046.386	-2623
1046.446	-2031
1046.505	-2918
1046.565	-2201
1046.624	-1978
1046.684	-2257
1046.743	-2247
1046.803	-2211
1046.862	-909
1046.922	0
