'Start Wavelength	183.907
'End Wavelength	1046.922
'Gate Delay	5.000
'Gate Width (ms)	1.050
'Laser Output Level	0.000
'X Position	0.000
'Y Position	0.000
'Z Position	0.000
'Grid Point Number	1.000
'Shot Number	100.000
183.907	833.000
183.977	418.000
184.047	-337
184.116	-184
184.186	-580
184.256	-373
184.325	-121
184.395	-306
184.465	137
184.534	392
184.604	-582
184.674	12
184.743	-677
184.813	275
184.883	148
184.952	497
185.022	14
185.092	243
185.161	-231
185.231	1245
185.301	-370
185.370	913
185.440	-183
185.509	-39
185.579	253
185.649	518
185.718	265
185.788	-111
185.857	-244
185.927	253
185.996	-401
186.066	-166
186.136	-293
186.205	274
186.275	92
186.344	718
186.414	-409
186.483	57
186.553	300
186.622	804
186.692	71
186.761	66
186.831	296
186.900	-391
186.970	75
187.039	0
187.109	-237
187.178	780
187.248	819
187.317	1101
187.387	-291
187.456	83
187.526	-181
187.595	-131
187.664	-73
187.734	14
187.803	-81
187.873	-144
187.942	-360
188.012	-62
188.081	-205
188.150	-432
188.220	427
188.289	419
188.358	387
188.428	657
188.497	-98
188.567	1053
188.636	81
188.705	672
188.775	-1096
188.844	-127
188.913	28
188.983	475
189.052	387
189.121	221
189.191	3
189.260	934
189.329	83
189.399	-282
189.468	123
189.537	204
189.606	376
189.676	493
189.745	-336
189.814	693
189.883	46
189.953	643
190.022	314
190.091	777
190.161	813
190.230	487
190.299	-264
190.368	199
190.437	363
190.507	390
190.576	93
190.645	470
190.714	-125
190.783	-4
190.853	1015
190.922	490
190.991	332
191.060	744
191.129	-509
191.198	571
191.268	253
191.337	288
191.406	424
191.475	74
191.544	48
191.613	356
191.682	-209
191.752	652
191.821	-398
191.890	427
191.959	-273
192.028	-5
192.097	-151
192.166	398
192.235	142
192.304	-26
192.373	-854
192.442	-352
192.511	-123
192.580	-328
192.650	-544
192.719	-362
192.788	-356
192.857	526
192.926	-302
192.995	-122
193.064	-253
193.133	707
193.202	330
193.271	115
193.340	541
193.409	369
193.478	232
193.547	642
193.615	729
193.684	902
193.753	50
193.822	326
193.891	-553
193.960	1081
194.029	90
194.098	-45
194.167	-131
194.236	958
194.305	-41
194.374	295
194.443	291
194.512	1003
194.580	-52
194.649	936
194.718	549
194.787	959
194.856	-155
194.925	-22
194.994	-90
195.062	542
195.131	491
195.200	1313
195.269	523
195.338	432
195.407	182
195.475	-172
195.544	601
195.613	513
195.682	-45
195.751	749
195.819	907
195.888	223
195.957	884
196.026	1049
196.094	1190
196.163	1006
196.232	1629
196.301	1262
196.369	652
196.438	1322
196.507	-242
196.576	-104
196.644	310
196.713	1160
196.782	-274
196.850	168
196.919	-500
196.988	500
197.056	66
197.125	310
197.194	354
197.262	315
197.331	-91
197.400	849
197.468	108
197.537	-83
197.606	-224
197.674	1243
197.743	1905
197.812	509
197.880	1471
197.949	154
198.017	483
198.086	907
198.155	-401
198.223	235
198.292	1059
198.360	461
198.429	-197
198.497	341
198.566	653
198.635	1421
198.703	995
198.772	-524
198.840	1032
198.909	1096
198.977	558
199.046	429
199.114	-176
199.183	-168
199.251	-227
199.320	368
199.388	421
199.457	416
199.525	453
199.594	559
199.662	-460
199.731	973
199.799	-167
199.867	563
199.936	849
200.004	183
200.073	17
200.141	51
200.210	157
200.278	900
200.346	-368
200.415	542
200.483	687
200.552	200
200.620	-859
200.688	419
200.757	69
200.825	217
200.893	440
200.962	382
201.030	176
201.098	147
201.167	763
201.235	375
201.303	447
201.372	-50
201.440	99
201.508	507
201.577	53
201.645	1281
201.713	37
201.781	180
201.850	872
201.918	288
201.986	-362
202.055	745
202.123	374
202.191	265
202.259	170
202.327	183
202.396	192
202.464	574
202.532	30
202.600	2620
202.669	1602
202.737	324
202.805	-225
202.873	620
202.941	-277
203.009	737
203.078	-894
203.146	407
203.214	-95
203.282	-68
203.350	-34
203.418	726
203.487	59
203.555	250
203.623	-53
203.691	172
203.759	-578
203.827	-278
203.895	410
203.963	331
204.031	-290
204.099	567
204.168	-433
204.236	1107
204.304	300
204.372	1279
204.440	810
204.508	749
204.576	-585
204.644	189
204.712	-1
204.780	941
204.848	-22
204.916	186
204.984	-32
205.052	807
205.120	-210
205.188	360
205.256	-493
205.324	916
205.392	-451
205.460	922
205.528	165
205.596	112
205.664	-923
205.732	350
205.799	1182
205.867	2357
205.935	-174
206.003	1300
206.071	315
206.139	-18
206.207	581
206.275	37
206.343	602
206.411	388
206.478	784
206.546	604
206.614	111
206.682	315
206.750	-313
206.818	745
206.885	1072
206.953	230
207.021	1100
207.089	112
207.157	-370
207.225	482
207.292	-93
207.360	-197
207.428	-87
207.496	-175
207.563	25
207.631	1097
207.699	-10
207.767	715
207.834	-79
207.902	1208
207.970	702
208.038	565
208.105	-642
208.173	-380
208.241	110
208.309	935
208.376	158
208.444	2130
208.512	386
208.579	63
208.647	851
208.715	1307
208.782	-146
208.850	582
208.918	-540
208.985	205
209.053	999
209.120	617
209.188	-264
209.256	595
209.323	-373
209.391	1447
209.459	1432
209.526	405
209.594	337
209.661	565
209.729	1058
209.796	2120
209.864	367
209.932	-739
209.999	1284
210.067	558
210.134	352
210.202	1236
210.269	1378
210.337	1724
210.404	982
210.472	1060
210.539	1102
210.607	288
210.674	888
210.742	1241
210.809	249
210.877	1540
210.944	1286
211.012	471
211.079	1899
211.146	500
211.214	1010
211.281	1908
211.349	1835
211.416	1328
211.484	1325
211.551	944
211.618	786
211.686	671
211.753	-297
211.821	753
211.888	981
211.955	1679
212.023	547
212.090	523
212.157	279
212.225	596
212.292	1526
212.359	3255
212.427	7926
212.494	4227
212.561	1822
212.629	1415
212.696	308
212.763	1182
212.831	696
212.898	765
212.965	-8
213.032	776
213.100	1203
213.167	1193
213.234	1042
213.301	954
213.369	823
213.436	1229
213.503	231
213.570	607
213.638	1299
213.705	676
213.772	-2
213.839	1607
213.906	1561
213.973	1840
214.041	872
214.108	996
214.175	1492
214.242	1057
214.309	302
214.376	1662
214.444	1427
214.511	1441
214.578	273
214.645	880
214.712	1497
214.779	1838
214.846	-267
214.913	1680
214.980	1074
215.048	1949
215.115	1987
215.182	2822
215.249	1530
215.316	995
215.383	1562
215.450	1359
215.517	996
215.584	1226
215.651	287
215.718	1216
215.785	2119
215.852	1727
215.919	3043
215.986	2214
216.053	1158
216.120	434
216.187	2003
216.254	2516
216.321	1730
216.388	1996
216.455	1797
216.522	1133
216.589	2284
216.656	4847
216.722	4144
216.789	2241
216.856	2177
216.923	1312
216.990	582
217.057	1039
217.124	2465
217.191	1177
217.258	2248
217.324	1949
217.391	2358
217.458	1550
217.525	626
217.592	1320
217.659	848
217.725	2899
217.792	2359
217.859	3396
217.926	1038
217.993	954
218.059	797
218.126	1187
218.193	660
218.260	594
218.327	397
218.393	1465
218.460	634
218.527	569
218.594	502
218.660	3120
218.727	4470
218.794	511
218.860	834
218.927	565
218.994	116
219.061	1333
219.127	1175
219.194	3066
219.261	740
219.327	-101
219.394	1164
219.461	-430
219.527	262
219.594	3144
219.661	987
219.727	1138
219.794	639
219.860	92
219.927	1547
219.994	2311
220.060	4976
220.127	2785
220.193	732
220.260	988
220.326	1299
220.393	2360
220.460	2294
220.526	1464
220.593	713
220.659	2763
220.726	754
220.792	3629
220.859	2935
220.925	3415
220.992	4884
221.058	5645
221.125	5364
221.191	4187
221.258	682
221.324	1434
221.391	1432
221.457	1073
221.524	381
221.590	1933
221.657	4854
221.723	4235
221.789	2947
221.856	3603
221.922	1423
221.989	1962
222.055	642
222.121	1080
222.188	3231
222.254	2049
222.321	1135
222.387	640
222.453	1360
222.520	1137
222.586	276
222.652	1430
222.719	1010
222.785	953
222.851	226
222.918	1436
222.984	546
223.050	1766
223.116	230
223.183	1591
223.249	579
223.315	882
223.382	653
223.448	1022
223.514	220
223.580	94
223.647	552
223.713	-270
223.779	1224
223.845	472
223.911	1230
223.978	629
224.044	953
224.110	713
224.176	858
224.242	482
224.309	-441
224.375	1303
224.441	1390
224.507	375
224.573	-387
224.639	982
224.705	-152
224.772	765
224.838	127
224.904	2052
224.970	1115
225.036	794
225.102	729
225.168	2617
225.234	969
225.300	645
225.366	1007
225.432	696
225.499	466
225.565	1252
225.631	656
225.697	1372
225.763	1315
225.829	1126
225.895	1653
225.961	3663
226.027	2465
226.093	1677
226.159	2510
226.225	2813
226.291	3864
226.357	9261
226.423	5753
226.489	4116
226.554	2286
226.620	2327
226.686	4102
226.752	6647
226.818	4763
226.884	12796
226.950	10322
227.016	3682
227.082	2907
227.148	2707
227.214	4384
227.279	4207
227.345	2878
227.411	3405
227.477	2412
227.543	6183
227.609	5710
227.674	4827
227.740	3018
227.806	2398
227.872	931
227.938	2337
228.003	5006
228.069	2349
228.135	729
228.201	1482
228.267	647
228.332	2003
228.398	2722
228.464	2584
228.530	488
228.595	1712
228.661	-141
228.727	4251
228.792	3226
228.858	1728
228.924	506
228.990	3264
229.055	1304
229.121	3250
229.187	698
229.252	2197
229.318	1723
229.384	2790
229.449	3599
229.515	-107
229.581	-459
229.646	3375
229.712	913
229.777	5113
229.843	5539
229.909	4998
229.974	5312
230.040	3909
230.105	2982
230.171	2072
230.236	4165
230.302	5586
230.368	3926
230.433	2131
230.499	2015
230.564	4333
230.630	1837
230.695	1610
230.761	716
230.826	511
230.892	4179
230.957	2001
231.023	1282
231.088	2369
231.154	1189
231.219	2131
231.284	1633
231.350	3066
231.415	506
231.481	1895
231.546	1333
231.612	1229
231.677	-295
231.742	167
231.808	1873
231.873	229
231.939	14
232.004	3496
232.069	4013
232.135	1120
232.200	42
232.265	1457
232.331	286
232.396	748
232.461	30
232.527	-3
232.592	31
232.657	1838
232.723	2745
232.788	2308
232.853	1214
232.918	1651
232.984	182
233.049	250
233.114	2619
233.179	2625
233.245	3805
233.310	5773
233.375	516
233.440	1830
233.506	175
233.571	1223
233.636	405
233.701	1869
233.766	2595
233.832	5127
233.897	1884
233.962	1660
234.027	3456
234.092	2903
234.157	1745
234.222	2548
234.288	3297
234.353	10367
234.418	9325
234.483	6859
234.548	4297
234.613	3118
234.678	3102
234.743	2895
234.808	10832
234.873	6382
234.938	3357
235.004	2852
235.069	1852
235.134	2137
235.199	2035
235.264	2143
235.329	-4
235.394	2088
235.459	2996
235.524	2354
235.589	2812
235.654	2055
235.719	-723
235.784	1861
235.849	1392
235.913	5165
235.978	7007
236.043	7240
236.108	2552
236.173	2197
236.238	2417
236.303	1489
236.368	693
236.433	4189
236.498	5201
236.563	3379
236.627	3224
236.692	16434
236.757	12642
236.822	5546
236.887	5364
236.952	3947
237.017	1843
237.081	4516
237.146	3572
237.211	6516
237.276	14682
237.341	30669
237.405	14995
237.470	6167
237.535	6078
237.600	3635
237.664	2942
237.729	2354
237.794	2243
237.859	4765
237.923	4717
237.988	2605
238.053	5152
238.118	5470
238.182	12262
238.247	12695
238.312	5965
238.376	5208
238.441	2992
238.506	3893
238.570	924
238.635	1858
238.700	1653
238.764	1692
238.829	5760
238.893	7582
238.958	3394
239.023	4375
239.087	2190
239.152	3823
239.216	1103
239.281	1796
239.346	1286
239.410	1759
239.475	2136
239.539	13002
239.604	9358
239.668	3508
239.733	1838
239.797	2363
239.862	7660
239.926	11255
239.991	4821
240.055	3803
240.120	1411
240.184	2399
240.249	937
240.313	1610
240.378	1549
240.442	8206
240.507	11493
240.571	4400
240.635	4741
240.700	8923
240.764	2884
240.829	2313
240.893	639
240.957	2857
241.022	6296
241.086	13327
241.151	5293
241.215	2730
241.279	3841
241.344	7026
241.408	3943
241.472	2060
241.537	4013
241.601	3215
241.665	1339
241.730	2018
241.794	2737
241.858	2812
241.922	1988
241.987	2566
242.051	1622
242.115	1763
242.179	2191
242.244	1067
242.308	1925
242.372	2646
242.436	3434
242.501	2741
242.565	1337
242.629	1843
242.693	1651
242.757	914
242.822	3068
242.886	3110
242.950	2498
243.014	1883
243.078	3846
243.142	4230
243.206	1785
243.271	3772
243.335	1683
243.399	3958
243.463	9037
243.527	28920
243.591	10006
243.655	6068
243.719	2733
243.783	4646
243.847	6034
243.911	7417
243.975	11850
244.040	10716
244.104	5643
244.168	3802
244.232	5796
244.296	9334
244.360	6413
244.424	5378
244.488	3527
244.552	4001
244.615	1303
244.679	3417
244.743	2962
244.807	4472
244.871	2780
244.935	2482
244.999	1529
245.063	2978
245.127	3902
245.191	4999
245.255	4957
245.319	4535
245.383	4955
245.446	4787
245.510	2463
245.574	4279
245.638	3897
245.702	2976
245.766	10334
245.829	6543
245.893	3106
245.957	3117
246.021	4360
246.085	4241
246.149	4832
246.212	14208
246.276	20720
246.340	9955
246.404	6786
246.467	6459
246.531	9351
246.595	6839
246.659	6576
246.722	5478
246.786	7605
246.850	7641
246.913	9655
246.977	4075
247.041	4353
247.104	5548
247.168	4312
247.232	13135
247.295	27019
247.359	15670
247.423	5844
247.486	12122
247.550	8696
247.614	5927
247.677	9152
247.741	5636
247.804	3753
247.868	6182
247.932	10721
247.995	27302
248.059	10000
248.122	3884
248.186	6753
248.249	11256
248.313	40050
248.376	45745
248.440	28641
248.503	10596
248.567	10662
248.630	14635
248.694	20058
248.757	24093
248.821	45016
248.884	29904
248.948	24397
249.011	35462
249.075	50997
249.138	47209
249.202	18621
249.265	12441
249.328	11806
249.392	9554
249.455	8469
249.519	5884
249.582	8650
249.645	13877
249.709	9027
249.772	6245
249.835	5074
249.899	6197
249.962	5446
250.025	4417
250.089	15707
250.152	25462
250.215	11620
250.279	7309
250.342	7929
250.405	7135
250.468	5578
250.532	8029
250.595	10874
250.658	27361
250.721	46616
250.785	21208
250.848	13039
250.911	8451
250.974	7041
251.038	10367
251.101	25612
251.164	11770
251.227	12706
251.290	10681
251.354	11984
251.417	38164
251.480	39979
251.543	24963
251.606	67410
251.669	55137
251.732	23902
251.795	30986
251.859	28528
251.922	46239
251.985	29668
252.048	15254
252.111	11898
252.174	11455
252.237	23195
252.300	51306
252.363	44558
252.426	67801
252.489	34908
252.552	21902
252.615	14968
252.678	14702
252.741	35523
252.804	36305
252.867	64141
252.930	51556
252.993	33385
253.056	21227
253.119	16970
253.182	12643
253.245	14998
253.308	13346
253.371	15201
253.434	16681
253.497	14888
253.559	27296
253.622	20576
253.685	27337
253.748	30336
253.811	13277
253.874	14797
253.937	14363
254.000	10956
254.062	18473
254.125	28720
254.188	28990
254.251	23918
254.314	11656
254.376	19739
254.439	25185
254.502	23383
254.565	18579
254.628	34684
254.690	25211
254.753	13921
254.816	11702
254.878	10303
254.941	18928
255.004	19332
255.067	10028
255.129	11723
255.192	5980
255.255	4383
255.317	8804
255.380	4898
255.443	2813
255.505	3536
255.568	3551
255.631	5090
255.693	5415
255.756	2880
255.819	5014
255.881	3034
255.944	2781
256.006	2106
256.069	3551
256.132	2555
256.194	5301
256.257	13165
256.319	10394
256.382	8685
256.444	5620
256.507	3998
256.569	2563
256.632	3384
256.694	4808
256.757	8935
256.819	24565
256.882	10443
256.944	6068
257.007	6014
257.069	9386
257.132	5442
257.194	5093
257.257	3828
257.319	3502
257.381	2499
257.444	7372
257.506	28995
257.569	38700
257.631	31649
257.693	17824
257.756	7957
257.818	7542
257.880	4225
257.943	4471
258.005	3579
258.067	4459
258.130	4367
258.192	6680
258.254	14848
258.317	8322
258.379	4112
258.441	14476
258.503	14191
258.566	13396
258.628	19183
258.690	5253
258.753	5939
258.815	15185
258.877	7228
258.939	4018
259.001	3414
259.064	3840
259.126	4920
259.188	8070
259.250	4684
259.312	6091
259.375	19902
259.437	14307
259.499	4587
259.561	4410
259.623	4880
259.685	5858
259.747	4515
259.809	12749
259.872	25882
259.934	37451
259.996	44360
260.058	14443
260.120	5144
260.182	4043
260.244	2950
260.306	3554
260.368	3920
260.430	4215
260.492	12347
260.554	24837
260.616	15391
260.678	21896
260.740	30441
260.802	8486
260.864	8491
260.926	6099
260.988	5958
261.050	6286
261.112	16332
261.174	37976
261.236	23593
261.298	8761
261.359	11736
261.421	19766
261.483	6306
261.545	6252
261.607	2250
261.669	3549
261.731	7040
261.793	23804
261.854	10884
261.916	7428
261.978	6613
262.040	8682
262.102	5075
262.164	8522
262.225	7934
262.287	3621
262.349	13743
262.411	12374
262.472	4498
262.534	7799
262.596	18432
262.658	6366
262.719	3299
262.781	6180
262.843	16854
262.904	8593
262.966	5583
263.028	6054
263.090	23771
263.151	64129
263.213	26638
263.275	21819
263.336	8280
263.398	5275
263.459	2762
263.521	4322
263.583	13251
263.644	10379
263.706	4358
263.767	1813
263.829	2466
263.891	2351
263.952	2033
264.014	1837
264.075	7559
264.137	24271
264.198	10087
264.260	3751
264.321	2738
264.383	11731
264.444	34203
264.506	10381
264.567	4743
264.629	11855
264.690	27172
264.752	10066
264.813	5496
264.875	3559
264.936	4481
264.998	3282
265.059	2305
265.120	2523
265.182	3406
265.243	11164
265.305	10273
265.366	3352
265.427	1683
265.489	3051
265.550	511
265.611	4773
265.673	4246
265.734	3805
265.795	1945
265.857	2110
265.918	1713
265.979	3641
266.040	17480
266.102	15424
266.163	6666
266.224	10470
266.286	5294
266.347	2255
266.408	3455
266.469	4295
266.530	3185
266.592	2702
266.653	8165
266.714	17817
266.775	4710
266.836	3669
266.898	1908
266.959	8931
267.020	5544
267.081	3549
267.142	1301
267.203	1609
267.264	1863
267.326	4313
267.387	2307
267.448	1598
267.509	2334
267.570	3057
267.631	1507
267.692	1494
267.753	2404
267.814	1916
267.875	5747
267.936	18934
267.997	11879
268.058	8587
268.119	3981
268.180	5255
268.241	3854
268.302	3156
268.363	2420
268.424	4100
268.485	3573
268.546	2790
268.607	1155
268.668	1777
268.729	1931
268.790	3158
268.851	2798
268.912	12897
268.972	16044
269.033	9247
269.094	2568
269.155	3050
269.216	1548
269.277	3039
269.338	1626
269.398	2339
269.459	4214
269.520	6551
269.581	9588
269.642	12486
269.702	6508
269.763	4957
269.824	2994
269.885	5477
269.945	10340
270.006	3363
270.067	1242
270.128	2046
270.188	2060
270.249	2385
270.310	1707
270.370	1454
270.431	2222
270.492	1073
270.553	2506
270.613	9760
270.674	19539
270.734	8290
270.795	3624
270.856	6978
270.916	5938
270.977	3505
271.038	4828
271.098	5312
271.159	9015
271.219	9716
271.280	2798
271.340	3486
271.401	4020
271.462	11837
271.522	7492
271.583	4038
271.643	5124
271.704	3265
271.764	5146
271.825	13329
271.885	41513
271.946	59665
272.006	20347
272.066	24401
272.127	43827
272.187	14510
272.248	7599
272.308	7368
272.369	27611
272.429	18033
272.489	14571
272.550	17501
272.610	15849
272.671	13142
272.731	9447
272.791	17004
272.852	10641
272.912	8813
272.972	4912
273.033	3894
273.093	8127
273.153	10774
273.214	5761
273.274	6054
273.334	24499
273.394	45633
273.455	20951
273.515	19700
273.575	41841
273.635	18858
273.696	19864
273.756	40643
273.816	18180
273.876	9795
273.936	17105
273.997	34142
274.057	9829
274.117	7086
274.177	12168
274.237	54129
274.297	48347
274.358	31544
274.418	33681
274.478	29873
274.538	11338
274.598	8870
274.658	25742
274.718	35591
274.778	15394
274.838	7598
274.898	14973
274.958	47448
275.018	41781
275.078	29507
275.138	12941
275.198	6916
275.258	4583
275.318	6561
275.378	15669
275.438	18684
275.498	10501
275.558	19807
275.618	43848
275.678	31219
275.738	20895
275.798	19897
275.858	11949
275.918	4368
275.978	7532
276.038	7500
276.098	4013
276.157	11385
276.217	35547
276.277	17439
276.337	12732
276.397	7131
276.457	8780
276.517	6118
276.576	3621
276.636	3711
276.696	8022
276.756	20730
276.815	16143
276.875	7103
276.935	8141
276.995	7577
277.055	3457
277.114	4374
277.174	7409
277.234	28002
277.293	13044
277.353	6264
277.413	3872
277.472	5578
277.532	5712
277.592	5513
277.651	14444
277.711	30015
277.771	10478
277.830	39137
277.890	33721
277.950	18376
278.009	50049
278.069	20586
278.128	19817
278.188	31714
278.248	14236
278.307	31061
278.367	19993
278.426	7212
278.486	4279
278.545	4820
278.605	3147
278.664	3516
278.724	4389
278.783	12987
278.843	38647
278.902	12284
278.962	7221
279.021	7910
279.081	6160
279.140	6386
279.199	7243
279.259	6405
279.318	5837
279.378	7500
279.437	14452
279.496	53200
279.556	118501
279.615	98183
279.675	26482
279.734	16097
279.793	28297
279.853	45356
279.912	18038
279.971	10632
280.031	8848
280.090	18181
280.149	32994
280.208	20846
280.268	81777
280.327	89562
280.386	23293
280.445	22132
280.505	24070
280.564	11876
280.623	9992
280.682	13782
280.742	25414
280.801	6916
280.860	4796
280.919	5646
280.978	4531
281.037	3805
281.097	2949
281.156	4023
281.215	3228
281.274	5552
281.333	25145
281.392	21546
281.451	4909
281.510	4283
281.569	3247
281.628	2963
281.688	2728
281.747	4068
281.806	5419
281.865	3898
281.924	3681
281.983	4035
282.042	1861
282.101	2891
282.160	2643
282.219	2957
282.278	3018
282.337	18190
282.396	13386
282.454	5601
282.513	6332
282.572	29814
282.631	18303
282.690	5417
282.749	4408
282.808	6189
282.867	5908
282.926	6671
282.985	2784
283.043	2344
283.102	3157
283.161	4711
283.220	12182
283.279	30859
283.338	9332
283.396	4311
283.455	4165
283.514	5037
283.573	11178
283.631	8276
283.690	4602
283.749	4302
283.808	11561
283.866	16603
283.925	4477
283.984	3730
284.043	7061
284.101	8437
284.160	4070
284.219	9966
284.277	6310
284.336	9713
284.395	36539
284.453	31854
284.512	9749
284.570	14845
284.629	12906
284.688	9094
284.746	9345
284.805	10384
284.863	14328
284.922	18558
284.981	18972
285.039	26063
285.098	46116
285.156	104702
285.215	171138
285.273	168286
285.332	118671
285.390	65337
285.449	39327
285.507	26948
285.566	19534
285.624	14822
285.683	11244
285.741	8779
285.799	7773
285.858	7783
285.916	8013
285.975	6624
286.033	3753
286.091	3519
286.150	3613
286.208	4732
286.267	7423
286.325	5938
286.383	12679
286.442	9593
286.500	3790
286.558	3147
286.616	2770
286.675	6608
286.733	5614
286.791	5584
286.850	5772
286.908	8818
286.966	16673
287.024	6432
287.083	3458
287.141	3224
287.199	3447
287.257	8060
287.315	4363
287.374	4701
287.432	16018
287.490	10920
287.548	5691
287.606	4838
287.664	3314
287.723	7721
287.781	11449
287.839	5119
287.897	5030
287.955	5373
288.013	5568
288.071	13975
288.129	51063
288.187	154243
288.245	70814
288.303	20817
288.361	12903
288.419	12780
288.477	9032
288.535	5801
288.593	4244
288.651	4655
288.709	2673
288.767	3170
288.825	3203
288.883	3809
288.941	3521
288.999	2757
289.057	2348
289.115	3294
289.173	4442
289.231	4179
289.289	4204
289.346	2726
289.404	4725
289.462	9212
289.520	10212
289.578	4963
289.636	2209
289.694	2483
289.751	2166
289.809	2753
289.867	2539
289.925	3878
289.983	6853
290.040	2923
290.098	2261
290.156	5025
290.214	6090
290.271	2317
290.329	1986
290.387	2564
290.444	2182
290.502	1646
290.560	2809
290.617	2143
290.675	3113
290.733	2659
290.790	4135
290.848	3203
290.906	3714
290.963	4238
291.021	3410
291.078	3703
291.136	3877
291.194	16843
291.251	42073
291.309	12271
291.366	4298
291.424	3911
291.481	4886
291.539	3301
291.596	2944
291.654	2049
291.711	1938
291.769	4209
291.826	11410
291.884	7236
291.941	2874
291.999	3643
292.056	4441
292.114	5851
292.171	3226
292.228	3794
292.286	5510
292.343	13058
292.401	15700
292.458	9468
292.515	5113
292.573	7447
292.630	7728
292.687	6597
292.745	5630
292.802	8612
292.859	25304
292.917	37410
292.974	23640
293.031	7698
293.089	4756
293.146	4109
293.203	4260
293.260	3152
293.318	5960
293.375	12574
293.432	6238
293.489	3836
293.546	3070
293.604	6397
293.661	16961
293.718	48395
293.775	31814
293.832	15692
293.889	9817
293.947	11447
294.004	8004
294.061	8609
294.118	16608
294.175	37861
294.232	48549
294.289	19375
294.346	8267
294.403	7084
294.460	6317
294.517	5873
294.574	4710
294.631	4629
294.688	5931
294.745	15221
294.802	55653
294.859	74118
294.916	30626
294.973	16428
295.030	15354
295.087	12600
295.144	7055
295.201	6216
295.258	4613
295.315	7677
295.372	20126
295.429	40862
295.486	18847
295.542	11756
295.599	27641
295.656	55490
295.713	37429
295.770	41215
295.827	17179
295.883	9455
295.940	8761
295.997	16554
296.054	16009
296.111	8266
296.167	5568
296.224	4904
296.281	4127
296.338	3791
296.394	4182
296.451	6047
296.508	17552
296.564	39359
296.621	28275
296.678	43840
296.734	67699
296.791	29161
296.848	14512
296.904	15952
296.961	35462
297.018	48009
297.074	36740
297.131	14373
297.187	10479
297.244	14410
297.301	38429
297.357	73432
297.414	27789
297.470	11628
297.527	8982
297.583	7844
297.640	7931
297.696	6353
297.753	4510
297.809	4454
297.866	3531
297.922	3673
297.979	3487
298.035	5105
298.092	9331
298.148	25818
298.204	27322
298.261	13394
298.317	22159
298.374	56062
298.430	34919
298.486	15871
298.543	12019
298.599	10296
298.656	9562
298.712	17106
298.768	34527
298.824	21910
298.881	9100
298.937	6116
298.993	5909
299.050	9972
299.106	9039
299.162	6818
299.218	6828
299.275	5943
299.331	6545
299.387	11758
299.443	43258
299.500	52974
299.556	20932
299.612	10519
299.668	9544
299.724	10949
299.780	10896
299.837	8372
299.893	12210
299.949	40260
300.005	50076
300.061	41249
300.117	68985
300.173	35992
300.229	16472
300.285	20949
300.341	26198
300.397	13460
300.453	8015
300.510	6971
300.566	6770
300.622	8263
300.678	20746
300.734	45294
300.790	42551
300.845	48750
300.901	30907
300.957	44956
301.013	37196
301.069	15809
301.125	11218
301.181	12495
301.237	8763
301.293	6424
301.349	4888
301.405	5311
301.461	5378
301.516	5969
301.572	7773
301.628	16637
301.684	15339
301.740	20066
301.796	32671
301.851	22823
301.907	35468
301.963	38467
302.019	48097
302.074	124449
302.130	130088
302.186	61274
302.242	25335
302.297	17515
302.353	16713
302.409	30644
302.464	28781
302.520	23081
302.576	49958
302.631	61107
302.687	39009
302.743	16990
302.798	8651
302.854	7546
302.910	7735
302.965	11210
303.021	19715
303.076	19581
303.132	24985
303.187	30877
303.243	16737
303.299	8578
303.354	5866
303.410	5590
303.465	5705
303.521	5818
303.576	6382
303.632	6918
303.687	13541
303.743	39353
303.798	36717
303.853	16045
303.909	8869
303.964	8753
304.020	13229
304.075	23592
304.130	20700
304.186	37516
304.241	39362
304.297	31143
304.352	16338
304.358	15650
304.407	10070
304.449	9665
304.463	9535
304.518	10254
304.539	9800
304.573	9080
304.629	8774
304.630	8873
304.684	13736
304.720	24382
304.739	29721
304.794	48239
304.811	41646
304.850	25727
304.902	13308
304.905	12521
304.960	8612
304.992	6883
305.015	5638
305.071	6872
305.083	6594
305.126	5597
305.173	5001
305.181	4919
305.236	4175
305.264	4990
305.292	5802
305.347	7268
305.354	7386
305.402	8039
305.445	7341
305.457	7206
305.512	10160
305.535	10813
305.567	11523
305.622	11184
305.626	11428
305.678	17734
305.716	33207
305.733	38891
305.788	50609
305.807	44967
305.843	34946
305.897	39316
305.898	39332
305.953	42020
305.988	29256
306.008	22288
306.063	14892
306.078	13480
306.118	10060
306.168	7506
306.173	7321
306.228	6182
306.259	6263
306.283	6358
306.338	4969
306.349	5131
306.393	5646
306.440	5439
306.448	5465
306.503	7190
306.530	8745
306.558	12609
306.613	30775
306.620	33260
306.668	46219
306.711	50900
306.723	50688
306.778	39232
306.801	30697
306.833	20950
306.888	10634
306.892	10266
306.943	7403
306.982	7057
306.997	7089
307.052	7243
307.072	7435
307.107	8576
307.162	12996
307.163	13079
307.217	22365
307.253	27730
307.272	28741
307.327	30002
307.343	27188
307.381	20765
307.434	15596
307.436	15866
307.491	31110
307.524	47149
307.546	51717
307.600	47980
307.614	42215
307.655	24720
307.704	12529
307.710	12022
307.765	14039
307.795	17815
307.819	22463
307.874	41667
307.885	41825
307.929	30621
307.975	15611
307.984	14243
308.038	12685
308.065	13192
308.093	18740
308.148	36262
308.156	41415
308.202	72416
308.246	93945
308.257	93325
308.312	52239
308.336	41228
308.366	35773
308.421	28743
308.426	27650
308.475	16609
308.517	10665
308.530	9710
308.585	8605
308.607	8337
308.639	8864
308.694	11049
308.697	11308
308.748	25837
308.787	42921
308.803	43677
308.857	33560
308.877	27053
308.912	19384
308.967	13662
308.967	13628
309.021	15944
309.058	18199
309.076	21793
309.130	38334
309.148	44598
309.185	71133
309.238	114366
309.239	114700
309.293	141210
309.328	131770
309.348	113613
309.402	52272
309.418	38122
309.457	26230
309.508	17812
309.511	17563
309.566	17773
309.598	18941
309.620	23591
309.674	39303
309.688	43663
309.729	43666
309.778	35168
309.783	34357
309.837	24358
309.868	20441
309.892	25434
309.946	41502
309.959	47163
310.001	66294
310.049	82827
310.055	80351
310.109	47793
310.139	28863
310.163	21923
310.218	12709
310.229	11249
310.272	9577
310.319	8247
310.326	8130
310.381	8153
310.409	8226
310.435	8105
310.489	7754
310.499	7758
310.543	8646
310.589	9476
310.598	9569
310.652	10604
310.679	10744
310.706	9460
310.760	6813
310.769	6385
310.814	5225
310.859	4507
310.868	4564
310.923	4844
310.948	5127
310.977	5746
311.031	6810
311.038	7006
311.085	7282
311.128	6956
311.139	6864
311.193	6795
311.218	6609
311.247	5967
311.301	5043
311.308	4915
311.356	5893
311.398	7019
311.410	6872
311.464	5913
311.488	5487
311.518	5311
311.572	5047
311.578	5038
311.626	8197
311.668	11001
311.680	11167
311.734	11722
311.758	11986
311.788	11702
311.842	11145
311.847	11081
311.896	14543
311.937	17724
311.950	17498
312.004	16403
312.027	15835
312.058	12687
312.112	7151
312.117	6612
312.165	6383
312.207	6218
312.297	12169
312.386	9176
312.476	6917
312.566	17187
312.656	7683
312.745	5092
312.835	6967
312.925	8347
313.015	7517
313.104	10328
313.194	5661
313.284	6489
313.374	7847
313.463	7056
313.553	5880
313.643	5492
313.732	4727
313.822	4477
313.912	5969
314.001	8196
314.091	8864
314.180	14969
314.270	10233
314.360	13341
314.449	10316
314.539	6412
314.628	5652
314.718	7107
314.808	12251
314.897	6342
314.987	5866
315.076	8085
315.166	11383
315.255	12062
315.345	10172
315.434	12625
315.524	9608
315.613	11451
315.703	12312
315.792	14707
315.881	26542
315.971	13325
316.060	21720
316.150	40692
316.239	41100
316.328	14247
316.418	6864
316.507	6409
316.597	9968
316.686	8627
316.775	15758
316.865	41962
316.954	8516
317.043	4748
317.133	5998
317.222	4914
317.311	5274
317.400	4914
317.490	8289
317.579	10081
317.668	5980
317.757	9363
317.847	18102
317.936	46199
318.025	28724
318.114	15760
318.203	11288
318.293	14637
318.382	26603
318.471	23111
318.560	30610
318.649	69075
318.738	15646
318.828	11158
318.917	12580
319.006	15734
319.095	41815
319.184	83464
319.273	50047
319.362	26212
319.451	8526
319.540	9225
319.629	20671
319.718	35538
319.807	15110
319.896	27831
319.985	101008
320.074	40182
320.163	12828
320.252	25559
320.341	20974
320.430	18113
320.519	18338
320.608	11824
320.697	9676
320.786	9166
320.875	12156
320.964	16114
321.053	24358
321.142	35256
321.230	36008
321.319	27843
321.408	67133
321.497	31008
321.586	26916
321.675	38142
321.764	36982
321.852	23032
321.941	37187
322.030	25562
322.119	27154
322.207	67963
322.296	59559
322.385	29513
322.474	27382
322.562	74024
322.651	43340
322.740	28628
322.829	47207
322.917	58802
323.006	28683
323.095	22214
323.183	18373
323.272	25973
323.361	39380
323.449	114410
323.538	41656
323.626	89441
323.715	56051
323.804	24004
323.892	86522
323.981	50928
324.069	16063
324.158	49290
324.246	47014
324.335	15035
324.424	23216
324.512	8941
324.601	12232
324.689	23014
324.778	43896
324.866	40748
324.954	11050
325.043	9755
325.131	24546
325.220	47242
325.308	53001
325.397	36799
325.485	22720
325.574	6687
325.662	5562
325.750	6988
325.839	6838
325.927	5807
326.015	9968
326.104	17380
326.192	27019
326.280	6814
326.369	6265
326.457	10289
326.545	18888
326.634	8152
326.722	5326
326.810	5840
326.898	5411
326.987	6913
327.075	17975
327.163	22732
327.251	12687
327.340	16017
327.428	22105
327.516	6322
327.604	6734
327.692	7528
327.781	10234
327.869	21227
327.957	12301
328.045	8888
328.133	5269
328.221	10350
328.309	6920
328.397	5448
328.485	8271
328.574	11575
328.662	37748
328.750	25980
328.838	11614
328.926	5979
329.014	4578
329.102	9315
329.190	29401
329.278	18624
329.366	3930
329.454	4783
329.542	4554
329.630	4019
329.718	4859
329.806	6865
329.893	6660
329.981	6212
330.069	3211
330.157	8353
330.245	20035
330.333	10509
330.421	5362
330.509	11119
330.597	45671
330.684	33011
330.772	13006
330.860	23237
330.948	29261
331.036	11307
331.123	3995
331.211	4934
331.299	8380
331.387	21682
331.475	41925
331.562	12135
331.650	5125
331.738	7919
331.825	15098
331.913	5129
332.001	4347
332.089	9123
332.176	23720
332.264	53914
332.352	43310
332.439	12750
332.527	8409
332.614	7789
332.702	12694
332.790	7824
332.877	23185
332.965	53525
333.052	10551
333.140	10229
333.228	23638
333.315	7011
333.403	8326
333.490	33935
333.578	25686
333.665	18040
333.753	9778
333.840	5168
333.928	9149
334.015	35333
334.103	38658
334.190	108487
334.278	29498
334.365	15710
334.452	10584
334.540	5933
334.627	10167
334.715	16217
334.802	25607
334.889	141041
334.977	130772
335.064	18008
335.151	8748
335.239	9890
335.326	12860
335.413	47287
335.501	69144
335.588	11072
335.675	7364
335.762	10782
335.850	22628
335.937	11929
336.024	31207
336.111	144606
336.199	64420
336.286	12090
336.373	6120
336.460	4401
336.547	4502
336.635	8453
336.722	7323
336.809	7034
336.896	9726
336.983	34983
337.070	83982
337.157	106904
337.245	92643
337.332	66949
337.419	9637
337.506	6962
337.593	9124
337.680	28900
337.767	92401
337.854	26831
337.941	35182
338.028	46768
338.115	14074
338.202	17325
338.289	28709
338.376	99805
338.463	31457
338.550	50921
338.637	55741
338.724	24654
338.811	43328
338.898	8506
338.984	6233
339.071	8804
339.158	10679
339.245	27271
339.332	16360
339.419	28349
339.506	27640
339.593	4161
339.679	5580
339.766	4781
339.853	7975
339.940	16643
340.027	7028
340.113	6087
340.200	9500
340.287	6791
340.374	9215
340.460	15772
340.547	5753
340.634	11351
340.720	41726
340.807	23677
340.894	4176
340.980	6346
341.067	5608
341.154	6720
341.240	9257
341.327	22466
341.414	5168
341.500	5203
341.587	6102
341.674	5947
341.760	14457
341.847	18297
341.933	6208
342.020	2788
342.106	3500
342.193	6049
342.279	11339
342.366	8314
342.452	16117
342.539	8446
342.625	18813
342.712	47042
342.798	19600
342.885	8614
342.971	3884
343.058	3606
343.144	3298
343.230	3226
343.317	3525
343.403	2330
343.490	2429
343.576	3285
343.662	3821
343.749	5453
343.835	9154
343.921	12529
344.008	61862
344.094	151745
344.180	34328
344.267	14208
344.353	46515
344.439	61965
344.525	24396
344.612	7567
344.698	7087
344.784	4749
344.870	4143
344.957	4274
345.043	9115
345.129	6362
345.215	14516
345.301	8198
345.387	3930
345.474	2378
345.560	4046
345.646	7454
345.732	6310
345.818	4570
345.904	5570
345.990	6907
346.076	8338
346.162	19270
346.249	6845
346.335	3657
346.421	5273
346.507	16834
346.593	63025
346.679	16323
346.765	6361
346.851	4781
346.937	4921
347.023	4239
347.108	5871
347.194	5165
347.280	4093
347.366	5596
347.452	16871
347.538	73012
347.624	58267
347.710	56568
347.796	10511
347.882	6341
347.967	4951
348.053	10388
348.139	6283
348.225	4459
348.311	3738
348.397	4051
348.482	7007
348.568	8072
348.654	3126
348.740	3880
348.825	4677
348.911	8356
348.997	33025
349.083	73132
349.168	13927
349.254	4377
349.340	4107
349.425	3679
349.511	6730
349.597	10047
349.682	15882
349.768	49442
349.854	23342
349.939	6645
350.025	4181
350.110	3712
350.196	2493
350.282	1520
350.367	3617
350.453	11240
350.538	12788
350.624	7805
350.709	7484
350.795	3780
350.880	4884
350.966	6407
351.051	10980
351.137	8626
351.222	5246
351.308	14546
351.393	44384
351.479	9824
351.564	3168
351.649	4418
351.735	3588
351.820	3657
351.906	4198
351.991	7634
352.076	27535
352.162	42247
352.247	9190
352.332	5801
352.418	10671
352.503	13190
352.588	65615
352.673	56532
352.759	11948
352.844	6035
352.929	6685
353.014	9720
353.100	6866
353.185	12720
353.270	18619
353.355	19380
353.441	5113
353.526	7826
353.611	16261
353.696	19551
353.781	10631
353.866	4678
353.952	4979
354.037	14343
354.122	36481
354.207	33174
354.292	12239
354.377	4970
354.462	4331
354.547	7393
354.632	6853
354.717	12536
354.802	16142
354.887	6214
354.972	4542
355.057	4103
355.142	2262
355.227	5422
355.312	9030
355.397	22621
355.482	57890
355.567	27154
355.652	19474
355.737	19245
355.822	52259
355.907	43328
355.991	7028
356.076	4323
356.161	4247
356.246	2663
356.331	5062
356.416	10740
356.501	74562
356.585	82391
356.670	12504
356.755	8589
356.840	12317
356.924	54445
357.009	197465
357.094	77124
357.179	18754
357.263	13271
357.348	14067
357.433	14350
357.517	11958
357.602	10179
357.687	7036
357.771	8774
357.856	12550
357.941	10548
358.025	36206
358.110	172127
358.195	82900
358.279	14511
358.364	10476
358.448	39771
358.533	108025
358.617	78821
358.702	75947
358.787	29079
358.871	17523
358.956	14883
359.040	3898
359.125	3166
359.209	4028
359.294	5042
359.378	8538
359.462	12682
359.547	9265
359.631	8180
359.716	3968
359.800	5008
359.885	11791
359.969	6413
360.053	4593
360.138	7031
360.222	8632
360.306	17171
360.391	12737
360.475	14881
360.559	34281
360.644	40570
360.728	29867
360.812	39986
360.896	116704
360.981	58371
361.065	36610
361.149	9686
361.233	9349
361.318	7378
361.402	8930
361.486	7770
361.570	4971
361.654	7853
361.739	18774
361.823	73677
361.907	115438
361.991	21296
362.075	12956
362.159	32162
362.243	22561
362.327	18523
362.411	23569
362.495	14961
362.580	7835
362.664	4379
362.748	3479
362.832	5164
362.916	7223
363.000	28348
363.084	93617
363.168	138290
363.252	33755
363.336	14451
363.420	19098
363.503	70301
363.587	84967
363.671	15122
363.755	10280
363.839	17510
363.923	6610
364.007	16428
364.091	20268
364.175	25167
364.258	106232
364.342	66500
364.426	65401
364.510	39146
364.594	22683
364.677	23125
364.761	97759
364.845	71541
364.929	28398
365.013	24605
365.096	19816
365.180	22922
365.264	26285
365.347	109306
365.431	52723
365.515	17012
365.598	7804
365.682	6769
365.766	16781
365.849	23066
365.933	9399
366.017	14769
366.100	12121
366.184	4810
366.267	6293
366.351	6088
366.435	3908
366.518	3932
366.602	2634
366.685	4726
366.769	5730
366.852	14662
366.936	25842
367.019	12664
367.103	11287
367.186	24968
367.270	7482
367.353	2609
367.436	4065
367.520	3702
367.603	6272
367.687	9660
367.770	19733
367.853	10424
367.937	32392
368.020	56079
368.104	13823
368.187	14791
368.270	22371
368.353	19565
368.437	29355
368.520	82476
368.603	43405
368.687	39720
368.770	75615
368.853	19020
368.936	23292
369.020	25730
369.103	7993
369.186	4852
369.269	5876
369.352	13388
369.436	22350
369.519	12769
369.602	4390
369.685	7126
369.768	7235
369.851	6460
369.934	4038
370.018	6303
370.101	18141
370.184	15578
370.267	10275
370.350	16271
370.433	25195
370.516	54721
370.599	69082
370.682	23197
370.765	46211
370.848	51399
370.931	89798
371.014	37826
371.097	7741
371.180	6543
371.263	3057
371.346	2497
371.429	3925
371.511	5142
371.594	10605
371.677	20860
371.760	25251
371.843	14360
371.926	59896
372.009	146684
372.091	49311
372.174	33742
372.257	80584
372.340	32126
372.423	33272
372.505	43956
372.588	16341
372.671	27527
372.754	86800
372.836	43273
372.919	35043
373.002	77285
373.085	22850
373.167	14622
373.250	37619
373.332	79875
373.415	93241
373.498	197601
373.580	75034
373.663	87709
373.746	126997
373.828	31895
373.911	16782
373.993	16730
374.076	69813
374.159	71013
374.241	27529
374.324	77916
374.406	50150
374.489	52811
374.571	165957
374.654	69804
374.736	32079
374.819	102059
374.901	138630
374.983	145261
375.066	26063
375.148	11005
375.231	49550
375.313	107946
375.395	45098
375.478	10074
375.560	5991
375.643	10331
375.725	29374
375.807	125959
375.890	121605
375.972	71645
376.054	36388
376.136	69479
376.219	27070
376.301	35030
376.383	109560
376.465	42662
376.548	31455
376.630	31272
376.712	95489
376.794	44528
376.877	6079
376.959	4103
377.041	6432
377.123	19209
377.205	24114
377.287	4278
377.369	3222
377.452	4417
377.534	3823
377.616	5022
377.698	4423
377.780	2941
377.862	5182
377.944	5458
378.026	2972
378.108	3960
378.190	3734
378.272	4168
378.354	2880
378.436	2770
378.518	9444
378.600	41149
378.682	29542
378.764	53252
378.846	43013
378.928	15054
379.010	20408
379.091	10038
379.173	4162
379.255	4679
379.337	7602
379.419	23746
379.501	74937
379.583	31354
379.664	8727
379.746	20423
379.828	55766
379.910	72014
379.991	63125
380.073	11194
380.155	7861
380.237	5184
380.318	3783
380.400	5103
380.482	12609
380.564	21622
380.645	21715
380.727	19958
380.809	10215
380.890	7413
380.972	5531
381.053	5383
381.135	6573
381.217	17776
381.298	59073
381.380	29146
381.461	22048
381.543	90040
381.624	114037
381.706	21841
381.787	13501
381.869	12958
381.951	34392
382.032	148173
382.113	100282
382.195	23506
382.276	15814
382.358	30879
382.439	86463
382.521	88841
382.602	139104
382.684	61810
382.765	119606
382.846	113894
382.928	130117
383.009	69907
383.090	42839
383.172	159679
383.253	256787
383.334	99163
383.416	125560
383.497	63867
383.578	24822
383.659	43899
383.741	133682
383.822	355448
383.903	186985
383.984	80638
384.066	160190
384.147	100907
384.228	21072
384.309	17401
384.390	12590
384.471	8239
384.553	10314
384.634	17564
384.715	17268
384.796	8023
384.877	9282
384.958	46702
385.039	61389
385.120	21350
385.201	9916
385.282	15138
385.363	17352
385.444	10755
385.525	16140
385.606	63728
385.687	59377
385.768	16066
385.849	20415
385.930	68740
386.011	122969
386.092	34911
386.173	9136
386.254	9949
386.335	10306
386.416	9316
386.496	32150
386.577	58571
386.658	26201
386.739	15960
386.820	17251
386.901	13650
386.981	11433
387.062	5863
387.143	11229
387.224	52639
387.304	53115
387.385	21448
387.466	14467
387.547	19884
387.627	9598
387.708	18621
387.789	88218
387.869	111146
387.950	28839
388.031	5588
388.111	6842
388.192	29736
388.273	46108
388.353	23645
388.434	10264
388.514	16600
388.595	73903
388.676	106157
388.756	53716
388.837	54598
388.917	32752
388.998	7242
389.078	7615
389.159	6415
389.239	4101
389.320	10711
389.400	8575
389.480	22468
389.561	60425
389.641	28524
389.722	10557
389.802	19094
389.883	23925
389.963	66937
390.043	50085
390.124	20127
390.204	19119
390.284	62542
390.365	40031
390.445	48597
390.525	75341
390.605	53875
390.686	29110
390.766	10854
390.846	6266
390.927	4195
391.007	5104
391.087	7460
391.167	7551
391.247	6065
391.328	16225
391.408	25367
391.488	16496
391.568	3771
391.648	7184
391.728	12226
391.808	11212
391.888	12344
391.969	29093
392.049	52239
392.129	24709
392.209	24012
392.289	63020
392.369	36008
392.449	39340
392.529	22143
392.609	14970
392.689	17587
392.769	58271
392.849	50662
392.929	37521
393.009	92639
393.089	62826
393.169	39548
393.248	112404
393.328	400586
393.408	441002
393.488	129806
393.568	38402
393.648	19744
393.728	12496
393.807	8187
393.887	7530
393.967	6255
394.047	7582
394.127	8881
394.206	10331
394.286	25389
394.366	136151
394.446	151813
394.525	26795
394.605	7480
394.685	13797
394.764	48210
394.844	85197
394.924	55969
395.003	14188
395.083	8282
395.163	7011
395.242	6486
395.322	7423
395.402	4020
395.481	7709
395.561	27813
395.640	89483
395.720	60083
395.799	83952
395.879	60827
395.958	13661
396.038	33677
396.117	173983
396.197	201098
396.276	62857
396.356	31235
396.435	33565
396.515	18195
396.594	20722
396.673	37902
396.753	119049
396.832	378221
396.912	310555
396.991	86276
397.070	23326
397.150	13023
397.229	9490
397.308	11982
397.388	20138
397.467	11092
397.546	5406
397.625	2910
397.705	8829
397.784	9231
397.863	4569
397.942	2915
398.022	4727
398.101	23754
398.180	85210
398.259	47650
398.338	12350
398.417	7927
398.497	5339
398.576	7325
398.655	3582
398.734	3039
398.813	3876
398.892	21854
398.971	87053
399.050	42884
399.129	4726
399.208	2076
399.287	3043
399.366	2164
399.445	2568
399.524	3613
399.603	2138
399.682	8960
399.761	26049
399.840	86757
399.919	69644
399.998	9195
400.077	2459
400.156	2481
400.235	5974
400.313	5053
400.392	6248
400.471	30454
400.550	50222
400.629	13858
400.708	6639
400.786	8058
400.865	25393
400.944	28149
401.023	12106
401.102	2218
401.180	2511
401.259	4658
401.338	6823
401.416	8264
401.495	6517
401.574	6805
401.652	4909
401.731	8106
401.810	7019
401.888	3243
401.967	1170
402.046	2830
402.124	6984
402.203	11272
402.281	6060
402.360	8414
402.438	32884
402.517	22916
402.596	7518
402.674	7970
402.753	4999
402.831	3589
402.910	4881
402.988	20334
403.066	74184
403.145	40817
403.223	21252
403.302	57776
403.380	42938
403.459	44459
403.537	18931
403.615	7672
403.694	911
403.772	2561
403.850	1902
403.929	1040
404.007	2101
404.085	9278
404.164	10213
404.242	3352
404.320	4231
404.398	6546
404.477	20928
404.555	113985
404.633	100652
404.711	13981
404.789	3586
404.868	4222
404.946	3027
405.024	2224
405.102	1198
405.180	1235
405.258	854
405.336	3086
405.415	3027
405.493	12574
405.571	10183
405.649	2467
405.727	2143
405.805	6630
405.883	6332
405.961	7479
406.039	9950
406.117	3609
406.195	5747
406.273	26052
406.351	106855
406.429	66455
406.507	13782
406.585	5162
406.663	4743
406.740	6694
406.818	5581
406.896	2690
406.974	3955
407.052	8878
407.130	60223
407.208	89044
407.285	16980
407.363	2972
407.441	3738
407.519	2579
407.596	4230
407.674	7756
407.752	13231
407.830	26763
407.907	17867
407.985	6186
408.063	2873
408.141	1736
408.218	8261
408.296	8255
408.373	5577
408.451	5166
408.529	4544
408.606	1945
408.684	900
408.762	453
408.839	648
408.917	339
408.994	1511
409.072	1369
409.149	1145
409.227	3957
409.304	5087
409.382	3458
409.459	3495
409.537	5973
409.614	5022
409.692	3227
409.769	2963
409.846	7305
409.924	9242
410.001	5520
410.079	3634
410.156	3797
410.233	1954
410.311	1222
410.388	1793
410.465	2205
410.543	2240
410.620	2237
410.697	3689
410.775	4399
410.852	1305
410.929	5038
411.006	5821
411.083	3135
411.161	7055
411.238	11488
411.315	7379
411.392	2422
411.469	4613
411.547	4215
411.624	1224
411.701	1667
411.778	3212
411.855	10627
411.932	4927
412.009	2442
412.086	2553
412.163	3855
412.240	5937
412.317	7044
412.394	5489
412.471	2267
412.548	707
412.625	2423
412.702	3877
412.779	9262
412.856	4518
412.933	1751
413.010	1933
413.087	4041
413.164	27760
413.241	42040
413.318	9159
413.395	5994
413.471	9578
413.548	3763
413.625	3325
413.702	4622
413.779	4635
413.855	698
413.932	428
414.009	1073
414.086	889
414.162	1422
414.239	5204
414.316	28360
414.393	64875
414.469	21127
414.546	2502
414.623	1676
414.699	2122
414.776	3747
414.853	2162
414.929	2177
415.006	2961
415.082	5258
415.159	3265
415.236	1918
415.312	2756
415.389	6862
415.465	10477
415.542	4585
415.618	2533
415.695	6210
415.771	3866
415.848	4990
415.924	4024
416.000	3607
416.077	1852
416.153	13
416.230	-935
416.306	1255
416.383	1536
416.459	1729
416.535	9
416.612	495
416.688	1709
416.764	904
416.841	575
416.917	1323
416.993	2055
417.069	3125
417.146	3990
417.222	4911
417.298	3734
417.374	2297
417.451	2496
417.527	4429
417.603	4775
417.679	2611
417.755	2277
417.831	633
417.908	879
417.984	1001
418.060	740
418.136	8132
418.212	12113
418.288	3995
418.364	2325
418.440	2337
418.516	5297
418.592	10050
418.668	17326
418.744	22988
418.820	16204
418.896	3460
418.972	66
419.048	2185
419.124	9550
419.200	6905
419.276	1681
419.352	229
419.428	1301
419.504	1870
419.579	3983
419.655	2670
419.731	2458
419.807	14231
419.883	26039
419.959	16821
420.034	4148
420.110	8520
420.186	37957
420.262	30751
420.337	6272
420.413	4801
420.489	1903
420.565	1614
420.640	1125
420.716	2855
420.792	393
420.867	2549
420.943	1285
421.019	5735
421.094	5437
421.170	2183
421.245	899
421.321	2211
421.397	1937
421.472	3390
421.548	6216
421.623	8193
421.699	3862
421.774	3927
421.850	3615
421.925	8323
422.001	6815
422.076	4174
422.152	5313
422.227	10620
422.302	11113
422.378	14752
422.453	26458
422.529	61200
422.604	169667
422.679	273954
422.755	194825
422.830	73656
422.905	28583
422.981	15604
423.056	10111
423.131	7531
423.207	6294
423.282	6448
423.357	15281
423.432	10037
423.508	9209
423.583	23383
423.658	17371
423.733	5975
423.808	7241
423.883	9285
423.959	6302
424.034	4121
424.109	3013
424.184	2107
424.259	1968
424.334	1514
424.409	504
424.484	1623
424.559	2736
424.634	2305
424.709	4100
424.784	5996
424.859	3225
424.934	7043
425.009	28965
425.084	49213
425.159	17540
425.234	2912
425.309	1047
425.384	3308
425.459	2787
425.534	2316
425.609	3190
425.683	1894
425.758	1671
425.833	2859
425.908	4630
425.983	17073
426.058	52914
426.132	22421
426.207	5115
426.282	10247
426.357	9386
426.431	2940
426.506	2981
426.581	3029
426.655	2888
426.730	2370
426.805	1274
426.879	3051
426.954	2247
427.029	8292
427.103	40890
427.178	98383
427.253	43411
427.327	5993
427.402	7048
427.476	15603
427.551	5697
427.625	4874
427.700	5046
427.774	2095
427.849	4207
427.923	2197
427.998	2234
428.072	3331
428.147	8803
428.221	29203
428.296	72767
428.370	35249
428.444	6616
428.519	12735
428.593	26740
428.667	22714
428.742	28120
428.816	22314
428.890	55464
428.965	75917
429.039	30612
429.113	31792
429.188	11321
429.262	3318
429.336	7666
429.410	25754
429.485	18400
429.559	22069
429.633	17388
429.707	4036
429.781	11759
429.855	69443
429.930	103255
430.004	68768
430.078	106434
430.152	81192
430.226	82408
430.300	82728
430.374	14346
430.448	6732
430.522	27927
430.596	89127
430.670	49143
430.744	82808
430.818	130015
430.892	28254
430.966	5897
431.040	2501
431.114	1279
431.188	721
431.262	2817
431.336	2618
431.410	10733
431.484	34703
431.557	21296
431.631	2463
431.705	1954
431.779	11197
431.853	56965
431.927	41956
432.000	5457
432.074	2466
432.148	5520
432.222	4543
432.295	1756
432.369	1921
432.443	5127
432.516	38447
432.590	99498
432.664	38296
432.737	5284
432.811	1744
432.885	751
432.958	1035
433.032	481
433.106	166
433.179	-185
433.253	852
433.326	698
433.400	277
433.473	365
433.547	-28
433.620	1803
433.694	5253
433.767	6807
433.841	2448
433.914	-209
433.988	-267
434.061	109
434.134	1245
434.208	94
434.281	-37
434.355	132
434.428	872
434.501	-258
434.575	701
434.648	2062
434.721	245
434.795	503
434.868	-855
434.941	125
435.014	210
435.088	300
435.161	1632
435.234	4289
435.307	5652
435.381	2490
435.454	1935
435.527	3111
435.600	3532
435.673	1830
435.746	970
435.819	1200
435.892	810
435.966	854
436.039	1466
436.112	2082
436.185	-205
436.258	-131
436.331	-227
436.404	179
436.477	-765
436.550	-891
436.623	235
436.696	240
436.769	903
436.842	1666
436.915	1718
436.987	4517
437.060	1686
437.133	10
437.206	182
437.279	1678
437.352	581
437.425	-53
437.498	1392
437.570	6741
437.643	6918
437.716	1925
437.789	279
437.861	3728
437.934	12423
438.007	5871
438.080	790
438.152	1191
438.225	4624
438.298	43532
438.370	129108
438.443	57684
438.516	13556
438.588	3269
438.661	842
438.734	1097
438.806	3055
438.879	3487
438.951	2309
439.024	5506
439.096	2596
439.169	689
439.241	279
439.314	582
439.386	4604
439.459	8589
439.531	12548
439.604	3833
439.676	772
439.749	111
439.821	113
439.893	-273
439.966	779
440.038	2231
440.110	2402
440.183	1774
440.255	152
440.327	2712
440.400	21080
440.472	92068
440.544	62502
440.617	8214
440.689	5211
440.761	6663
440.833	12267
440.905	8745
440.978	679
441.050	311
441.122	1212
441.194	82
441.266	657
441.338	544
441.411	3944
441.483	30374
441.555	51900
441.627	12491
441.699	7539
441.771	8448
441.843	2261
441.915	1017
441.987	232
442.059	451
442.131	2792
442.203	5957
442.275	8023
442.347	5644
442.419	5451
442.491	26943
442.563	79440
442.635	45771
442.706	34661
442.778	27488
442.850	4964
442.922	1267
442.994	3036
443.066	6844
443.137	5840
443.209	2720
443.281	5745
443.353	11385
443.425	39756
443.496	131967
443.568	142582
443.640	60363
443.711	13585
443.783	4602
443.855	3734
443.926	2097
443.998	2942
444.070	5557
444.141	4618
444.213	7195
444.285	9498
444.356	9469
444.428	8561
444.499	2431
444.571	520
444.642	1601
444.714	2577
444.785	7027
444.857	8849
444.928	26272
445.000	15810
445.071	16901
445.143	21763
445.214	10144
445.285	15452
445.357	46555
445.428	95021
445.500	214205
445.571	159692
445.642	85912
445.714	43889
445.785	44220
445.856	13907
445.928	10100
445.999	8076
446.070	5274
446.141	6587
446.213	8885
446.284	5926
446.355	5290
446.426	3202
446.497	3678
446.569	8689
446.640	12811
446.711	9549
446.782	2669
446.853	6709
446.924	6551
446.995	4367
447.066	4038
447.138	9723
447.209	5580
447.280	558
447.351	827
447.422	457
447.493	3204
447.564	5448
447.635	7306
447.706	3787
447.777	796
447.847	292
447.918	492
447.989	4617
448.060	6685
448.131	17985
448.202	16620
448.273	10821
448.344	4741
448.414	1418
448.485	2061
448.556	638
448.627	54
448.698	658
448.768	574
448.839	1438
448.910	7545
448.981	8769
449.051	2433
449.122	567
449.193	854
449.263	1241
449.334	1077
449.405	2618
449.475	9332
449.546	7871
449.616	9598
449.687	8317
449.758	2532
449.828	954
449.899	1181
449.969	1252
450.040	195
450.110	3269
450.181	5311
450.251	1593
450.322	1139
450.392	1022
450.463	1018
450.533	-25
450.604	438
450.674	572
450.744	1310
450.815	938
450.885	1137
450.955	882
451.026	680
451.096	986
451.166	3237
451.237	11241
451.307	29954
451.377	12626
451.447	1577
451.518	776
451.588	1222
451.658	1404
451.728	4726
451.799	28026
451.869	35963
451.939	8395
452.009	1218
452.079	494
452.149	2405
452.219	6238
452.289	33854
452.360	27688
452.430	4046
452.500	3178
452.570	3769
452.640	6771
452.710	22730
452.780	38389
452.850	24911
452.920	22943
452.990	8363
453.060	4012
453.129	5197
453.199	8037
453.269	27937
453.339	67845
453.409	107806
453.479	102705
453.549	158169
453.619	181361
453.688	79115
453.758	10758
453.828	3855
453.898	2375
453.968	1903
454.037	1352
454.087	1071
454.107	932
454.168	789
454.177	742
454.247	1214
454.249	1223
454.316	956
454.330	1419
454.386	2932
454.411	8295
454.456	16174
454.492	22182
454.525	27528
454.574	13608
454.595	7679
454.655	2878
454.665	2207
454.734	4418
454.736	4688
454.804	10440
454.817	15371
454.873	32297
454.898	35414
454.943	39959
454.979	26890
455.013	15751
455.060	8556
455.082	6225
455.141	8369
455.152	8281
455.221	23192
455.222	23687
455.291	40313
455.303	35816
455.360	17713
455.384	14798
455.430	11296
455.465	14098
455.499	15190
455.546	27457
455.569	31444
455.627	22713
455.638	21645
455.707	4819
455.708	4831
455.777	2110
455.789	2225
455.846	2651
455.869	2335
455.916	1810
455.950	2541
455.985	3034
456.031	2903
456.054	2758
456.112	1878
456.124	1798
456.193	2609
456.193	2580
456.262	3464
456.274	4033
456.332	6075
456.355	6995
456.401	7395
456.436	5470
456.470	3921
456.516	2354
456.540	1752
456.597	1524
456.609	1425
456.678	1860
456.678	1843
456.747	936
456.759	942
456.817	1179
456.840	1124
456.886	803
456.920	974
456.955	1432
457.001	2248
457.024	3068
457.082	5699
457.093	6155
457.162	9602
457.163	9672
457.232	11221
457.243	10409
457.301	5586
457.324	3999
457.370	2341
457.405	2059
457.439	2068
457.485	2693
457.508	2980
457.566	3430
457.577	3516
457.646	4074
457.647	4104
457.715	7036
457.727	7884
457.784	12144
457.808	15258
457.853	18919
457.889	21882
457.922	22120
457.969	16560
457.991	17380
458.050	20254
458.060	20594
458.129	32664
458.130	33058
458.198	31614
458.211	28532
458.267	18980
458.292	13619
458.336	8303
458.372	7523
458.405	9560
458.453	14687
458.474	18763
458.533	33173
458.543	34106
458.611	53086
458.614	53528
458.680	37685
458.694	30239
458.749	15530
458.775	11137
458.818	5782
458.855	5166
458.887	5115
458.936	4606
458.955	4288
459.016	5095
459.024	5201
459.093	5144
459.097	5153
459.162	5422
459.177	5764
459.230	7147
459.257	7822
459.299	8100
459.338	7858
459.368	8155
459.418	9183
459.437	8444
459.499	5649
459.505	5614
459.574	4640
459.579	4613
459.643	4153
459.659	4141
459.711	4432
459.740	4645
459.780	5451
459.820	6313
459.849	6567
459.900	7218
459.917	7095
459.981	6699
459.986	6633
460.054	4793
460.061	4701
460.123	5587
460.141	5847
460.191	7611
460.222	8770
460.260	9186
460.302	10580
460.328	10001
460.382	7120
460.397	6874
460.462	4698
460.465	4668
460.534	6039
460.543	6210
460.602	10297
460.623	11844
460.671	16468
460.703	20701
460.739	19102
460.783	16048
460.808	14355
460.864	7332
460.876	6898
460.944	6409
460.945	6391
461.013	6299
461.024	6223
461.081	6677
461.104	7122
461.150	6710
461.184	6391
461.218	6674
461.264	6739
461.286	6687
461.345	6354
461.355	6344
461.423	7236
461.425	7232
461.491	7928
461.505	8249
461.559	19049
461.585	24167
461.628	42807
461.665	60695
461.696	64647
461.745	76329
461.764	66144
461.825	19682
461.832	19042
461.901	10165
461.905	10053
461.969	8550
461.985	8373
462.037	8254
462.065	7923
462.105	10083
462.145	12571
462.173	19430
462.225	32404
462.241	36183
462.305	54402
462.310	52665
462.378	25115
462.385	21114
462.446	11757
462.465	9676
462.514	8503
462.545	8593
462.582	7997
462.625	7111
462.650	7120
462.705	7374
462.718	8055
462.785	11673
462.786	11804
462.854	19399
462.865	20756
462.922	25496
462.945	27664
462.990	19409
463.025	11254
463.058	9568
463.104	7570
463.126	7476
463.184	8012
463.194	8097
463.262	8639
463.264	8669
463.330	9294
463.344	9369
463.398	10988
463.424	11593
463.466	11958
463.504	12692
463.533	12689
463.583	12220
463.601	12785
463.663	14753
463.669	15270
463.737	21473
463.743	22056
463.805	36758
463.823	41029
463.873	64910
463.903	79772
463.940	82121
463.982	86779
464.008	68466
464.062	23721
464.076	21624
464.142	9524
464.144	9415
464.211	8978
464.221	9007
464.279	9390
464.301	9525
464.347	11245
464.381	12642
464.414	15399
464.461	19189
464.482	19444
464.540	20513
464.550	19615
464.617	12245
464.620	11962
464.685	13005
464.699	13380
464.753	13485
464.779	13486
464.820	12879
464.859	12106
464.888	13970
464.938	17331
464.956	17773
465.018	19584
465.023	19103
465.091	12079
465.098	11305
465.158	10325
465.177	10108
465.226	10522
465.257	10787
465.293	12048
465.336	13476
465.361	15264
465.416	19227
465.428	21614
465.495	34684
465.496	34958
465.563	69213
465.575	75140
465.631	88732
465.654	94961
465.698	54431
465.734	18746
465.765	15254
465.813	9883
465.833	9582
465.893	10165
465.900	10065
465.968	9037
465.972	8959
466.035	9446
466.052	9535
466.102	9662
466.131	9722
466.170	9698
466.210	9669
466.237	10255
466.290	11310
466.304	11313
466.369	11194
466.372	11265
466.439	12788
466.449	12984
466.506	15682
466.528	16628
466.573	29283
466.607	38833
466.641	64601
466.687	100267
466.708	110056
466.766	137189
466.775	125345
466.842	34144
466.845	29741
466.909	18256
466.925	15680
466.977	14133
467.004	13420
467.044	13153
467.083	12874
467.111	13262
467.163	13928
467.178	14444
467.242	16450
467.245	16472
467.312	16292
467.321	16237
467.379	18098
467.400	18721
467.446	22725
467.480	25548
467.559	19524
467.638	14727
467.717	16149
467.796	19540
467.875	24407
467.955	23462
468.034	41885
468.113	116915
468.192	171722
468.271	31679
468.350	17739
468.429	19846
468.508	21100
468.588	17682
468.667	17445
468.746	19440
468.825	18007
468.904	14466
468.983	21807
469.062	43879
469.141	53351
469.220	15348
469.299	15285
469.378	15729
469.456	13460
469.535	12721
469.614	15105
469.693	18966
469.772	29118
469.851	48815
469.930	27399
470.009	14061
470.088	12735
470.166	15425
470.245	23316
470.324	27116
470.403	18216
470.482	14345
470.560	14068
470.639	15992
470.718	20712
470.797	16173
470.875	22004
470.954	37116
471.033	41427
471.111	12753
471.190	11053
471.269	11253
471.347	12093
471.426	15073
471.505	16258
471.583	13989
471.662	11936
471.740	12604
471.819	12471
471.898	11931
471.976	12652
472.055	12270
472.133	15790
472.212	27252
472.290	30489
472.369	15449
472.447	12194
472.526	10702
472.604	12181
472.683	14183
472.761	17259
472.839	13580
472.918	12268
472.996	14793
473.075	21437
473.153	17197
473.231	14474
473.310	18991
473.388	18014
473.466	15055
473.545	16309
473.623	23046
473.701	23135
473.780	12648
473.858	12570
473.936	16229
474.014	13748
474.093	17674
474.171	33145
474.249	53840
474.327	28387
474.405	11218
474.484	11844
474.562	13394
474.640	13430
474.718	14087
474.796	13722
474.874	10524
474.952	11192
475.030	9663
475.108	11428
475.187	11782
475.265	16405
475.343	27511
475.421	31217
475.499	12952
475.577	15887
475.655	25731
475.733	66819
475.811	124983
475.889	109161
475.966	62401
476.044	16548
476.122	22942
476.200	31831
476.278	22814
476.356	16339
476.434	16826
476.512	23973
476.590	31209
476.667	25840
476.745	15168
476.823	15465
476.901	16913
476.979	18131
477.056	15986
477.134	17082
477.212	15144
477.290	15155
477.367	13631
477.445	14418
477.523	14393
477.601	15121
477.678	15591
477.756	22270
477.834	26434
477.911	15541
477.989	15733
478.066	16374
478.144	20988
478.222	22628
478.299	39283
478.377	33077
478.454	14036
478.532	13875
478.609	14482
478.687	16974
478.764	13192
478.842	15588
478.919	16504
478.997	16574
479.074	13964
479.152	21307
479.229	29757
479.307	16759
479.384	12404
479.461	12480
479.539	17212
479.616	20989
479.694	16868
479.771	19859
479.848	20818
479.926	33112
480.003	33990
480.080	13570
480.157	13215
480.235	13885
480.312	14248
480.389	20691
480.467	39176
480.544	49479
480.621	20057
480.698	19807
480.775	22655
480.853	23512
480.930	17300
481.007	18364
481.084	21736
481.161	22168
481.238	21902
481.315	15396
481.392	15019
481.470	16240
481.547	16338
481.624	16175
481.701	16632
481.778	18791
481.855	20858
481.932	36718
482.009	68251
482.086	41487
482.163	18074
482.240	28620
482.317	51365
482.393	37146
482.470	18473
482.547	18350
482.624	16964
482.701	18936
482.778	16853
482.855	13773
482.932	12585
483.009	14211
483.085	15582
483.162	21043
483.239	19721
483.316	15271
483.393	14551
483.469	15804
483.546	21352
483.623	22083
483.699	16141
483.776	17788
483.853	19825
483.930	32470
484.006	96121
484.083	163767
484.160	39370
484.236	25794
484.313	23595
484.389	21358
484.466	19794
484.543	17986
484.619	20590
484.696	24809
484.772	29504
484.849	34353
484.925	20255
485.002	20482
485.078	24379
485.155	25604
485.231	19464
485.308	20231
485.384	22578
485.461	35997
485.537	82931
485.614	101934
485.690	24206
485.766	20555
485.843	22473
485.919	40776
485.995	40699
486.072	20281
486.148	17531
486.224	18034
486.301	21207
486.377	30844
486.453	30979
486.530	22374
486.606	23291
486.682	29683
486.758	59381
486.835	77766
486.911	53699
486.987	110597
487.063	100481
487.139	115998
487.215	71709
487.292	26311
487.368	20502
487.444	26935
487.520	38654
487.596	30273
487.672	43501
487.748	125263
487.824	178554
487.900	48520
487.976	25747
488.052	31144
488.128	42000
488.204	30478
488.280	24480
488.356	34297
488.432	102686
488.508	168562
488.584	38573
488.660	20913
488.736	20604
488.812	22912
488.888	30731
488.964	42925
489.039	117199
489.115	182603
489.191	92694
489.267	23978
489.343	22703
489.418	17070
489.494	15466
489.570	15554
489.646	17523
489.722	18005
489.797	21237
489.873	45794
489.949	126729
490.024	95970
490.100	19223
490.176	17451
490.251	26063
490.327	37332
490.403	18711
490.478	14994
490.554	13049
490.629	13256
490.705	13992
490.781	17367
490.856	18666
490.932	21340
491.007	20991
491.083	20849
491.158	20493
491.234	32784
491.309	97894
491.385	95222
491.460	22850
491.536	22544
491.611	18259
491.686	22308
491.762	31810
491.837	79201
491.913	133112
491.988	193406
492.063	221859
492.139	68070
492.214	37764
492.289	15226
492.365	15447
492.440	21007
492.515	23959
492.590	22221
492.666	16647
492.741	28660
492.816	53158
492.891	23302
492.967	13502
493.042	11872
493.117	11309
493.192	12595
493.267	14654
493.342	24325
493.418	23725
493.493	12869
493.568	12229
493.643	13981
493.718	23251
493.793	43963
493.868	41975
493.943	23328
494.018	15264
494.093	15828
494.168	15334
494.243	11917
494.318	12379
494.393	11888
494.468	11862
494.543	12752
494.618	16333
494.693	13673
494.768	15164
494.842	13802
494.917	11881
494.992	13465
495.067	11153
495.142	11024
495.217	12725
495.292	14405
495.366	18551
495.441	25497
495.516	34443
495.591	48634
495.665	167780
495.740	397602
495.815	135733
495.890	28174
495.964	21118
496.039	22635
496.114	19424
496.188	20122
496.263	21092
496.338	22558
496.412	25831
496.487	30588
496.561	30683
496.636	30040
496.710	21204
496.785	28636
496.860	32239
496.934	22231
497.009	21424
497.083	19099
497.158	19987
497.232	28056
497.307	37698
497.381	25402
497.455	35256
497.530	53297
497.604	27219
497.679	30483
497.753	55509
497.827	68431
497.902	47700
497.976	56941
498.050	149558
498.125	607093
498.199	569492
498.273	78750
498.348	47925
498.422	36750
498.496	38076
498.570	36308
498.645	26389
498.719	29825
498.793	42149
498.867	77417
498.941	96814
499.016	257686
499.090	703181
499.164	213278
499.238	28670
499.312	25608
499.386	32793
499.460	30635
499.534	29474
499.609	38153
499.683	66404
499.757	60670
499.831	121948
499.905	493881
499.979	435025
500.053	85011
500.127	78765
500.201	49186
500.275	32094
500.349	30644
500.422	36906
500.496	54681
500.570	115140
500.644	286440
500.718	532929
500.792	105535
500.866	33557
500.940	47236
501.013	36714
501.087	36946
501.161	63435
501.235	88497
501.309	201750
501.382	534841
501.456	420392
501.530	102438
501.603	191616
501.677	64332
501.751	27479
501.825	33778
501.898	73426
501.972	235436
502.046	129347
502.119	39140
502.193	96771
502.266	252233
502.340	107971
502.413	107704
502.487	219264
502.561	125424
502.634	33010
502.708	25806
502.781	21278
502.855	18716
502.928	15893
503.002	17431
503.075	17902
503.149	21087
503.222	22238
503.295	25607
503.369	32816
503.442	47553
503.516	166553
503.589	438888
503.662	262010
503.736	79425
503.809	202762
503.882	149823
503.956	223952
504.029	188456
504.102	96872
504.175	108650
504.249	35989
504.322	31599
504.395	28093
504.468	19717
504.542	21582
504.615	14504
504.688	13931
504.761	15225
504.834	20308
504.907	24880
504.980	41096
505.053	22234
505.127	27299
505.200	31977
505.273	37264
505.346	20353
505.419	16203
505.492	14456
505.565	11676
505.638	12123
505.711	12510
505.784	13307
505.857	11522
505.930	14872
506.003	13624
506.076	17663
506.149	25820
506.221	34152
506.294	28565
506.367	82046
506.440	296055
506.513	137894
506.586	35688
506.659	19297
506.731	14810
506.804	20422
506.877	30943
506.950	21107
507.022	14329
507.095	24603
507.168	28520
507.241	16149
507.313	12789
507.386	15874
507.459	23112
507.531	14009
507.604	11678
507.677	11946
507.749	8893
507.822	15875
507.894	25251
507.967	22707
508.040	11730
508.112	11106
508.185	13133
508.257	13113
508.330	22871
508.402	12833
508.475	13943
508.547	16544
508.620	16424
508.692	34531
508.765	16858
508.837	9707
508.909	9197
508.982	11013
509.054	13312
509.127	11089
509.199	9439
509.271	9865
509.344	8119
509.416	8692
509.488	9908
509.560	10649
509.633	11212
509.705	15320
509.777	13569
509.849	22380
509.922	13468
509.994	9293
510.066	10321
510.138	8350
510.210	13268
510.283	12453
510.355	12839
510.427	11768
510.499	10433
510.571	10230
510.643	11426
510.715	24927
510.787	19765
510.859	13276
510.931	19261
511.003	23876
511.076	21314
511.148	11075
511.219	11651
511.291	31247
511.363	36649
511.435	11045
511.507	8751
511.579	11303
511.651	9972
511.723	9669
511.795	10360
511.867	10129
511.939	17578
512.010	54415
512.082	35579
512.154	12684
512.226	11493
512.298	12571
512.369	20230
512.441	16643
512.513	20499
512.585	13128
512.656	14855
512.728	18353
512.800	10336
512.871	11954
512.943	11347
513.015	8537
513.086	10427
513.158	12825
513.230	13032
513.301	25461
513.373	31660
513.444	13148
513.516	10210
513.588	11286
513.659	12995
513.731	19039
513.802	16791
513.874	40791
513.945	76267
514.016	19927
514.088	12285
514.159	14145
514.231	20587
514.302	21509
514.374	13457
514.445	16830
514.516	55409
514.588	34848
514.659	19470
514.730	50805
514.802	29252
514.873	11535
514.944	13004
515.016	13667
515.087	18488
515.158	31609
515.229	46916
515.301	12944
515.372	12756
515.443	9765
515.514	9109
515.585	8651
515.656	9815
515.728	9853
515.799	9013
515.870	11327
515.941	12317
516.012	10106
516.083	13461
516.154	17234
516.225	29185
516.296	23075
516.367	19027
516.438	22824
516.509	30120
516.580	45052
516.651	128644
516.722	471104
516.793	190892
516.864	47185
516.935	46062
517.006	50098
517.077	67754
517.148	151890
517.219	438151
517.289	630395
517.360	317503
517.431	98039
517.502	25549
517.573	23638
517.643	21191
517.714	20814
517.785	22598
517.856	23837
517.926	30864
517.997	34502
518.068	41872
518.138	54322
518.209	78187
518.280	264535
518.350	930819
518.421	301380
518.492	46441
518.562	32265
518.633	35420
518.703	31151
518.774	49284
518.845	119134
518.915	108742
518.986	42273
519.056	38981
519.127	70918
519.197	114405
519.268	297686
519.338	173937
519.408	42085
519.479	44839
519.549	32097
519.620	20366
519.690	16251
519.760	16112
519.831	17532
519.901	18224
519.971	14818
520.042	18065
520.112	25259
520.182	24255
520.253	26153
520.323	16138
520.393	17595
520.463	23868
520.534	19736
520.604	36654
520.674	23077
520.744	27765
520.814	41544
520.885	44186
520.955	87615
521.025	346042
521.095	115179
521.165	22398
521.235	19853
521.305	16878
521.375	14553
521.445	16786
521.515	23929
521.585	28952
521.655	25924
521.725	21866
521.795	19035
521.865	14728
521.935	30969
522.005	26196
522.075	15043
522.145	17038
522.215	21012
522.285	35306
522.355	51045
522.424	108972
522.494	83299
522.564	32899
522.634	63578
522.704	181382
522.774	61312
522.843	19128
522.913	17138
522.983	23520
523.053	18536
523.122	18216
523.192	26737
523.262	102812
523.331	88062
523.401	18071
523.471	12682
523.540	14780
523.610	11100
523.680	11624
523.749	12375
523.819	20534
523.888	20656
523.958	11693
524.027	14438
524.097	16331
524.166	13913
524.236	15266
524.305	17310
524.375	13249
524.444	11357
524.514	15081
524.583	15377
524.653	21655
524.722	26014
524.791	14377
524.861	14357
524.930	11709
524.999	13929
525.069	22553
525.138	19658
525.207	26401
525.277	15506
525.346	15105
525.415	13767
525.484	14923
525.554	21977
525.623	18948
525.692	15271
525.761	17089
525.830	17798
525.900	20089
525.969	30996
526.038	43566
526.107	73799
526.176	202339
526.245	153158
526.314	64927
526.383	117001
526.452	138900
526.522	241093
526.591	245525
526.660	103310
526.729	49689
526.797	52586
526.867	105416
526.935	439225
527.004	603610
527.073	275069
527.142	34000
527.211	20507
527.280	21419
527.349	22429
527.418	12115
527.487	13896
527.555	11825
527.624	10411
527.693	10198
527.762	11739
527.831	10231
527.899	13077
527.968	12915
528.037	12431
528.106	17089
528.174	33625
528.243	28153
528.312	43168
528.380	52175
528.449	16307
528.518	12267
528.586	8630
528.655	11086
528.723	11000
528.792	10361
528.861	11984
528.929	11485
528.998	11072
529.066	9487
529.135	8973
529.203	8657
529.272	8991
529.340	10673
529.409	12490
529.477	11053
529.545	18091
529.614	19823
529.682	20815
529.751	24579
529.819	22544
529.887	14657
529.956	10993
530.024	12332
530.092	10114
530.161	13154
530.229	23796
530.297	12116
530.365	10525
530.434	8396
530.502	8642
530.570	9848
530.638	7239
530.707	11206
530.775	13443
530.843	8985
530.911	11136
530.979	9805
531.047	10161
531.115	11138
531.183	10105
531.252	10779
531.320	11298
531.388	9645
531.456	10619
531.524	7639
531.592	10718
531.660	12404
531.728	10347
531.796	9051
531.864	10200
531.932	10311
532.000	10199
532.067	11678
532.135	12730
532.203	15021
532.271	14906
532.339	28523
532.407	79883
532.475	41297
532.542	21437
532.610	22413
532.678	30665
532.746	122945
532.814	303263
532.881	72733
532.949	16645
533.017	13770
533.084	11904
533.152	11340
533.220	12359
533.287	13290
533.355	11259
533.423	10933
533.490	9785
533.558	10767
533.625	10592
533.693	11819
533.761	12373
533.828	13186
533.896	12459
533.963	26190
534.031	31833
534.098	46979
534.166	20861
534.233	11931
534.300	13421
534.368	12277
534.435	11161
534.503	11606
534.570	11792
534.637	12340
534.705	14686
534.772	17077
534.840	24172
534.907	91053
534.974	108126
535.041	20005
535.109	21458
535.176	11561
535.243	11731
535.310	11787
535.378	11223
535.445	9764
535.512	9624
535.579	11637
535.646	11002
535.714	10291
535.781	11621
535.848	11847
535.915	12975
535.982	10624
536.049	11572
536.116	13596
536.183	11611
536.250	12508
536.317	12353
536.384	16196
536.451	25034
536.518	26194
536.585	17322
536.652	22682
536.719	34571
536.786	27172
536.853	20447
536.920	32072
536.987	52864
537.053	43925
537.120	161031
537.187	129274
537.254	17131
537.321	13994
537.388	14723
537.454	11836
537.521	12248
537.588	10522
537.654	13880
537.721	13361
537.788	14198
537.855	10842
537.921	12683
537.988	12248
538.055	13497
538.121	12435
538.188	14516
538.254	23137
538.321	51056
538.388	28684
538.454	14859
538.521	13043
538.587	11362
538.654	11813
538.720	12109
538.787	12004
538.853	14374
538.920	18900
538.986	20835
539.053	15432
539.119	16883
539.185	15686
539.252	19173
539.318	28025
539.385	19681
539.451	16391
539.517	16852
539.583	21507
539.650	50133
539.716	126883
539.782	32596
539.849	15069
539.915	15453
539.981	14612
540.047	20035
540.114	16741
540.180	17651
540.246	15987
540.312	24398
540.378	50252
540.444	49774
540.510	49349
540.576	138458
540.643	41210
540.709	15062
540.775	13565
540.841	13888
540.907	20931
540.973	29260
541.039	24203
541.105	27955
541.171	15618
541.237	14168
541.303	15919
541.369	18879
541.435	22507
541.500	42979
541.566	25001
541.632	13406
541.698	12207
541.764	13840
541.830	12398
541.896	12454
541.961	13378
542.027	13841
542.093	13881
542.159	14716
542.224	15506
542.290	22047
542.356	41532
542.421	49886
542.487	20384
542.553	15799
542.618	18407
542.684	15962
542.750	15995
542.815	20716
542.881	35972
542.947	121861
543.012	81919
543.078	16652
543.143	13375
543.209	15724
543.274	16431
543.340	20080
543.405	45641
543.471	71298
543.536	18000
543.602	14627
543.667	14122
543.732	13695
543.798	11749
543.863	13191
543.928	11648
543.994	10710
544.059	12784
544.124	12895
544.190	12857
544.255	13074
544.320	14139
544.386	15569
544.451	22944
544.516	26739
544.581	26311
544.646	76860
544.712	112236
544.777	24680
544.842	20056
544.907	22884
544.972	18941
545.037	16851
545.102	19693
545.168	20004
545.233	20381
545.298	22070
545.363	25310
545.428	27670
545.493	46278
545.558	102582
545.623	40992
545.688	20349
545.753	19089
545.818	18681
545.883	20397
545.947	18735
546.012	23491
546.077	23797
546.142	21164
546.207	21038
546.272	28581
546.337	29213
546.401	22332
546.466	21350
546.531	19646
546.596	23160
546.661	23457
546.725	22022
546.790	20379
546.855	22398
546.919	22383
546.984	25603
547.049	27849
547.113	34702
547.178	30748
547.243	35298
547.307	37869
547.372	46259
547.436	49753
547.501	39299
547.565	41180
547.630	45430
547.695	46033
547.759	53664
547.823	43899
547.888	37510
547.952	37294
548.017	39621
548.081	45384
548.146	58857
548.210	49940
548.274	42844
548.339	39720
548.403	38181
548.468	35266
548.532	34744
548.596	37216
548.660	37828
548.725	42772
548.789	51012
548.853	49590
548.917	43139
548.982	55590
549.046	52574
549.110	36045
549.174	34655
549.238	38088
549.303	38868
549.367	42549
549.431	39299
549.495	37487
549.559	37580
549.623	42698
549.687	51023
549.751	59124
549.815	55144
549.879	54209
549.943	48741
550.007	54438
550.071	54845
550.135	56427
550.199	50297
550.263	47523
550.327	49940
550.391	61549
550.455	52339
550.519	52223
550.582	54970
550.646	67841
550.710	69128
550.774	58885
550.838	59230
550.901	60760
550.965	64920
551.029	68024
551.093	75005
551.156	88793
551.220	142801
551.284	156115
551.347	93126
551.411	150511
551.475	153143
551.538	67937
551.602	58846
551.666	56047
551.729	51438
551.793	51169
551.856	50633
551.920	48614
551.983	49146
552.047	48403
552.110	48832
552.174	49246
552.237	50546
552.301	47077
552.364	45730
552.428	45509
552.491	45340
552.554	47540
552.618	48458
552.681	48901
552.745	50358
552.808	61513
552.871	69687
552.934	52000
552.998	49250
553.061	50429
553.124	46752
553.187	43702
553.251	47487
553.314	46889
553.377	44952
553.440	48317
553.503	50883
553.567	54159
553.630	48164
553.693	48200
553.756	48583
553.819	45562
553.882	46086
553.945	45687
554.008	45670
554.071	43986
554.134	45167
554.197	43598
554.260	42325
554.323	45049
554.386	46942
554.449	46345
554.512	46033
554.575	43617
554.638	45703
554.701	43452
554.764	42443
554.827	41081
554.889	40113
554.952	37884
555.015	36934
555.078	37462
555.141	40159
555.203	36453
555.266	38393
555.329	38775
555.391	35989
555.454	37175
555.517	37931
555.580	35089
555.642	33812
555.705	32289
555.768	33033
555.830	32295
555.893	31149
555.955	31388
556.018	30499
556.080	32006
556.143	30825
556.206	32837
556.268	34158
556.330	33892
556.393	33224
556.455	32528
556.518	45394
556.580	45724
556.643	29572
556.705	28261
556.767	27421
556.830	29719
556.892	32211
556.955	44037
557.017	33306
557.079	28389
557.142	28431
557.204	30960
557.266	55089
557.328	44030
557.391	25403
557.453	25496
557.515	25158
557.577	29793
557.639	30211
557.701	24592
557.764	23762
557.826	26031
557.888	28455
557.950	27715
558.012	29383
558.074	34844
558.136	66372
558.198	141010
558.260	54457
558.322	31455
558.384	31856
558.446	35721
558.508	39447
558.570	50163
558.632	75947
558.694	104474
558.756	96570
558.818	253994
558.880	575505
558.942	175233
559.003	150250
559.065	71697
559.127	37588
559.189	36785
559.251	43214
559.312	56598
559.374	125801
559.436	393990
559.498	177812
559.559	41274
559.621	38554
559.683	46188
559.744	74237
559.806	207165
559.868	276131
559.929	60530
559.991	44649
560.052	59414
560.114	143534
560.176	90062
560.237	87768
560.299	133412
560.360	37613
560.422	24839
560.483	24940
560.545	22702
560.606	22312
560.667	21529
560.729	21225
560.790	20921
560.852	20545
560.913	20164
560.974	20009
561.036	20961
561.097	20780
561.158	21206
561.220	22598
561.281	21554
561.342	23233
561.403	26454
561.465	33081
561.526	68716
561.587	84775
561.648	26401
561.709	22184
561.771	20948
561.832	20075
561.893	19778
561.954	20050
562.015	19778
562.076	19200
562.137	19814
562.198	19909
562.259	19974
562.320	20355
562.381	22093
562.442	32065
562.503	25214
562.564	19904
562.625	19181
562.686	19514
562.747	22175
562.808	20726
562.869	20580
562.930	27350
562.991	26025
563.051	23263
563.112	21214
563.173	21097
563.234	18377
563.294	19961
563.355	20184
563.416	21103
563.477	19793
563.537	21048
563.598	22333
563.659	21366
563.720	20485
563.780	20966
563.841	22298
563.901	21720
563.962	20001
564.023	20765
564.083	20816
564.144	21756
564.204	20625
564.265	22806
564.325	26844
564.386	53636
564.446	46477
564.507	21077
564.567	19205
564.628	19570
564.688	19334
564.749	20081
564.809	24935
564.869	30731
564.930	19323
564.990	18274
565.050	18068
565.111	18436
565.171	17983
565.231	17718
565.292	18512
565.352	17146
565.412	18959
565.472	20196
565.532	20715
565.593	19381
565.653	18545
565.713	18854
565.773	20108
565.833	24358
565.893	29644
565.953	20296
566.013	19092
566.074	21609
566.134	28430
566.194	48958
566.254	46833
566.314	28818
566.374	18736
566.434	19360
566.494	18832
566.554	18061
566.614	17255
566.673	18624
566.733	19434
566.793	20281
566.853	21318
566.913	19807
566.973	20022
567.033	22482
567.092	22112
567.152	20830
567.212	20537
567.272	22007
567.331	22645
567.391	21954
567.451	22097
567.511	34435
567.570	32383
567.630	19033
567.690	18089
567.749	18772
567.809	18115
567.868	20800
567.928	20802
567.988	23541
568.047	21118
568.107	20481
568.166	21423
568.226	25764
568.285	29832
568.345	24807
568.404	22874
568.464	21587
568.523	21064
568.582	22564
568.642	23770
568.701	26332
568.761	29551
568.820	42385
568.879	38508
568.939	39233
568.998	27257
569.057	21668
569.116	20343
569.176	18826
569.235	17505
569.294	18069
569.353	16961
569.413	18182
569.472	18509
569.531	17737
569.590	16286
569.649	16735
569.708	14985
569.767	19832
569.827	22690
569.886	19321
569.945	15960
570.004	17907
570.063	17134
570.122	19710
570.181	19889
570.240	23743
570.299	24277
570.358	23655
570.417	17055
570.475	17406
570.534	18372
570.593	18945
570.652	18870
570.711	18988
570.770	18103
570.829	20245
570.887	18781
570.946	22021
571.005	16835
571.064	16875
571.122	19440
571.181	23383
571.240	17333
571.299	17074
571.357	19304
571.416	20143
571.475	23399
571.533	24176
571.592	18428
571.650	19609
571.709	15979
571.768	17570
571.826	16068
571.885	15525
571.943	15395
572.002	16669
572.060	18297
572.119	14596
572.177	15082
572.236	14369
572.294	13711
572.352	14767
572.411	15544
572.469	14967
572.528	14565
572.586	16059
572.644	18082
572.703	22443
572.761	16850
572.819	15221
572.877	14312
572.936	14601
572.994	14198
573.052	14465
573.110	15212
573.169	14857
573.227	12886
573.285	14054
573.343	14497
573.401	14494
573.459	13462
573.517	13891
573.576	13810
573.634	14670
573.692	15736
573.750	14609
573.808	14461
573.866	16372
573.924	21762
573.982	21593
574.040	16128
574.098	14078
574.155	12528
574.213	13046
574.271	14234
574.329	13840
574.387	12264
574.445	12600
574.503	12982
574.560	11605
574.618	11705
574.676	12065
574.734	12453
574.792	13505
574.849	11339
574.907	11529
574.965	11574
575.022	11434
575.080	11328
575.138	12309
575.195	13372
575.253	13215
575.311	14549
575.368	12997
575.426	10814
575.483	12623
575.541	11735
575.598	12375
575.656	12749
575.713	12991
575.771	12173
575.828	11646
575.886	13050
575.943	13744
576.001	13451
576.058	14563
576.115	15731
576.173	19261
576.230	21468
576.287	23190
576.345	16568
576.402	14978
576.459	14919
576.517	14978
576.574	17285
576.631	18976
576.688	15208
576.746	13917
576.803	14045
576.860	13060
576.917	14331
576.974	12839
577.031	13563
577.089	13988
577.146	13072
577.203	14410
577.260	15028
577.317	17438
577.374	19636
577.431	19587
577.488	14124
577.545	13294
577.602	13672
577.659	13347
577.716	12378
577.773	10773
577.830	11954
577.886	11950
577.943	12239
578.000	12821
578.057	13928
578.114	13847
578.171	12093
578.227	12475
578.284	12752
578.341	13540
578.398	13650
578.454	15052
578.511	18375
578.568	21409
578.625	17203
578.681	13896
578.738	11261
578.794	12525
578.851	13706
578.908	13060
578.964	12861
579.021	13382
579.077	12420
579.134	12173
579.190	11407
579.247	11614
579.303	12403
579.360	10995
579.416	12351
579.473	10862
579.529	11168
579.586	11608
579.642	12888
579.698	12475
579.755	13492
579.811	12250
579.867	11586
579.924	11938
579.980	11761
580.036	12419
580.093	11981
580.149	11968
580.205	13109
580.261	12843
580.317	14189
580.374	16773
580.430	20108
580.486	17921
580.542	13785
580.598	14713
580.619	14281
580.654	13548
580.692	13227
580.710	13086
580.765	12074
580.767	12053
580.823	13291
580.838	13139
580.879	12756
580.911	12788
580.935	12835
580.984	12185
580.991	12114
581.047	12935
581.057	12917
581.103	12856
581.130	13064
581.159	13296
581.203	13453
581.215	13509
581.270	14528
581.276	14342
581.326	12689
581.349	12635
581.382	12557
581.422	13538
581.438	13979
581.494	13782
581.494	13769
581.550	13207
581.567	13787
581.606	14995
581.640	14206
581.661	13783
581.713	13914
581.717	13929
581.773	13937
581.786	13853
581.829	13623
581.859	13765
581.885	13889
581.932	13281
581.940	13174
581.996	14345
582.004	14271
582.052	13920
582.077	13016
582.107	11962
582.150	13243
582.163	13644
582.219	13708
582.223	13637
582.274	12927
582.296	13724
582.330	14924
582.368	14834
582.386	14788
582.441	12965
582.441	12965
582.497	12622
582.514	12660
582.552	12952
582.587	12786
582.608	12691
582.659	12736
582.663	12731
582.719	13300
582.732	13186
582.774	12834
582.805	13333
582.830	13814
582.877	13919
582.885	13931
582.941	13044
582.950	12945
582.996	12210
583.023	12788
583.052	13654
583.095	13073
583.107	12896
583.162	14155
583.168	14123
583.218	13802
583.240	13586
583.273	13127
583.313	12885
583.328	12866
583.384	13129
583.385	13134
583.439	13286
583.458	13327
583.494	13220
583.531	12908
583.549	12866
583.603	13200
583.605	13202
583.660	12549
583.676	12768
583.715	13679
583.748	13848
583.770	13820
583.820	14182
583.825	14210
583.881	13285
583.893	13359
583.936	13716
583.965	13442
583.991	13121
584.038	13814
584.046	13992
584.101	14737
584.110	14657
584.156	13801
584.183	13392
584.211	13025
584.255	13077
584.266	13108
584.321	12441
584.328	12503
584.376	13232
584.400	13085
584.431	12744
584.472	12997
584.486	13068
584.541	13181
584.545	13196
584.596	13497
584.617	13653
584.651	14267
584.689	14916
584.706	14979
584.761	14801
584.762	14796
584.816	14410
584.834	14586
584.871	15029
584.906	15269
584.926	15298
584.978	14631
584.980	14628
585.035	16275
585.051	16349
585.090	16374
585.123	17544
585.145	18194
585.195	18186
585.200	18266
585.254	19950
585.267	20349
585.309	21296
585.340	22825
585.364	24063
585.412	26230
585.419	26625
585.473	30522
585.484	31447
585.528	36581
585.556	42512
585.583	53358
585.628	79276
585.637	88431
585.692	173040
585.700	188011
585.747	240840
585.772	199934
585.801	123056
585.845	46964
585.856	37535
585.910	25902
585.917	24762
585.965	22198
585.989	21663
586.019	21246
586.061	20037
586.074	19717
586.128	20109
586.133	20125
586.183	21167
586.205	21970
586.237	22631
586.277	22133
586.292	21926
586.346	22117
586.349	22081
586.401	21693
586.421	22259
586.455	23866
586.493	25958
586.509	28626
586.564	39542
586.565	40009
586.618	65306
586.637	66590
586.672	52029
586.709	33670
586.727	28320
586.781	24071
586.781	24071
586.835	21286
586.853	20714
586.889	20257
586.925	19633
586.944	19442
586.996	19313
586.998	19325
587.052	20302
587.068	20518
587.106	20984
587.140	20827
587.161	20776
587.212	21082
587.215	21136
587.269	22034
587.284	22277
587.323	22252
587.356	22225
587.377	22465
587.427	23390
587.431	23453
587.485	22880
587.499	23028
587.539	23747
587.571	24158
587.593	24555
587.643	25369
587.648	25423
587.702	25629
587.715	25907
587.755	27291
587.786	27589
587.810	27321
587.858	26590
587.864	26692
587.917	28609
587.930	29128
587.971	31653
588.001	32980
588.025	33004
588.073	32602
588.079	32692
588.133	33786
588.145	34126
588.187	35981
588.217	37033
588.241	38630
588.288	42742
588.295	43353
588.348	48619
588.360	49683
588.402	54844
588.431	58381
588.456	61069
588.503	67945
588.510	69282
588.564	80234
588.575	82677
588.617	94636
588.646	104285
588.671	115099
588.718	138849
588.725	145998
588.778	207877
588.789	223441
588.832	361193
588.861	467504
588.886	627754
588.932	962533
588.939	983452
588.993	1068997
589.004	1062198
589.047	717254
589.075	478768
589.100	360677
589.147	189932
589.154	181967
589.207	138659
589.218	131066
589.261	125581
589.290	123845
589.314	129975
589.361	146254
589.368	154383
589.421	228661
589.433	247456
589.475	433304
589.504	579016
589.528	713118
589.576	966187
589.582	940208
589.635	582109
589.647	501459
589.689	275313
589.718	142222
589.742	118028
589.790	80608
589.795	79557
589.849	72622
589.861	71996
589.902	74594
589.932	73342
589.955	64191
590.004	44140
590.009	43464
590.062	38768
590.075	37628
590.115	36229
590.146	35306
590.168	35142
590.218	34553
590.222	34618
590.275	35200
590.289	35307
590.328	34427
590.360	33365
590.381	33049
590.431	32326
590.435	32353
590.488	32256
590.503	32267
590.541	32463
590.574	32378
590.594	31878
590.645	30623
590.647	30634
590.700	29919
590.716	29665
590.753	29430
590.787	29176
590.806	29405
590.859	30157
590.859	30190
590.912	29755
590.930	29541
590.965	29542
591.001	29625
591.018	29764
591.071	30087
591.072	30052
591.124	29953
591.143	29949
591.177	30067
591.214	30186
591.230	30717
591.283	32297
591.285	32317
591.336	33575
591.356	34006
591.389	33776
591.427	33248
591.442	32701
591.495	30445
591.498	30243
591.547	29985
591.569	29889
591.600	29892
591.640	29706
591.653	29920
591.706	30710
591.711	30758
591.759	33847
591.782	35440
591.811	37120
591.853	39363
591.864	38482
591.917	33301
591.924	32543
591.969	31876
591.995	31462
592.022	31879
592.066	32440
592.075	33476
592.127	39645
592.137	40769
592.180	44173
592.208	46079
592.233	41809
592.279	33363
592.285	33290
592.338	32563
592.350	32346
592.390	32038
592.421	31748
592.443	31984
592.491	32369
592.495	32466
592.548	33165
592.562	33316
592.600	33019
592.633	32674
592.653	32329
592.704	31154
592.705	31363
592.775	32989
592.846	33862
592.916	34213
592.987	37698
593.058	34965
593.128	32404
593.199	32441
593.270	32133
593.341	31813
593.411	33788
593.482	33915
593.553	33007
593.623	32668
593.694	34823
593.764	37248
593.835	33698
593.906	33644
593.976	34189
594.047	36980
594.117	44310
594.188	44203
594.258	34924
594.329	34220
594.399	35583
594.470	34968
594.540	35407
594.611	34962
594.681	35113
594.751	36030
594.822	37166
594.892	37916
594.963	39831
595.033	40527
595.103	41068
595.174	46463
595.244	63624
595.314	75164
595.384	43794
595.455	41862
595.525	42841
595.595	44357
595.665	44760
595.736	42593
595.806	44428
595.876	43451
595.946	43306
596.016	44359
596.087	45595
596.157	46212
596.227	45293
596.297	47936
596.367	50684
596.437	55838
596.507	70899
596.577	80526
596.647	56054
596.717	53269
596.787	54087
596.857	52511
596.927	53551
596.997	53667
597.067	54491
597.137	55566
597.207	55520
597.277	56263
597.347	54349
597.417	53074
597.487	54701
597.557	55274
597.626	56016
597.696	60193
597.766	69100
597.836	78996
597.906	56204
597.975	50292
598.045	50807
598.115	52393
598.185	54288
598.254	60365
598.324	64409
598.394	66416
598.464	64522
598.533	62373
598.603	58008
598.672	56774
598.742	58041
598.812	57735
598.881	58249
598.951	56373
599.020	57720
599.090	58612
599.159	60866
599.229	56837
599.299	55980
599.368	58349
599.437	57889
599.507	54531
599.576	55265
599.646	52164
599.715	51376
599.785	52403
599.854	55114
599.924	56711
599.993	53973
600.062	51687
600.132	52128
600.201	55533
600.270	63252
600.340	63006
600.409	60319
600.478	60815
600.547	62489
600.617	58290
600.686	50087
600.755	46932
600.824	46078
600.894	43530
600.963	42572
601.032	42308
601.101	42680
601.170	40564
601.239	40027
601.308	42129
601.378	41268
601.447	40692
601.516	39676
601.585	41974
601.654	45075
601.723	41751
601.792	42137
601.861	42509
601.930	45164
601.999	46638
602.068	45073
602.137	48392
602.206	47984
602.275	46170
602.343	50350
602.412	50766
602.481	43708
602.550	43225
602.619	44724
602.688	46839
602.756	46927
602.825	46062
602.894	46234
602.963	47120
603.032	48567
603.100	46879
603.169	47035
603.238	47538
603.307	48295
603.375	47377
603.444	48271
603.513	49098
603.581	49436
603.650	49955
603.719	49252
603.787	51554
603.856	52350
603.924	52569
603.993	55220
604.061	55342
604.130	58842
604.198	58796
604.267	59516
604.335	59119
604.404	60589
604.472	60700
604.541	61925
604.609	62358
604.678	61437
604.746	62628
604.815	65604
604.883	65025
604.951	65725
605.020	65560
605.088	68417
605.156	69247
605.225	70234
605.293	69459
605.361	70559
605.429	69938
605.498	72634
605.566	74237
605.634	78295
605.702	79829
605.771	82354
605.839	82878
605.907	80695
605.975	77427
606.043	76804
606.111	76036
606.180	76129
606.248	75300
606.316	75694
606.384	78629
606.452	86697
606.520	89459
606.588	83180
606.656	78007
606.724	77902
606.792	73391
606.860	67494
606.928	61303
606.996	58883
607.064	58063
607.132	60303
607.200	64234
607.267	65347
607.335	65454
607.403	67812
607.471	66324
607.539	64228
607.607	63732
607.674	56568
607.742	58227
607.810	59538
607.878	57333
607.946	57967
608.013	60780
608.081	62273
608.149	62707
608.216	64413
608.284	66192
608.352	65627
608.419	69216
608.487	79394
608.555	68428
608.622	63582
608.690	67740
608.757	73978
608.825	74306
608.893	74976
608.960	75014
609.028	77420
609.095	84937
609.163	69916
609.230	64130
609.298	59086
609.365	58214
609.432	63134
609.500	68471
609.567	78880
609.635	90069
609.702	93391
609.769	90584
609.837	75276
609.904	62842
609.971	62396
610.039	69682
610.106	92176
610.173	171781
610.241	375060
610.308	192961
610.375	78414
610.442	65455
610.509	61490
610.577	62892
610.644	63820
610.711	63767
610.778	65981
610.845	68671
610.912	72872
610.980	75558
611.047	75416
611.114	74744
611.181	71578
611.248	70691
611.315	75687
611.382	76212
611.449	78990
611.516	81767
611.583	79522
611.650	80468
611.717	81712
611.784	83934
611.851	87239
611.918	95508
611.984	110745
612.051	160147
612.118	321835
612.185	761180
612.252	426865
612.319	121576
612.386	104449
612.452	96264
612.519	97301
612.586	107521
612.653	97988
612.719	96530
612.786	90687
612.853	83645
612.919	80485
612.986	84157
613.053	78254
613.120	72701
613.186	70837
613.253	73917
613.319	71675
613.386	71851
613.453	74437
613.519	79537
613.586	84631
613.652	98662
613.719	88290
613.785	82836
613.852	75965
613.918	73904
613.985	74583
614.051	77233
614.118	78380
614.184	75738
614.250	73464
614.317	74092
614.383	73269
614.449	74205
614.516	73997
614.582	77565
614.648	73180
614.715	73550
614.781	71454
614.847	72285
614.914	75314
614.980	72119
615.046	72100
615.112	71836
615.179	71669
615.245	73410
615.311	73431
615.377	75693
615.443	78599
615.509	75541
615.575	79154
615.642	77556
615.708	81177
615.774	86289
615.840	93325
615.906	100580
615.972	122257
616.038	186495
616.104	392219
616.170	911586
616.236	693629
616.302	173936
616.368	131990
616.434	99692
616.500	95323
616.565	103759
616.631	124076
616.697	102129
616.763	107775
616.829	159091
616.895	270841
616.961	240149
617.026	108411
617.092	82422
617.158	80290
617.224	75918
617.289	73303
617.355	72238
617.421	71632
617.487	71169
617.552	66549
617.618	65104
617.684	65898
617.749	66578
617.815	62802
617.880	61590
617.946	62401
618.012	63202
618.077	64580
618.143	62163
618.208	62670
618.274	67992
618.339	68076
618.405	57501
618.470	59642
618.536	59904
618.601	62115
618.667	57302
618.732	54241
618.798	52199
618.863	51860
618.928	51693
618.994	54891
619.059	58739
619.124	70051
619.190	58818
619.255	52718
619.320	52773
619.386	53165
619.451	51459
619.516	49714
619.581	51803
619.647	51436
619.712	51351
619.777	49517
619.842	50714
619.907	51794
619.972	52221
620.038	53274
620.103	50509
620.168	49873
620.233	50593
620.298	51236
620.363	50795
620.428	52808
620.493	54146
620.558	53410
620.623	53400
620.688	53283
620.753	52379
620.818	52247
620.883	55854
620.948	54559
621.013	52927
621.078	54309
621.143	55048
621.207	59446
621.272	57587
621.337	57355
621.402	59189
621.467	70198
621.532	68554
621.596	59824
621.661	55102
621.726	55431
621.791	54579
621.855	57095
621.920	58759
621.985	61945
622.049	67661
622.114	64635
622.179	58570
622.243	60661
622.308	61144
622.373	64018
622.437	61531
622.502	58989
622.566	58070
622.631	57709
622.695	60065
622.760	59115
622.824	59632
622.889	59773
622.953	64106
623.018	79893
623.082	77857
623.147	61891
623.211	60098
623.276	60867
623.340	55631
623.404	55670
623.469	53951
623.533	57150
623.597	54520
623.662	54790
623.726	51630
623.790	49638
623.854	49151
623.919	49369
623.983	50391
624.047	50598
624.111	49275
624.176	50201
624.240	51980
624.304	56990
624.368	50932
624.432	50697
624.496	53519
624.560	57669
624.625	59862
624.689	55174
624.753	54567
624.817	53024
624.881	51077
624.945	48975
625.009	47753
625.073	48445
625.137	52157
625.201	61300
625.265	58204
625.329	50515
625.393	52240
625.456	52115
625.520	54217
625.584	59082
625.648	67181
625.712	95973
625.776	182800
625.839	191667
625.903	81636
625.967	54613
626.031	84162
626.095	117799
626.158	57065
626.222	40276
626.286	40136
626.349	36858
626.413	34838
626.477	39742
626.540	36879
626.604	36141
626.668	36150
626.731	35412
626.795	37473
626.858	37489
626.922	34523
626.986	35442
627.049	33485
627.113	35938
627.176	33889
627.240	33518
627.303	33974
627.366	33867
627.430	34782
627.493	34075
627.557	35023
627.620	35362
627.684	34520
627.747	34681
627.810	32161
627.874	32070
627.937	28656
628.000	33733
628.064	32713
628.127	27183
628.190	27707
628.253	28543
628.317	27426
628.380	27235
628.443	25925
628.506	27221
628.569	26148
628.632	25103
628.696	25237
628.759	24876
628.822	22497
628.885	22909
628.948	23605
629.011	24392
629.074	23754
629.137	22918
629.200	21602
629.263	26170
629.326	21992
629.389	22098
629.452	22600
629.515	22719
629.578	22651
629.641	24252
629.704	23082
629.767	23968
629.830	21837
629.892	22239
629.955	21156
630.018	25372
630.081	24483
630.144	28808
630.207	23959
630.269	26418
630.332	25992
630.395	23451
630.458	20364
630.520	19805
630.583	21127
630.646	19444
630.708	19477
630.771	20194
630.834	21401
630.896	20371
630.959	19778
631.021	19580
631.084	21254
631.146	23561
631.209	26634
631.272	21133
631.334	20567
631.397	19199
631.459	19385
631.522	21208
631.584	20264
631.646	22259
631.709	24205
631.771	28962
631.834	24377
631.896	20609
631.958	18831
632.021	20308
632.083	17715
632.145	20375
632.208	18508
632.270	19902
632.332	17955
632.395	18451
632.457	19890
632.519	18925
632.581	19243
632.643	17859
632.706	18865
632.768	16815
632.830	17631
632.892	17487
632.954	18488
633.016	19282
633.078	17950
633.141	17806
633.203	17855
633.265	18318
633.327	18116
633.389	18087
633.451	20871
633.513	23304
633.575	23967
633.637	23677
633.698	20689
633.760	19549
633.822	19243
633.884	19248
633.946	18923
634.008	18763
634.070	18379
634.132	19478
634.193	20855
634.255	23282
634.317	21658
634.379	23461
634.441	20550
634.502	19146
634.564	18868
634.626	17464
634.687	16891
634.749	17294
634.811	17786
634.873	15382
634.934	15985
634.996	17454
635.057	16626
635.119	16470
635.181	16743
635.242	17089
635.304	16189
635.365	18994
635.427	16666
635.488	16609
635.550	16397
635.611	16507
635.673	15187
635.734	19764
635.796	19457
635.857	20416
635.918	18742
635.980	21778
636.041	20146
636.102	23456
636.164	22525
636.225	23245
636.286	18964
636.348	19206
636.409	17849
636.470	16621
636.531	17754
636.593	19423
636.654	17584
636.715	15477
636.776	13380
636.838	14200
636.899	16100
636.960	14087
637.021	14627
637.082	14277
637.143	14907
637.204	13433
637.265	14329
637.326	14473
637.387	13893
637.448	12766
637.509	14194
637.570	13607
637.631	13693
637.692	13315
637.753	11855
637.814	12659
637.875	12985
637.936	14222
637.997	13408
638.058	13711
638.119	15258
638.179	13396
638.240	12134
638.301	12705
638.362	12044
638.423	13629
638.483	13703
638.544	10996
638.605	13533
638.666	11854
638.726	12631
638.787	13659
638.848	12098
638.908	12486
638.969	12492
639.030	12537
639.090	11009
639.151	11844
639.211	14569
639.272	16957
639.332	25840
639.393	16050
639.453	12181
639.514	13176
639.574	12270
639.635	11623
639.695	12719
639.756	11897
639.816	12879
639.877	15784
639.937	24625
639.997	28929
640.058	12790
640.118	10178
640.178	11615
640.239	10503
640.299	11066
640.359	10403
640.420	11890
640.480	12526
640.540	12707
640.600	13134
640.661	13503
640.721	11959
640.781	16135
640.841	10518
640.901	11899
640.961	12254
641.021	12296
641.082	14549
641.142	19771
641.202	13247
641.262	9063
641.322	11374
641.382	9727
641.442	11773
641.502	10267
641.562	10981
641.622	9591
641.682	10482
641.742	11572
641.802	11972
641.861	12423
641.921	11556
641.981	14324
642.041	14392
642.101	16394
642.161	10437
642.221	9581
642.280	10145
642.340	9471
642.400	9550
642.460	11704
642.519	10111
642.579	9593
642.639	11025
642.698	8463
642.758	11802
642.818	10758
642.877	9570
642.937	11559
642.997	14235
643.056	17928
643.116	10471
643.175	11732
643.235	10432
643.294	11233
643.354	11363
643.414	12251
643.473	13481
643.532	14674
643.592	21729
643.651	32319
643.711	55117
643.770	110456
643.830	268966
643.889	526926
643.948	110809
644.008	23017
644.067	16783
644.126	12234
644.186	11825
644.245	10824
644.304	9377
644.363	12241
644.423	8920
644.482	9828
644.541	10970
644.600	9129
644.659	13407
644.719	14310
644.778	20450
644.837	33084
644.896	65956
644.955	141085
645.014	43111
645.073	14486
645.132	10829
645.191	10910
645.250	9889
645.309	12080
645.368	11353
645.427	14276
645.486	20306
645.545	30102
645.604	12109
645.663	11105
645.722	10434
645.781	10034
645.840	12329
645.898	13958
645.957	20391
646.016	28893
646.075	52079
646.134	101668
646.192	282072
646.251	368792
646.310	50963
646.369	17747
646.427	15122
646.486	11384
646.545	10975
646.603	9452
646.662	10313
646.721	9102
646.779	7506
646.838	8700
646.896	12537
646.955	14744
647.014	21852
647.072	36832
647.131	93846
647.189	39421
647.248	10179
647.306	9329
647.365	8847
647.423	6642
647.481	9977
647.540	7352
647.598	7875
647.657	6994
647.715	9518
647.773	7434
647.832	8184
647.890	6967
647.948	7903
648.007	8726
648.065	6162
648.123	7030
648.181	9509
648.240	7931
648.298	7102
648.356	7440
648.414	8008
648.472	8222
648.531	8795
648.589	7492
648.647	7458
648.705	7946
648.763	8040
648.821	8254
648.879	7991
648.937	9150
648.995	10094
649.053	11010
649.111	16314
649.169	25818
649.227	44215
649.285	90657
649.343	244953
649.401	104968
649.459	36693
649.516	22094
649.574	10680
649.632	13416
649.690	12205
649.748	13877
649.806	15097
649.863	25769
649.921	65868
649.979	39056
650.037	10132
650.094	6049
650.152	7081
650.210	6443
650.268	7696
650.325	6434
650.383	6788
650.440	5647
650.498	6471
650.556	6306
650.613	6303
650.671	7034
650.728	5990
650.786	7934
650.843	8016
650.901	5408
650.958	6717
651.016	5790
651.073	5903
651.131	4989
651.188	5309
651.246	6012
651.303	5519
651.360	6424
651.418	5153
651.475	5638
651.532	4149
651.590	6202
651.647	5615
651.704	6392
651.762	6615
651.819	5983
651.876	5634
651.933	4994
651.990	5606
652.048	4002
652.105	4718
652.162	6087
652.219	3921
652.276	5059
652.333	5299
652.390	4121
652.448	4857
652.505	5044
652.562	4802
652.619	5198
652.676	5699
652.733	5830
652.790	5303
652.847	3758
652.904	5011
652.961	4210
653.017	4459
653.074	5227
653.131	5458
653.188	3890
653.245	5317
653.302	5161
653.359	3978
653.415	5542
653.472	3805
653.529	4726
653.586	4492
653.642	4721
653.699	4964
653.756	3338
653.813	4159
653.869	5162
653.926	3691
653.983	4329
654.039	5555
654.096	4390
654.152	6397
654.209	3528
654.266	5585
654.322	4155
654.379	7026
654.435	7142
654.492	7850
654.548	10372
654.605	15134
654.661	7880
654.717	5054
654.774	5645
654.830	5585
654.887	5561
654.943	4922
655.000	4513
655.056	5750
655.112	6025
655.168	5059
655.225	6359
655.281	7135
655.337	9848
655.394	16160
655.450	11242
655.506	10007
655.562	16535
655.618	12636
655.675	5296
655.731	5955
655.787	5461
655.843	6684
655.899	4983
655.955	6838
656.011	6410
656.067	5854
656.123	6184
656.179	6941
656.235	8394
656.291	6545
656.347	8154
656.403	7170
656.459	7076
656.515	7756
656.571	7012
656.627	6057
656.683	5984
656.739	6753
656.795	5496
656.850	6084
656.906	6912
656.962	6552
657.018	4992
657.074	5468
657.129	6187
657.185	7933
657.241	11599
657.297	8003
657.352	5689
657.408	4959
657.464	6273
657.519	5303
657.575	3846
657.630	4788
657.686	5150
657.742	4850
657.797	4277
657.853	4325
657.908	5461
657.964	4095
658.019	4096
658.075	4514
658.130	4824
658.186	3744
658.241	4859
658.297	4578
658.352	4488
658.407	5205
658.463	4270
658.518	4594
658.573	4625
658.629	3302
658.684	4427
658.739	4444
658.795	3430
658.850	4285
658.905	4168
658.960	4074
659.016	3624
659.071	4625
659.126	5810
659.181	5620
659.236	9298
659.291	10299
659.346	5342
659.401	5500
659.457	4792
659.512	4046
659.567	5475
659.622	4738
659.677	4645
659.732	3606
659.787	4623
659.842	6406
659.897	7698
659.952	5253
660.007	3635
660.061	4568
660.116	3945
660.171	4464
660.226	3546
660.281	4685
660.336	3267
660.391	4380
660.445	3904
660.500	4537
660.555	4893
660.610	4162
660.664	4346
660.719	3674
660.774	4910
660.828	5436
660.883	4604
660.938	5389
660.992	3530
661.047	4775
661.101	4355
661.156	3994
661.211	3542
661.265	4104
661.320	4305
661.374	4733
661.429	4079
661.483	5112
661.538	3304
661.592	4152
661.647	3142
661.701	5216
661.755	4768
661.810	4780
661.864	3976
661.919	4099
661.973	3965
662.027	4468
662.081	3119
662.136	4221
662.190	4795
662.244	5297
662.299	3817
662.353	4298
662.407	4450
662.461	4127
662.515	5228
662.569	4409
662.624	4556
662.678	4441
662.732	4562
662.786	4567
662.840	5069
662.894	5204
662.948	4477
663.002	4826
663.056	4813
663.110	3263
663.164	4490
663.218	4842
663.272	5263
663.326	4800
663.380	4812
663.434	4880
663.488	4439
663.542	4915
663.595	4074
663.649	4844
663.703	4637
663.757	4759
663.811	3086
663.864	4067
663.918	3886
663.972	4513
664.026	3991
664.079	4718
664.133	5483
664.187	4303
664.240	4348
664.294	3318
664.348	4663
664.401	3553
664.455	4009
664.508	3896
664.562	4783
664.615	4583
664.669	3556
664.722	4627
664.776	4341
664.829	4223
664.883	4579
664.936	4223
664.990	4985
665.043	5034
665.097	5072
665.150	6709
665.203	4291
665.257	4966
665.310	4593
665.363	5340
665.417	5537
665.470	4751
665.523	4791
665.576	4915
665.630	4512
665.683	5487
665.736	5451
665.789	5052
665.842	4235
665.895	5594
665.949	5451
666.002	4479
666.055	4889
666.108	5522
666.161	4839
666.214	5349
666.267	4672
666.320	6234
666.373	5408
666.426	5114
666.479	5169
666.532	6111
666.585	6642
666.638	7586
666.691	6608
666.744	7252
666.796	7160
666.849	5924
666.902	5613
666.955	4888
667.008	4529
667.060	4331
667.113	3922
667.166	4638
667.219	4876
667.271	5099
667.324	4967
667.377	5280
667.430	5005
667.482	4923
667.535	5080
667.587	5944
667.640	5794
667.693	6907
667.745	10129
667.798	11257
667.850	5590
667.903	5222
667.955	4405
668.008	4670
668.060	5444
668.113	6226
668.165	5064
668.218	5814
668.270	6157
668.322	5375
668.375	4858
668.427	5983
668.479	5392
668.532	6056
668.584	5251
668.636	5208
668.689	5823
668.741	5403
668.793	4634
668.845	5265
668.898	5314
668.950	4895
669.002	5764
669.054	5185
669.106	4747
669.158	5646
669.211	5011
669.263	4577
669.315	5223
669.367	5516
669.419	5398
669.471	6249
669.523	5539
669.575	5892
669.627	4960
669.679	4788
669.731	5489
669.783	4996
669.835	5010
669.886	4536
669.938	5439
669.990	5078
670.042	4324
670.094	5357
670.146	4684
670.197	5013
670.249	5267
670.301	5170
670.353	6339
670.404	6512
670.456	7306
670.508	9889
670.560	13330
670.611	21332
670.663	36880
670.715	86366
670.766	121282
670.818	29443
670.869	8180
670.921	6412
670.972	6075
671.024	5529
671.075	5450
671.127	5250
671.178	4715
671.230	5522
671.281	4853
671.333	5901
671.384	5933
671.436	6308
671.487	7907
671.538	8767
671.590	12281
671.641	16624
671.692	26953
671.744	45666
671.795	26616
671.846	10974
671.897	7893
671.949	7039
672.000	5863
672.051	6372
672.102	6167
672.153	5767
672.204	5409
672.256	5369
672.307	5409
672.358	5592
672.409	5860
672.460	5410
672.511	5000
672.562	6139
672.613	5297
672.664	5144
672.715	4826
672.766	4859
672.817	5327
672.868	5243
672.919	5829
672.970	5045
673.021	5324
673.071	4797
673.122	5182
673.173	5741
673.224	4783
673.275	4954
673.326	4926
673.376	4482
673.427	4671
673.478	5641
673.528	5676
673.579	4537
673.630	4919
673.680	5103
673.731	4268
673.782	4114
673.832	4832
673.883	5204
673.934	4516
673.984	4109
674.035	4629
674.085	5424
674.136	5384
674.186	5670
674.237	7182
674.287	10669
674.338	6211
674.388	4064
674.438	4880
674.489	5529
674.539	4032
674.589	6041
674.640	5389
674.690	5612
674.740	5175
674.791	6215
674.841	5530
674.891	5511
674.942	5110
674.992	4668
675.042	3311
675.092	4653
675.142	4192
675.193	3940
675.243	4140
675.293	4835
675.343	4633
675.393	4123
675.443	3962
675.493	4010
675.543	3862
675.593	4926
675.643	4025
675.693	4087
675.743	4093
675.793	4840
675.843	3975
675.893	5056
675.943	4809
675.993	4216
676.043	4638
676.093	4274
676.142	3663
676.192	4647
676.242	3927
676.292	4167
676.341	4240
676.391	4837
676.441	3396
676.491	3531
676.540	4842
676.590	3403
676.640	3712
676.689	4608
676.739	3932
676.789	3747
676.838	3346
676.888	4391
676.937	4255
676.987	3215
677.037	2928
677.086	2633
677.136	3173
677.185	3757
677.235	3384
677.284	3391
677.333	3152
677.383	3440
677.432	3182
677.482	3964
677.531	4376
677.580	3529
677.630	2938
677.679	3421
677.728	3348
677.778	3248
677.827	2850
677.876	2903
677.925	3183
677.975	3497
678.024	3909
678.073	2841
678.122	3594
678.171	3916
678.220	2955
678.269	5803
678.319	4062
678.368	5082
678.417	3850
678.466	5060
678.515	4308
678.564	4172
678.613	3933
678.662	3951
678.711	4369
678.760	3719
678.809	2928
678.857	4088
678.906	3574
678.955	3945
679.004	3974
679.053	4089
679.102	3583
679.151	3176
679.199	3076
679.248	3035
679.297	4483
679.346	4151
679.394	2949
679.443	3491
679.492	3256
679.540	2926
679.589	4321
679.638	3558
679.686	2888
679.735	3733
679.784	3478
679.832	4186
679.881	3218
679.929	2459
679.978	2724
680.026	3657
680.075	3839
680.123	2997
680.172	2849
680.220	3346
680.268	3730
680.317	3426
680.365	2834
680.414	2781
680.462	2977
680.510	4094
680.559	2924
680.607	2993
680.655	3159
680.703	4232
680.752	2733
680.800	3004
680.848	3577
680.896	3338
680.945	2496
680.993	2735
681.041	2761
681.089	3251
681.137	2581
681.185	3387
681.233	3131
681.258	3037
681.281	2919
681.329	3000
681.377	3095
681.380	3116
681.425	2959
681.473	4672
681.502	3827
681.521	3179
681.569	4038
681.617	3338
681.624	3407
681.665	3648
681.713	4128
681.745	3558
681.761	3235
681.809	4084
681.857	3766
681.867	3861
681.904	4107
681.952	4449
681.989	3862
682.000	3648
682.048	3811
682.096	3095
682.111	3288
682.143	3599
682.191	3933
682.233	4895
682.239	5006
682.286	3725
682.334	3885
682.354	3904
682.382	3909
682.430	5078
682.476	4021
682.477	3972
682.525	3970
682.572	3368
682.598	3823
682.620	4199
682.667	4753
682.715	5259
682.720	5171
682.763	4096
682.810	4927
682.841	4695
682.857	4501
682.905	4709
682.952	4981
682.963	4946
683.000	4732
683.047	4761
683.085	5207
683.095	5315
683.142	5426
683.190	5052
683.206	4822
683.237	4273
683.284	5064
683.328	4977
683.332	4955
683.379	4585
683.426	4896
683.449	5064
683.473	5192
683.521	4543
683.568	5462
683.571	5463
683.615	5151
683.662	5304
683.693	5071
683.709	4939
683.757	5227
683.804	5313
683.814	5372
683.851	5498
683.898	5459
683.936	6161
683.945	6328
683.992	6091
684.039	6444
684.057	6669
684.086	6948
684.133	6892
684.179	6682
684.180	6649
684.227	6709
684.274	7038
684.300	6896
684.321	6736
684.368	6399
684.415	7033
684.422	6869
684.462	5663
684.509	6143
684.543	6012
684.556	6032
684.603	5986
684.649	6169
684.665	6292
684.696	6479
684.743	6862
684.786	6617
684.790	6597
684.837	6966
684.883	7722
684.908	7964
684.930	7990
684.977	8047
685.023	6950
685.029	7000
685.070	7236
685.117	7077
685.150	7449
685.164	7679
685.210	8533
685.257	8632
685.272	8393
685.303	7646
685.350	8079
685.393	7941
685.396	7955
685.443	9268
685.490	9653
685.514	10100
685.536	10053
685.583	9061
685.629	8399
685.636	8310
685.675	8043
685.722	8237
685.757	8661
685.768	8794
685.815	8295
685.861	8820
685.878	8882
685.908	9124
685.954	9175
686.000	10308
686.000	10330
686.047	10943
686.093	12925
686.121	13477
686.139	13019
686.185	10808
686.232	10310
686.242	10175
686.278	10128
686.324	8977
686.363	8595
686.370	8577
686.416	8689
686.463	9176
686.484	8888
686.509	8561
686.555	8036
686.601	8355
686.606	8367
686.647	8562
686.693	8392
686.727	8288
686.739	8264
686.785	8717
686.831	8725
686.848	8660
686.877	8359
686.923	8773
686.969	7750
686.969	7744
687.015	8377
687.061	8930
687.090	9241
687.107	9375
687.153	8833
687.199	9210
687.211	9159
687.245	9278
687.291	9927
687.332	10368
687.336	10369
687.382	10187
687.428	9741
687.453	9684
687.474	9529
687.520	9656
687.565	9032
687.574	8919
687.611	8883
687.657	8882
687.695	8967
687.702	8985
687.748	9657
687.794	9638
687.816	9665
687.839	9463
687.885	8803
687.931	8660
687.937	8603
687.976	8913
688.022	8968
688.058	9816
688.067	9916
688.113	9923
688.158	8843
688.179	9132
688.204	9666
688.249	9833
688.295	10190
688.300	10165
688.340	10193
688.386	10890
688.421	10898
688.431	10776
688.477	10687
688.522	10127
688.542	10050
688.567	10113
688.613	10159
688.658	10322
688.663	10283
688.703	10078
688.749	10009
688.784	10287
688.794	10324
688.839	9953
688.884	10101
688.905	9899
688.930	9839
688.975	9954
689.020	10153
689.026	10212
689.065	10572
689.110	9765
689.146	9818
689.155	9801
689.201	9464
689.246	9804
689.267	9813
689.291	10058
689.336	10171
689.381	10125
689.388	10153
689.426	10125
689.471	10249
689.509	9844
689.516	9799
689.561	10055
689.606	9893
689.630	9966
689.651	10099
689.696	9957
689.741	10344
689.750	10417
689.785	10639
689.830	10113
689.871	9886
689.875	9849
689.920	10155
689.965	9656
689.992	9353
690.010	9465
690.054	10099
690.099	10739
690.112	10843
690.144	10676
690.189	10317
690.233	9997
690.233	10009
690.278	10325
690.323	9501
690.354	9597
690.367	9767
690.412	10408
690.457	10715
690.474	10643
690.501	10291
690.546	10006
690.590	10129
690.595	10087
690.635	9943
690.680	9824
690.716	9591
690.724	9633
690.769	10081
690.813	10406
690.836	10237
690.857	10075
690.902	10397
690.946	11060
690.957	11126
690.991	11405
691.035	11305
691.077	11505
691.080	11540
691.124	11782
691.168	12615
691.198	12594
691.213	12628
691.257	12989
691.301	13269
691.318	13379
691.346	12836
691.390	11931
691.434	11125
691.439	11027
691.478	11499
691.522	11819
691.559	11881
691.567	11930
691.611	13084
691.655	12945
691.680	13202
691.699	13039
691.743	12516
691.787	11966
691.800	11823
691.831	12148
691.875	12257
691.919	12708
691.921	12696
691.964	12801
692.008	12852
692.041	12881
692.052	12933
692.096	13212
692.139	13527
692.162	13346
692.183	12980
692.227	12953
692.271	12472
692.282	12366
692.315	12394
692.359	12562
692.402	12428
692.403	12451
692.447	12205
692.490	12842
692.523	12923
692.534	13030
692.578	13346
692.622	13192
692.643	13432
692.666	13323
692.709	12979
692.753	12347
692.763	12191
692.797	12029
692.840	12027
692.884	11736
692.884	11763
692.928	12195
692.971	12783
693.004	13327
693.015	13324
693.059	12941
693.102	12697
693.124	12625
693.146	12980
693.189	13003
693.233	13570
693.245	13750
693.276	14099
693.320	14180
693.363	14255
693.365	14236
693.407	14233
693.450	13909
693.485	13744
693.493	13805
693.537	14197
693.580	14189
693.605	14302
693.624	14152
693.667	13603
693.710	13070
693.725	12908
693.753	13440
693.797	14149
693.840	15033
693.845	15045
693.883	14302
693.926	13837
693.966	13373
693.970	13384
694.013	12788
694.056	12841
694.086	12492
694.099	12687
694.142	13516
694.185	14462
694.206	14737
694.229	14887
694.272	15170
694.315	15639
694.326	15643
694.358	15801
694.401	16157
694.444	16583
694.446	16565
694.487	16462
694.530	16256
694.566	15963
694.573	15780
694.616	14477
694.659	13126
694.686	12300
694.702	12306
694.745	12456
694.787	12116
694.806	12152
694.830	12382
694.873	12437
694.916	12572
694.926	12509
694.959	12444
695.002	12755
695.044	12809
695.046	12789
695.087	13101
695.130	13227
695.166	13392
695.172	13418
695.215	13163
695.258	13159
695.286	13140
695.301	13231
695.343	13380
695.386	13462
695.406	13447
695.428	13324
695.471	12896
695.514	12749
695.526	12600
695.556	12789
695.599	13440
695.641	13783
695.646	13776
695.684	13584
695.726	13454
695.766	13378
695.769	13421
695.811	13543
695.854	13515
695.886	13594
695.896	13555
695.938	13174
695.981	12862
696.005	12579
696.023	12636
696.065	12877
696.108	13058
696.125	13051
696.150	13234
696.192	13664
696.235	13931
696.245	13948
696.277	13673
696.319	13360
696.361	13121
696.365	13058
696.404	13046
696.446	13082
696.485	13154
696.488	13247
696.530	13864
696.572	14664
696.604	15106
696.614	14949
696.656	14160
696.698	13360
696.724	12848
696.740	12939
696.783	13160
696.825	13383
696.844	13415
696.867	13464
696.909	13394
696.951	13426
696.964	13427
696.992	13460
697.034	13398
697.076	13285
697.083	13245
697.118	13498
697.160	13655
697.202	13980
697.203	13949
697.244	13633
697.286	13363
697.323	13078
697.327	13151
697.369	13508
697.411	13774
697.442	14041
697.453	14219
697.494	14720
697.536	15319
697.562	15608
697.578	15577
697.620	15350
697.661	15172
697.682	15031
697.703	15446
697.744	16148
697.786	16982
697.801	17234
697.828	17263
697.869	17120
697.911	17012
697.921	16953
697.952	16297
697.994	15339
698.035	14393
698.040	14235
698.077	14170
698.118	14098
698.160	14024
698.160	13985
698.201	14128
698.243	14317
698.279	14434
698.284	14463
698.325	14332
698.367	14247
698.399	14109
698.408	14164
698.449	14278
698.491	14350
698.518	14381
698.532	14494
698.573	14691
698.614	14906
698.638	15009
698.656	15066
698.697	15072
698.738	15075
698.757	15045
698.779	15196
698.820	15388
698.862	15598
698.877	15634
698.903	16148
698.944	16898
698.985	17651
698.996	17814
699.026	17391
699.067	16741
699.116	15923
699.235	14299
699.354	14793
699.474	15163
699.593	18435
699.713	17581
699.832	16051
699.951	17299
700.070	15244
700.190	13801
700.309	15326
700.428	17527
700.547	14411
700.667	15260
700.786	17564
700.905	15112
701.024	16934
701.143	15064
701.262	12679
701.381	12852
701.500	14885
701.619	16624
701.738	13335
701.857	13368
701.976	13701
702.095	12681
702.214	15709
702.333	15539
702.452	14381
702.571	12483
702.690	13078
702.809	12557
702.928	12164
703.047	12174
703.165	12679
703.284	12259
703.403	12832
703.522	14872
703.640	14869
703.759	19491
703.878	28212
703.997	12467
704.115	11614
704.234	12540
704.353	11840
704.471	10972
704.590	11194
704.708	10729
704.827	10986
704.946	11731
705.064	13757
705.183	11303
705.301	15002
705.420	19315
705.538	17670
705.656	15165
705.775	12979
705.893	14834
706.012	15719
706.130	15060
706.249	15889
706.367	16400
706.485	17641
706.604	15827
706.722	17722
706.840	22337
706.958	20016
707.077	15089
707.195	13151
707.313	14466
707.431	13787
707.549	13042
707.668	13861
707.786	15360
707.904	13632
708.022	12905
708.140	13706
708.258	12074
708.376	14735
708.494	12927
708.612	15197
708.730	21266
708.848	20680
708.966	19130
709.084	18784
709.202	16661
709.320	18029
709.438	16897
709.556	18500
709.674	17134
709.791	18311
709.909	15885
710.027	16107
710.145	15982
710.263	18198
710.380	17058
710.498	16405
710.616	16803
710.733	16813
710.851	18761
710.969	18361
711.086	17062
711.204	16216
711.322	16536
711.439	17712
711.557	18312
711.674	16655
711.792	16340
711.909	14982
712.027	15174
712.144	15152
712.262	16564
712.379	17947
712.497	24654
712.614	23958
712.732	20820
712.849	19590
712.966	23684
713.084	29388
713.201	20766
713.318	20024
713.436	18907
713.553	20337
713.670	21584
713.787	23790
713.905	22630
714.022	19859
714.139	19825
714.256	22806
714.373	28857
714.490	44477
714.608	102766
714.725	426251
714.842	405309
714.959	37608
715.076	22625
715.193	19015
715.310	18796
715.427	17317
715.544	16361
715.661	16673
715.778	15831
715.895	19075
716.011	18900
716.128	17178
716.245	17901
716.362	21768
716.479	21450
716.596	16378
716.713	16418
716.829	17003
716.946	15073
717.063	14559
717.180	13919
717.296	14753
717.413	14335
717.530	15125
717.646	14621
717.763	14185
717.880	13565
717.996	14447
718.113	14651
718.229	14138
718.346	12909
718.462	14479
718.579	20960
718.695	40014
718.812	27319
718.928	25623
719.045	16501
719.161	12808
719.277	12495
719.394	13032
719.510	13448
719.626	12818
719.743	18169
719.859	20839
719.975	35079
720.092	128983
720.208	278869
720.324	34923
720.440	16733
720.557	18549
720.673	31829
720.789	43356
720.905	94789
721.021	27061
721.137	13819
721.253	14686
721.369	14319
721.486	17826
721.602	25692
721.718	14068
721.834	11215
721.950	12738
722.066	10939
722.181	11786
722.297	12838
722.413	10296
722.529	11314
722.645	11141
722.761	9823
722.877	10501
722.993	9349
723.108	12473
723.224	11481
723.340	10974
723.456	10059
723.571	11795
723.687	9980
723.803	9962
723.918	10643
724.034	11154
724.150	10389
724.265	13562
724.381	33530
724.497	42291
724.612	10224
724.728	9682
724.843	9957
724.959	13720
725.074	31653
725.190	35832
725.305	12534
725.421	11666
725.536	8587
725.651	8589
725.767	9275
725.882	8902
725.997	8085
726.113	9577
726.228	8251
726.343	8442
726.459	7929
726.574	8993
726.689	7956
726.804	7936
726.920	8185
727.035	8727
727.150	9139
727.265	9167
727.380	8975
727.495	8311
727.610	7086
727.725	8172
727.841	7411
727.956	8594
728.071	10522
728.186	8414
728.301	7204
728.416	8960
728.531	8011
728.645	6975
728.760	8322
728.875	9434
728.990	9025
729.105	7677
729.220	8359
729.335	8804
729.449	7695
729.564	6806
729.679	5994
729.794	6995
729.908	8727
730.023	7535
730.138	6346
730.253	6578
730.367	6299
730.482	6453
730.596	6997
730.711	7840
730.826	7725
730.940	6883
731.055	7378
731.169	6272
731.284	5551
731.398	6694
731.513	9411
731.627	8306
731.742	10812
731.856	11312
731.970	7461
732.085	10088
732.199	12867
732.313	20295
732.428	52816
732.542	158566
732.656	86016
732.771	15754
732.885	10091
732.999	9332
733.113	8852
733.227	9232
733.342	6643
733.456	6891
733.570	7071
733.684	6724
733.798	7817
733.912	6639
734.026	6672
734.140	6958
734.254	8289
734.368	18236
734.482	22716
734.596	6605
734.710	5536
734.824	5877
734.938	6601
735.052	6576
735.166	8646
735.280	7677
735.393	6132
735.507	6323
735.621	10881
735.735	23112
735.849	8586
735.962	6238
736.076	6270
736.190	7858
736.303	11521
736.417	16155
736.531	6179
736.644	7202
736.758	5397
736.872	4995
736.985	5177
737.099	6123
737.212	4517
737.326	5048
737.439	4805
737.553	4925
737.666	5826
737.780	4795
737.893	4751
738.007	4932
738.120	4273
738.233	5473
738.347	5144
738.460	4990
738.573	6497
738.687	6587
738.800	6260
738.913	10318
739.026	5986
739.140	4688
739.253	5147
739.366	4855
739.479	4676
739.592	4315
739.705	5543
739.818	4948
739.932	4219
740.045	4307
740.158	5499
740.271	5217
740.384	4727
740.497	4303
740.610	5759
740.723	5161
740.836	5103
740.949	6864
741.062	9031
741.174	7606
741.287	6003
741.400	5196
741.513	4492
741.626	5551
741.739	5036
741.851	5058
741.964	4953
742.077	5167
742.189	5073
742.302	7229
742.415	5597
742.527	4441
742.640	4148
742.753	4581
742.865	4437
742.978	3829
743.090	3619
743.203	4645
743.316	3699
743.428	3776
743.541	4477
743.653	4226
743.766	3636
743.878	4906
743.990	8385
744.103	9219
744.215	6575
744.327	5179
744.440	8037
744.552	13132
744.664	5586
744.777	4307
744.889	3199
745.001	3999
745.113	3468
745.226	3321
745.338	3779
745.450	4298
745.562	3551
745.674	3093
745.786	3259
745.898	3934
746.010	3563
746.122	3438
746.234	3527
746.347	2802
746.459	3728
746.570	3452
746.682	5396
746.794	7743
746.906	4027
747.018	4016
747.130	3276
747.242	3809
747.354	2592
747.466	4364
747.577	3596
747.689	3469
747.801	3419
747.913	3557
748.024	3133
748.136	3299
748.248	2414
748.359	3600
748.471	2401
748.583	3036
748.694	2346
748.806	4668
748.918	6621
749.029	4752
749.141	4477
749.252	4134
749.364	6342
749.475	16469
749.587	8596
749.698	3725
749.809	3035
749.921	2945
750.032	2628
750.144	2814
750.255	2966
750.366	3408
750.478	2861
750.589	3201
750.700	3408
750.811	4212
750.923	5979
751.034	17943
751.145	16583
751.256	4562
751.367	2976
751.479	2673
751.590	2826
751.701	2722
751.812	2065
751.923	2809
752.034	2719
752.145	2434
752.256	2029
752.367	2676
752.478	2046
752.589	2694
752.700	2038
752.811	2845
752.922	2070
753.032	4508
753.143	4897
753.254	2216
753.365	2199
753.476	3262
753.586	2750
753.697	3010
753.808	2378
753.919	2703
754.029	2429
754.140	2781
754.251	2701
754.361	3564
754.472	2878
754.582	3702
754.693	1851
754.804	2752
754.914	2029
755.025	3060
755.135	2369
755.246	2334
755.356	2135
755.466	3475
755.577	2597
755.687	2645
755.798	1750
755.908	2416
756.018	2227
756.129	2212
756.239	2751
756.349	2078
756.460	1892
756.570	3548
756.680	3327
756.790	2420
756.900	3456
757.011	1640
757.121	2312
757.231	2463
757.341	2508
757.451	1834
757.561	1782
757.671	2334
757.781	2496
757.891	2807
758.001	2698
758.111	2425
758.221	2592
758.331	4948
758.441	3497
758.551	7857
758.661	5688
758.771	2514
758.880	3163
758.990	2638
759.100	3040
759.210	3861
759.320	2375
759.429	3046
759.539	2577
759.649	3510
759.758	3141
759.868	4367
759.978	2366
760.087	4413
760.197	4441
760.307	4008
760.416	3179
760.526	3080
760.635	3450
760.745	3805
760.854	4133
760.964	4442
761.073	4477
761.182	4458
761.292	3791
761.401	4789
761.511	2279
761.620	2963
761.729	3592
761.839	3037
761.948	3865
762.057	4034
762.166	3036
762.276	2105
762.385	3653
762.494	2315
762.603	2675
762.712	3479
762.822	2541
762.931	2574
763.040	1831
763.149	3035
763.258	2124
763.367	2911
763.476	1849
763.585	1842
763.694	2148
763.803	3089
763.912	2608
764.021	2809
764.130	2098
764.238	2445
764.347	3031
764.456	3487
764.565	2202
764.674	1975
764.783	2218
764.891	2548
765.000	2933
765.109	3195
765.217	2407
765.326	4114
765.435	6129
765.543	4257
765.652	3579
765.761	4091
765.869	3693
765.978	6415
766.086	11624
766.195	22119
766.303	61987
766.412	229298
766.520	182442
766.629	23204
766.737	9283
766.846	6688
766.954	4096
767.062	4907
767.171	3756
767.279	3889
767.387	3049
767.496	3974
767.604	3146
767.712	2734
767.820	1967
767.928	4079
768.037	2620
768.145	3511
768.253	3867
768.361	3587
768.469	3288
768.577	3223
768.685	3293
768.793	2919
768.901	2966
769.009	4196
769.117	2810
769.225	3627
769.333	4153
769.441	6161
769.549	10189
769.657	21686
769.765	79685
769.873	193573
769.981	42928
770.088	7484
770.196	4298
770.304	4430
770.412	4113
770.519	3575
770.627	2787
770.735	3858
770.842	3270
770.950	3749
771.058	3177
771.165	3858
771.273	2974
771.380	3696
771.488	3360
771.595	3904
771.703	3016
771.810	4198
771.918	3131
772.025	3348
772.133	2859
772.240	4381
772.348	4305
772.455	4240
772.562	2984
772.670	3753
772.777	3948
772.884	3430
772.991	2548
773.099	4126
773.206	2380
773.313	3967
773.420	3850
773.528	4173
773.635	2632
773.742	3552
773.849	3743
773.956	3313
774.063	2985
774.170	3169
774.277	3502
774.384	2303
774.491	3140
774.598	2903
774.705	4500
774.812	6148
774.919	3582
775.026	4025
775.133	3693
775.239	3433
775.346	3870
775.453	3295
775.560	3409
775.667	3132
775.773	2963
775.880	3754
775.987	2766
776.093	3415
776.200	2397
776.307	2944
776.413	3482
776.520	3375
776.627	3344
776.733	3771
776.840	2058
776.946	5586
777.053	7632
777.159	12639
777.266	5830
777.372	11934
777.478	8318
777.585	5440
777.691	2742
777.798	3191
777.904	4649
778.010	6661
778.117	5743
778.223	3894
778.329	2563
778.435	2917
778.542	2918
778.648	2907
778.754	1618
778.860	2551
778.966	2953
779.072	2994
779.178	2944
779.284	2639
779.391	2446
779.497	1588
779.603	3557
779.708	1665
779.815	2676
779.920	4317
780.026	3701
780.132	2512
780.238	2342
780.344	2618
780.450	2757
780.556	3290
780.661	2001
780.767	2877
780.873	1925
780.979	2985
781.085	1934
781.190	2566
781.296	1755
781.402	1857
781.507	1904
781.613	2243
781.719	1537
781.824	2643
781.930	2333
782.035	2238
782.141	2283
782.246	2427
782.352	1497
782.457	1659
782.563	2718
782.668	2928
782.773	2210
782.879	2587
782.984	2990
783.090	3997
783.195	7610
783.300	4739
783.405	3112
783.511	2804
783.616	2805
783.721	3002
783.826	1813
783.932	3125
784.037	1947
784.142	2774
784.247	1473
784.352	2378
784.457	1663
784.562	1987
784.667	618
784.772	1567
784.877	2634
784.982	2380
785.087	2100
785.192	2448
785.297	2299
785.402	2110
785.507	1714
785.611	2552
785.716	2370
785.821	2505
785.926	1807
786.031	1973
786.135	1586
786.240	1587
786.345	1100
786.450	2770
786.554	2321
786.659	1206
786.763	706
786.868	1833
786.973	2431
787.077	1327
787.182	1230
787.286	1691
787.391	1892
787.495	1285
787.600	732
787.704	1787
787.809	1821
787.913	1776
788.017	1461
788.122	2538
788.226	1548
788.330	1278
788.435	1072
788.539	3037
788.643	1344
788.747	1503
788.852	537
788.956	1509
789.060	1103
789.164	2503
789.268	768
789.372	1934
789.476	908
789.580	1243
789.684	876
789.788	2290
789.892	1540
789.996	2310
790.100	1203
790.204	1529
790.308	1817
790.412	1522
790.516	1427
790.620	1254
790.724	1643
790.828	1728
790.931	1213
791.035	2742
791.139	741
791.242	1200
791.346	2311
791.450	1293
791.554	1064
791.657	634
791.761	1768
791.864	2600
791.968	1685
792.072	1933
792.175	1844
792.279	1715
792.382	2834
792.486	2146
792.589	1972
792.693	2084
792.796	755
792.899	1986
793.003	1508
793.106	548
793.209	978
793.313	2718
793.416	802
793.519	2910
793.623	5534
793.726	7939
793.829	2333
793.932	2146
794.035	840
794.138	2383
794.242	2520
794.345	2390
794.448	2783
794.551	6593
794.654	4978
794.757	3867
794.860	3004
794.963	2987
795.066	1074
795.169	2617
795.272	795
795.375	1606
795.477	765
795.580	1929
795.683	-85
795.786	1399
795.889	853
795.991	2132
796.094	3452
796.197	1991
796.300	2090
796.402	979
796.505	161
796.608	449
796.710	1771
796.813	1174
796.915	379
797.018	1739
797.120	1422
797.223	112
797.326	1756
797.428	970
797.530	833
797.633	1627
797.735	2987
797.838	5899
797.940	3810
798.042	655
798.145	633
798.247	1514
798.349	-688
798.452	1869
798.554	503
798.656	816
798.758	1307
798.860	1712
798.962	559
799.065	1536
799.167	-333
799.269	1989
799.371	1841
799.473	2476
799.575	1956
799.677	3785
799.779	4368
799.881	5790
799.983	3546
800.085	1225
800.187	890
800.289	1505
800.390	1163
800.492	815
800.594	1802
800.696	715
800.798	802
800.899	745
801.001	157
801.103	852
801.205	500
801.306	776
801.408	436
801.509	1061
801.611	1498
801.713	128
801.814	-300
801.916	401
802.017	239
802.119	29
802.220	1282
802.322	374
802.423	4247
802.525	1234
802.626	1167
802.727	1218
802.829	2124
802.930	-607
803.031	1884
803.133	750
803.234	175
803.335	689
803.436	340
803.538	456
803.639	263
803.740	252
803.841	699
803.942	777
804.043	588
804.144	198
804.245	420
804.346	-568
804.447	1184
804.548	2780
804.649	4049
804.750	813
804.851	420
804.952	368
805.053	533
805.154	305
805.255	1209
805.355	341
805.456	-15
805.557	502
805.658	-539
805.758	1372
805.859	155
805.960	997
806.061	-464
806.161	-173
806.262	-123
806.362	522
806.463	-4
806.564	1401
806.664	885
806.765	1959
806.865	1598
806.966	834
807.066	277
807.166	1132
807.267	1105
807.367	582
807.468	1032
807.568	-245
807.668	831
807.769	1082
807.869	139
807.969	1088
808.069	454
808.170	903
808.270	-53
808.370	899
808.470	2451
808.570	1647
808.670	98
808.770	9
808.870	-8
808.970	1404
809.070	-18
809.170	-542
809.271	909
809.370	431
809.470	958
809.570	-414
809.670	-151
809.770	211
809.870	446
809.970	399
810.070	-459
810.169	514
810.269	-795
810.369	1329
810.469	274
810.568	52
810.668	-193
810.768	-309
810.867	-238
810.967	489
811.066	-194
811.166	443
811.265	-430
811.365	-219
811.464	118
811.564	500
811.663	987
811.763	-1388
811.862	673
811.962	678
812.061	281
812.160	-403
812.260	669
812.359	537
812.458	499
812.557	1061
812.657	373
812.756	800
812.855	-163
812.954	448
813.053	905
813.153	623
813.252	-744
813.351	1214
813.450	288
813.549	328
813.648	488
813.747	-173
813.846	357
813.945	267
814.044	256
814.143	268
814.242	538
814.341	-563
814.439	474
814.538	873
814.637	303
814.736	-345
814.835	903
814.933	646
815.032	669
815.131	514
815.229	466
815.328	1469
815.427	301
815.525	1396
815.624	130
815.722	549
815.821	333
815.919	1146
816.018	34
816.116	1364
816.215	480
816.313	164
816.412	896
816.510	414
816.609	2395
816.707	1824
816.805	1135
816.904	1160
817.002	1465
817.100	1784
817.198	1729
817.296	1430
817.395	1219
817.493	2545
817.591	1836
817.689	1777
817.787	1506
817.885	4369
817.983	7782
818.081	18017
818.179	42840
818.277	112086
818.375	95685
818.473	24023
818.571	8331
818.669	6597
818.767	5590
818.865	5617
818.963	5892
819.061	8696
819.158	15458
819.256	36712
819.354	86156
819.452	207038
819.549	129398
819.647	31615
819.745	11933
819.842	7633
819.940	5562
820.038	3606
820.135	2770
820.233	3410
820.330	1732
820.428	1841
820.525	1999
820.623	1932
820.720	590
820.818	2389
820.915	1660
821.012	1469
821.110	396
821.207	2005
821.304	1168
821.402	2345
821.499	3745
821.596	2819
821.693	1965
821.791	3036
821.888	3124
821.985	9916
822.082	6610
822.179	3454
822.276	1978
822.373	1285
822.470	581
822.567	1400
822.664	-192
822.761	1451
822.858	528
822.955	1351
823.052	251
823.149	978
823.246	304
823.343	762
823.440	1122
823.536	898
823.633	711
823.730	466
823.827	1113
823.923	866
824.020	1902
824.117	1344
824.213	883
824.310	1157
824.407	-485
824.503	352
824.600	1086
824.696	1107
824.793	1310
824.889	-125
824.986	113
825.082	-148
825.179	961
825.275	989
825.371	114
825.468	1490
825.564	-193
825.660	953
825.757	712
825.853	1385
825.949	-100
826.045	366
826.142	703
826.238	-144
826.334	446
826.430	-16
826.526	286
826.622	278
826.718	868
826.814	683
826.910	883
827.006	8
827.102	-563
827.198	1131
827.294	113
827.390	585
827.486	657
827.582	-626
827.678	-177
827.774	82
827.869	-1005
827.965	957
828.061	296
828.157	-209
828.252	-21
828.348	-693
828.444	1073
828.539	-950
828.635	93
828.731	899
828.826	-141
828.922	794
829.017	10
829.113	587
829.208	-179
829.304	-107
829.399	1400
829.495	481
829.590	755
829.685	-84
829.781	501
829.876	368
829.971	-488
830.066	-9
830.162	163
830.257	787
830.352	-971
830.447	832
830.543	1629
830.638	-922
830.733	1139
830.828	-457
830.923	644
831.018	20
831.113	-22
831.208	143
831.303	-196
831.398	6
831.493	32
831.588	135
831.683	-573
831.778	537
831.873	-465
831.967	1476
832.062	-637
832.157	-983
832.252	932
832.346	356
832.441	1357
832.536	2972
832.631	6753
832.725	6256
832.820	-178
832.914	617
833.009	173
833.104	1122
833.198	2064
833.293	592
833.387	1079
833.482	1143
833.576	-626
833.670	1044
833.765	858
833.859	1072
833.954	875
834.048	260
834.142	-607
834.237	-1127
834.331	83
834.425	1032
834.519	-995
834.613	811
834.708	24
834.802	440
834.896	-687
834.990	-485
835.084	144
835.178	31
835.272	-110
835.366	-518
835.460	852
835.554	-214
835.648	819
835.742	-364
835.836	44
835.930	-639
836.024	198
836.117	1323
836.211	670
836.305	2747
836.399	3566
836.493	-152
836.586	457
836.680	305
836.774	-953
836.867	1390
836.961	-1049
837.055	-374
837.148	219
837.242	727
837.335	-756
837.429	579
837.522	1320
837.616	1563
837.709	3496
837.803	2355
837.896	1209
837.989	371
838.083	2693
838.176	6526
838.269	3788
838.363	334
838.456	14
838.549	2647
838.642	4215
838.735	9754
838.829	2866
838.922	558
839.015	-505
839.108	-256
839.201	600
839.294	353
839.387	223
839.480	33
839.573	1482
839.666	2168
839.759	-662
839.852	-554
839.945	201
840.038	-76
840.131	-79
840.223	462
840.316	400
840.409	-564
840.502	-1155
840.594	842
840.687	-1250
840.780	61
840.873	-1094
840.965	784
841.058	1460
841.150	5111
841.243	2717
841.336	643
841.428	-96
841.521	18
841.613	-266
841.706	1210
841.798	-270
841.890	217
841.983	-1212
842.075	1393
842.167	280
842.260	590
842.352	1831
842.444	3202
842.537	6002
842.629	10887
842.721	891
842.813	239
842.905	-589
842.997	-199
843.090	560
843.182	2560
843.274	5834
843.366	14964
843.458	28978
843.550	18120
843.642	2158
843.734	675
843.826	2109
843.918	3066
844.009	175
844.101	-68
844.193	-310
844.285	433
844.377	731
844.469	1573
844.560	1449
844.652	717
844.744	110
844.835	-308
844.927	555
845.019	1419
845.110	-86
845.202	830
845.293	-742
845.385	-873
845.476	-359
845.568	1207
845.659	-315
845.751	634
845.842	172
845.934	-473
846.025	-925
846.116	308
846.208	383
846.299	-443
846.390	-178
846.482	896
846.573	1155
846.664	1673
846.755	3142
846.846	3070
846.937	-789
847.029	-216
847.120	159
847.211	-614
847.302	280
847.393	-754
847.484	-184
847.575	-240
847.666	-183
847.757	84
847.847	-158
847.938	729
848.029	-46
848.120	-195
848.211	-129
848.302	-411
848.392	-1311
848.483	-56
848.574	-895
848.664	76
848.755	-149
848.846	498
848.936	-163
849.027	-5
849.118	526
849.208	164
849.299	1371
849.389	3434
849.480	7293
849.570	14067
849.661	27338
849.751	47253
849.841	14975
849.932	1109
850.022	-155
850.112	702
850.203	43
850.293	-192
850.383	-115
850.474	-968
850.564	-731
850.654	-208
850.744	-522
850.834	80
850.924	0
851.014	145
851.104	-569
851.194	914
851.284	553
851.374	2157
851.464	706
851.554	583
851.644	1041
851.734	1599
851.824	1191
851.914	-68
852.004	171
852.094	-464
852.183	-309
852.273	4
852.363	-478
852.452	270
852.542	78
852.632	668
852.721	-249
852.811	-360
852.901	89
852.990	-134
853.080	528
853.169	1205
853.259	261
853.348	265
853.438	1071
853.527	2543
853.617	3701
853.706	8386
853.795	15279
853.885	37000
853.974	71229
854.063	127418
854.152	200436
854.242	77852
854.331	12839
854.420	5468
854.509	3271
854.598	3003
854.687	2568
854.777	1953
854.866	650
854.955	302
855.044	147
855.133	259
855.222	-682
855.311	-194
855.400	727
855.488	443
855.577	-567
855.666	0
855.755	703
855.844	316
855.933	-234
856.021	30
856.110	1101
856.199	-332
856.288	-508
856.376	201
856.465	-264
856.554	513
856.642	-347
856.731	163
856.819	-252
856.908	11
856.996	-37
857.085	-52
857.173	-275
857.262	-752
857.350	-571
857.438	-666
857.527	-336
857.615	-538
857.703	-319
857.792	-814
857.880	-27
857.968	-452
858.056	-312
858.145	-363
858.233	-543
858.321	-601
858.409	-27
858.497	-642
858.585	-1183
858.673	250
858.761	-1136
858.849	545
858.937	-663
859.025	613
859.113	-467
859.201	-550
859.289	768
859.377	248
859.465	-793
859.552	34
859.640	-1182
859.728	-267
859.816	-742
859.903	306
859.991	-891
860.079	-553
860.166	-586
860.254	-882
860.342	-529
860.429	-382
860.517	-27
860.604	246
860.692	-511
860.779	-405
860.867	-1322
860.954	244
861.042	-257
861.129	774
861.216	-22
861.304	-796
861.391	-804
861.478	537
861.565	-403
861.653	875
861.740	-117
861.827	-465
861.914	-201
862.001	-46
862.089	-1047
862.176	188
862.263	-1309
862.350	-11
862.437	-992
862.524	-560
862.611	-562
862.698	395
862.785	-409
862.871	-70
862.958	-1105
863.045	-57
863.132	-713
863.219	-324
863.306	-1077
863.392	442
863.479	82
863.566	-46
863.652	-1163
863.739	-579
863.826	193
863.912	180
863.999	-787
864.086	-530
864.172	-526
864.259	-423
864.345	141
864.432	380
864.518	-744
864.604	-378
864.691	-1204
864.777	789
864.863	-225
864.950	333
865.036	-202
865.122	776
865.209	1279
865.295	820
865.381	1645
865.467	1676
865.553	2458
865.639	4382
865.726	8502
865.812	18260
865.898	38081
865.984	56782
866.070	104429
866.156	115123
866.242	29686
866.328	6437
866.414	2234
866.499	2320
866.585	1997
866.671	2434
866.757	952
866.843	1608
866.928	940
867.014	898
867.100	813
867.186	2389
867.271	1442
867.357	2598
867.442	3261
867.528	878
867.614	65
867.699	1459
867.785	1834
867.870	2403
867.956	1228
868.041	1823
868.127	1397
868.212	2705
868.297	1668
868.383	1759
868.468	1853
868.553	4713
868.639	5347
868.724	10902
868.809	8657
868.894	1651
868.979	216
869.065	372
869.150	-101
869.235	580
869.320	-149
869.405	433
869.490	-328
869.575	-745
869.660	175
869.745	1051
869.830	384
869.915	112
870.000	-499
870.085	512
870.169	294
870.254	401
870.339	101
870.424	-340
870.509	31
870.593	-68
870.678	495
870.763	-109
870.847	-907
870.932	68
871.016	251
871.101	-809
871.186	-332
871.270	393
871.355	-1035
871.439	143
871.523	-581
871.608	-334
871.692	94
871.777	-202
871.861	163
871.945	-585
872.030	-507
872.114	-411
872.198	-284
872.282	65
872.367	-589
872.451	-700
872.535	-1120
872.619	-219
872.703	-1536
872.787	-196
872.871	-871
872.955	-999
873.039	-1285
873.123	-457
873.207	-165
873.291	-1052
873.375	-339
873.459	360
873.543	-914
873.627	-434
873.711	-152
873.794	110
873.878	-108
873.962	-1025
874.045	68
874.129	-723
874.137	-715
874.213	-632
874.245	-666
874.296	-723
874.352	-986
874.380	-1113
874.460	-145
874.464	-108
874.547	98
874.568	119
874.631	176
874.676	-295
874.714	-681
874.784	-366
874.798	-302
874.881	1017
874.892	812
874.965	-610
874.999	-631
875.048	-696
875.107	-240
875.131	-32
875.215	-401
875.215	-400
875.298	-307
875.323	-373
875.381	-486
875.430	-74
875.465	150
875.538	-463
875.548	-526
875.631	67
875.646	-59
875.714	-765
875.753	-245
875.798	467
875.861	56
875.881	-122
875.964	-367
875.968	-355
876.047	-149
876.076	-52
876.130	176
876.183	-132
876.213	-288
876.291	1218
876.296	1314
876.379	-864
876.398	-623
876.462	316
876.506	487
876.545	554
876.613	-237
876.628	-406
876.711	-401
876.721	-312
876.794	447
876.828	253
876.877	-95
876.935	-386
876.960	-474
877.043	-607
877.043	-605
877.125	15
877.150	-185
877.208	-611
877.258	-320
877.291	-98
877.365	-288
877.374	-317
877.456	561
877.472	454
877.539	13
877.579	343
877.622	658
877.687	-66
877.704	-227
877.787	148
877.794	112
877.869	-413
877.901	-86
877.952	454
878.008	170
878.034	53
878.115	-32
878.117	-31
878.199	-299
878.222	-157
878.282	170
878.329	365
878.364	479
878.437	128
878.447	82
878.529	-507
878.544	-453
878.611	-193
878.651	-385
878.694	-511
878.758	18
878.776	158
878.858	101
878.865	139
878.941	369
878.972	101
879.023	-149
879.078	123
879.105	210
879.185	-3
879.187	1
879.269	684
879.292	631
879.351	160
879.399	-139
879.433	-289
879.506	136
879.516	208
879.598	9
879.613	24
879.680	-60
879.720	110
879.762	300
879.827	-471
879.844	-637
879.926	459
879.933	493
880.007	591
880.040	347
880.089	155
880.147	1034
880.171	1431
880.253	3153
880.254	3160
880.335	3504
880.360	3993
880.417	6000
880.467	9177
880.499	11070
880.574	13349
880.580	13317
880.662	3777
880.680	3001
880.744	1311
880.787	891
880.825	731
880.893	743
880.907	702
880.989	-258
881.000	-195
881.070	417
881.106	261
881.152	241
881.213	364
881.233	292
881.315	94
881.319	96
881.396	513
881.426	346
881.478	-304
881.532	-303
881.559	16
881.639	179
881.641	168
881.722	303
881.745	276
881.803	543
881.852	428
881.885	160
881.958	249
881.966	339
882.047	1420
882.064	1427
882.129	1124
882.171	1399
882.210	1857
882.277	2744
882.291	2789
882.372	1397
882.383	1281
882.454	798
882.489	786
882.535	559
882.596	22
882.616	53
882.697	134
882.702	183
882.778	274
882.808	-34
882.859	-226
882.914	118
882.940	291
883.020	188
883.021	188
883.102	-121
883.127	-91
883.183	-53
883.233	-263
883.264	-104
883.339	726
883.345	727
883.426	-10
883.445	-5
883.507	329
883.551	317
883.587	361
883.657	542
883.668	555
883.749	588
883.763	561
883.830	463
883.869	415
883.910	375
883.975	595
883.991	632
884.072	458
884.081	468
884.152	922
884.187	752
884.233	304
884.292	494
884.314	491
884.394	253
884.398	220
884.475	-189
884.504	-315
884.555	59
884.610	521
884.636	445
884.716	340
884.716	348
884.797	823
884.821	929
884.877	565
884.927	198
884.958	212
885.033	241
885.038	239
885.118	228
885.139	144
885.199	3
885.244	224
885.279	444
885.350	451
885.359	472
885.439	881
885.456	882
885.520	672
885.561	762
885.600	667
885.667	368
885.680	376
885.760	391
885.773	369
885.840	394
885.878	392
885.920	530
885.984	751
886.000	753
886.080	874
886.089	865
886.160	440
886.195	330
886.240	519
886.300	592
886.320	530
886.400	199
886.406	189
886.480	414
886.511	525
886.560	986
886.616	1242
886.640	1191
886.720	1106
886.722	1095
886.800	566
886.827	501
886.879	628
886.932	552
886.959	628
887.038	896
887.039	900
887.119	654
887.143	658
887.198	868
887.248	915
887.278	844
887.354	685
887.358	676
887.437	513
887.459	425
887.517	831
887.564	1160
887.596	1113
887.669	932
887.676	911
887.755	659
887.774	585
887.835	516
887.880	556
887.914	861
887.985	1250
887.994	1168
888.073	498
888.090	342
888.153	722
888.195	934
888.232	648
888.300	327
888.311	445
888.391	1040
888.405	1157
888.470	701
888.510	363
888.549	442
888.615	694
888.628	711
888.708	679
888.720	679
888.787	850
888.825	913
888.866	750
888.930	503
888.945	623
889.024	1212
889.035	1300
889.103	937
889.140	655
889.182	739
889.245	973
889.261	897
889.340	433
889.349	385
889.419	1441
889.454	1958
889.498	1237
889.559	217
889.577	411
889.656	1278
889.664	1362
889.735	1014
889.768	840
889.814	786
889.873	718
889.978	705
890.083	855
890.187	500
890.292	522
890.397	834
890.501	881
890.606	592
890.710	360
890.815	715
890.919	1148
891.024	-95
891.128	1237
891.233	658
891.337	36
891.442	734
891.546	350
891.650	341
891.755	740
891.859	1994
891.963	842
892.068	1293
892.172	1164
892.276	-606
892.380	678
892.484	790
892.589	382
892.693	961
892.797	-236
892.901	32
893.005	783
893.109	828
893.213	1191
893.317	939
893.421	921
893.525	482
893.629	1102
893.733	895
893.837	899
893.941	525
894.045	1819
894.148	980
894.252	1238
894.356	739
894.460	1731
894.564	156
894.667	552
894.771	116
894.875	271
894.978	41
895.082	589
895.186	136
895.289	189
895.393	382
895.496	1372
895.600	-66
895.703	670
895.807	-33
895.910	1300
896.014	850
896.117	578
896.221	985
896.324	-51
896.427	371
896.531	-70
896.634	294
896.737	650
896.840	280
896.944	1022
897.047	85
897.150	1224
897.253	403
897.356	554
897.460	-477
897.563	549
897.666	-191
897.769	1285
897.872	193
897.975	309
898.078	307
898.181	333
898.284	-18
898.387	708
898.490	1011
898.593	1006
898.695	17
898.798	1236
898.901	511
899.004	276
899.107	244
899.209	833
899.312	741
899.415	465
899.518	-121
899.620	394
899.723	711
899.826	1795
899.928	1913
900.031	335
900.133	622
900.236	419
900.338	-562
900.441	965
900.543	-467
900.646	620
900.748	434
900.851	473
900.953	307
901.055	626
901.158	627
901.260	-664
901.362	78
901.465	131
901.567	471
901.669	600
901.771	-686
901.873	-306
901.976	228
902.078	-341
902.180	-471
902.282	111
902.384	289
902.486	507
902.588	577
902.690	1266
902.792	14
902.894	643
902.996	359
903.098	717
903.200	47
903.302	511
903.404	-212
903.505	72
903.607	530
903.709	927
903.811	319
903.913	645
904.014	-257
904.116	402
904.218	-36
904.319	1250
904.421	1145
904.523	1752
904.624	-14
904.726	981
904.827	744
904.929	1002
905.030	37
905.132	885
905.233	483
905.335	622
905.436	-250
905.537	565
905.639	141
905.740	334
905.841	569
905.943	668
906.044	1653
906.145	704
906.247	-50
906.348	508
906.449	61
906.550	-446
906.651	435
906.752	685
906.854	-466
906.955	729
907.056	-518
907.157	147
907.258	-104
907.359	1228
907.460	-61
907.561	106
907.662	271
907.762	767
907.863	163
907.964	551
908.065	192
908.166	390
908.267	125
908.367	296
908.468	-154
908.569	422
908.670	401
908.770	771
908.871	1139
908.971	1515
909.072	1104
909.173	37
909.273	1
909.374	322
909.474	-405
909.575	155
909.675	742
909.776	877
909.876	-265
909.977	453
910.077	107
910.177	467
910.278	-799
910.378	708
910.478	-478
910.579	573
910.679	-130
910.779	1006
910.879	-33
910.980	128
911.080	111
911.180	429
911.280	357
911.380	409
911.480	-58
911.580	97
911.680	-16
911.780	87
911.880	346
911.980	-19
912.080	-316
912.180	66
912.280	442
912.380	-343
912.480	-72
912.580	-306
912.679	-999
912.779	227
912.879	-616
912.979	273
913.078	-414
913.178	159
913.278	-521
913.377	-149
913.477	-425
913.577	513
913.676	177
913.776	333
913.875	-351
913.975	114
914.074	-147
914.174	374
914.273	41
914.373	-19
914.472	-707
914.572	-366
914.671	-58
914.770	-573
914.870	-110
914.969	232
915.068	58
915.167	-143
915.267	-321
915.366	-144
915.465	-130
915.564	422
915.663	436
915.763	-315
915.862	322
915.961	135
916.060	-604
916.159	74
916.258	-502
916.357	458
916.456	-117
916.555	207
916.654	-373
916.752	602
916.851	-259
916.950	-107
917.049	-44
917.148	-11
917.247	-185
917.345	88
917.444	-315
917.543	429
917.642	-783
917.740	-62
917.839	-116
917.937	0
918.036	510
918.135	226
918.233	-399
918.332	407
918.430	-371
918.529	239
918.627	-837
918.726	-226
918.824	-371
918.923	474
919.021	552
919.119	79
919.218	-396
919.316	-73
919.414	-548
919.512	43
919.611	-124
919.709	775
919.807	-603
919.905	302
920.003	-95
920.102	-598
920.200	120
920.298	-105
920.396	-659
920.494	514
920.592	-201
920.690	323
920.788	800
920.886	-184
920.984	-190
921.082	562
921.180	-442
921.277	131
921.375	68
921.473	752
921.571	467
921.669	-118
921.766	-431
921.864	102
921.962	486
922.060	839
922.157	314
922.255	458
922.352	-240
922.450	1063
922.548	-613
922.645	141
922.743	172
922.840	1795
922.938	2382
923.035	2798
923.133	1665
923.230	1687
923.327	2122
923.425	2376
923.522	1612
923.619	1351
923.717	1680
923.814	2057
923.911	1269
924.008	1894
924.106	858
924.203	1013
924.300	988
924.397	1235
924.494	1705
924.591	2424
924.688	721
924.786	1646
924.883	-205
924.979	1551
925.077	1901
925.173	1395
925.270	1148
925.367	1522
925.464	1874
925.561	2242
925.658	1869
925.755	3166
925.852	2294
925.948	2460
926.045	2940
926.142	3455
926.239	2713
926.335	3077
926.432	2646
926.529	3396
926.625	3322
926.722	2197
926.818	992
926.915	1442
927.011	851
927.108	1105
927.204	911
927.301	663
927.397	1803
927.494	1542
927.590	1255
927.687	771
927.783	845
927.879	1347
927.976	684
928.072	2094
928.168	1726
928.264	1634
928.361	-213
928.457	2238
928.553	1079
928.649	1174
928.745	1403
928.841	1698
928.937	384
929.033	1381
929.129	832
929.225	-240
929.321	375
929.417	977
929.513	818
929.609	714
929.705	88
929.801	1081
929.897	203
929.993	139
930.089	603
930.184	638
930.280	549
930.376	1393
930.471	659
930.567	893
930.663	1177
930.758	294
930.854	331
930.950	1084
931.045	280
931.141	1121
931.236	572
931.332	647
931.427	284
931.523	1464
931.618	662
931.714	478
931.809	917
931.905	1894
932.000	-185
932.095	858
932.191	460
932.286	1176
932.381	758
932.476	443
932.572	443
932.667	531
932.762	518
932.857	434
932.952	820
933.047	324
933.142	-320
933.237	1103
933.332	372
933.427	710
933.522	-433
933.617	771
933.712	219
933.807	467
933.902	563
933.997	1075
934.092	823
934.187	1112
934.282	1572
934.376	458
934.471	422
934.566	-254
934.661	-249
934.755	536
934.850	383
934.945	544
935.039	333
935.134	1235
935.228	824
935.323	1658
935.417	816
935.512	665
935.606	-1074
935.701	752
935.795	769
935.890	-13
935.984	-342
936.079	537
936.173	250
936.267	138
936.362	-13
936.456	590
936.550	730
936.644	729
936.738	-55
936.833	487
936.927	945
937.021	914
937.115	-201
937.209	537
937.303	172
937.397	-98
937.491	327
937.585	516
937.679	-488
937.773	607
937.867	-704
937.961	50
938.055	-164
938.149	1241
938.243	-137
938.337	121
938.430	-838
938.524	2459
938.618	3876
938.712	1979
938.805	665
938.899	554
938.993	1030
939.086	1028
939.180	3064
939.274	4467
939.367	656
939.461	840
939.554	242
939.648	679
939.741	222
939.835	411
939.928	-398
940.022	747
940.115	-859
940.208	1216
940.302	75
940.395	500
940.488	-651
940.582	575
940.675	-553
940.768	296
940.861	-1162
940.954	527
941.048	-251
941.141	-24
941.234	-480
941.327	12
941.420	-116
941.513	245
941.606	-293
941.699	688
941.792	6
941.885	282
941.978	-253
942.071	-214
942.164	-1060
942.257	69
942.349	-190
942.442	148
942.535	-93
942.628	-265
942.721	-193
942.813	-704
942.906	273
942.999	89
943.091	121
943.184	307
943.277	-1015
943.369	70
943.462	-562
943.554	-376
943.647	-1019
943.739	723
943.832	-555
943.924	-386
944.017	-15
944.109	-1041
944.201	-222
944.294	325
944.386	-74
944.478	-489
944.571	-1054
944.663	-160
944.755	-249
944.847	108
944.940	-716
945.032	-17
945.124	-731
945.216	265
945.308	-622
945.400	932
945.492	-37
945.584	246
945.676	-495
945.768	206
945.860	-707
945.952	678
946.044	74
946.136	-47
946.228	-670
946.320	-377
946.412	-1065
946.503	866
946.595	545
946.687	-615
946.779	-1032
946.870	113
946.962	-794
947.054	-149
947.145	355
947.237	-160
947.329	-17
947.420	-62
947.512	-1284
947.603	-1051
947.695	-639
947.786	-1446
947.878	-595
947.969	-550
948.061	-1200
948.152	-183
948.243	-620
948.335	-290
948.426	-1450
948.517	-407
948.609	-856
948.700	-23
948.791	-782
948.882	-765
948.973	-267
949.065	-230
949.156	-460
949.247	-1583
949.338	-220
949.429	-760
949.520	-1108
949.611	-375
949.702	325
949.793	1
949.884	-1010
949.975	-696
950.066	-1304
950.157	-233
950.247	-1296
950.338	-691
950.429	-131
950.520	-630
950.611	-944
950.701	258
950.792	43
950.883	-16
950.973	-910
951.064	-177
951.155	-137
951.245	875
951.336	-752
951.427	-895
951.517	537
951.608	620
951.698	-497
951.788	-256
951.879	-293
951.969	-746
952.060	-1173
952.150	-1354
952.240	-328
952.331	-1892
952.421	-96
952.511	-943
952.602	-215
952.692	-1328
952.782	-323
952.872	-869
952.962	-644
953.052	-791
953.143	-1843
953.233	-460
953.323	-1055
953.413	23
953.503	-854
953.593	-157
953.683	-580
953.773	-1248
953.863	-1019
953.953	-558
954.042	-1213
954.132	-586
954.222	-126
954.312	-522
954.402	-1136
954.492	-100
954.581	1395
954.671	65
954.761	-1402
954.850	1025
954.940	-1490
955.030	-477
955.119	-1594
955.209	135
955.298	-1452
955.388	-537
955.477	782
955.567	-1433
955.656	-559
955.746	-463
955.835	-1306
955.925	-1531
956.014	-359
956.103	-602
956.193	-944
956.282	-676
956.371	-822
956.461	-635
956.550	-1595
956.639	-166
956.728	-1854
956.817	-939
956.906	-661
956.995	332
957.085	-677
957.174	-600
957.263	-655
957.352	-468
957.441	-503
957.530	-280
957.619	-958
957.708	-790
957.796	-803
957.885	139
957.974	-1496
958.063	-607
958.152	-2273
958.241	-546
958.329	-632
958.418	-1026
958.507	-653
958.596	73
958.684	-1885
958.773	-471
958.861	-1003
958.950	-511
959.039	-1166
959.127	-924
959.216	-1223
959.304	-890
959.393	-669
959.481	0
959.570	-656
959.658	-592
959.746	-977
959.835	624
959.923	2118
960.011	729
960.100	-746
960.188	-507
960.276	-1717
960.365	-706
960.453	-1771
960.541	-1068
960.629	-1177
960.717	-1161
960.805	-1252
960.893	-985
960.981	-839
961.069	84
961.158	-784
961.245	-291
961.333	-895
961.421	-1114
961.509	-872
961.597	-864
961.685	-669
961.773	-837
961.861	-1296
961.949	-339
962.036	-1356
962.124	82
962.212	-1070
962.299	-1407
962.387	-1638
962.475	-768
962.562	-2081
962.650	-421
962.738	-362
962.825	-1413
962.913	-1046
963.000	-693
963.088	-1177
963.175	251
963.263	-1113
963.350	-1363
963.438	-293
963.525	176
963.612	899
963.700	4258
963.787	13636
963.874	6695
963.962	-353
964.049	-887
964.136	-1477
964.223	-988
964.310	-846
964.398	-759
964.485	-674
964.572	-290
964.659	1388
964.746	1429
964.833	-711
964.920	-872
965.007	-512
965.094	-794
965.181	-1494
965.268	177
965.355	-1320
965.441	-1074
965.528	-1608
965.615	-18
965.702	-646
965.789	-1669
965.875	-333
965.962	-1362
966.049	-1168
966.136	56
966.222	-1553
966.309	-1057
966.395	-1400
966.482	-597
966.569	-483
966.655	-1156
966.742	-1395
966.828	-413
966.915	-1097
967.001	296
967.087	-1222
967.174	-1142
967.260	-76
967.347	867
967.433	3255
967.519	10339
967.605	2294
967.692	-804
967.778	-1147
967.864	-251
967.950	-1411
968.036	-1800
968.123	-703
968.209	-1044
968.295	-1168
968.381	-143
968.467	-720
968.553	-2277
968.639	-358
968.725	-1349
968.811	793
968.897	1372
968.983	-1153
969.069	-792
969.154	-1392
969.240	440
969.326	-1435
969.412	-976
969.497	-995
969.583	-1070
969.669	-302
969.755	-1158
969.840	-1065
969.926	-286
970.012	-1252
970.097	18
970.183	-394
970.268	-249
970.354	610
970.439	792
970.525	5439
970.610	882
970.696	-322
970.781	-435
970.866	-690
970.952	-64
971.037	-1412
971.122	-1112
971.208	-1017
971.293	-623
971.378	-1771
971.463	-276
971.549	-1920
971.634	-276
971.719	-1111
971.804	187
971.889	206
971.974	-1154
972.059	-570
972.144	-936
972.229	-768
972.314	-725
972.399	-350
972.484	-1287
972.569	-374
972.654	-473
972.739	1530
972.824	2359
972.908	-863
972.993	-1159
973.078	-713
973.163	-1048
973.247	-685
973.332	-2508
973.417	-771
973.501	-1386
973.586	-3
973.671	-968
973.755	-998
973.840	-456
973.924	-623
974.009	-535
974.093	-1890
974.178	284
974.262	194
974.346	1422
974.431	-163
974.515	-436
974.600	-941
974.684	-446
974.768	-2314
974.852	32
974.937	-2420
975.021	-486
975.105	-1292
975.189	-1310
975.273	-1105
975.358	-1196
975.442	-1707
975.526	-608
975.610	-1506
975.694	-2142
975.778	-879
975.862	-810
975.946	-2208
976.030	1344
976.114	-1529
976.198	-1049
976.281	-949
976.365	-33
976.449	-1683
976.533	-944
976.617	-2502
976.700	-1296
976.784	-1046
976.868	-1085
976.951	462
977.035	5
977.119	-883
977.202	-611
977.286	-1625
977.369	-362
977.453	-768
977.536	-888
977.620	-1943
977.703	-697
977.787	-1564
977.870	-510
977.953	-757
978.037	-1326
978.120	-173
978.203	1321
978.287	2736
978.370	176
978.453	-1301
978.536	-1226
978.620	-220
978.703	1070
978.786	-298
978.869	-1590
978.952	-2206
979.035	76
979.118	-736
979.201	-1310
979.284	-685
979.367	-1074
979.450	-787
979.533	-1548
979.616	-1562
979.699	-738
979.782	-144
979.865	-887
979.948	-1865
980.030	-1237
980.113	-1616
980.196	-1898
980.279	-502
980.361	-975
980.444	-1920
980.526	-1236
980.609	-1102
980.692	-1151
980.774	-492
980.857	-2267
980.939	-1146
981.022	-833
981.104	-1439
981.187	-995
981.269	-829
981.352	-1360
981.434	-1722
981.516	-1162
981.599	-1020
981.681	-152
981.763	-1259
981.846	-450
981.928	-1733
982.010	-912
982.092	-1807
982.174	-38
982.256	-1504
982.339	-1509
982.421	-1449
982.503	-1266
982.585	-2312
982.667	-1416
982.749	-1103
982.831	-682
982.913	-2036
982.995	-550
983.077	-1814
983.158	98
983.240	-1353
983.322	-478
983.404	-830
983.486	-1363
983.568	-839
983.649	-1041
983.731	-239
983.813	-1308
983.894	-665
983.976	-1208
984.058	-1030
984.139	435
984.221	-2109
984.302	-141
984.384	-1457
984.465	-1214
984.547	-563
984.628	-1217
984.710	-640
984.791	-778
984.872	-1090
984.954	-1325
985.035	-1185
985.116	-847
985.198	-1000
985.279	-217
985.360	-2169
985.441	-1174
985.522	-1544
985.604	-1440
985.685	-2612
985.766	-376
985.847	-748
985.928	-707
986.009	-1025
986.090	-952
986.171	-388
986.252	-1508
986.333	-650
986.414	-1479
986.495	-952
986.576	-1382
986.656	-1699
986.737	-1044
986.818	-1077
986.899	-876
986.980	-1151
987.060	-705
987.141	-1294
987.222	-421
987.302	-781
987.383	-70
987.464	-1676
987.544	-539
987.625	-946
987.705	874
987.786	-1389
987.866	-201
987.947	-1439
988.027	-600
988.108	-1586
988.188	-896
988.268	-1392
988.349	-449
988.429	-1620
988.509	-921
988.589	-1307
988.670	-2542
988.750	-39
988.830	-633
988.910	-482
988.990	-649
989.070	-1164
989.151	-745
989.231	-1675
989.311	-553
989.391	-2172
989.471	-819
989.551	-1562
989.631	-1338
989.711	-1287
989.791	-1258
989.870	-1073
989.950	-376
990.030	-1230
990.110	-824
990.190	-1660
990.269	-756
990.349	-1332
990.429	-625
990.509	-668
990.588	-1083
990.668	-754
990.747	-1283
990.827	-1349
990.907	-682
990.986	-1542
991.066	-144
991.145	-1421
991.225	-83
991.304	-787
991.383	-1381
991.463	-1508
991.542	-887
991.622	-1715
991.701	-1154
991.780	-1610
991.859	-1266
991.939	-1582
992.018	-1229
992.097	-1126
992.176	-1606
992.256	-1092
992.335	-1870
992.414	-611
992.493	-1026
992.572	-1006
992.651	237
992.730	-1461
992.809	-570
992.888	-1947
992.967	-1286
993.046	-1261
993.125	-1871
993.203	-979
993.282	-433
993.361	-1660
993.440	-1723
993.519	-2325
993.597	-1444
993.676	-2540
993.755	-886
993.834	-1808
993.912	-2189
993.991	-323
994.069	-969
994.148	-1885
994.226	-1291
994.305	-800
994.384	-1451
994.462	-531
994.540	-1815
994.619	-1490
994.697	-246
994.776	-2155
994.854	-807
994.932	-1283
995.011	-915
995.089	-1693
995.167	-1143
995.245	-1660
995.324	-1677
995.402	-1013
995.480	-2348
995.558	-1422
995.636	-1584
995.714	-1719
995.792	-262
995.870	-2408
995.948	-461
996.026	-603
996.104	-1503
996.182	-1084
996.260	-1556
996.338	-1345
996.416	-2048
996.494	-2282
996.572	-900
996.649	-1957
996.727	-2067
996.805	-1008
996.883	-1293
996.960	-1385
997.038	-603
997.116	-2288
997.193	-1525
997.271	-1267
997.348	-1832
997.426	-1647
997.504	-2081
997.581	-1082
997.658	-1161
997.736	-2023
997.813	-2232
997.891	-805
997.968	-2350
998.046	-1664
998.123	-825
998.200	-1458
998.277	-1428
998.355	-979
998.432	-2850
998.509	-1518
998.586	-1753
998.663	-1740
998.741	-1570
998.818	-1699
998.895	-1567
998.972	-1330
999.049	-1793
999.126	-1998
999.203	-737
999.280	-1692
999.357	-1285
999.434	-2366
999.511	-2213
999.587	-1462
999.664	-1492
999.741	-1620
999.818	-915
999.895	-1948
999.971	-1485
1000.048	-1516
1000.125	-209
1000.202	-2090
1000.278	-1137
1000.355	-1262
1000.431	-695
1000.508	-2230
1000.584	-1080
1000.661	-1376
1000.738	-1877
1000.814	-1751
1000.890	-728
1000.967	-1575
1001.043	-1474
1001.120	-1683
1001.196	-1002
1001.272	-2933
1001.349	-1189
1001.425	-1443
1001.501	-1606
1001.577	-2248
1001.654	228
1001.730	-1855
1001.806	-1584
1001.882	-2169
1001.958	-1478
1002.034	-1509
1002.110	-1252
1002.186	-2615
1002.262	-1591
1002.338	-2275
1002.414	-1078
1002.490	-951
1002.566	-1539
1002.642	-2154
1002.718	-1096
1002.794	-1483
1002.870	-2292
1002.945	-2465
1003.021	-1195
1003.097	-1915
1003.173	-486
1003.248	-2875
1003.324	-1658
1003.400	-1867
1003.475	-2441
1003.551	-907
1003.626	-1518
1003.702	-1821
1003.777	-1426
1003.853	-1957
1003.928	-1727
1004.004	-2089
1004.079	-1786
1004.155	-2094
1004.230	-3099
1004.305	-890
1004.381	-2204
1004.456	-1852
1004.531	-1633
1004.607	-1293
1004.682	-1577
1004.757	-1931
1004.832	-1640
1004.907	-2342
1004.982	-1980
1005.057	-1275
1005.133	-2001
1005.208	-2425
1005.283	-1894
1005.358	-1576
1005.433	-2100
1005.508	-2213
1005.583	-2277
1005.657	-2087
1005.732	-1344
1005.807	-2609
1005.882	-1745
1005.957	-2108
1006.032	-895
1006.106	-1721
1006.181	-2074
1006.256	-2213
1006.331	-2344
1006.405	-2880
1006.480	-1346
1006.554	-2439
1006.629	-688
1006.704	-2465
1006.778	-940
1006.853	-1295
1006.927	-1696
1007.002	-1531
1007.076	-1162
1007.150	-2163
1007.225	-1836
1007.299	-1479
1007.373	-2596
1007.448	-1564
1007.522	-1005
1007.596	-1456
1007.671	-1583
1007.745	-1742
1007.819	-2787
1007.893	-1384
1007.967	-866
1008.041	-3032
1008.115	-998
1008.190	-2957
1008.264	-1509
1008.338	-3199
1008.412	-2022
1008.486	-1983
1008.560	-1856
1008.633	-2625
1008.707	-1974
1008.781	-1851
1008.855	-2312
1008.929	-1973
1009.003	-1734
1009.076	-2924
1009.150	-2093
1009.224	-1612
1009.298	-1720
1009.371	-3151
1009.445	-1172
1009.519	-2615
1009.592	-2009
1009.666	-1559
1009.739	-2069
1009.813	-2619
1009.886	-1238
1009.960	-3073
1010.033	-1326
1010.107	-1600
1010.180	-2286
1010.253	-1429
1010.327	-1028
1010.400	-2357
1010.473	-1566
1010.547	-849
1010.620	-1420
1010.693	-1706
1010.766	-1451
1010.840	-1420
1010.913	-1435
1010.986	-2532
1011.059	-1623
1011.132	-2517
1011.205	-467
1011.278	-1483
1011.351	-2241
1011.424	-1736
1011.497	-1998
1011.570	-2312
1011.643	-1578
1011.716	-2730
1011.789	-2594
1011.862	-1241
1011.934	-1345
1012.007	-2379
1012.080	-1784
1012.153	-2355
1012.225	-904
1012.298	-2182
1012.371	-2039
1012.443	-1856
1012.516	-2224
1012.588	-1309
1012.661	-1826
1012.733	-2004
1012.806	-944
1012.879	-2342
1012.951	-1347
1013.023	-1707
1013.096	-1324
1013.168	-2293
1013.241	-1223
1013.313	-2172
1013.385	-2505
1013.458	-2469
1013.530	-1360
1013.602	-2945
1013.674	-1004
1013.746	-3432
1013.819	-1702
1013.891	-2076
1013.963	-2201
1014.035	-2390
1014.107	-1809
1014.179	-2098
1014.251	-1705
1014.323	-1604
1014.395	-1764
1014.467	-2594
1014.539	-1470
1014.611	-1919
1014.683	-1889
1014.754	-1914
1014.826	-2929
1014.898	-1576
1014.970	-1757
1015.042	-1314
1015.113	-1313
1015.185	-2310
1015.257	-2850
1015.328	-2002
1015.400	-1494
1015.471	-2820
1015.543	-2090
1015.615	-2156
1015.686	-1170
1015.757	-2281
1015.829	-1142
1015.901	-2259
1015.972	-1889
1016.043	-2431
1016.115	-1125
1016.186	-1809
1016.257	-1446
1016.328	-2462
1016.400	-1543
1016.471	-2679
1016.542	-2168
1016.613	-1879
1016.685	-954
1016.756	-2035
1016.827	-1603
1016.898	-2125
1016.969	-925
1017.040	-2170
1017.111	-1747
1017.182	-2176
1017.253	-1907
1017.324	-2209
1017.395	-2163
1017.466	-1987
1017.537	-2165
1017.608	-2441
1017.678	-1209
1017.749	-1632
1017.820	-1268
1017.891	-2631
1017.961	-993
1018.032	-1801
1018.103	-1649
1018.173	-1718
1018.244	-1794
1018.315	-2339
1018.385	-1303
1018.456	-2327
1018.526	-2273
1018.597	-2439
1018.667	-1867
1018.738	-2225
1018.808	-1424
1018.878	-2648
1018.949	-978
1019.019	-2116
1019.089	-1623
1019.160	-2092
1019.230	-2195
1019.300	-2285
1019.371	-1882
1019.441	-2028
1019.511	-1310
1019.581	-2483
1019.651	-1355
1019.721	-2197
1019.791	-2190
1019.861	-1672
1019.931	-1452
1020.001	-2317
1020.071	-1925
1020.141	-1532
1020.211	-1497
1020.281	-2650
1020.351	-2416
1020.421	-1355
1020.491	-1212
1020.560	-1934
1020.630	-1062
1020.700	-1330
1020.770	-1910
1020.839	-2608
1020.909	-1399
1020.979	-1905
1021.048	-1974
1021.118	-1651
1021.187	-1412
1021.257	-1915
1021.326	-1480
1021.396	-2571
1021.465	-1178
1021.535	-2485
1021.604	-2458
1021.674	-2140
1021.743	-905
1021.812	-2413
1021.882	-1643
1021.951	-1794
1022.020	-2093
1022.089	-1826
1022.159	-1352
1022.228	-2062
1022.297	-1875
1022.366	-2356
1022.435	-1978
1022.504	-1375
1022.573	-1039
1022.642	-1732
1022.711	-1398
1022.781	-2055
1022.849	-1226
1022.918	-2051
1022.987	-1376
1023.056	-2007
1023.125	-1628
1023.194	-1632
1023.263	-1605
1023.331	-1927
1023.400	-1778
1023.469	-2037
1023.538	-1597
1023.606	-1705
1023.675	-2507
1023.744	-1985
1023.812	-2114
1023.881	-1394
1023.949	-1593
1024.018	-2152
1024.086	-1608
1024.155	-1874
1024.223	-1396
1024.292	-1812
1024.360	-1653
1024.429	-2463
1024.497	-2138
1024.565	-1547
1024.634	-1976
1024.702	-1876
1024.770	-993
1024.838	-2853
1024.907	-1687
1024.975	-2210
1025.043	-1377
1025.111	-2657
1025.179	-1317
1025.247	-1694
1025.315	-1444
1025.383	-2023
1025.451	-1405
1025.519	-1446
1025.587	-1639
1025.655	-1979
1025.723	-1081
1025.791	-2066
1025.859	-1300
1025.927	-2449
1025.995	-2217
1026.062	-2044
1026.130	-1576
1026.198	-2500
1026.266	-1317
1026.333	-1517
1026.401	-1372
1026.469	-1997
1026.536	-1357
1026.604	-2550
1026.671	-1664
1026.739	-2497
1026.806	-1662
1026.874	-2046
1026.941	-2238
1027.009	-2304
1027.076	-2299
1027.144	-1484
1027.211	-2254
1027.278	-2361
1027.345	-1902
1027.413	-2120
1027.480	-1600
1027.547	-2170
1027.614	-1698
1027.682	-1109
1027.749	-1268
1027.816	-1669
1027.883	-1637
1027.950	-1164
1028.017	-2153
1028.084	-1776
1028.151	-1520
1028.218	-2114
1028.285	-1109
1028.352	-2492
1028.419	-1396
1028.486	-2212
1028.553	-1576
1028.619	-2664
1028.686	-1569
1028.753	-2136
1028.820	-1937
1028.886	-2758
1028.953	-1350
1029.020	-2202
1029.086	-2067
1029.153	-2255
1029.220	-1877
1029.286	-1959
1029.353	-551
1029.419	-2708
1029.486	-1385
1029.552	-1901
1029.619	-1917
1029.685	-2873
1029.751	-1834
1029.818	-1206
1029.884	-1803
1029.951	-1797
1030.017	-1049
1030.083	-2354
1030.149	-1502
1030.216	-2226
1030.282	-1056
1030.348	-1785
1030.414	-2435
1030.480	-1857
1030.546	-1666
1030.612	-1487
1030.678	-2418
1030.744	-2092
1030.810	-1981
1030.876	-2009
1030.942	-1157
1031.008	-2176
1031.074	-1964
1031.140	-1832
1031.206	-670
1031.272	-2581
1031.337	-2079
1031.403	-1749
1031.469	-1448
1031.534	-1975
1031.600	-1806
1031.666	-3289
1031.731	-1925
1031.797	-2419
1031.863	-1508
1031.928	-2715
1031.994	-2424
1032.059	-2118
1032.125	-1606
1032.190	-1974
1032.256	-2147
1032.321	-2791
1032.386	-2078
1032.452	-2803
1032.517	-2484
1032.582	-1793
1032.647	-1965
1032.713	-2203
1032.778	-1294
1032.843	-2235
1032.908	-1668
1032.974	-1666
1033.039	-2428
1033.104	-2147
1033.169	-1799
1033.234	-2255
1033.299	-1042
1033.364	-1504
1033.429	-1948
1033.494	-1502
1033.559	-1214
1033.624	-2456
1033.688	-1928
1033.753	-2095
1033.818	-1921
1033.883	-1804
1033.948	-1928
1034.013	-2293
1034.077	-1515
1034.142	-1393
1034.207	-1436
1034.271	-1280
1034.336	-268
1034.400	-1926
1034.465	-1544
1034.530	-1217
1034.594	-1874
1034.658	-2091
1034.723	-1864
1034.787	-2137
1034.852	-1846
1034.916	-1766
1034.981	-2077
1035.045	-1584
1035.109	-1459
1035.173	-1479
1035.238	-1400
1035.302	-1456
1035.366	-1762
1035.430	-2450
1035.495	-1598
1035.559	-1733
1035.623	-1236
1035.687	-2417
1035.751	-2146
1035.815	-1644
1035.879	-1837
1035.943	-2147
1036.007	-1923
1036.071	-1693
1036.135	-1494
1036.198	-2811
1036.262	-1800
1036.326	-2506
1036.390	-1145
1036.454	-2032
1036.517	-718
1036.581	-2048
1036.645	-771
1036.709	-2505
1036.772	-1868
1036.836	-1784
1036.900	-1171
1036.963	-2283
1037.026	-1837
1037.090	-1387
1037.154	-1848
1037.217	-2570
1037.280	-1217
1037.344	-2197
1037.407	-2156
1037.471	-2366
1037.534	-1936
1037.597	-1832
1037.661	-1938
1037.724	-1650
1037.787	-1527
1037.850	-1992
1037.913	-2029
1037.977	-1529
1038.040	-1312
1038.103	-2235
1038.166	-1759
1038.229	-2209
1038.292	-1921
1038.355	-2079
1038.418	-1752
1038.481	-1656
1038.544	-1682
1038.607	-1903
1038.670	-1877
1038.732	-1981
1038.795	-1885
1038.858	-1863
1038.921	-1712
1038.984	-1814
1039.046	-2253
1039.109	-1880
1039.172	-1238
1039.234	-2056
1039.297	-1202
1039.360	-2102
1039.422	-1621
1039.485	-1514
1039.547	-1619
1039.610	-1623
1039.672	-2235
1039.734	-2134
1039.797	-1818
1039.859	-1591
1039.922	-1074
1039.984	-1839
1040.046	-1370
1040.109	-2383
1040.171	-2415
1040.233	-1738
1040.295	-1516
1040.358	-2303
1040.420	-991
1040.482	-1748
1040.544	-1753
1040.606	-1861
1040.668	-1207
1040.730	-2026
1040.792	-1884
1040.854	-2474
1040.916	-1848
1040.978	-1434
1041.040	-1202
1041.102	-2695
1041.164	-2146
1041.225	-2550
1041.287	-1887
1041.349	-1931
1041.411	-1180
1041.472	-1643
1041.534	-1127
1041.596	-2714
1041.657	-1252
1041.719	-2146
1041.781	-1380
1041.842	-1540
1041.904	-1193
1041.965	-2008
1042.027	-872
1042.088	-1397
1042.150	-954
1042.211	-2023
1042.272	-949
1042.334	-1398
1042.395	-1775
1042.456	-2173
1042.518	-1675
1042.579	-1488
1042.640	-2091
1042.701	-1773
1042.763	-959
1042.824	-2282
1042.885	-2185
1042.946	-1694
1043.007	-1064
1043.068	-2223
1043.129	-1305
1043.190	-1730
1043.251	-950
1043.312	-1674
1043.373	-1341
1043.434	-2616
1043.495	-1211
1043.556	-1793
1043.616	-833
1043.677	-1680
1043.738	-2421
1043.799	-1136
1043.859	-1516
1043.920	-2171
1043.981	-1511
1044.041	-2216
1044.102	-1926
1044.162	-1713
1044.223	-1383
1044.284	-1335
1044.344	-1539
1044.405	-1660
1044.465	-1162
1044.525	-2150
1044.586	-1348
1044.646	-1253
1044.707	-716
1044.767	-1514
1044.827	-1426
1044.887	-2174
1044.948	-1200
1045.008	-1015
1045.068	-875
1045.128	-2303
1045.188	-1017
1045.249	-524
1045.309	-1738
1045.369	-1526
1045.429	-1624
1045.489	-1934
1045.549	-1302
1045.609	-1637
1045.669	-1257
1045.729	-1043
1045.789	-1464
1045.848	-2029
1045.908	-769
1045.968	-1335
1046.028	-1433
1046.088	-1724
1046.147	-452
1046.207	-1112
1046.267	-255
1046.326	-1619
1046.386	-1296
1046.446	-583
1046.505	-1445
1046.565	-1457
1046.624	-368
1046.684	-655
1046.743	-119
1046.803	-982
1046.862	479
1046.922	0
