'Start Wavelength	183.907
'End Wavelength	1046.922
'Gate Delay	5.000
'Gate Width (ms)	1.050
'Laser Output Level	0.000
'X Position	0.000
'Y Position	0.000
'Z Position	0.000
'Grid Point Number	1.000
'Shot Number	100.000
183.907	591.000
183.977	-479.000
184.047	226
184.116	94
184.186	179
184.256	327
184.325	-285
184.395	-105
184.465	440
184.534	-229
184.604	-14
184.674	568
184.743	86
184.813	591
184.883	-336
184.952	47
185.022	35
185.092	466
185.161	-203
185.231	-158
185.301	-189
185.370	290
185.440	-411
185.509	-506
185.579	182
185.649	58
185.718	790
185.788	290
185.857	495
185.927	351
185.996	169
186.066	-267
186.136	-217
186.205	99
186.275	191
186.344	-328
186.414	176
186.483	-666
186.553	1680
186.622	57
186.692	526
186.761	86
186.831	461
186.900	522
186.970	517
187.039	436
187.109	1174
187.178	-514
187.248	-40
187.317	467
187.387	271
187.456	906
187.526	561
187.595	879
187.664	386
187.734	-479
187.803	218
187.873	136
187.942	27
188.012	242
188.081	-304
188.150	-206
188.220	876
188.289	601
188.358	720
188.428	943
188.497	-73
188.567	570
188.636	-118
188.705	444
188.775	66
188.844	-274
188.913	795
188.983	127
189.052	632
189.121	879
189.191	-356
189.260	-251
189.329	671
189.399	41
189.468	1288
189.537	323
189.606	624
189.676	56
189.745	888
189.814	498
189.883	162
189.953	60
190.022	664
190.091	889
190.161	1537
190.230	866
190.299	486
190.368	-77
190.437	733
190.507	-304
190.576	-202
190.645	25
190.714	617
190.783	76
190.853	552
190.922	344
190.991	723
191.060	547
191.129	-367
191.198	1197
191.268	799
191.337	479
191.406	914
191.475	541
191.544	290
191.613	-2
191.682	715
191.752	329
191.821	227
191.890	599
191.959	537
192.028	-257
192.097	349
192.166	509
192.235	165
192.304	811
192.373	437
192.442	34
192.511	133
192.580	204
192.650	287
192.719	487
192.788	-278
192.857	63
192.926	43
192.995	717
193.064	33
193.133	221
193.202	156
193.271	300
193.340	509
193.409	1225
193.478	618
193.547	-163
193.615	782
193.684	1305
193.753	1120
193.822	43
193.891	220
193.960	-196
194.029	256
194.098	480
194.167	495
194.236	677
194.305	-382
194.374	179
194.443	158
194.512	858
194.580	668
194.649	707
194.718	485
194.787	160
194.856	-802
194.925	646
194.994	722
195.062	997
195.131	939
195.200	382
195.269	1007
195.338	444
195.407	1217
195.475	473
195.544	911
195.613	883
195.682	465
195.751	190
195.819	710
195.888	941
195.957	1533
196.026	597
196.094	693
196.163	720
196.232	1705
196.301	293
196.369	1467
196.438	56
196.507	718
196.576	156
196.644	787
196.713	567
196.782	292
196.850	774
196.919	-87
196.988	345
197.056	303
197.125	471
197.194	856
197.262	144
197.331	-31
197.400	-227
197.468	411
197.537	-210
197.606	812
197.674	710
197.743	2356
197.812	707
197.880	1145
197.949	956
198.017	1869
198.086	1272
198.155	939
198.223	1376
198.292	1668
198.360	248
198.429	618
198.497	176
198.566	1031
198.635	1991
198.703	829
198.772	1110
198.840	1548
198.909	1320
198.977	753
199.046	-432
199.114	1099
199.183	1038
199.251	344
199.320	-54
199.388	577
199.457	111
199.525	744
199.594	158
199.662	441
199.731	610
199.799	900
199.867	216
199.936	194
200.004	1145
200.073	-423
200.141	274
200.210	113
200.278	112
200.346	187
200.415	524
200.483	1413
200.552	1103
200.620	-3
200.688	888
200.757	200
200.825	488
200.893	851
200.962	-400
201.030	-184
201.098	-70
201.167	974
201.235	-145
201.303	1096
201.372	996
201.440	652
201.508	870
201.577	209
201.645	55
201.713	912
201.781	896
201.850	1341
201.918	574
201.986	1031
202.055	747
202.123	627
202.191	152
202.259	581
202.327	1114
202.396	607
202.464	409
202.532	846
202.600	3688
202.669	2124
202.737	828
202.805	680
202.873	523
202.941	1199
203.009	363
203.078	119
203.146	692
203.214	-162
203.282	-478
203.350	78
203.418	525
203.487	1227
203.555	-211
203.623	525
203.691	-8
203.759	-382
203.827	194
203.895	477
203.963	673
204.031	-58
204.099	896
204.168	863
204.236	871
204.304	962
204.372	44
204.440	487
204.508	376
204.576	272
204.644	64
204.712	199
204.780	404
204.848	974
204.916	-112
204.984	771
205.052	718
205.120	578
205.188	764
205.256	313
205.324	36
205.392	-103
205.460	570
205.528	302
205.596	228
205.664	254
205.732	-666
205.799	2156
205.867	3328
205.935	714
206.003	995
206.071	348
206.139	864
206.207	73
206.275	899
206.343	572
206.411	930
206.478	675
206.546	273
206.614	-234
206.682	92
206.750	1071
206.818	1055
206.885	1563
206.953	-482
207.021	1372
207.089	966
207.157	418
207.225	297
207.292	926
207.360	809
207.428	292
207.496	384
207.563	650
207.631	531
207.699	372
207.767	284
207.834	468
207.902	270
207.970	-66
208.038	254
208.105	530
208.173	846
208.241	428
208.309	1300
208.376	1477
208.444	1728
208.512	763
208.579	-202
208.647	1628
208.715	1336
208.782	130
208.850	362
208.918	323
208.985	999
209.053	901
209.120	1022
209.188	130
209.256	533
209.323	627
209.391	901
209.459	2692
209.526	1419
209.594	646
209.661	85
209.729	1052
209.796	741
209.864	1201
209.932	-337
209.999	1377
210.067	1388
210.134	422
210.202	500
210.269	1678
210.337	1133
210.404	739
210.472	1236
210.539	1165
210.607	968
210.674	979
210.742	1135
210.809	903
210.877	716
210.944	1597
211.012	-77
211.079	1999
211.146	686
211.214	497
211.281	1100
211.349	1262
211.416	770
211.484	1372
211.551	744
211.618	1289
211.686	1194
211.753	218
211.821	858
211.888	617
211.955	1319
212.023	978
212.090	1056
212.157	849
212.225	775
212.292	1743
212.359	3214
212.427	8894
212.494	4011
212.561	1573
212.629	1922
212.696	834
212.763	1320
212.831	1008
212.898	1098
212.965	156
213.032	1119
213.100	1703
213.167	837
213.234	1476
213.301	1018
213.369	787
213.436	896
213.503	786
213.570	1116
213.638	780
213.705	38
213.772	-423
213.839	626
213.906	1843
213.973	901
214.041	737
214.108	1463
214.175	279
214.242	682
214.309	1210
214.376	773
214.444	1888
214.511	1202
214.578	1097
214.645	844
214.712	1981
214.779	1184
214.846	814
214.913	2121
214.980	1014
215.048	1548
215.115	2274
215.182	2003
215.249	1075
215.316	1393
215.383	1555
215.450	1181
215.517	1291
215.584	1205
215.651	1436
215.718	1134
215.785	1705
215.852	529
215.919	1960
215.986	1363
216.053	1734
216.120	831
216.187	947
216.254	1780
216.321	1022
216.388	1515
216.455	1060
216.522	1605
216.589	1775
216.656	2900
216.722	3197
216.789	1108
216.856	2134
216.923	1381
216.990	1494
217.057	1099
217.124	1381
217.191	1138
217.258	2438
217.324	2496
217.391	3374
217.458	2211
217.525	1023
217.592	1002
217.659	876
217.725	2487
217.792	1919
217.859	3075
217.926	888
217.993	1474
218.059	2062
218.126	709
218.193	1088
218.260	800
218.327	818
218.393	1583
218.460	458
218.527	416
218.594	1578
218.660	2407
218.727	2813
218.794	510
218.860	1622
218.927	208
218.994	835
219.061	1825
219.127	1687
219.194	2655
219.261	1973
219.327	1558
219.394	1919
219.461	338
219.527	701
219.594	2330
219.661	2050
219.727	99
219.794	1845
219.860	800
219.927	680
219.994	2619
220.060	4279
220.127	3340
220.193	1751
220.260	811
220.326	2033
220.393	2480
220.460	3151
220.526	2536
220.593	1081
220.659	2375
220.726	1280
220.792	4282
220.859	3432
220.925	4264
220.992	6639
221.058	6460
221.125	6550
221.191	4389
221.258	2157
221.324	1873
221.391	1969
221.457	2187
221.524	1409
221.590	2023
221.657	5662
221.723	4435
221.789	3549
221.856	4490
221.922	1256
221.989	2958
222.055	1383
222.121	297
222.188	3420
222.254	1780
222.321	1659
222.387	1659
222.453	1187
222.520	1213
222.586	1170
222.652	1303
222.719	901
222.785	1634
222.851	538
222.918	647
222.984	1308
223.050	901
223.116	497
223.183	2065
223.249	1020
223.315	469
223.382	797
223.448	944
223.514	715
223.580	444
223.647	40
223.713	370
223.779	922
223.845	264
223.911	1847
223.978	549
224.044	1995
224.110	1391
224.176	710
224.242	111
224.309	495
224.375	1383
224.441	1036
224.507	1446
224.573	332
224.639	1480
224.705	-47
224.772	797
224.838	472
224.904	1341
224.970	912
225.036	856
225.102	1198
225.168	1274
225.234	1358
225.300	545
225.366	1089
225.432	734
225.499	1215
225.565	1387
225.631	1165
225.697	1127
225.763	2934
225.829	2152
225.895	1273
225.961	2908
226.027	2487
226.093	1585
226.159	2711
226.225	3696
226.291	5988
226.357	9313
226.423	4939
226.489	2797
226.554	2883
226.620	1953
226.686	3528
226.752	3480
226.818	5327
226.884	11985
226.950	11852
227.016	3871
227.082	3067
227.148	2063
227.214	2295
227.279	2040
227.345	1464
227.411	2619
227.477	2555
227.543	6479
227.609	6631
227.674	3072
227.740	1961
227.806	1855
227.872	1107
227.938	1970
228.003	2820
228.069	1361
228.135	1337
228.201	1350
228.267	1206
228.332	2000
228.398	1566
228.464	1757
228.530	1396
228.595	1896
228.661	904
228.727	2722
228.792	3107
228.858	559
228.924	247
228.990	2778
229.055	1056
229.121	2160
229.187	1796
229.252	945
229.318	671
229.384	1944
229.449	2273
229.515	-321
229.581	247
229.646	2109
229.712	795
229.777	3246
229.843	3686
229.909	3266
229.974	2928
230.040	2801
230.105	2283
230.171	1329
230.236	3323
230.302	3884
230.368	3193
230.433	1760
230.499	2163
230.564	3244
230.630	984
230.695	1832
230.761	2781
230.826	317
230.892	3956
230.957	1315
231.023	1699
231.088	2329
231.154	2250
231.219	2092
231.284	2693
231.350	2076
231.415	1810
231.481	2540
231.546	1809
231.612	1962
231.677	844
231.742	130
231.808	3022
231.873	562
231.939	307
232.004	3676
232.069	3376
232.135	1326
232.200	1447
232.265	2200
232.331	1480
232.396	1441
232.461	362
232.527	1088
232.592	1067
232.657	1648
232.723	2114
232.788	2071
232.853	1924
232.918	1260
232.984	993
233.049	321
233.114	1126
233.179	2664
233.245	2472
233.310	3003
233.375	405
233.440	1289
233.506	934
233.571	950
233.636	1691
233.701	859
233.766	2614
233.832	3123
233.897	1626
233.962	713
234.027	2696
234.092	2017
234.157	770
234.222	837
234.288	2102
234.353	5087
234.418	5100
234.483	3796
234.548	2986
234.613	1742
234.678	2501
234.743	2384
234.808	7023
234.873	2826
234.938	3053
235.004	1100
235.069	1918
235.134	1184
235.199	2284
235.264	1903
235.329	743
235.394	1660
235.459	2673
235.524	2252
235.589	1855
235.654	1006
235.719	1139
235.784	1692
235.849	1917
235.913	3769
235.978	3687
236.043	3443
236.108	1973
236.173	1623
236.238	2521
236.303	1266
236.368	729
236.433	2972
236.498	3300
236.563	2976
236.627	4046
236.692	16134
236.757	14009
236.822	5117
236.887	3996
236.952	3376
237.017	2013
237.081	3870
237.146	3491
237.211	6444
237.276	15643
237.341	29373
237.405	12495
237.470	5401
237.535	4588
237.600	2671
237.664	3198
237.729	1916
237.794	2120
237.859	4846
237.923	2876
237.988	2086
238.053	3686
238.118	3077
238.182	7149
238.247	7760
238.312	3092
238.376	2562
238.441	1650
238.506	3449
238.570	1117
238.635	3034
238.700	2153
238.764	1555
238.829	3133
238.893	4115
238.958	3667
239.023	2879
239.087	2671
239.152	2621
239.216	763
239.281	2297
239.346	1466
239.410	1223
239.475	1536
239.539	7600
239.604	5357
239.668	3379
239.733	2479
239.797	2708
239.862	9670
239.926	8970
239.991	4961
240.055	1887
240.120	1536
240.184	1373
240.249	1841
240.313	545
240.378	2160
240.442	3635
240.507	7614
240.571	2411
240.635	3374
240.700	4153
240.764	2051
240.829	2035
240.893	829
240.957	1775
241.022	4344
241.086	6926
241.151	3345
241.215	1856
241.279	3397
241.344	3306
241.408	3425
241.472	2788
241.537	3778
241.601	2897
241.665	922
241.730	1752
241.794	2879
241.858	969
241.922	1335
241.987	2740
242.051	1799
242.115	1574
242.179	2818
242.244	1658
242.308	2516
242.372	1783
242.436	2105
242.501	2480
242.565	1210
242.629	1915
242.693	3347
242.757	1118
242.822	2259
242.886	2732
242.950	2758
243.014	1189
243.078	2782
243.142	2977
243.206	1796
243.271	2494
243.335	2005
243.399	3676
243.463	10626
243.527	29658
243.591	8752
243.655	3688
243.719	2846
243.783	4168
243.847	5105
243.911	6301
243.975	6555
244.040	3969
244.104	4437
244.168	2311
244.232	4176
244.296	5534
244.360	5886
244.424	3407
244.488	2556
244.552	2662
244.615	473
244.679	1643
244.743	2276
244.807	2709
244.871	1436
244.935	1974
244.999	1184
245.063	1979
245.127	3200
245.191	3847
245.255	2693
245.319	3188
245.383	1999
245.446	3375
245.510	2560
245.574	2665
245.638	2595
245.702	1668
245.766	7027
245.829	4508
245.893	1672
245.957	2075
246.021	2094
246.085	2824
246.149	3374
246.212	7885
246.276	12355
246.340	5205
246.404	3953
246.467	4280
246.531	5036
246.595	4730
246.659	4304
246.722	2875
246.786	4968
246.850	4765
246.913	5944
246.977	2423
247.041	2950
247.104	2565
247.168	3424
247.232	7600
247.295	17010
247.359	8587
247.423	3992
247.486	6209
247.550	5293
247.614	3250
247.677	5441
247.741	3738
247.804	2808
247.868	4132
247.932	6485
247.995	15472
248.059	5906
248.122	2754
248.186	4182
248.249	6734
248.313	25191
248.376	26818
248.440	16677
248.503	6694
248.567	7041
248.630	7199
248.694	10953
248.757	13282
248.821	27398
248.884	17196
248.948	13938
249.011	21669
249.075	31278
249.138	27864
249.202	10604
249.265	7002
249.328	7159
249.392	5687
249.455	5958
249.519	5102
249.582	5610
249.645	8935
249.709	6709
249.772	3893
249.835	3987
249.899	4466
249.962	4709
250.025	3831
250.089	10571
250.152	15110
250.215	7159
250.279	4970
250.342	6206
250.405	4654
250.468	4146
250.532	6691
250.595	8783
250.658	27703
250.721	48395
250.785	18060
250.848	10552
250.911	5938
250.974	7023
251.038	7182
251.101	16921
251.164	8554
251.227	8970
251.290	8032
251.354	10784
251.417	38739
251.480	39981
251.543	25298
251.606	71218
251.669	54780
251.732	20756
251.795	22042
251.859	23048
251.922	46088
251.985	28609
252.048	11172
252.111	9160
252.174	8328
252.237	14479
252.300	32570
252.363	30567
252.426	62577
252.489	27603
252.552	13180
252.615	8754
252.678	9370
252.741	23166
252.804	28100
252.867	60085
252.930	38881
252.993	20941
253.056	13150
253.119	9238
253.182	6939
253.245	9888
253.308	9137
253.371	7767
253.434	6723
253.497	7558
253.559	16434
253.622	10657
253.685	10809
253.748	13129
253.811	5925
253.874	6033
253.937	6410
254.000	6345
254.062	9762
254.125	16082
254.188	13229
254.251	10951
254.314	6074
254.376	9609
254.439	12388
254.502	9473
254.565	9427
254.628	18094
254.690	10100
254.753	6332
254.816	4756
254.878	5329
254.941	10644
255.004	12378
255.067	4266
255.129	5175
255.192	3509
255.255	2954
255.317	3864
255.380	2672
255.443	2020
255.505	3016
255.568	2251
255.631	2747
255.693	2373
255.756	1896
255.819	3170
255.881	1767
255.944	2723
256.006	1654
256.069	2504
256.132	1537
256.194	2245
256.257	6419
256.319	5207
256.382	4044
256.444	3792
256.507	3595
256.569	2142
256.632	2750
256.694	3020
256.757	8913
256.819	24695
256.882	9710
256.944	4740
257.007	4473
257.069	4264
257.132	2661
257.194	3506
257.257	2634
257.319	2336
257.381	2086
257.444	6438
257.506	29618
257.569	32318
257.631	19421
257.693	10667
257.756	5729
257.818	4330
257.880	3714
257.943	3365
258.005	2132
258.067	2104
258.130	2517
258.192	4102
258.254	6256
258.317	3762
258.379	4274
258.441	8607
258.503	10159
258.566	8004
258.628	11560
258.690	2186
258.753	3682
258.815	7229
258.877	4232
258.939	2453
259.001	3411
259.064	2722
259.126	3155
259.188	3840
259.250	3259
259.312	4765
259.375	10782
259.437	6923
259.499	3582
259.561	2973
259.623	3146
259.685	1966
259.747	3550
259.809	7314
259.872	14691
259.934	20887
259.996	20135
260.058	6306
260.120	3830
260.182	3020
260.244	2842
260.306	2524
260.368	2118
260.430	2715
260.492	3884
260.554	8912
260.616	7703
260.678	12777
260.740	16836
260.802	3999
260.864	4395
260.926	3104
260.988	3425
261.050	2899
261.112	4495
261.174	13845
261.236	11811
261.298	4668
261.359	7727
261.421	9752
261.483	3553
261.545	3504
261.607	700
261.669	2289
261.731	4408
261.793	11648
261.854	4848
261.916	3851
261.978	2484
262.040	3592
262.102	3160
262.164	3269
262.225	3614
262.287	2739
262.349	7488
262.411	5533
262.472	3395
262.534	3913
262.596	9352
262.658	4146
262.719	1766
262.781	3426
262.843	7585
262.904	3976
262.966	3352
263.028	3231
263.090	17110
263.151	42229
263.213	14863
263.275	7944
263.336	4608
263.398	2995
263.459	1919
263.521	3086
263.583	7668
263.644	5052
263.706	2117
263.767	1716
263.829	2096
263.891	1264
263.952	1539
264.014	1116
264.075	2449
264.137	5557
264.198	3585
264.260	1797
264.321	1430
264.383	4351
264.444	9820
264.506	2110
264.567	2788
264.629	2635
264.690	4693
264.752	2681
264.813	2523
264.875	1085
264.936	2535
264.998	834
265.059	1091
265.120	1715
265.182	2212
265.243	11324
265.305	11899
265.366	3287
265.427	2853
265.489	2423
265.550	1197
265.611	1581
265.673	2487
265.734	1507
265.795	2203
265.857	999
265.918	969
265.979	3580
266.040	19107
266.102	15546
266.163	5276
266.224	3845
266.286	2590
266.347	1370
266.408	1768
266.469	2405
266.530	1512
266.592	1534
266.653	4242
266.714	7750
266.775	3075
266.836	2223
266.898	1442
266.959	2561
267.020	2762
267.081	2435
267.142	1434
267.203	1965
267.264	1586
267.326	2448
267.387	1906
267.448	1282
267.509	2018
267.570	1749
267.631	1300
267.692	1415
267.753	2193
267.814	1538
267.875	3946
267.936	9871
267.997	3995
268.058	3105
268.119	2479
268.180	2628
268.241	1100
268.302	1831
268.363	1381
268.424	892
268.485	1901
268.546	342
268.607	779
268.668	879
268.729	747
268.790	1323
268.851	2730
268.912	5900
268.972	6700
269.033	3920
269.094	1648
269.155	2255
269.216	797
269.277	1213
269.338	1287
269.398	1284
269.459	2464
269.520	2736
269.581	4291
269.642	5259
269.702	2781
269.763	2403
269.824	1468
269.885	2800
269.945	5441
270.006	1737
270.067	1187
270.128	1231
270.188	913
270.249	1784
270.310	1613
270.370	2551
270.431	794
270.492	746
270.553	2193
270.613	4578
270.674	9910
270.734	4420
270.795	2263
270.856	3160
270.916	2859
270.977	1554
271.038	3115
271.098	2803
271.159	4665
271.219	4140
271.280	2042
271.340	1948
271.401	2257
271.462	5121
271.522	3588
271.583	2480
271.643	2216
271.704	2487
271.764	3088
271.825	6846
271.885	24008
271.946	34647
272.006	11782
272.066	13974
272.127	27877
272.187	9703
272.248	4619
272.308	5210
272.369	18027
272.429	11305
272.489	6477
272.550	7064
272.610	7999
272.671	6208
272.731	4007
272.791	6798
272.852	4700
272.912	4752
272.972	3113
273.033	2980
273.093	3586
273.153	5237
273.214	3981
273.274	3702
273.334	12158
273.394	27157
273.455	11224
273.515	9702
273.575	22601
273.635	10296
273.696	13196
273.756	26701
273.816	11861
273.876	6464
273.936	9540
273.997	15724
274.057	5533
274.117	4616
274.177	6302
274.237	29484
274.297	27029
274.358	14643
274.418	20480
274.478	16829
274.538	6341
274.598	4475
274.658	11877
274.718	17097
274.778	6560
274.838	4927
274.898	6984
274.958	21635
275.018	25400
275.078	17903
275.138	6631
275.198	3963
275.258	2797
275.318	4478
275.378	6881
275.438	7997
275.498	5214
275.558	10510
275.618	25411
275.678	19918
275.738	10658
275.798	7459
275.858	3366
275.918	2844
275.978	3754
276.038	3457
276.098	2651
276.157	5631
276.217	17691
276.277	8434
276.337	6057
276.397	3278
276.457	4126
276.517	3336
276.576	3114
276.636	2378
276.696	4466
276.756	9679
276.815	8452
276.875	3858
276.935	4780
276.995	4471
277.055	3508
277.114	3551
277.174	4734
277.234	16165
277.293	7535
277.353	3802
277.413	2903
277.472	3074
277.532	4060
277.592	4852
277.651	15832
277.711	34392
277.771	11412
277.830	34186
277.890	30998
277.950	19825
278.009	59290
278.069	23880
278.128	21800
278.188	35321
278.248	14529
278.307	35534
278.367	23656
278.426	8012
278.486	5349
278.545	4086
278.605	4072
278.664	3917
278.724	4126
278.783	10384
278.843	30116
278.902	9508
278.962	5790
279.021	6267
279.081	8704
279.140	7263
279.199	6280
279.259	5368
279.318	6662
279.378	9011
279.437	15005
279.496	53462
279.556	134433
279.615	117705
279.675	34707
279.734	19050
279.793	25379
279.853	44685
279.912	18954
279.971	9703
280.031	9158
280.090	16543
280.149	31667
280.208	23243
280.268	83724
280.327	102234
280.386	28186
280.445	17178
280.505	16811
280.564	8967
280.623	6917
280.682	9350
280.742	14853
280.801	5305
280.860	4514
280.919	4489
280.978	3937
281.037	3202
281.097	3988
281.156	4395
281.215	3522
281.274	4733
281.333	17679
281.392	15296
281.451	4976
281.510	3368
281.569	3117
281.628	2924
281.688	2319
281.747	4039
281.806	2937
281.865	3156
281.924	2619
281.983	3322
282.042	2476
282.101	2463
282.160	2512
282.219	1923
282.278	2506
282.337	9415
282.396	7555
282.454	3597
282.513	5266
282.572	14856
282.631	10224
282.690	3039
282.749	2979
282.808	3964
282.867	4277
282.926	3123
282.985	2255
283.043	2325
283.102	3051
283.161	3380
283.220	7454
283.279	18286
283.338	6716
283.396	3921
283.455	4388
283.514	3600
283.573	5685
283.631	5150
283.690	4110
283.749	2908
283.808	7721
283.866	9266
283.925	3641
283.984	4464
284.043	5691
284.101	6051
284.160	3972
284.219	4519
284.277	4969
284.336	7161
284.395	22866
284.453	21006
284.512	8341
284.570	10486
284.629	10366
284.688	9550
284.746	12290
284.805	13649
284.863	19106
284.922	22875
284.981	25494
285.039	34740
285.098	60737
285.156	126791
285.215	210331
285.273	214206
285.332	149541
285.390	81883
285.449	50456
285.507	35657
285.566	25990
285.624	18914
285.683	15455
285.741	12208
285.799	9954
285.858	8529
285.916	8368
285.975	7030
286.033	6272
286.091	5698
286.150	5090
286.208	4866
286.267	5389
286.325	5253
286.383	7640
286.442	7172
286.500	4077
286.558	4890
286.616	3902
286.675	5231
286.733	4942
286.791	3923
286.850	4757
286.908	5537
286.966	8632
287.024	4463
287.083	3376
287.141	3481
287.199	3700
287.257	5667
287.315	4127
287.374	4055
287.432	9204
287.490	6425
287.548	4089
287.606	2956
287.664	3636
287.723	4130
287.781	5290
287.839	2899
287.897	3764
287.955	4395
288.013	6834
288.071	17612
288.129	59228
288.187	183126
288.245	86751
288.303	26651
288.361	14255
288.419	10684
288.477	8027
288.535	5780
288.593	4782
288.651	2792
288.709	2207
288.767	2421
288.825	3316
288.883	2363
288.941	2347
288.999	1650
289.057	2056
289.115	1674
289.173	2228
289.231	2114
289.289	2061
289.346	2441
289.404	2919
289.462	4633
289.520	5459
289.578	2990
289.636	1749
289.694	1284
289.751	1154
289.809	1892
289.867	2594
289.925	1988
289.983	3661
290.040	2162
290.098	1290
290.156	1945
290.214	2608
290.271	1631
290.329	2121
290.387	1754
290.444	982
290.502	1473
290.560	887
290.617	1688
290.675	1565
290.733	1563
290.790	2376
290.848	1472
290.906	2148
290.963	2150
291.021	1478
291.078	1376
291.136	1192
291.194	5779
291.251	16513
291.309	4501
291.366	1620
291.424	1229
291.481	2128
291.539	2212
291.596	2654
291.654	813
291.711	1157
291.769	1967
291.826	4699
291.884	3069
291.941	1178
291.999	1963
292.056	2402
292.114	2562
292.171	1745
292.228	1287
292.286	2750
292.343	4351
292.401	6740
292.458	4768
292.515	3241
292.573	3206
292.630	3171
292.687	3063
292.745	1921
292.802	2497
292.859	6983
292.917	18948
292.974	11979
293.031	3622
293.089	2712
293.146	1905
293.203	2721
293.260	2059
293.318	2255
293.375	3041
293.432	1440
293.489	1996
293.546	1616
293.604	3699
293.661	11715
293.718	33501
293.775	16832
293.832	7849
293.889	6883
293.947	7237
294.004	4987
294.061	4001
294.118	9080
294.175	17066
294.232	14190
294.289	6420
294.346	3694
294.403	3215
294.460	3697
294.517	2818
294.574	2522
294.631	1653
294.688	3045
294.745	9126
294.802	32443
294.859	29560
294.916	11601
294.973	8358
295.030	6221
295.087	5895
295.144	3410
295.201	2918
295.258	2988
295.315	3531
295.372	12837
295.429	28884
295.486	12361
295.542	5503
295.599	7984
295.656	13472
295.713	12859
295.770	24583
295.827	10473
295.883	4683
295.940	3093
295.997	6155
296.054	7076
296.111	3016
296.167	3003
296.224	1786
296.281	2251
296.338	2149
296.394	1974
296.451	3200
296.508	10511
296.564	21018
296.621	13481
296.678	27119
296.734	43316
296.791	16789
296.848	7588
296.904	7708
296.961	17892
297.018	29932
297.074	23161
297.131	8983
297.187	5516
297.244	8651
297.301	28275
297.357	58856
297.414	21854
297.470	7551
297.527	5063
297.583	3381
297.640	4650
297.696	3008
297.753	3026
297.809	1927
297.866	1255
297.922	1915
297.979	1742
298.035	2531
298.092	5103
298.148	16217
298.204	18093
298.261	8267
298.317	12137
298.374	35424
298.430	24808
298.486	9225
298.543	6488
298.599	5623
298.656	6823
298.712	10611
298.768	25653
298.824	19968
298.881	7461
298.937	3722
298.993	3363
299.050	4764
299.106	4631
299.162	2714
299.218	3685
299.275	3871
299.331	3776
299.387	8796
299.443	31236
299.500	40993
299.556	17658
299.612	7814
299.668	6575
299.724	9771
299.780	13114
299.837	6310
299.893	8860
299.949	27754
300.005	38350
300.061	28110
300.117	48980
300.173	26582
300.229	11287
300.285	11282
300.341	13765
300.397	8078
300.453	4835
300.510	4223
300.566	4560
300.622	6616
300.678	19685
300.734	36246
300.790	30984
300.845	37023
300.901	25136
300.957	31438
301.013	25564
301.069	9676
301.125	6595
301.181	6143
301.237	5770
301.293	4093
301.349	2814
301.405	2991
301.461	2915
301.516	4187
301.572	3731
301.628	7810
301.684	7589
301.740	10733
301.796	20096
301.851	13870
301.907	19490
301.963	21529
302.019	33144
302.074	92791
302.130	96824
302.186	46625
302.242	16855
302.297	11499
302.353	10181
302.409	20654
302.464	19676
302.520	14347
302.576	31625
302.631	41198
302.687	22914
302.743	10288
302.798	4662
302.854	3690
302.910	4680
302.965	4813
303.021	8774
303.076	9630
303.132	10815
303.187	14258
303.243	8782
303.299	3780
303.354	2817
303.410	2626
303.465	2668
303.521	2326
303.576	3100
303.632	3722
303.687	8987
303.743	29353
303.798	28837
303.853	11187
303.909	5287
303.964	4364
304.020	6536
304.075	11057
304.130	8848
304.186	16406
304.241	18944
304.297	14763
304.352	7962
304.358	7635
304.407	4976
304.449	5077
304.463	5112
304.518	4869
304.539	4916
304.573	4982
304.629	3951
304.630	4015
304.684	7190
304.720	16092
304.739	20561
304.794	36586
304.811	31722
304.850	19819
304.902	8234
304.905	7506
304.960	4577
304.992	4176
305.015	3869
305.071	3771
305.083	3980
305.126	4679
305.173	2757
305.181	2457
305.236	1807
305.264	2366
305.292	2943
305.347	4277
305.354	4464
305.402	5567
305.445	4970
305.457	4808
305.512	5696
305.535	5913
305.567	6169
305.622	6403
305.626	6600
305.678	11702
305.716	22859
305.733	26771
305.788	36924
305.807	32383
305.843	24766
305.897	29148
305.898	29170
305.953	32996
305.988	22730
306.008	17155
306.063	9794
306.078	8907
306.118	6832
306.168	4337
306.173	4143
306.228	3540
306.259	2976
306.283	2578
306.338	2431
306.349	2553
306.393	2934
306.440	2866
306.448	2890
306.503	3496
306.530	3954
306.558	5145
306.613	9846
306.620	10851
306.668	18816
306.711	28439
306.723	29635
306.778	26852
306.801	20569
306.833	12972
306.888	6231
306.892	5942
306.943	4026
306.982	3793
306.997	3717
307.052	3346
307.072	3266
307.107	3413
307.162	4262
307.163	4273
307.217	5759
307.253	6306
307.272	6341
307.327	7088
307.343	6951
307.381	6564
307.434	6307
307.436	6493
307.491	11695
307.524	17752
307.546	19900
307.600	25056
307.614	23080
307.655	14569
307.704	7026
307.710	6657
307.765	5891
307.795	6751
307.819	7887
307.874	11936
307.885	12072
307.929	10249
307.975	7934
307.984	8003
308.038	10693
308.065	12683
308.093	22361
308.148	47789
308.156	54348
308.202	93002
308.246	122373
308.257	120070
308.312	63857
308.336	43830
308.366	33824
308.421	24424
308.426	23401
308.475	14880
308.517	10354
308.530	9614
308.585	7997
308.607	7431
308.639	7321
308.694	7820
308.697	7866
308.748	11125
308.787	15257
308.803	15467
308.857	13646
308.877	12220
308.912	11269
308.967	11573
308.967	11593
309.021	17476
309.058	22632
309.076	28130
309.130	48624
309.148	55866
309.185	93468
309.238	158101
309.239	158785
309.293	195813
309.328	189036
309.348	163850
309.402	79135
309.418	58145
309.457	40967
309.508	27333
309.511	27141
309.566	29072
309.598	31934
309.620	41245
309.674	69566
309.688	77305
309.729	74768
309.778	60079
309.783	58492
309.837	38280
309.868	28050
309.892	29253
309.946	36256
309.959	39112
310.001	50300
310.049	60957
310.055	59039
310.109	35966
310.139	22529
310.163	17969
310.218	10978
310.229	9877
310.272	8297
310.319	6696
310.326	6412
310.381	5028
310.409	4401
310.435	4160
310.489	3470
310.499	3408
310.543	3710
310.589	4024
310.598	4050
310.652	4158
310.679	4269
310.706	4129
310.760	3615
310.769	3565
310.814	3388
310.859	3210
310.868	3295
310.923	3634
310.948	3803
310.977	4077
311.031	4925
311.038	5005
311.085	4537
311.128	3906
311.139	3913
311.193	4182
311.218	4207
311.247	3928
311.301	3421
311.308	3363
311.356	3567
311.398	3789
311.410	3726
311.464	3358
311.488	3135
311.518	3218
311.572	3473
311.578	3494
311.626	5511
311.668	7361
311.680	7081
311.734	5601
311.758	4943
311.788	4964
311.842	4967
311.847	4965
311.896	5744
311.937	6406
311.950	6437
312.004	6540
312.027	6553
312.058	5803
312.112	4474
312.117	4338
312.165	3904
312.207	3537
312.297	4000
312.386	4496
312.476	4629
312.566	10218
312.656	5311
312.745	3555
312.835	4482
312.925	3607
313.015	3800
313.104	3751
313.194	3245
313.284	4363
313.374	6253
313.463	5763
313.553	4573
313.643	3723
313.732	4057
313.822	3471
313.912	4200
314.001	5769
314.091	5591
314.180	6082
314.270	6317
314.360	7037
314.449	6284
314.539	4904
314.628	4111
314.718	4366
314.808	5354
314.897	5078
314.987	5537
315.076	6699
315.166	8082
315.255	6861
315.345	6990
315.434	6214
315.524	5440
315.613	7010
315.703	9138
315.792	16408
315.881	48391
315.971	17746
316.060	10308
316.150	11978
316.239	10052
316.328	5748
316.418	4576
316.507	4663
316.597	6936
316.686	6284
316.775	7300
316.865	11373
316.954	5069
317.043	4377
317.133	3816
317.222	4374
317.311	3249
317.400	3430
317.490	6751
317.579	8066
317.668	6250
317.757	10186
317.847	24927
317.936	83982
318.025	31544
318.114	21133
318.203	12220
318.293	15446
318.382	34086
318.471	23161
318.560	25470
318.649	28476
318.738	8213
318.828	7653
318.917	7193
319.006	7283
319.095	14103
319.184	37003
319.273	26498
319.362	17876
319.451	6253
319.540	5851
319.629	13548
319.718	22859
319.807	9431
319.896	14602
319.985	48350
320.074	20696
320.163	6180
320.252	8886
320.341	6873
320.430	7437
320.519	11380
320.608	6638
320.697	7082
320.786	7117
320.875	9149
320.964	11222
321.053	17554
321.142	22598
321.230	24743
321.319	18277
321.408	39218
321.497	18529
321.586	17612
321.675	14116
321.764	14856
321.852	11570
321.941	22361
322.030	16027
322.119	15894
322.207	39154
322.296	20571
322.385	13503
322.474	19904
322.562	50957
322.651	26549
322.740	19285
322.829	25537
322.917	16880
323.006	13923
323.095	13983
323.183	7909
323.272	11129
323.361	17482
323.449	40350
323.538	15345
323.626	28994
323.715	19609
323.804	8772
323.892	25615
323.981	19087
324.069	6586
324.158	13093
324.246	13444
324.335	8755
324.424	15044
324.512	6050
324.601	7174
324.689	10857
324.778	16048
324.866	13211
324.954	5044
325.043	5364
325.131	7431
325.220	11792
325.308	12327
325.397	10793
325.485	7922
325.574	4800
325.662	4925
325.750	4509
325.839	5059
325.927	3580
326.015	5336
326.104	5758
326.192	6931
326.280	4533
326.369	3397
326.457	7022
326.545	13073
326.634	6105
326.722	3318
326.810	4623
326.898	4979
326.987	5222
327.075	10276
327.163	9870
327.251	5623
327.340	8168
327.428	10232
327.516	5801
327.604	4676
327.692	4395
327.781	3585
327.869	5559
327.957	4135
328.045	6117
328.133	3125
328.221	4179
328.309	4379
328.397	4129
328.485	5514
328.574	9186
328.662	27204
328.750	13066
328.838	4564
328.926	4696
329.014	4105
329.102	5009
329.190	11409
329.278	8296
329.366	3396
329.454	2956
329.542	2206
329.630	2355
329.718	2826
329.806	5709
329.893	4554
329.981	3530
330.069	3816
330.157	11992
330.245	36764
330.333	18896
330.421	5283
330.509	8063
330.597	29527
330.684	18092
330.772	5780
330.860	6604
330.948	7469
331.036	4481
331.123	2655
331.211	3251
331.299	3593
331.387	6627
331.475	11438
331.562	5565
331.650	4226
331.738	4345
331.825	4053
331.913	3526
332.001	3505
332.089	4166
332.176	5482
332.264	12570
332.352	9363
332.439	5695
332.527	4959
332.614	3963
332.702	4389
332.790	4133
332.877	8809
332.965	16809
333.052	8479
333.140	9652
333.228	26336
333.315	7140
333.403	4539
333.490	9124
333.578	12801
333.665	34749
333.753	15208
333.840	5298
333.928	6156
334.015	10217
334.103	14018
334.190	43281
334.278	14375
334.365	11899
334.452	12431
334.540	6854
334.627	7038
334.715	9406
334.802	15130
334.889	50520
334.977	62000
335.064	21759
335.151	9439
335.239	7165
335.326	7507
335.413	23964
335.501	31721
335.588	8090
335.675	6534
335.762	8409
335.850	10697
335.937	12155
336.024	24344
336.111	69923
336.199	49146
336.286	16361
336.373	7992
336.460	5959
336.547	4659
336.635	5857
336.722	5518
336.809	4740
336.896	6854
336.983	16371
337.070	32757
337.157	47903
337.245	30050
337.332	20569
337.419	4730
337.506	3669
337.593	4626
337.680	10152
337.767	29661
337.854	10133
337.941	10577
338.028	13304
338.115	5157
338.202	6469
338.289	9369
338.376	29271
338.463	10638
338.550	16065
338.637	18517
338.724	6773
338.811	9413
338.898	3855
338.984	3761
339.071	3791
339.158	5623
339.245	15266
339.332	9365
339.419	8121
339.506	7651
339.593	3584
339.679	3962
339.766	3503
339.853	4849
339.940	11439
340.027	5398
340.113	4290
340.200	6625
340.287	4382
340.374	6023
340.460	11880
340.547	4456
340.634	8591
340.720	29422
340.807	17158
340.894	4118
340.980	4746
341.067	3796
341.154	5603
341.240	7812
341.327	16130
341.414	7209
341.500	8347
341.587	4717
341.674	4324
341.760	11145
341.847	12789
341.933	5047
342.020	2245
342.106	3002
342.193	5376
342.279	8817
342.366	7163
342.452	11932
342.539	6336
342.625	13368
342.712	32830
342.798	13717
342.885	6650
342.971	2514
343.058	3415
343.144	3076
343.230	3764
343.317	4480
343.403	4043
343.490	3069
343.576	3077
343.662	3626
343.749	4514
343.835	5425
343.921	9872
344.008	55467
344.094	133935
344.180	30064
344.267	10981
344.353	37602
344.439	37855
344.525	16163
344.612	8108
344.698	6383
344.784	4284
344.870	3874
344.957	4330
345.043	7050
345.129	4780
345.215	11069
345.301	6965
345.387	5379
345.474	2741
345.560	2603
345.646	3461
345.732	4446
345.818	4930
345.904	4901
345.990	4468
346.076	4454
346.162	7220
346.249	5361
346.335	4083
346.421	3994
346.507	14934
346.593	56076
346.679	13521
346.765	5054
346.851	5885
346.937	4606
347.023	4260
347.108	5625
347.194	3937
347.280	4155
347.366	6820
347.452	18874
347.538	68232
347.624	47085
347.710	37419
347.796	5938
347.882	4078
347.967	4494
348.053	4303
348.139	3375
348.225	3583
348.311	3224
348.397	3059
348.482	5243
348.568	6351
348.654	4074
348.740	10051
348.825	9641
348.911	8672
348.997	28392
349.083	59461
349.168	9371
349.254	5105
349.340	6001
349.425	3967
349.511	5369
349.597	5647
349.682	11690
349.768	40309
349.854	19635
349.939	4529
350.025	2483
350.110	4429
350.196	3511
350.282	3112
350.367	4010
350.453	4783
350.538	4407
350.624	4950
350.709	5720
350.795	3098
350.880	4083
350.966	4676
351.051	5393
351.137	3909
351.222	4718
351.308	12774
351.393	36442
351.479	11368
351.564	5077
351.649	3872
351.735	3494
351.820	3311
351.906	3616
351.991	5288
352.076	21636
352.162	33465
352.247	8147
352.332	6474
352.418	12021
352.503	13600
352.588	49287
352.673	40001
352.759	9311
352.844	4972
352.929	6593
353.014	8510
353.100	5820
353.185	11399
353.270	15213
353.355	13390
353.441	5001
353.526	4200
353.611	10610
353.696	12266
353.781	8478
353.866	4584
353.952	5617
354.037	10521
354.122	25413
354.207	21068
354.292	8102
354.377	4559
354.462	4781
354.547	6004
354.632	5069
354.717	7611
354.802	14442
354.887	5793
354.972	3902
355.057	3624
355.142	2867
355.227	4856
355.312	7622
355.397	15437
355.482	37912
355.567	18297
355.652	14244
355.737	15266
355.822	43199
355.907	36801
355.991	7545
356.076	4839
356.161	4427
356.246	4286
356.331	4759
356.416	9960
356.501	67110
356.585	72628
356.670	11820
356.755	8954
356.840	11273
356.924	47800
357.009	165604
357.094	62484
357.179	14130
357.263	11378
357.348	9158
357.433	9135
357.517	9525
357.602	7236
357.687	6500
357.771	10507
357.856	26381
357.941	16736
358.025	33920
358.110	152627
358.195	72518
358.279	12903
358.364	9546
358.448	29375
358.533	83442
358.617	60384
358.702	59199
358.787	22108
358.871	13078
358.956	11919
359.040	5246
359.125	4902
359.209	5262
359.294	12547
359.378	21643
359.462	12400
359.547	7757
359.631	4242
359.716	3685
359.800	5094
359.885	5573
359.969	4074
360.053	4478
360.138	3987
360.222	6831
360.306	12781
360.391	9571
360.475	15660
360.559	33794
360.644	30990
360.728	23012
360.812	36580
360.896	104112
360.981	41382
361.065	20607
361.149	7767
361.233	5535
361.318	6048
361.402	7440
361.486	7063
361.570	5511
361.654	7359
361.739	15453
361.823	63837
361.907	104278
361.991	20406
362.075	12125
362.159	25745
362.243	19718
362.327	27359
362.411	45135
362.495	19619
362.580	9364
362.664	7032
362.748	7684
362.832	9994
362.916	18463
363.000	63193
363.084	151077
363.168	143729
363.252	33251
363.336	13598
363.420	13699
363.503	33697
363.587	40344
363.671	11186
363.755	8389
363.839	13409
363.923	7420
364.007	14163
364.091	16344
364.175	17064
364.258	66402
364.342	80109
364.426	157603
364.510	87701
364.594	27561
364.677	22528
364.761	89297
364.845	65327
364.929	22537
365.013	17694
365.096	14252
365.180	16707
365.264	14622
365.347	54040
365.431	22934
365.515	8277
365.598	4746
365.682	6077
365.766	6398
365.849	9188
365.933	6279
366.017	8104
366.100	4349
366.184	3131
366.267	5519
366.351	4985
366.435	4154
366.518	3741
366.602	4644
366.685	4784
366.769	5747
366.852	7641
366.936	12615
367.019	9040
367.103	4834
367.186	8678
367.270	5149
367.353	4107
367.436	5664
367.520	4253
367.603	6939
367.687	8524
367.770	15086
367.853	10336
367.937	28009
368.020	49962
368.104	12667
368.187	11760
368.270	16561
368.353	14074
368.437	14039
368.520	20814
368.603	16920
368.687	29739
368.770	62241
368.853	16899
368.936	13629
369.020	11715
369.103	6237
369.186	5715
369.269	6474
369.352	10352
369.436	12988
369.519	9762
369.602	5103
369.685	7223
369.768	5793
369.851	4156
369.934	4199
370.018	5937
370.101	11807
370.184	11083
370.267	8101
370.350	14465
370.433	18992
370.516	51984
370.599	72959
370.682	23027
370.765	33110
370.848	39508
370.931	73754
371.014	27642
371.097	6373
371.180	6909
371.263	5557
371.346	3882
371.429	5297
371.511	5001
371.594	9131
371.677	11793
371.760	11428
371.843	12920
371.926	55973
372.009	134836
372.091	46380
372.174	29132
372.257	72187
372.340	29315
372.423	18396
372.505	18347
372.588	8642
372.671	22713
372.754	74343
372.836	37706
372.919	17995
373.002	31227
373.085	14451
373.167	14421
373.250	31734
373.332	70632
373.415	82343
373.498	174356
373.580	65709
373.663	94377
373.746	128570
373.828	27642
373.911	12408
373.993	11765
374.076	28843
374.159	27663
374.241	18360
374.324	61638
374.406	41405
374.489	48621
374.571	151676
374.654	63458
374.736	27664
374.819	89762
374.901	123547
374.983	129270
375.066	24757
375.148	10375
375.231	24240
375.313	47026
375.395	20217
375.478	8634
375.560	7982
375.643	8155
375.725	24253
375.807	107893
375.890	77081
375.972	23537
376.054	15215
376.136	16995
376.219	10356
376.301	29935
376.383	97132
376.465	37841
376.548	22309
376.630	26212
376.712	83101
376.794	39768
376.877	6969
376.959	4220
377.041	5242
377.123	6863
377.205	7586
377.287	4086
377.369	4408
377.452	5054
377.534	4911
377.616	5325
377.698	4728
377.780	4286
377.862	5892
377.944	5672
378.026	2309
378.108	4552
378.190	3567
378.272	4077
378.354	3458
378.436	3058
378.518	4900
378.600	15561
378.682	16111
378.764	43169
378.846	35358
378.928	9420
379.010	14194
379.091	9708
379.173	5333
379.255	4200
379.337	6843
379.419	20463
379.501	62376
379.583	24759
379.664	7805
379.746	14966
379.828	42821
379.910	58424
379.991	53295
380.073	10594
380.155	6992
380.237	6413
380.318	4839
380.400	5205
380.482	11265
380.564	15749
380.645	17395
380.727	16919
380.809	10321
380.890	8398
380.972	6095
381.053	6580
381.135	7295
381.217	15898
381.298	46644
381.380	24036
381.461	17490
381.543	78228
381.624	99214
381.706	20277
381.787	12507
381.869	12913
381.951	33254
382.032	133624
382.113	88927
382.195	19745
382.276	15668
382.358	32708
382.439	80888
382.521	83356
382.602	131194
382.684	61255
382.765	110910
382.846	147773
382.928	260205
383.009	146669
383.090	91330
383.172	307861
383.253	468840
383.334	159002
383.416	132126
383.497	74843
383.578	42671
383.659	77155
383.741	250665
383.822	606121
383.903	332420
383.984	108645
384.066	153472
384.147	97471
384.228	25461
384.309	19622
384.390	17202
384.471	12625
384.553	12326
384.634	14545
384.715	16178
384.796	10207
384.877	12071
384.958	41984
385.039	51515
385.120	20374
385.201	10513
385.282	10875
385.363	11351
385.444	11953
385.525	20766
385.606	64464
385.687	55727
385.768	13334
385.849	14705
385.930	62099
386.011	112480
386.092	31226
386.173	8959
386.254	7886
386.335	7566
386.416	8343
386.496	28145
386.577	44811
386.658	16060
386.739	9818
386.820	9194
386.901	7091
386.981	7815
387.062	7232
387.143	12925
387.224	44614
387.304	43241
387.385	16521
387.466	11854
387.547	14736
387.627	11981
387.708	19586
387.789	75490
387.869	95109
387.950	27122
388.031	6826
388.111	4472
388.192	9312
388.273	13205
388.353	9355
388.434	8015
388.514	15067
388.595	68499
388.676	91707
388.756	43521
388.837	40684
388.917	25074
388.998	6015
389.078	6631
389.159	6220
389.239	5044
389.320	9827
389.400	7374
389.480	16500
389.561	48402
389.641	25496
389.722	9310
389.802	13788
389.883	19159
389.963	57334
390.043	32847
390.124	8909
390.204	16289
390.284	50098
390.365	30574
390.445	24612
390.525	70624
390.605	69541
390.686	27977
390.766	13370
390.846	8001
390.927	5434
391.007	5687
391.087	7846
391.167	10220
391.247	7664
391.328	7821
391.408	10186
391.488	8278
391.568	5404
391.648	8197
391.728	11664
391.808	11011
391.888	12130
391.969	26483
392.049	44961
392.129	18827
392.209	20779
392.289	56932
392.369	30427
392.449	17665
392.529	14730
392.609	16156
392.689	20671
392.769	56859
392.849	52153
392.929	35538
393.009	79851
393.089	77041
393.169	84688
393.248	225550
393.328	635475
393.408	690389
393.488	258540
393.568	87143
393.648	44267
393.728	28265
393.807	20270
393.887	16275
393.967	13614
394.047	13909
394.127	13438
394.206	17302
394.286	40392
394.366	207169
394.446	232452
394.525	47511
394.605	14203
394.685	11577
394.764	20992
394.844	35296
394.924	30820
395.003	12649
395.083	9900
395.163	8821
395.242	8174
395.322	8420
395.402	6062
395.481	8835
395.561	15699
395.640	46456
395.720	52459
395.799	46195
395.879	31913
395.958	17854
396.038	54155
396.117	266885
396.197	310028
396.276	74603
396.356	25358
396.435	23575
396.515	25199
396.594	34793
396.673	68329
396.753	218803
396.832	587264
396.912	470851
396.991	135597
397.070	43180
397.150	24019
397.229	19329
397.308	29561
397.388	53672
397.467	25586
397.546	10770
397.625	7585
397.705	10863
397.784	10148
397.863	6402
397.942	5770
398.022	5776
398.101	11781
398.180	30849
398.259	17490
398.338	7647
398.417	6902
398.497	4782
398.576	5523
398.655	4150
398.734	4914
398.813	4596
398.892	10734
398.971	33062
399.050	17491
399.129	4093
399.208	3427
399.287	4737
399.366	2315
399.445	2261
399.524	4316
399.603	3111
399.682	7387
399.761	13878
399.840	37001
399.919	28587
399.998	4758
400.077	2612
400.156	2209
400.235	5424
400.313	3036
400.392	4074
400.471	21678
400.550	36775
400.629	10448
400.708	4990
400.786	3177
400.865	6329
400.944	7823
401.023	6886
401.102	2110
401.180	1362
401.259	2247
401.338	2614
401.416	4280
401.495	3684
401.574	3236
401.652	2008
401.731	4250
401.810	4917
401.888	3462
401.967	2972
402.046	4814
402.124	4079
402.203	4642
402.281	4349
402.360	6650
402.438	10196
402.517	7144
402.596	2753
402.674	1933
402.753	2981
402.831	2715
402.910	3333
402.988	17711
403.066	70146
403.145	41946
403.223	20489
403.302	62554
403.380	45720
403.459	47912
403.537	18033
403.615	5622
403.694	1578
403.772	3297
403.850	2327
403.929	1944
404.007	2385
404.085	8919
404.164	10848
404.242	3921
404.320	4401
404.398	7977
404.477	19317
404.555	97510
404.633	88862
404.711	13790
404.789	4943
404.868	5001
404.946	2950
405.024	2542
405.102	1612
405.180	1835
405.258	1691
405.336	2538
405.415	2300
405.493	6280
405.571	7351
405.649	2220
405.727	1740
405.805	4732
405.883	5574
405.961	4360
406.039	3376
406.117	1777
406.195	5238
406.273	21903
406.351	88001
406.429	51399
406.507	6125
406.585	2927
406.663	3734
406.740	4789
406.818	4031
406.896	1733
406.974	3881
407.052	6648
407.130	48617
407.208	74315
407.285	15075
407.363	3022
407.441	2680
407.519	2409
407.596	3890
407.674	6334
407.752	16072
407.830	16559
407.907	7720
407.985	3673
408.063	2766
408.141	757
408.218	3590
408.296	4728
408.373	4629
408.451	4924
408.529	4390
408.606	1949
408.684	2124
408.762	2297
408.839	1396
408.917	1654
408.994	2985
409.072	2127
409.149	3303
409.227	7180
409.304	11172
409.382	8706
409.459	10013
409.537	15297
409.614	11720
409.692	8003
409.769	7835
409.846	15487
409.924	19647
410.001	12282
410.079	7808
410.156	5810
410.233	4344
410.311	4434
410.388	3440
410.465	4427
410.543	5253
410.620	3930
410.697	3854
410.775	4555
410.852	3205
410.929	5047
411.006	7215
411.083	5041
411.161	11623
411.238	10019
411.315	3842
411.392	2776
411.469	6136
411.547	7253
411.624	3074
411.701	2911
411.778	3185
411.855	7165
411.932	4450
412.009	2790
412.086	2382
412.163	2457
412.240	2413
412.317	3874
412.394	4599
412.471	2684
412.548	1529
412.625	2041
412.702	3050
412.779	5836
412.856	4810
412.933	730
413.010	2289
413.087	3959
413.164	21351
413.241	31425
413.318	7978
413.395	4597
413.471	7114
413.548	3695
413.625	2949
413.702	2337
413.779	2735
413.855	1317
413.932	1057
414.009	1478
414.086	1888
414.162	1593
414.239	4063
414.316	18518
414.393	46056
414.469	16577
414.546	1021
414.623	1346
414.699	1173
414.776	2589
414.853	1995
414.929	2322
415.006	1587
415.082	1602
415.159	1707
415.236	2379
415.312	1774
415.389	5603
415.465	5788
415.542	3206
415.618	1306
415.695	4637
415.771	3169
415.848	2320
415.924	2211
416.000	1408
416.077	1899
416.153	294
416.230	251
416.306	1162
416.383	1198
416.459	1364
416.535	111
416.612	717
416.688	802
416.764	1963
416.841	1167
416.917	2324
416.993	2496
417.069	1872
417.146	2479
417.222	3038
417.298	2651
417.374	1883
417.451	2143
417.527	3414
417.603	2996
417.679	3089
417.755	2543
417.831	717
417.908	1639
417.984	1409
418.060	-20
418.136	5871
418.212	7993
418.288	3277
418.364	1932
418.440	2008
418.516	3494
418.592	3598
418.668	8257
418.744	14261
418.820	10369
418.896	2968
418.972	1049
419.048	2526
419.124	7303
419.200	4859
419.276	1493
419.352	1038
419.428	1753
419.504	2195
419.579	3144
419.655	2578
419.731	3475
419.807	8938
419.883	16402
419.959	11677
420.034	3709
420.110	6957
420.186	28655
420.262	23888
420.337	5007
420.413	4121
420.489	2555
420.565	3451
420.640	2838
420.716	2971
420.792	1391
420.867	3104
420.943	3119
421.019	5651
421.094	5278
421.170	2600
421.245	3124
421.321	3775
421.397	3634
421.472	6324
421.548	11120
421.623	10930
421.699	7343
421.774	7315
421.850	7012
421.925	11107
422.001	12050
422.076	12040
422.152	13839
422.227	20882
422.302	27393
422.378	39746
422.453	72218
422.529	156666
422.604	331952
422.679	414514
422.755	358086
422.830	186839
422.905	83729
422.981	46977
423.056	31456
423.131	22786
423.207	16589
423.282	14410
423.357	18861
423.432	14161
423.508	12418
423.583	19268
423.658	15041
423.733	7486
423.808	6698
423.883	8768
423.959	8555
424.034	9013
424.109	7918
424.184	4217
424.259	3684
424.334	3518
424.409	2984
424.484	2813
424.559	4223
424.634	4137
424.709	5003
424.784	5423
424.859	3614
424.934	5912
425.009	20915
425.084	36368
425.159	13804
425.234	3535
425.309	2060
425.384	7444
425.459	11348
425.534	4589
425.609	1805
425.683	1789
425.758	2788
425.833	2132
425.908	3383
425.983	12360
426.058	36319
426.132	16509
426.207	2727
426.282	4097
426.357	1916
426.431	2220
426.506	2037
426.581	2225
426.655	2860
426.730	1960
426.805	2430
426.879	3266
426.954	2804
427.029	5728
427.103	30573
427.178	81117
427.253	37229
427.327	5335
427.402	3539
427.476	11883
427.551	5852
427.625	2028
427.700	2055
427.774	1316
427.849	2047
427.923	1692
427.998	2017
428.072	2279
428.147	6262
428.221	33073
428.296	110594
428.370	62387
428.444	7969
428.519	5342
428.593	6868
428.667	5516
428.742	8619
428.816	12265
428.890	58671
428.965	107206
429.039	30268
429.113	9842
429.188	3835
429.262	2515
429.336	5160
429.410	16730
429.485	10907
429.559	6371
429.633	4995
429.707	2694
429.781	9980
429.855	62084
429.930	104715
430.004	36113
430.078	31804
430.152	43232
430.226	132285
430.300	144187
430.374	25139
430.448	7479
430.522	10335
430.596	30079
430.670	28337
430.744	105615
430.818	157671
430.892	33201
430.966	4966
431.040	3439
431.114	2234
431.188	1887
431.262	1273
431.336	1199
431.410	3991
431.484	11115
431.557	9515
431.631	2351
431.705	3368
431.779	19935
431.853	97594
431.927	72607
432.000	9415
432.074	2802
432.148	1968
432.222	1872
432.295	1252
432.369	1140
432.443	4010
432.516	28594
432.590	81879
432.664	31962
432.737	4177
432.811	671
432.885	420
432.958	869
433.032	1144
433.106	178
433.179	824
433.253	1080
433.326	273
433.400	702
433.473	1115
433.547	131
433.620	574
433.694	3556
433.767	3341
433.841	1135
433.914	1016
433.988	1466
434.061	190
434.134	674
434.208	763
434.281	290
434.355	-137
434.428	1334
434.501	628
434.575	288
434.648	1075
434.721	-38
434.795	659
434.868	298
434.941	583
435.014	448
435.088	1169
435.161	3356
435.234	6200
435.307	7565
435.381	4816
435.454	4127
435.527	7816
435.600	8617
435.673	5923
435.746	3164
435.819	2371
435.892	2520
435.966	1265
436.039	1213
436.112	1094
436.185	177
436.258	-67
436.331	-444
436.404	941
436.477	653
436.550	529
436.623	527
436.696	425
436.769	1367
436.842	1320
436.915	742
436.987	2266
437.060	1299
437.133	-225
437.206	-501
437.279	518
437.352	1002
437.425	-18
437.498	975
437.570	4929
437.643	5058
437.716	1272
437.789	610
437.861	4484
437.934	16892
438.007	7666
438.080	1198
438.152	1409
438.225	5028
438.298	38530
438.370	118968
438.443	58139
438.516	16323
438.588	3683
438.661	697
438.734	1329
438.806	1931
438.879	2361
438.951	3799
439.024	8521
439.096	2883
439.169	409
439.241	368
439.314	927
439.386	1461
439.459	3242
439.531	6362
439.604	2354
439.676	846
439.749	115
439.821	-222
439.893	794
439.966	741
440.038	2415
440.110	2701
440.183	1315
440.255	1092
440.327	2842
440.400	15648
440.472	73230
440.544	59244
440.617	7138
440.689	6148
440.761	8746
440.833	14247
440.905	9338
440.978	1756
441.050	666
441.122	1489
441.194	645
441.266	396
441.338	577
441.411	3918
441.483	23464
441.555	40860
441.627	10633
441.699	3501
441.771	2566
441.843	2031
441.915	957
441.987	333
442.059	1188
442.131	1824
442.203	3704
442.275	4606
442.347	6198
442.419	9973
442.491	58412
442.563	159958
442.635	71109
442.706	18959
442.778	13329
442.850	4440
442.922	3190
442.994	3807
443.066	4364
443.137	5361
443.209	4475
443.281	8139
443.353	16734
443.425	66516
443.496	251614
443.568	278585
443.640	113903
443.711	21985
443.783	7615
443.855	5004
443.926	3428
443.998	2937
444.070	3656
444.141	3542
444.213	6010
444.285	6623
444.356	5087
444.428	4323
444.499	2709
444.571	1724
444.642	1944
444.714	3111
444.785	5368
444.857	5623
444.928	6567
445.000	5401
445.071	6763
445.143	10073
445.214	10757
445.285	14593
445.357	37928
445.428	148323
445.500	353333
445.571	255510
445.642	153610
445.714	49714
445.785	21931
445.856	9861
445.928	8915
445.999	9051
446.070	7444
446.141	5939
446.213	8049
446.284	3338
446.355	2138
446.426	2363
446.497	2146
446.569	3105
446.640	5516
446.711	6914
446.782	2956
446.853	1790
446.924	2721
446.995	2804
447.066	1966
447.138	3188
447.209	2183
447.280	323
447.351	1157
447.422	705
447.493	1447
447.564	2376
447.635	4863
447.706	2536
447.777	510
447.847	304
447.918	11
447.989	1262
448.060	1262
448.131	3971
448.202	4845
448.273	4804
448.344	1837
448.414	1204
448.485	1203
448.556	250
448.627	684
448.698	1325
448.768	195
448.839	13
448.910	2125
448.981	2368
449.051	2158
449.122	741
449.193	-418
449.263	553
449.334	672
449.405	1867
449.475	6251
449.546	5582
449.616	3028
449.687	2746
449.758	869
449.828	212
449.899	-190
449.969	725
450.040	385
450.110	769
450.181	1048
450.251	840
450.322	1113
450.392	405
450.463	540
450.533	99
450.604	431
450.674	738
450.744	982
450.815	-85
450.885	1169
450.955	1123
451.026	698
451.096	348
451.166	515
451.237	2287
451.307	7295
451.377	3458
451.447	564
451.518	750
451.588	127
451.658	689
451.728	839
451.799	6353
451.869	8098
451.939	1771
452.009	630
452.079	586
452.149	310
452.219	1710
452.289	6917
452.360	6758
452.430	1619
452.500	2741
452.570	3685
452.640	7557
452.710	20532
452.780	25543
452.850	19111
452.920	18833
452.990	6943
453.060	3197
453.129	3081
453.199	4067
453.269	9767
453.339	21771
453.409	33819
453.479	29148
453.549	42915
453.619	45278
453.688	20171
453.758	3496
453.828	761
453.898	570
453.968	515
454.037	1154
454.087	228
454.107	-157
454.168	361
454.177	420
454.247	185
454.249	212
454.316	677
454.330	606
454.386	301
454.411	1426
454.456	3218
454.492	4271
454.525	5240
454.574	3448
454.595	2668
454.655	997
454.665	716
454.734	990
454.736	1041
454.804	2632
454.817	3485
454.873	6901
454.898	7506
454.943	8541
454.979	6059
455.013	3844
455.060	2443
455.082	1849
455.141	1351
455.152	1238
455.221	4010
455.222	4088
455.291	8780
455.303	8178
455.360	5483
455.384	5876
455.430	6534
455.465	5760
455.499	4930
455.546	6076
455.569	6603
455.627	5612
455.638	5428
455.707	1811
455.708	1811
455.777	672
455.789	592
455.846	1
455.869	-1
455.916	190
455.950	633
455.985	991
456.031	509
456.054	259
456.112	1302
456.124	1493
456.193	854
456.193	847
456.262	725
456.274	815
456.332	1196
456.355	1277
456.401	1268
456.436	1007
456.470	700
456.516	496
456.540	510
456.597	393
456.609	297
456.678	1090
456.678	1087
456.747	694
456.759	707
456.817	698
456.840	642
456.886	464
456.920	797
456.955	1203
457.001	994
457.024	864
457.082	1194
457.093	1249
457.162	2046
457.163	2058
457.232	3020
457.243	2759
457.301	1144
457.324	873
457.370	861
457.405	1164
457.439	1313
457.485	1001
457.508	902
457.566	2120
457.577	2431
457.646	3551
457.647	3575
457.715	7374
457.727	8521
457.784	15185
457.808	20406
457.853	27225
457.889	33217
457.922	35472
457.969	23985
457.991	22977
458.050	24968
458.060	25191
458.129	44907
458.130	45500
458.198	53703
458.211	48497
458.267	28933
458.292	20461
458.336	11031
458.372	9692
458.405	11477
458.453	16760
458.474	21274
458.533	41416
458.543	42946
458.611	78044
458.614	78390
458.680	59253
458.694	48292
458.749	21249
458.775	14979
458.818	7039
458.855	5326
458.887	4147
458.936	3456
458.955	3131
459.016	2449
459.024	2380
459.093	2827
459.097	2823
459.162	2758
459.177	2853
459.230	3270
459.257	3504
459.299	3578
459.338	3831
459.368	4151
459.418	4608
459.437	4500
459.499	3140
459.505	3060
459.574	2466
459.579	2460
459.643	2117
459.659	2000
459.711	1995
459.740	2020
459.780	2084
459.820	2527
459.849	2622
459.900	2297
459.917	2321
459.981	2429
459.986	2394
460.054	1899
460.061	1884
460.123	2352
460.141	2458
460.191	2811
460.222	3022
460.260	3400
460.302	4642
460.328	4537
460.382	3001
460.397	2977
460.462	2209
460.465	2163
460.534	2568
460.543	2601
460.602	5786
460.623	7086
460.671	10436
460.703	14762
460.739	15438
460.783	13815
460.808	12550
460.864	4278
460.876	3342
460.944	2171
460.945	2151
461.013	2200
461.024	2137
461.081	2300
461.104	2801
461.150	3043
461.184	2824
461.218	3216
461.264	3351
461.286	3004
461.345	2120
461.355	2075
461.423	2593
461.425	2588
461.491	1956
461.505	1874
461.559	2891
461.585	3475
461.628	4769
461.665	6254
461.696	6853
461.745	8970
461.764	8661
461.825	4809
461.832	4814
461.901	3595
461.905	3649
461.969	2819
461.985	2712
462.037	3378
462.065	3251
462.105	2395
462.145	1896
462.173	2376
462.225	3498
462.241	3792
462.305	5756
462.310	5729
462.378	4936
462.385	4662
462.446	3263
462.465	2974
462.514	2474
462.545	2547
462.582	2881
462.625	2895
462.650	2666
462.705	2182
462.718	2152
462.785	2250
462.786	2261
462.854	2729
462.865	2810
462.922	3036
462.945	3285
462.990	3327
463.025	2856
463.058	2458
463.104	2103
463.126	1999
463.184	1991
463.194	2209
463.262	3312
463.264	3372
463.330	2717
463.344	2437
463.398	2711
463.424	2896
463.466	2997
463.504	3144
463.533	3013
463.583	2839
463.601	2995
463.663	3288
463.669	3341
463.737	4111
463.743	4187
463.805	5219
463.823	5557
463.873	6891
463.903	7721
463.940	8048
463.982	8641
464.008	7601
464.062	4436
464.076	4343
464.142	3437
464.144	3400
464.211	2626
464.221	2520
464.279	2984
464.301	3242
464.347	3214
464.381	3115
464.414	3346
464.461	3834
464.482	3934
464.540	4046
464.550	4028
464.617	3942
464.620	3930
464.685	4844
464.699	5021
464.753	4703
464.779	4646
464.820	4501
464.859	4302
464.888	4168
464.938	3708
464.956	3756
465.018	4192
465.023	4201
465.091	4069
465.098	4056
465.158	3527
465.177	3404
465.226	3920
465.257	4241
465.293	4299
465.336	4187
465.361	4720
465.416	6099
465.428	6181
465.495	6718
465.496	6729
465.563	7280
465.575	7369
465.631	8856
465.654	9740
465.698	7125
465.734	4318
465.765	3779
465.813	3022
465.833	3057
465.893	3550
465.900	3536
465.968	3364
465.972	3344
466.035	3315
466.052	3319
466.102	3263
466.131	3210
466.170	2854
466.210	2496
466.237	3012
466.290	3930
466.304	3950
466.369	4047
466.372	4049
466.439	3981
466.449	3947
466.506	4443
466.528	4652
466.573	5871
466.607	6757
466.641	9144
466.687	12505
466.708	13615
466.766	16750
466.775	15695
466.842	7582
466.845	7183
466.909	5505
466.925	5144
466.977	4641
467.004	4421
467.044	4609
467.083	4790
467.111	5190
467.163	5938
467.178	5962
467.242	6022
467.245	6024
467.312	5919
467.321	5899
467.379	4659
467.400	4197
467.446	5379
467.480	6225
467.559	5466
467.638	4679
467.717	4295
467.796	6647
467.875	7538
467.955	6063
468.034	6986
468.113	12449
468.192	18365
468.271	7527
468.350	7794
468.429	12475
468.508	14051
468.588	8468
468.667	6395
468.746	5293
468.825	4926
468.904	4968
468.983	5958
469.062	6659
469.141	7726
469.220	4387
469.299	4626
469.378	4189
469.456	5296
469.535	6192
469.614	4501
469.693	4673
469.772	5451
469.851	8928
469.930	6870
470.009	7108
470.088	7127
470.166	12291
470.245	23876
470.324	29237
470.403	15512
470.482	8595
470.560	6092
470.639	6694
470.718	7751
470.797	6522
470.875	6404
470.954	7952
471.033	6713
471.111	4546
471.190	3287
471.269	3197
471.347	4226
471.426	4282
471.505	4723
471.583	4506
471.662	4545
471.740	4432
471.819	4349
471.898	3304
471.976	4386
472.055	3883
472.133	4299
472.212	5218
472.290	4937
472.369	4447
472.447	4488
472.526	4105
472.604	4416
472.683	4782
472.761	6801
472.839	6067
472.918	4995
472.996	4725
473.075	5718
473.153	5076
473.231	3666
473.310	4381
473.388	5139
473.466	5124
473.545	6243
473.623	9570
473.701	9066
473.780	5665
473.858	3795
473.936	5935
474.014	5958
474.093	5967
474.171	6036
474.249	7263
474.327	5265
474.405	4413
474.484	5030
474.562	5526
474.640	4365
474.718	4507
474.796	3929
474.874	4192
474.952	4167
475.030	4266
475.108	4827
475.187	5015
475.265	6686
475.343	11894
475.421	13250
475.499	5355
475.577	4121
475.655	5738
475.733	7625
475.811	11103
475.889	10879
475.966	8724
476.044	4670
476.122	8350
476.200	12803
476.278	7752
476.356	3604
476.434	5656
476.512	7683
476.590	11564
476.667	9518
476.745	4758
476.823	4021
476.901	3989
476.979	4160
477.056	4740
477.134	3951
477.212	4102
477.290	4551
477.367	3445
477.445	3318
477.523	3923
477.601	3695
477.678	3430
477.756	4437
477.834	4722
477.911	4051
477.989	4061
478.066	4038
478.144	4822
478.222	7623
478.299	15869
478.377	14180
478.454	3700
478.532	4145
478.609	4930
478.687	5600
478.764	3870
478.842	4910
478.919	5933
478.997	3959
479.074	3411
479.152	3364
479.229	5265
479.307	3018
479.384	3617
479.461	3158
479.539	3300
479.616	4229
479.694	3821
479.771	4866
479.848	4330
479.926	3394
480.003	5614
480.080	3594
480.157	3686
480.235	3606
480.312	4623
480.389	4338
480.467	4718
480.544	5608
480.621	4396
480.698	5243
480.775	4836
480.853	4935
480.930	4695
481.007	3375
481.084	3104
481.161	4883
481.238	4239
481.315	2290
481.392	3196
481.470	3270
481.547	3764
481.624	2589
481.701	3751
481.778	3550
481.855	4219
481.932	5484
482.009	8130
482.086	6356
482.163	6241
482.240	11877
482.317	23031
482.393	15387
482.470	5861
482.547	4581
482.624	4419
482.701	5277
482.778	4400
482.855	3308
482.932	3969
483.009	4380
483.085	5876
483.162	7631
483.239	6715
483.316	5165
483.393	5558
483.469	5190
483.546	4823
483.623	4371
483.699	3929
483.776	3207
483.853	4104
483.930	5441
484.006	10218
484.083	16266
484.160	9743
484.236	13742
484.313	11099
484.389	7782
484.466	8400
484.543	7751
484.619	9277
484.696	11590
484.772	8941
484.849	8564
484.925	6898
485.002	7029
485.078	9878
485.155	8489
485.231	5835
485.308	7391
485.384	6760
485.461	7422
485.537	12238
485.614	12942
485.690	7494
485.766	6998
485.843	9123
485.919	14664
485.995	15898
486.072	6305
486.148	5353
486.224	6418
486.301	7068
486.377	8268
486.453	9853
486.530	8177
486.606	9073
486.682	9542
486.758	10455
486.835	12177
486.911	9981
486.987	17239
487.063	29790
487.139	44451
487.215	28018
487.292	11748
487.368	9801
487.444	12070
487.520	17830
487.596	20260
487.672	39263
487.748	129692
487.824	191130
487.900	48198
487.976	14734
488.052	11901
488.128	16398
488.204	10109
488.280	7476
488.356	8407
488.432	13053
488.508	20272
488.584	9462
488.660	7366
488.736	8634
488.812	7862
488.888	12312
488.964	16320
489.039	44467
489.115	70182
489.191	35573
489.267	7925
489.343	6340
489.418	6150
489.494	5859
489.570	4385
489.646	6861
489.722	5939
489.797	5847
489.873	7351
489.949	14152
490.024	11803
490.100	6087
490.176	6182
490.251	9306
490.327	13201
490.403	6507
490.478	4806
490.554	4629
490.629	5306
490.705	5718
490.781	5878
490.856	5650
490.932	7364
491.007	8145
491.083	5899
491.158	5475
491.234	6071
491.309	11122
491.385	9810
491.460	5651
491.536	7148
491.611	6496
491.686	8552
491.762	11933
491.837	29058
491.913	46068
491.988	65510
492.063	84278
492.139	15606
492.214	7935
492.289	4953
492.365	5231
492.440	6831
492.515	5621
492.590	4948
492.666	5198
492.741	5235
492.816	8332
492.891	5008
492.967	4002
493.042	4793
493.117	4059
493.192	4326
493.267	5895
493.342	11903
493.418	13072
493.493	5578
493.568	4787
493.643	4979
493.718	5987
493.793	8966
493.868	13420
493.943	8677
494.018	4918
494.093	3848
494.168	5001
494.243	3653
494.318	4420
494.393	3934
494.468	3919
494.543	4830
494.618	6094
494.693	3103
494.768	4922
494.842	4292
494.917	3939
494.992	5350
495.067	4825
495.142	3675
495.217	5611
495.292	5833
495.366	7340
495.441	7921
495.516	11332
495.591	15830
495.665	63787
495.740	157712
495.815	52359
495.890	7061
495.964	4019
496.039	7077
496.114	4469
496.188	5098
496.263	6283
496.338	4526
496.412	4155
496.487	5910
496.561	8491
496.636	8034
496.710	5910
496.785	6606
496.860	7086
496.934	5020
497.009	6368
497.083	5198
497.158	5188
497.232	5796
497.307	7635
497.381	7014
497.455	6680
497.530	6984
497.604	5836
497.679	6378
497.753	8901
497.827	10505
497.902	9947
497.976	11675
498.050	25818
498.125	97449
498.199	98074
498.273	22217
498.348	16201
498.422	11783
498.496	11975
498.570	11746
498.645	6325
498.719	4746
498.793	7485
498.867	10790
498.941	13612
499.016	36520
499.090	102153
499.164	33869
499.238	7719
499.312	5532
499.386	8486
499.460	7015
499.534	6628
499.609	7464
499.683	9136
499.757	9252
499.831	16510
499.905	62557
499.979	56511
500.053	10809
500.127	13849
500.201	13977
500.275	7445
500.349	6479
500.422	8738
500.496	13111
500.570	30077
500.644	44227
500.718	66916
500.792	16227
500.866	6138
500.940	5903
501.013	5886
501.087	6102
501.161	14057
501.235	13830
501.309	20718
501.382	51462
501.456	48207
501.530	12793
501.603	16428
501.677	7375
501.751	4535
501.825	6744
501.898	8293
501.972	19554
502.046	11882
502.119	4548
502.193	12219
502.266	22859
502.340	12110
502.413	9786
502.487	19372
502.561	10795
502.634	5804
502.708	6158
502.781	4899
502.855	4820
502.928	2695
503.002	3805
503.075	3234
503.149	2717
503.222	2993
503.295	3974
503.369	4893
503.442	5038
503.516	15305
503.589	37187
503.662	23263
503.736	8899
503.809	20440
503.882	17531
503.956	27897
504.029	34801
504.102	72806
504.175	103805
504.249	28123
504.322	10622
504.395	6711
504.468	5360
504.542	3630
504.615	2666
504.688	3455
504.761	2964
504.834	6817
504.907	6952
504.980	13513
505.053	5377
505.127	5588
505.200	8892
505.273	3856
505.346	3024
505.419	2026
505.492	2896
505.565	2365
505.638	2277
505.711	2062
505.784	1096
505.857	2343
505.930	4034
506.003	1473
506.076	3539
506.149	3033
506.221	2703
506.294	5016
506.367	7516
506.440	28908
506.513	16631
506.586	5008
506.659	2280
506.731	3085
506.804	4033
506.877	7462
506.950	3588
507.022	3791
507.095	1868
507.168	4494
507.241	4269
507.313	2605
507.386	3237
507.459	7905
507.531	3852
507.604	2834
507.677	2522
507.749	1678
507.822	4894
507.894	8460
507.967	8281
508.040	4004
508.112	4305
508.185	4919
508.257	2630
508.330	8889
508.402	3087
508.475	3137
508.547	3719
508.620	3929
508.692	4822
508.765	3793
508.837	1828
508.909	3550
508.982	1767
509.054	4437
509.127	2175
509.199	2260
509.271	819
509.344	1851
509.416	3068
509.488	1723
509.560	3601
509.633	3507
509.705	4817
509.777	4539
509.849	6450
509.922	3551
509.994	2414
510.066	2430
510.138	702
510.210	7299
510.283	3857
510.355	4757
510.427	3757
510.499	3481
510.571	3674
510.643	3596
510.715	9829
510.787	5986
510.859	5400
510.931	4421
511.003	7570
511.076	7257
511.148	2454
511.219	2856
511.291	4596
511.363	5775
511.435	3069
511.507	1629
511.579	3401
511.651	4395
511.723	2607
511.795	2804
511.867	1937
511.939	3836
512.010	5154
512.082	5507
512.154	2927
512.226	3096
512.298	5478
512.369	8695
512.441	6418
512.513	7525
512.585	4442
512.656	4890
512.728	5503
512.800	4947
512.871	3939
512.943	4120
513.015	1631
513.086	4900
513.158	4744
513.230	4765
513.301	8284
513.373	12678
513.444	4446
513.516	3540
513.588	3730
513.659	5579
513.731	7285
513.802	5009
513.874	15935
513.945	28833
514.016	7318
514.088	4958
514.159	4971
514.231	7991
514.302	8202
514.374	6282
514.445	2725
514.516	9122
514.588	5038
514.659	4726
514.730	6346
514.802	8233
514.873	3516
514.944	6095
515.016	5385
515.087	6375
515.158	6136
515.229	8350
515.301	4121
515.372	5322
515.443	3558
515.514	3239
515.585	3297
515.656	5166
515.728	5238
515.799	3762
515.870	5228
515.941	5090
516.012	4490
516.083	7685
516.154	8400
516.225	14892
516.296	13724
516.367	13010
516.438	17160
516.509	24378
516.580	37456
516.651	129622
516.722	471277
516.793	160788
516.864	31334
516.935	29525
517.006	36484
517.077	52805
517.148	126605
517.219	554301
517.289	759597
517.360	103332
517.431	26874
517.502	13113
517.573	12402
517.643	10640
517.714	11420
517.785	13571
517.856	15139
517.926	22205
517.997	28996
518.068	38607
518.138	55220
518.209	89785
518.280	344007
518.350	1231231
518.421	386276
518.492	45549
518.562	23388
518.633	20486
518.703	21558
518.774	44074
518.845	122356
518.915	114938
518.986	28851
519.056	17501
519.127	26344
519.197	31833
519.268	40781
519.338	23712
519.408	8535
519.479	15362
519.549	9587
519.620	8007
519.690	4233
519.760	4458
519.831	5202
519.901	6030
519.971	4713
520.042	4311
520.112	3707
520.182	7079
520.253	8237
520.323	4859
520.393	7006
520.463	15047
520.534	5811
520.604	20242
520.674	7722
520.744	7751
520.814	21430
520.885	16505
520.955	10280
521.025	33526
521.095	13615
521.165	5065
521.235	3637
521.305	2608
521.375	3463
521.445	5240
521.515	6535
521.585	8986
521.655	6833
521.725	6733
521.795	5514
521.865	1427
521.935	5587
522.005	3489
522.075	2468
522.145	4387
522.215	3233
522.285	4773
522.355	5924
522.424	11412
522.494	9057
522.564	8465
522.634	21110
522.704	68844
522.774	22427
522.843	5524
522.913	4856
522.983	6930
523.053	4371
523.122	5882
523.192	9021
523.262	38579
523.331	32856
523.401	7233
523.471	4130
523.540	4476
523.610	2039
523.680	3483
523.749	3346
523.819	3636
523.888	2937
523.958	3030
524.027	3232
524.097	4834
524.166	2940
524.236	3518
524.305	6210
524.375	2697
524.444	1836
524.514	4540
524.583	2369
524.653	3037
524.722	4447
524.791	3215
524.861	4318
524.930	3173
524.999	2535
525.069	6811
525.138	3564
525.207	3382
525.277	4304
525.346	4656
525.415	4682
525.484	4913
525.554	4486
525.623	5714
525.692	5980
525.761	7891
525.830	10092
525.900	13844
525.969	20816
526.038	37313
526.107	78958
526.176	242788
526.245	187239
526.314	55987
526.383	122161
526.452	161373
526.522	270536
526.591	249366
526.660	56131
526.729	31404
526.797	36319
526.867	65001
526.935	260640
527.004	558562
527.073	290562
527.142	26299
527.211	10891
527.280	10850
527.349	8714
527.418	3971
527.487	5953
527.555	3358
527.624	2914
527.693	2829
527.762	4094
527.831	3400
527.899	3661
527.968	3719
528.037	1901
528.106	6336
528.174	10594
528.243	6793
528.312	9181
528.380	13557
528.449	2604
528.518	4014
528.586	1389
528.655	3616
528.723	2451
528.792	2953
528.861	1895
528.929	805
528.998	3719
529.066	2621
529.135	2529
529.203	2489
529.272	1108
529.340	4069
529.409	3916
529.477	2174
529.545	2421
529.614	5548
529.682	2543
529.751	4409
529.819	6661
529.887	4178
529.956	2447
530.024	4460
530.092	2496
530.161	5193
530.229	7619
530.297	3645
530.365	4707
530.434	2831
530.502	3218
530.570	4035
530.638	2076
530.707	4401
530.775	5099
530.843	2607
530.911	2499
530.979	3111
531.047	2770
531.115	3999
531.183	3555
531.252	3389
531.320	2525
531.388	1916
531.456	3698
531.524	2028
531.592	3466
531.660	5635
531.728	3163
531.796	3894
531.864	4074
531.932	4301
532.000	3151
532.067	3933
532.135	4327
532.203	6266
532.271	6052
532.339	11318
532.407	30888
532.475	15661
532.542	8051
532.610	8811
532.678	11572
532.746	52694
532.814	128786
532.881	30118
532.949	6405
533.017	4370
533.084	4308
533.152	4152
533.220	4107
533.287	4397
533.355	4319
533.423	4351
533.490	3081
533.558	3914
533.625	4002
533.693	4018
533.761	4925
533.828	4906
533.896	4182
533.963	9454
534.031	11813
534.098	18624
534.166	7889
534.233	4898
534.300	5927
534.368	5989
534.435	5101
534.503	6719
534.570	7990
534.637	8328
534.705	9549
534.772	11150
534.840	22011
534.907	108079
534.974	131882
535.041	14564
535.109	6589
535.176	5470
535.243	5525
535.310	5187
535.378	3878
535.445	4298
535.512	4661
535.579	5007
535.646	3723
535.714	5466
535.781	5717
535.848	6651
535.915	4909
535.982	4503
536.049	4399
536.116	5962
536.183	5414
536.250	5277
536.317	4831
536.384	7747
536.451	10336
536.518	11110
536.585	6404
536.652	10393
536.719	13513
536.786	10019
536.853	7878
536.920	11744
536.987	18202
537.053	16880
537.120	64039
537.187	53624
537.254	7612
537.321	5843
537.388	7253
537.454	4983
537.521	4096
537.588	5406
537.654	6035
537.721	6287
537.788	7207
537.855	4934
537.921	5199
537.988	5016
538.055	6359
538.121	5938
538.188	6175
538.254	9636
538.321	19937
538.388	12764
538.454	6409
538.521	6087
538.587	6537
538.654	5317
538.720	4948
538.787	5937
538.853	5443
538.920	6232
538.986	6101
539.053	5258
539.119	4422
539.185	6120
539.252	7555
539.318	11130
539.385	8792
539.451	6178
539.517	7575
539.583	9304
539.650	17377
539.716	46164
539.782	12927
539.849	6668
539.915	6273
539.981	7321
540.047	8047
540.114	6385
540.180	8685
540.246	7349
540.312	10014
540.378	19317
540.444	19198
540.510	19824
540.576	53606
540.643	17152
540.709	5143
540.775	6521
540.841	5242
540.907	7576
540.973	9693
541.039	10819
541.105	12505
541.171	6760
541.237	5603
541.303	7090
541.369	8791
541.435	9795
541.500	17421
541.566	9595
541.632	5670
541.698	5567
541.764	5867
541.830	5367
541.896	4697
541.961	6401
542.027	6629
542.093	6869
542.159	6491
542.224	5976
542.290	9646
542.356	16864
542.421	19316
542.487	9034
542.553	5433
542.618	6368
542.684	6406
542.750	6472
542.815	9323
542.881	13061
542.947	46047
543.012	33763
543.078	6847
543.143	6335
543.209	6572
543.274	6916
543.340	8626
543.405	18581
543.471	26956
543.536	8065
543.602	6342
543.667	3944
543.732	6335
543.798	4288
543.863	5920
543.928	6021
543.994	5253
544.059	6165
544.124	6256
544.190	6206
544.255	6447
544.320	8036
544.386	6753
544.451	9445
544.516	12210
544.581	10903
544.646	28455
544.712	45100
544.777	9853
544.842	6650
544.907	6512
544.972	7216
545.037	7047
545.102	7401
545.168	6624
545.233	8375
545.298	8872
545.363	7729
545.428	10393
545.493	18732
545.558	38523
545.623	16078
545.688	7614
545.753	8639
545.818	6479
545.883	9035
545.947	7770
546.012	9723
546.077	8442
546.142	10635
546.207	9816
546.272	12738
546.337	13746
546.401	11248
546.466	10321
546.531	10246
546.596	11710
546.661	12973
546.725	13361
546.790	12638
546.855	14662
546.919	15551
546.984	16654
547.049	18916
547.113	20818
547.178	22493
547.243	25539
547.307	30554
547.372	34409
547.436	33853
547.501	34099
547.565	37760
547.630	37045
547.695	35827
547.759	33211
547.823	34881
547.888	32793
547.952	34491
548.017	35692
548.081	38559
548.146	38019
548.210	38765
548.274	40077
548.339	40015
548.403	36786
548.468	33033
548.532	33679
548.596	34616
548.660	34401
548.725	39455
548.789	42288
548.853	42439
548.917	38071
548.982	38192
549.046	34546
549.110	31549
549.174	30171
549.238	35043
549.303	39394
549.367	41633
549.431	38941
549.495	37055
549.559	36254
549.623	43646
549.687	47664
549.751	50327
549.815	55839
549.879	56305
549.943	52762
550.007	55847
550.071	55434
550.135	53215
550.199	47732
550.263	45893
550.327	44084
550.391	45375
550.455	50193
550.519	53639
550.582	57051
550.646	66492
550.710	67099
550.774	64059
550.838	63348
550.901	65390
550.965	69547
551.029	73394
551.093	78059
551.156	85380
551.220	99235
551.284	119618
551.347	86667
551.411	75889
551.475	73091
551.538	70346
551.602	65781
551.666	61568
551.729	56175
551.793	56066
551.856	55094
551.920	52538
551.983	54228
552.047	53814
552.110	52174
552.174	54235
552.237	56680
552.301	52094
552.364	49686
552.428	48395
552.491	49839
552.554	53588
552.618	50033
552.681	55910
552.745	55193
552.808	74251
552.871	87061
552.934	63198
552.998	53308
553.061	50850
553.124	47929
553.187	48052
553.251	48860
553.314	49680
553.377	48608
553.440	52099
553.503	56446
553.567	56926
553.630	52214
553.693	53723
553.756	52817
553.819	52434
553.882	48917
553.945	50561
554.008	50036
554.071	50430
554.134	50457
554.197	49029
554.260	46931
554.323	49828
554.386	47319
554.449	49332
554.512	51153
554.575	47687
554.638	48288
554.701	47756
554.764	47212
554.827	45652
554.889	43864
554.952	40805
555.015	39907
555.078	41508
555.141	43285
555.203	41249
555.266	39826
555.329	40555
555.391	38932
555.454	39120
555.517	37364
555.580	36284
555.642	33699
555.705	32822
555.768	33528
555.830	33534
555.893	31433
555.955	31201
556.018	29794
556.080	31262
556.143	32585
556.206	30709
556.268	30132
556.330	30470
556.393	28901
556.455	28929
556.518	29820
556.580	30195
556.643	25448
556.705	25337
556.767	23955
556.830	25739
556.892	26839
556.955	30497
557.017	26669
557.079	23473
557.142	22888
557.204	25402
557.266	35441
557.328	29866
557.391	19996
557.453	19180
557.515	20640
557.577	22542
557.639	23102
557.701	21166
557.764	19984
557.826	20958
557.888	23780
557.950	24447
558.012	28271
558.074	36316
558.136	77690
558.198	188702
558.260	65922
558.322	25947
558.384	28006
558.446	33341
558.508	38871
558.570	45980
558.632	64098
558.694	89165
558.756	114418
558.818	324946
558.880	748760
558.942	239085
559.003	200696
559.065	97975
559.127	41414
559.189	41771
559.251	49310
559.312	70310
559.374	159941
559.436	514329
559.498	239887
559.559	46410
559.621	40572
559.683	50702
559.744	78356
559.806	250022
559.868	365048
559.929	70611
559.991	43519
560.052	67553
560.114	186666
560.176	117959
560.237	105015
560.299	170630
560.360	36230
560.422	14364
560.483	13489
560.545	11914
560.606	9839
560.667	10735
560.729	10316
560.790	9572
560.852	9873
560.913	10226
560.974	9255
561.036	10136
561.097	9904
561.158	8991
561.220	9772
561.281	10064
561.342	9347
561.403	12158
561.465	13259
561.526	32335
561.587	39560
561.648	11849
561.709	9319
561.771	8440
561.832	8015
561.893	7957
561.954	8689
562.015	8127
562.076	8200
562.137	8452
562.198	8626
562.259	8479
562.320	8443
562.381	10016
562.442	14498
562.503	10215
562.564	8816
562.625	8059
562.686	7382
562.747	9939
562.808	7535
562.869	6541
562.930	8334
562.991	7073
563.051	7044
563.112	7039
563.173	6366
563.234	6671
563.294	7303
563.355	8255
563.416	7161
563.477	6646
563.537	6873
563.598	7878
563.659	6463
563.720	7883
563.780	7509
563.841	8997
563.901	7666
563.962	6228
564.023	6721
564.083	7526
564.144	7256
564.204	6696
564.265	6849
564.325	7709
564.386	10755
564.446	10700
564.507	7127
564.567	6918
564.628	6210
564.688	7448
564.749	6870
564.809	7822
564.869	7494
564.930	6332
564.990	8145
565.050	7283
565.111	6153
565.171	6653
565.231	6961
565.292	7686
565.352	6282
565.412	6339
565.472	6588
565.532	8556
565.593	7083
565.653	6570
565.713	7871
565.773	8926
565.833	10076
565.893	13318
565.953	6344
566.013	7006
566.074	7390
566.134	8549
566.194	9910
566.254	12519
566.314	7803
566.374	6316
566.434	7239
566.494	6351
566.554	5864
566.614	6978
566.673	7201
566.733	6977
566.793	7044
566.853	8099
566.913	7824
566.973	7693
567.033	8847
567.092	9520
567.152	9360
567.212	9314
567.272	6668
567.331	7481
567.391	6918
567.451	7894
567.511	9712
567.570	9112
567.630	7038
567.690	7161
567.749	6918
567.809	7793
567.868	7706
567.928	8370
567.988	8340
568.047	8910
568.107	9684
568.166	11247
568.226	14981
568.285	18632
568.345	15596
568.404	13803
568.464	12149
568.523	12382
568.582	11824
568.642	13904
568.701	15926
568.761	19561
568.820	30079
568.879	28263
568.939	19078
568.998	15272
569.057	12090
569.116	11432
569.176	10331
569.235	8703
569.294	8771
569.353	8385
569.413	7242
569.472	7468
569.531	7601
569.590	7173
569.649	6951
569.708	7123
569.767	8841
569.827	12409
569.886	8747
569.945	7034
570.004	8614
570.063	7368
570.122	7635
570.181	8562
570.240	7907
570.299	9250
570.358	11893
570.417	8143
570.475	7549
570.534	9344
570.593	9235
570.652	9237
570.711	9351
570.770	7676
570.829	8674
570.887	9184
570.946	10219
571.005	8017
571.064	8284
571.122	10137
571.181	10224
571.240	7298
571.299	6821
571.357	6676
571.416	7139
571.475	7967
571.533	6999
571.592	7374
571.650	7267
571.709	6183
571.768	7985
571.826	9046
571.885	7544
571.943	7387
572.002	6879
572.060	7038
572.119	4921
572.177	6378
572.236	7235
572.294	6830
572.352	7656
572.411	7043
572.469	5889
572.528	6805
572.586	8152
572.644	8993
572.703	12009
572.761	7797
572.819	6591
572.877	7168
572.936	5300
572.994	5087
573.052	6461
573.110	7516
573.169	6505
573.227	5339
573.285	6299
573.343	5661
573.401	6160
573.459	6410
573.517	5867
573.576	6628
573.634	6820
573.692	7671
573.750	7091
573.808	6088
573.866	5959
573.924	7221
573.982	6602
574.040	6152
574.098	5628
574.155	5712
574.213	6063
574.271	5651
574.329	8021
574.387	7155
574.445	4824
574.503	6049
574.560	4597
574.618	4541
574.676	5017
574.734	6712
574.792	5962
574.849	6045
574.907	5022
574.965	5263
575.022	4567
575.080	5365
575.138	5542
575.195	6005
575.253	4940
575.311	7166
575.368	5619
575.426	5043
575.483	5105
575.541	5496
575.598	4267
575.656	5289
575.713	5587
575.771	6085
575.828	5384
575.886	5694
575.943	5316
576.001	5056
576.058	4409
576.115	5395
576.173	5998
576.230	7810
576.287	9594
576.345	7128
576.402	4837
576.459	6209
576.517	4853
576.574	5947
576.631	4888
576.688	5486
576.746	4361
576.803	5282
576.860	4866
576.917	4927
576.974	5287
577.031	5217
577.089	4631
577.146	4752
577.203	5549
577.260	5165
577.317	5029
577.374	5290
577.431	5210
577.488	5304
577.545	3973
577.602	5525
577.659	4295
577.716	5464
577.773	4683
577.830	4387
577.886	4711
577.943	4546
578.000	4460
578.057	4507
578.114	4580
578.171	5145
578.227	5139
578.284	4580
578.341	4410
578.398	5718
578.454	5274
578.511	5255
578.568	6551
578.625	4608
578.681	4157
578.738	4556
578.794	4225
578.851	4698
578.908	4625
578.964	5336
579.021	5632
579.077	5235
579.134	5957
579.190	5394
579.247	6049
579.303	5449
579.360	3874
579.416	5270
579.473	4724
579.529	4791
579.586	5147
579.642	4886
579.698	5660
579.755	4530
579.811	5333
579.867	4975
579.924	4462
579.980	5290
580.036	5673
580.093	5672
580.149	4865
580.205	5780
580.261	5310
580.317	6319
580.374	6019
580.430	6643
580.486	5612
580.542	4573
580.598	5328
580.619	5531
580.654	5881
580.692	5817
580.710	5783
580.765	6357
580.767	6374
580.823	5639
580.838	5722
580.879	5944
580.911	5724
580.935	5550
580.984	6332
580.991	6438
581.047	5862
581.057	5911
581.103	6100
581.130	5712
581.159	5295
581.203	5532
581.215	5594
581.270	5417
581.276	5421
581.326	5414
581.349	5580
581.382	5812
581.422	6094
581.438	6197
581.494	6014
581.494	6016
581.550	5825
581.567	6149
581.606	6748
581.640	6736
581.661	6766
581.713	7338
581.717	7382
581.773	6724
581.786	6527
581.829	5790
581.859	5785
581.885	5800
581.932	5638
581.940	5588
581.996	6468
582.004	6565
582.052	7018
582.077	6470
582.107	5870
582.150	6084
582.163	6140
582.219	6686
582.223	6654
582.274	6192
582.296	6375
582.330	6729
582.368	7171
582.386	7381
582.441	7211
582.441	7205
582.497	6812
582.514	6912
582.552	7300
582.587	7444
582.608	7547
582.659	7579
582.663	7577
582.719	7766
582.732	7849
582.774	8029
582.805	8056
582.830	8117
582.877	8529
582.885	8588
582.941	8111
582.950	8182
582.996	8560
583.023	8455
583.052	8469
583.095	8827
583.107	8822
583.162	9029
583.168	8963
583.218	8552
583.240	8528
583.273	8271
583.313	8333
583.328	8487
583.384	8281
583.385	8307
583.439	8954
583.458	8951
583.494	8921
583.531	8863
583.549	8803
583.603	8633
583.605	8633
583.660	8852
583.676	9145
583.715	9874
583.748	9958
583.770	10069
583.820	9703
583.825	9659
583.881	9701
583.893	9640
583.936	9484
583.965	9932
583.991	10255
584.038	9819
584.046	9806
584.101	10443
584.110	10441
584.156	10248
584.183	10259
584.211	10178
584.255	10056
584.266	10118
584.321	10626
584.328	10642
584.376	10854
584.400	11024
584.431	11181
584.472	11722
584.486	11960
584.541	12498
584.545	12480
584.596	12186
584.617	12454
584.651	13198
584.689	13363
584.706	13309
584.761	13896
584.762	13878
584.816	13281
584.834	13600
584.871	14805
584.906	15349
584.926	15481
584.978	15515
584.980	15560
585.035	17758
585.051	18171
585.090	19316
585.123	20635
585.145	21716
585.195	24828
585.200	25174
585.254	27745
585.267	28891
585.309	33418
585.340	36663
585.364	39401
585.412	45821
585.419	47015
585.473	56243
585.484	58934
585.528	76714
585.556	91380
585.583	129510
585.628	210676
585.637	244989
585.692	503685
585.700	548141
585.747	677653
585.772	620027
585.801	407878
585.845	137633
585.856	111560
585.910	55279
585.917	49543
585.965	38791
585.989	34100
586.019	31248
586.061	29207
586.074	28945
586.128	26870
586.133	26756
586.183	27016
586.205	26727
586.237	26096
586.277	25640
586.292	25529
586.346	23948
586.349	23884
586.401	23936
586.421	23816
586.455	24602
586.493	25807
586.509	27014
586.564	30693
586.565	30753
586.618	37715
586.637	39050
586.672	37546
586.709	35354
586.727	35293
586.781	36915
586.781	36983
586.835	31348
586.853	29950
586.889	28153
586.925	26381
586.944	26472
586.996	26589
586.998	26650
587.052	27286
587.068	27203
587.106	27770
587.140	28080
587.161	28052
587.212	27680
587.215	27771
587.269	28742
587.284	28835
587.323	29932
587.356	30786
587.377	31184
587.427	32441
587.431	32582
587.485	32285
587.499	32252
587.539	33746
587.571	34944
587.593	35813
587.643	36962
587.648	37155
587.702	38591
587.715	38792
587.755	39832
587.786	40582
587.810	41521
587.858	42827
587.864	43119
587.917	45083
587.930	45428
587.971	48403
588.001	50278
588.025	51488
588.073	53590
588.079	54290
588.133	59376
588.145	60443
588.187	64855
588.217	67796
588.241	72042
588.288	79700
588.295	81208
588.348	92994
588.360	95467
588.402	106162
588.431	112613
588.456	120265
588.503	136119
588.510	139360
588.564	164015
588.575	169059
588.617	196681
588.646	215747
588.671	242759
588.718	296574
588.725	315335
588.778	465376
588.789	497824
588.832	835642
588.861	1080522
588.886	1434886
588.932	2142769
588.939	2177524
588.993	2319774
589.004	2306894
589.047	1625403
589.075	1162270
589.100	897862
589.147	456608
589.154	440280
589.207	324894
589.218	301517
589.261	286561
589.290	277573
589.314	294288
589.361	329783
589.368	351881
589.421	535978
589.433	577307
589.475	1026926
589.504	1357546
589.528	1636763
589.576	2170118
589.582	2111847
589.635	1375652
589.647	1209764
589.689	689438
589.718	350068
589.742	289466
589.790	177263
589.795	173542
589.849	136769
589.861	128210
589.902	115823
589.932	106083
589.955	99670
590.004	84826
590.009	84298
590.062	76181
590.075	74010
590.115	70354
590.146	67014
590.168	66109
590.218	63476
590.222	63653
590.275	63130
590.289	62694
590.328	61530
590.360	60151
590.381	59671
590.431	57889
590.435	58095
590.488	57840
590.503	57623
590.541	58318
590.574	58610
590.594	58530
590.645	57124
590.647	57312
590.700	56606
590.716	56204
590.753	57095
590.787	57452
590.806	57575
590.859	57086
590.859	57299
590.912	56709
590.930	56260
590.965	57424
591.001	58101
591.018	58138
591.071	57700
591.072	57469
591.124	57467
591.143	57219
591.177	58079
591.214	58558
591.230	59346
591.283	61255
591.285	61083
591.336	62046
591.356	62138
591.389	62134
591.427	61348
591.442	60517
591.495	56531
591.498	56019
591.547	56663
591.569	56656
591.600	57228
591.640	57370
591.653	57941
591.706	59354
591.711	59272
591.759	60547
591.782	60797
591.811	63021
591.853	65652
591.864	65472
591.917	63144
591.924	62547
591.969	63230
591.995	63217
592.022	63914
592.066	64380
592.075	65097
592.127	67835
592.137	68069
592.180	70067
592.208	70867
592.233	70028
592.279	67596
592.285	67961
592.338	68651
592.350	68535
592.390	68056
592.421	67183
592.443	68290
592.491	69814
592.495	70200
592.548	71468
592.562	71526
592.600	71582
592.633	71060
592.653	71325
592.704	70851
592.705	71260
592.775	71179
592.846	74028
592.916	75646
592.987	77849
593.058	76692
593.128	75456
593.199	75276
593.270	74219
593.341	75848
593.411	79196
593.482	80960
593.553	80670
593.623	82725
593.694	84725
593.764	85227
593.835	83782
593.906	84332
593.976	86332
594.047	88953
594.117	94965
594.188	96212
594.258	91956
594.329	91070
594.399	94682
594.470	96945
594.540	99331
594.611	101465
594.681	101169
594.751	101978
594.822	106998
594.892	109579
594.963	110493
595.033	114350
595.103	117807
595.174	118848
595.244	128668
595.314	133962
595.384	124544
595.455	127672
595.525	132744
595.595	136792
595.665	136138
595.736	132807
595.806	136074
595.876	136740
595.946	137485
596.016	144048
596.087	147952
596.157	147558
596.227	148713
596.297	156006
596.367	166064
596.437	178451
596.507	180754
596.577	184981
596.647	183203
596.717	188638
596.787	193727
596.857	190602
596.927	193981
596.997	193351
597.067	194935
597.137	200133
597.207	200739
597.277	201386
597.347	192935
597.417	189699
597.487	188657
597.557	193403
597.626	197819
597.696	201550
597.766	203974
597.836	195377
597.906	178319
597.975	174825
598.045	176097
598.115	184400
598.185	199963
598.254	224013
598.324	245581
598.394	247760
598.464	240434
598.533	234113
598.603	217690
598.672	214015
598.742	216385
598.812	216276
598.881	223371
598.951	220093
599.020	222666
599.090	232631
599.159	237343
599.229	228166
599.299	221922
599.368	231319
599.437	225024
599.507	205312
599.576	201913
599.646	200464
599.715	196235
599.785	193515
599.854	190922
599.924	186936
599.993	184898
600.062	189177
600.132	194013
600.201	207634
600.270	243847
600.340	256475
600.409	248813
600.478	246101
600.547	255033
600.617	230163
600.686	186093
600.755	169785
600.824	161716
600.894	156739
600.963	157679
601.032	154525
601.101	152345
601.170	144083
601.239	143538
601.308	147303
601.378	146557
601.447	144156
601.516	145914
601.585	149860
601.654	157888
601.723	151339
601.792	154361
601.861	163027
601.930	167934
601.999	173589
602.068	169849
602.137	180301
602.206	180613
602.275	178315
602.343	185216
602.412	184631
602.481	180487
602.550	179662
602.619	186403
602.688	187647
602.756	188374
602.825	188073
602.894	194381
602.963	196981
603.032	201622
603.100	200688
603.169	199445
603.238	204184
603.307	200802
603.375	203054
603.444	210238
603.513	209459
603.581	215091
603.650	221780
603.719	208777
603.787	213393
603.856	220814
603.924	226247
603.993	235197
604.061	241343
604.130	252769
604.198	258639
604.267	264545
604.335	266189
604.404	272033
604.472	275600
604.541	278702
604.609	280958
604.678	281999
604.746	285207
604.815	293397
604.883	298098
604.951	295947
605.020	302724
605.088	303932
605.156	310063
605.225	314449
605.293	313141
605.361	315853
605.429	319223
605.498	323003
605.566	335452
605.634	350549
605.702	363951
605.771	373597
605.839	374249
605.907	362157
605.975	352292
606.043	346258
606.111	343976
606.180	347420
606.248	338990
606.316	338284
606.384	343606
606.452	340757
606.520	350936
606.588	352459
606.656	351829
606.724	345490
606.792	323776
606.860	290075
606.928	262087
606.996	251727
607.064	248158
607.132	254835
607.200	271925
607.267	281028
607.335	289163
607.403	292151
607.471	283746
607.539	277078
607.607	275086
607.674	240395
607.742	240747
607.810	241437
607.878	241235
607.946	245734
608.013	260731
608.081	263014
608.149	266553
608.216	276153
608.284	281100
608.352	284255
608.419	281584
608.487	280312
608.555	268300
608.622	278491
608.690	297085
608.757	330557
608.825	336239
608.893	329475
608.960	317387
609.028	304280
609.095	298162
609.163	293082
609.230	257730
609.298	235666
609.365	248437
609.432	270580
609.500	293515
609.567	344406
609.635	398662
609.702	420597
609.769	398875
609.837	300371
609.904	257038
609.971	268205
610.039	294388
610.106	384822
610.173	730934
610.241	1602130
610.308	874945
610.375	340545
610.442	283017
610.509	267688
610.577	265284
610.644	272046
610.711	279335
610.778	287513
610.845	301268
610.912	322999
610.980	335564
611.047	333224
611.114	330085
611.181	317703
611.248	314262
611.315	333448
611.382	342258
611.449	359573
611.516	362592
611.583	355899
611.650	359044
611.717	364403
611.784	371500
611.851	387208
611.918	412250
611.984	476140
612.051	656772
612.118	1250560
612.185	2764154
612.252	1750962
612.319	589655
612.386	484557
612.452	436176
612.519	413691
612.586	409755
612.653	413800
612.719	430011
612.786	410290
612.853	375322
612.919	369936
612.986	374061
613.053	353364
613.120	326772
613.186	318878
613.253	317966
613.319	319139
613.386	319940
613.453	330229
613.519	335307
613.586	334743
613.652	356759
613.719	340849
613.785	340438
613.852	332364
613.918	328539
613.985	331353
614.051	348871
614.118	350545
614.184	335239
614.250	327418
614.317	335735
614.383	329640
614.449	337824
614.516	336349
614.582	338097
614.648	329322
614.715	328089
614.781	321844
614.847	321903
614.914	318238
614.980	311113
615.046	309360
615.112	318583
615.179	320519
615.245	326548
615.311	323090
615.377	334865
615.443	341232
615.509	336202
615.575	345321
615.642	340537
615.708	350730
615.774	367077
615.840	390778
615.906	413177
615.972	501141
616.038	742610
616.104	1473927
616.170	3083835
616.236	2546548
616.302	809800
616.368	611954
616.434	452954
616.500	415410
616.565	456520
616.631	567225
616.697	465375
616.763	480604
616.829	715993
616.895	1251533
616.961	1155567
617.026	523443
617.092	370782
617.158	347581
617.224	337471
617.289	307728
617.355	289904
617.421	287711
617.487	286221
617.552	270245
617.618	266845
617.684	268789
617.749	271104
617.815	257408
617.880	249789
617.946	251087
618.012	259537
618.077	264264
618.143	250112
618.208	252811
618.274	275795
618.339	278441
618.405	225272
618.470	224523
618.536	223774
618.601	221665
618.667	203151
618.732	192701
618.798	187940
618.863	186209
618.928	185462
618.994	190282
619.059	193399
619.124	210539
619.190	192956
619.255	184890
619.320	184849
619.386	187386
619.451	184200
619.516	177464
619.581	180482
619.647	187389
619.712	186684
619.777	175136
619.842	178976
619.907	183513
619.972	187618
620.038	185508
620.103	177235
620.168	177064
620.233	178836
620.298	180873
620.363	183410
620.428	188705
620.493	192751
620.558	196110
620.623	198191
620.688	199008
620.753	196147
620.818	201525
620.883	202615
620.948	202498
621.013	199789
621.078	195520
621.143	198891
621.207	201779
621.272	198192
621.337	193684
621.402	190929
621.467	192581
621.532	193317
621.596	193851
621.661	182625
621.726	179395
621.791	182601
621.855	185256
621.920	184815
621.985	186377
622.049	191983
622.114	190922
622.179	192460
622.243	199105
622.308	204944
622.373	213054
622.437	209199
622.502	194140
622.566	194550
622.631	192025
622.695	198593
622.760	197616
622.824	195551
622.889	198280
622.953	203396
623.018	234569
623.082	233929
623.147	212227
623.211	205289
623.276	206074
623.340	195637
623.404	188549
623.469	187770
623.533	192134
623.597	185584
623.662	186663
623.726	169645
623.790	159291
623.854	155147
623.919	159799
623.983	161087
624.047	164371
624.111	166920
624.176	170847
624.240	177647
624.304	186386
624.368	170071
624.432	168939
624.496	176204
624.560	190032
624.625	194983
624.689	184894
624.753	193455
624.817	182213
624.881	177841
624.945	160106
625.009	154718
625.073	160050
625.137	170906
625.201	186596
625.265	183125
625.329	167495
625.393	169503
625.456	169547
625.520	175264
625.584	182273
625.648	189621
625.712	204815
625.776	234971
625.839	228957
625.903	160983
625.967	140618
626.031	162715
626.095	204989
626.158	166882
626.222	127369
626.286	118554
626.349	112638
626.413	107118
626.477	110374
626.540	109095
626.604	107009
626.668	103886
626.731	104174
626.795	104486
626.858	107265
626.922	103356
626.986	102023
627.049	102181
627.113	109104
627.176	102407
627.240	100309
627.303	103117
627.366	100030
627.430	103999
627.493	101741
627.557	100095
627.620	102961
627.684	105834
627.747	109143
627.810	97460
627.874	90031
627.937	84760
628.000	91706
628.064	87343
628.127	76382
628.190	76866
628.253	75704
628.317	71599
628.380	69758
628.443	68627
628.506	69437
628.569	64521
628.632	60337
628.696	60844
628.759	62202
628.822	57401
628.885	57741
628.948	56564
629.011	57389
629.074	56488
629.137	53457
629.200	53666
629.263	57008
629.326	51618
629.389	52357
629.452	52131
629.515	51871
629.578	52759
629.641	54266
629.704	53358
629.767	53323
629.830	49788
629.892	50113
629.955	48094
630.018	53711
630.081	54492
630.144	58986
630.207	52135
630.269	52704
630.332	48907
630.395	49289
630.458	47250
630.520	48330
630.583	48192
630.646	46869
630.708	47228
630.771	47164
630.834	51442
630.896	49434
630.959	49389
631.021	47724
631.084	47832
631.146	49717
631.209	51283
631.272	49016
631.334	50140
631.397	50650
631.459	51204
631.522	54325
631.584	54843
631.646	59725
631.709	62384
631.771	68039
631.834	60959
631.896	55084
631.958	51256
632.021	50592
632.083	47945
632.145	49511
632.208	47968
632.270	48877
632.332	46128
632.395	44749
632.457	47757
632.519	45437
632.581	46158
632.643	45005
632.706	45940
632.768	43868
632.830	44749
632.892	45474
632.954	46690
633.016	47452
633.078	46416
633.141	46517
633.203	45091
633.265	45779
633.327	46642
633.389	47222
633.451	49114
633.513	52760
633.575	50729
633.637	52657
633.698	51600
633.760	50852
633.822	51845
633.884	54158
633.946	54714
634.008	55565
634.070	57212
634.132	61505
634.193	66727
634.255	71935
634.317	73007
634.379	72178
634.441	62645
634.502	57872
634.564	52428
634.626	48740
634.687	46794
634.749	47296
634.811	45072
634.873	44473
634.934	44088
634.996	46506
635.057	44779
635.119	45402
635.181	46983
635.242	46313
635.304	43939
635.365	48351
635.427	46097
635.488	46946
635.550	45291
635.611	46724
635.673	45137
635.734	51798
635.796	52879
635.857	59496
635.918	61995
635.980	67224
636.041	71031
636.102	76907
636.164	77515
636.225	75112
636.286	63055
636.348	56295
636.409	52495
636.470	48687
636.531	46544
636.593	46145
636.654	42818
636.715	41367
636.776	40161
636.838	39212
636.899	40609
636.960	38232
637.021	37786
637.082	37532
637.143	35688
637.204	34816
637.265	35808
637.326	37096
637.387	37128
637.448	36981
637.509	36322
637.570	36514
637.631	36133
637.692	34333
637.753	32952
637.814	34363
637.875	33330
637.936	33249
637.997	32826
638.058	34682
638.119	34393
638.179	33543
638.240	32707
638.301	33834
638.362	32463
638.423	31378
638.483	31895
638.544	29623
638.605	30941
638.666	30527
638.726	30665
638.787	31038
638.848	30579
638.908	29173
638.969	28037
639.030	28750
639.090	29355
639.151	29315
639.211	31792
639.272	37312
639.332	47912
639.393	36351
639.453	32687
639.514	34810
639.574	29620
639.635	28124
639.695	28561
639.756	27432
639.816	29768
639.877	32705
639.937	44268
639.997	50183
640.058	29893
640.118	27254
640.178	28215
640.239	26689
640.299	26220
640.359	27584
640.420	29115
640.480	33569
640.540	38247
640.600	37204
640.661	34022
640.721	33490
640.781	36760
640.841	29355
640.901	29236
640.961	28468
641.021	30432
641.082	36181
641.142	38597
641.202	30343
641.262	24393
641.322	26754
641.382	25723
641.442	25567
641.502	24647
641.562	26427
641.622	25757
641.682	28748
641.742	33597
641.802	30888
641.861	27200
641.921	26414
641.981	28304
642.041	27330
642.101	30743
642.161	24684
642.221	23479
642.280	24185
642.340	23486
642.400	22688
642.460	24166
642.519	24930
642.579	24549
642.639	25280
642.698	22695
642.758	27661
642.818	25922
642.877	25045
642.937	26601
642.997	29824
643.056	34933
643.116	27456
643.175	27161
643.235	26172
643.294	27199
643.354	29237
643.414	30372
643.473	36463
643.532	44246
643.592	62065
643.651	99287
643.711	176420
643.770	359390
643.830	888411
643.889	1677450
643.948	400107
644.008	85144
644.067	53383
644.126	39515
644.186	34497
644.245	30621
644.304	28155
644.363	28733
644.423	25126
644.482	26698
644.541	28494
644.600	28164
644.659	37577
644.719	46463
644.778	72503
644.837	129984
644.896	279634
644.955	624861
645.014	180017
645.073	44996
645.132	32775
645.191	30891
645.250	29232
645.309	31006
645.368	33598
645.427	45239
645.486	81516
645.545	133823
645.604	39657
645.663	26327
645.722	27072
645.781	28994
645.840	32200
645.898	40011
645.957	59480
646.016	93174
646.075	174802
646.134	347728
646.192	954384
646.251	1252363
646.310	192692
646.369	62307
646.427	51377
646.486	36917
646.545	30335
646.603	27298
646.662	24974
646.721	24942
646.779	24239
646.838	26504
646.896	33969
646.955	45072
647.014	77262
647.072	152218
647.131	421436
647.189	173310
647.248	30963
647.306	23995
647.365	21868
647.423	18635
647.481	20869
647.540	17466
647.598	19337
647.657	17394
647.715	19137
647.773	17016
647.832	18059
647.890	15552
647.948	15764
648.007	17512
648.065	16096
648.123	15965
648.181	16828
648.240	14874
648.298	15251
648.356	14530
648.414	16253
648.472	14973
648.531	15676
648.589	14688
648.647	14401
648.705	14855
648.763	15805
648.821	16023
648.879	16779
648.937	19830
648.995	23132
649.053	30868
649.111	48714
649.169	80570
649.227	153541
649.285	331142
649.343	922203
649.401	382170
649.459	80019
649.516	44891
649.574	27027
649.632	29663
649.690	32270
649.748	36373
649.806	54085
649.863	103926
649.921	301149
649.979	173778
650.037	26160
650.094	16397
650.152	17085
650.210	14390
650.268	14416
650.325	13686
650.383	13311
650.440	11483
650.498	12632
650.556	11513
650.613	11044
650.671	12630
650.728	12524
650.786	12939
650.843	18644
650.901	13009
650.958	11632
651.016	11393
651.073	10323
651.131	10625
651.188	9945
651.246	9918
651.303	9571
651.360	9687
651.418	10686
651.475	9223
651.532	9392
651.590	10298
651.647	8852
651.704	9744
651.762	10609
651.819	10125
651.876	8726
651.933	8923
651.990	10240
652.048	8190
652.105	8527
652.162	9878
652.219	8064
652.276	9588
652.333	9101
652.390	8028
652.448	9583
652.505	8934
652.562	9469
652.619	9121
652.676	9125
652.733	10069
652.790	9396
652.847	7301
652.904	8810
652.961	7473
653.017	8972
653.074	9386
653.131	10247
653.188	7293
653.245	8316
653.302	8029
653.359	8309
653.415	9143
653.472	8517
653.529	9194
653.586	8004
653.642	8369
653.699	9050
653.756	7962
653.813	8078
653.869	9131
653.926	8320
653.983	7867
654.039	8378
654.096	8085
654.152	8950
654.209	7038
654.266	8960
654.322	7183
654.379	9889
654.435	9610
654.492	9613
654.548	12369
654.605	15597
654.661	9952
654.717	7463
654.774	8140
654.830	7989
654.887	7885
654.943	8245
655.000	8837
655.056	8464
655.112	8274
655.168	8335
655.225	7826
655.281	8590
655.337	9258
655.394	11406
655.450	9629
655.506	8894
655.562	10460
655.618	11334
655.675	7073
655.731	7885
655.787	8097
655.843	9130
655.899	7066
655.955	9397
656.011	8522
656.067	8089
656.123	7977
656.179	7932
656.235	9104
656.291	7406
656.347	9688
656.403	7787
656.459	7659
656.515	8481
656.571	8378
656.627	7945
656.683	8182
656.739	9025
656.795	7569
656.850	8594
656.906	9928
656.962	9690
657.018	7736
657.074	10056
657.129	13752
657.185	20225
657.241	43053
657.297	21494
657.352	8781
657.408	7235
657.464	8418
657.519	7114
657.575	5707
657.630	6598
657.686	7078
657.742	6500
657.797	6502
657.853	6471
657.908	7994
657.964	6380
658.019	6563
658.075	6789
658.130	7004
658.186	6578
658.241	7245
658.297	6445
658.352	6589
658.407	7558
658.463	5634
658.518	7205
658.573	6991
658.629	6503
658.684	6527
658.739	6812
658.795	5177
658.850	7139
658.905	5129
658.960	6552
659.016	5207
659.071	7130
659.126	7919
659.181	7927
659.236	12907
659.291	13292
659.346	8081
659.401	7606
659.457	6199
659.512	6828
659.567	7634
659.622	6650
659.677	6822
659.732	5941
659.787	6358
659.842	6168
659.897	6925
659.952	6734
660.007	6435
660.061	6849
660.116	5802
660.171	5722
660.226	5699
660.281	5982
660.336	6096
660.391	6701
660.445	5800
660.500	6726
660.555	6569
660.610	6172
660.664	6082
660.719	5930
660.774	6209
660.828	7058
660.883	6391
660.938	6866
660.992	5413
661.047	6135
661.101	4613
661.156	6041
661.211	5144
661.265	5811
661.320	5645
661.374	5928
661.429	5043
661.483	5797
661.538	5775
661.592	6513
661.647	6115
661.701	6821
661.755	6527
661.810	6283
661.864	5495
661.919	5176
661.973	6296
662.027	6513
662.081	4856
662.136	4906
662.190	5424
662.244	5299
662.299	5606
662.353	5903
662.407	5404
662.461	6245
662.515	5605
662.569	5825
662.624	5823
662.678	5363
662.732	5386
662.786	4831
662.840	5169
662.894	5767
662.948	5587
663.002	6003
663.056	4925
663.110	5766
663.164	5284
663.218	5853
663.272	6543
663.326	6285
663.380	6584
663.434	6710
663.488	5787
663.542	6032
663.595	5040
663.649	6124
663.703	5953
663.757	5944
663.811	4863
663.864	5633
663.918	5526
663.972	5923
664.026	5739
664.079	5230
664.133	6083
664.187	6793
664.240	5783
664.294	5358
664.348	5650
664.401	6577
664.455	5676
664.508	5118
664.562	5420
664.615	5666
664.669	5155
664.722	6067
664.776	4853
664.829	4928
664.883	5464
664.936	6179
664.990	5776
665.043	5739
665.097	5775
665.150	6769
665.203	5537
665.257	5921
665.310	5767
665.363	5867
665.417	5828
665.470	6606
665.523	5584
665.576	6755
665.630	6191
665.683	7159
665.736	6096
665.789	6037
665.842	5588
665.895	5806
665.949	6348
666.002	6486
666.055	5826
666.108	6551
666.161	6085
666.214	6148
666.267	6803
666.320	8280
666.373	7417
666.426	6545
666.479	5359
666.532	6715
666.585	6808
666.638	6994
666.691	6466
666.744	6988
666.796	6454
666.849	7246
666.902	6750
666.955	6495
667.008	5322
667.060	5625
667.113	5270
667.166	6251
667.219	6235
667.271	6874
667.324	6332
667.377	5961
667.430	5097
667.482	6852
667.535	5932
667.587	6899
667.640	7334
667.693	8649
667.745	13734
667.798	13030
667.850	6048
667.903	7167
667.955	6327
668.008	6927
668.060	6265
668.113	6826
668.165	6735
668.218	6622
668.270	6244
668.322	5650
668.375	5263
668.427	6567
668.479	5224
668.532	6661
668.584	6464
668.636	6899
668.689	6364
668.741	6377
668.793	5843
668.845	5524
668.898	6286
668.950	5773
669.002	6342
669.054	5844
669.106	5072
669.158	6270
669.211	5975
669.263	6180
669.315	6371
669.367	5798
669.419	6087
669.471	7014
669.523	6150
669.575	8356
669.627	5829
669.679	5947
669.731	6534
669.783	6350
669.835	6172
669.886	6028
669.938	6231
669.990	5877
670.042	5036
670.094	6303
670.146	5265
670.197	5587
670.249	6576
670.301	6561
670.353	8088
670.404	9299
670.456	10780
670.508	15168
670.560	24702
670.611	40630
670.663	70591
670.715	179862
670.766	252094
670.818	52752
670.869	12401
670.921	9314
670.972	8940
671.024	7469
671.075	6158
671.127	6662
671.178	6463
671.230	7445
671.281	7527
671.333	7984
671.384	8900
671.436	11347
671.487	15524
671.538	21514
671.590	34190
671.641	57541
671.692	104516
671.744	191183
671.795	111850
671.846	38137
671.897	20115
671.949	14886
672.000	10586
672.051	9337
672.102	8181
672.153	7903
672.204	6695
672.256	6571
672.307	6283
672.358	6476
672.409	5852
672.460	6212
672.511	5684
672.562	5693
672.613	4481
672.664	5889
672.715	5018
672.766	5500
672.817	4401
672.868	5076
672.919	5358
672.970	4242
673.021	5579
673.071	4503
673.122	4928
673.173	5079
673.224	4288
673.275	5180
673.326	4853
673.376	4449
673.427	4493
673.478	4838
673.528	5142
673.579	4530
673.630	4165
673.680	5170
673.731	3900
673.782	4146
673.832	4826
673.883	4774
673.934	4117
673.984	4893
674.035	4889
674.085	5450
674.136	4778
674.186	5920
674.237	5415
674.287	6067
674.338	5240
674.388	5095
674.438	4341
674.489	5950
674.539	5356
674.589	5332
674.640	5186
674.690	4842
674.740	4512
674.791	5565
674.841	4283
674.891	4760
674.942	5229
674.992	3811
675.042	4176
675.092	4168
675.142	3428
675.193	2656
675.243	4050
675.293	5052
675.343	4042
675.393	4938
675.443	4379
675.493	4015
675.543	3121
675.593	4723
675.643	4186
675.693	3928
675.743	3903
675.793	4547
675.843	3547
675.893	4062
675.943	4690
675.993	4401
676.043	3637
676.093	4003
676.142	3713
676.192	4466
676.242	2248
676.292	3511
676.341	3545
676.391	4321
676.441	2725
676.491	3025
676.540	2964
676.590	3960
676.640	3570
676.689	3559
676.739	2448
676.789	3396
676.838	3307
676.888	3846
676.937	3444
676.987	3188
677.037	2768
677.086	3065
677.136	2770
677.185	2836
677.235	2663
677.284	3910
677.333	2506
677.383	2959
677.432	2594
677.482	2370
677.531	3691
677.580	1999
677.630	2686
677.679	3310
677.728	3720
677.778	3324
677.827	2405
677.876	3787
677.925	3217
677.975	3911
678.024	3075
678.073	3748
678.122	3903
678.171	3220
678.220	3875
678.269	5277
678.319	4935
678.368	5259
678.417	3685
678.466	4287
678.515	3501
678.564	3801
678.613	2827
678.662	3194
678.711	2993
678.760	3024
678.809	2842
678.857	2857
678.906	4130
678.955	3162
679.004	3176
679.053	3069
679.102	2593
679.151	3266
679.199	2989
679.248	2944
679.297	2322
679.346	3073
679.394	2930
679.443	2415
679.492	2469
679.540	3183
679.589	3037
679.638	2971
679.686	2743
679.735	3958
679.784	3855
679.832	4294
679.881	2969
679.929	3587
679.978	2265
680.026	2675
680.075	3012
680.123	2472
680.172	1954
680.220	2517
680.268	3215
680.317	2288
680.365	1981
680.414	2455
680.462	2251
680.510	2164
680.559	3105
680.607	2268
680.655	2329
680.703	2651
680.752	2851
680.800	2624
680.848	2797
680.896	2480
680.945	2548
680.993	2245
681.041	1588
681.089	2525
681.137	2436
681.185	2668
681.233	2982
681.258	2429
681.281	1884
681.329	1120
681.377	2937
681.380	2950
681.425	2772
681.473	3131
681.502	3255
681.521	3298
681.569	3470
681.617	2393
681.624	2508
681.665	3080
681.713	3160
681.745	3118
681.761	3061
681.809	2097
681.857	3327
681.867	3168
681.904	2536
681.952	3222
681.989	2975
682.000	2871
682.048	3256
682.096	3372
682.111	3060
682.143	2296
682.191	2596
682.233	4122
682.239	4329
682.286	3319
682.334	3577
682.354	3448
682.382	3255
682.430	3884
682.476	3921
682.477	3901
682.525	3370
682.572	3586
682.598	3540
682.620	3502
682.667	4151
682.715	4087
682.720	4067
682.763	3664
682.810	3910
682.841	3970
682.857	3931
682.905	4464
682.952	3703
682.963	3745
683.000	3767
683.047	3524
683.085	4096
683.095	4253
683.142	3571
683.190	4324
683.206	4035
683.237	3429
683.284	4148
683.328	4117
683.332	4095
683.379	4190
683.426	4080
683.449	4160
683.473	4259
683.521	4045
683.568	4754
683.571	4747
683.615	4384
683.662	5117
683.693	4784
683.709	4552
683.757	4574
683.804	4195
683.814	4224
683.851	4341
683.898	5445
683.936	5094
683.945	5000
683.992	4851
684.039	5584
684.057	5646
684.086	5721
684.133	5752
684.179	6163
684.180	6146
684.227	6696
684.274	5823
684.300	6133
684.321	6426
684.368	5133
684.415	6136
684.422	5990
684.462	4830
684.509	5014
684.543	4783
684.556	4784
684.603	5474
684.649	5103
684.665	5204
684.696	5339
684.743	5251
684.786	5767
684.790	5799
684.837	5966
684.883	6105
684.908	6222
684.930	6244
684.977	6266
685.023	6205
685.029	6241
685.070	6400
685.117	5215
685.150	5553
685.164	5761
685.210	6009
685.257	6734
685.272	6703
685.303	6508
685.350	7017
685.393	7176
685.396	7205
685.443	7865
685.490	9218
685.514	8906
685.536	8164
685.583	7678
685.629	7602
685.636	7484
685.675	7107
685.722	7544
685.757	6925
685.768	6732
685.815	7127
685.861	7536
685.878	7427
685.908	7168
685.954	6464
686.000	6979
686.000	6988
686.047	7580
686.093	8395
686.121	8754
686.139	8687
686.185	8109
686.232	7491
686.242	7343
686.278	7042
686.324	7336
686.363	6979
686.370	6905
686.416	6389
686.463	6865
686.484	6660
686.509	6501
686.555	6917
686.601	6923
686.606	6906
686.647	6658
686.693	6840
686.727	6891
686.739	6964
686.785	6828
686.831	6949
686.848	7074
686.877	7108
686.923	7240
686.969	6670
686.969	6667
687.015	7068
687.061	7699
687.090	7922
687.107	7944
687.153	7452
687.199	7379
687.211	7335
687.245	7388
687.291	7849
687.332	7847
687.336	7836
687.382	7926
687.428	7992
687.453	8158
687.474	8202
687.520	7593
687.565	7648
687.574	7485
687.611	7067
687.657	7364
687.695	7786
687.702	7907
687.748	7772
687.794	8451
687.816	8504
687.839	8279
687.885	7852
687.931	8196
687.937	8117
687.976	8061
688.022	8140
688.058	8769
688.067	8880
688.113	8383
688.158	8504
688.179	8448
688.204	8301
688.249	8241
688.295	8572
688.300	8538
688.340	8593
688.386	8650
688.421	8364
688.431	8303
688.477	8757
688.522	9145
688.542	9279
688.567	9354
688.613	9344
688.658	9047
688.663	9065
688.703	9233
688.749	9181
688.784	8940
688.794	8870
688.839	8969
688.884	9056
688.905	8867
688.930	8709
688.975	8799
689.020	8968
689.026	8944
689.065	8792
689.110	8787
689.146	8383
689.155	8300
689.201	8247
689.246	8751
689.267	8459
689.291	8351
689.336	9203
689.381	9270
689.388	9347
689.426	9349
689.471	9063
689.509	8967
689.516	9007
689.561	9210
689.606	9186
689.630	9408
689.651	9571
689.696	8763
689.741	9169
689.750	9203
689.785	9332
689.830	9267
689.871	8964
689.875	8948
689.920	8816
689.965	8832
689.992	8843
690.010	8914
690.054	9045
690.099	9161
690.112	9092
690.144	8959
690.189	9313
690.233	9285
690.233	9298
690.278	9574
690.323	9600
690.354	9794
690.367	9874
690.412	10087
690.457	9629
690.474	9569
690.501	9410
690.546	9585
690.590	9519
690.595	9468
690.635	9203
690.680	8819
690.716	8877
690.724	8962
690.769	9618
690.813	9431
690.836	9457
690.857	9569
690.902	10072
690.946	10608
690.957	10660
690.991	10883
691.035	10891
691.077	11558
691.080	11601
691.124	11464
691.168	11669
691.198	11502
691.213	11294
691.257	11416
691.301	10611
691.318	10626
691.346	10903
691.390	10659
691.434	10560
691.439	10568
691.478	10854
691.522	10961
691.559	10877
691.567	10964
691.611	11733
691.655	11795
691.680	12295
691.699	12145
691.743	11386
691.787	10761
691.800	10522
691.831	10634
691.875	10593
691.919	10475
691.921	10476
691.964	10893
692.008	10681
692.041	10347
692.052	10382
692.096	10575
692.139	11234
692.162	11338
692.183	11232
692.227	11106
692.271	10938
692.282	10899
692.315	11034
692.359	11003
692.402	11005
692.403	11026
692.447	10914
692.490	11388
692.523	11248
692.534	11241
692.578	11357
692.622	11218
692.643	11434
692.666	11476
692.709	10816
692.753	10886
692.763	10746
692.797	10822
692.840	10839
692.884	11091
692.884	11114
692.928	11218
692.971	11433
693.004	11456
693.015	11528
693.059	11368
693.102	11752
693.124	11786
693.146	11775
693.189	11786
693.233	11636
693.245	11634
693.276	11884
693.320	12038
693.363	12227
693.365	12214
693.407	12344
693.450	12164
693.485	11921
693.493	11954
693.537	12495
693.580	12706
693.605	12943
693.624	13018
693.667	12905
693.710	12806
693.725	12764
693.753	13305
693.797	14158
693.840	14718
693.845	14845
693.883	15293
693.926	15007
693.966	15037
693.970	15016
694.013	14012
694.056	13649
694.086	13112
694.099	13021
694.142	12738
694.185	12690
694.206	12450
694.229	12547
694.272	13027
694.315	13425
694.326	13381
694.358	13645
694.401	14591
694.444	15548
694.446	15550
694.487	15679
694.530	15682
694.566	15717
694.573	15527
694.616	13998
694.659	12478
694.686	11533
694.702	11546
694.745	11883
694.787	11750
694.806	11731
694.830	11806
694.873	11773
694.916	11956
694.926	11894
694.959	12166
695.002	12888
695.044	13449
695.046	13441
695.087	13436
695.130	13277
695.166	13117
695.172	13124
695.215	13087
695.258	13087
695.286	13018
695.301	13011
695.343	12855
695.386	12827
695.406	12669
695.428	12744
695.471	13032
695.514	13456
695.526	13474
695.556	13697
695.599	14284
695.641	14474
695.646	14468
695.684	14318
695.726	14248
695.766	14212
695.769	14241
695.811	14012
695.854	13760
695.886	13671
695.896	13715
695.938	13720
695.981	13533
696.005	13559
696.023	13842
696.065	14214
696.108	14823
696.125	14989
696.150	15141
696.192	15397
696.235	15584
696.245	15589
696.277	15380
696.319	15047
696.361	14861
696.365	14791
696.404	14800
696.446	14914
696.485	15105
696.488	15166
696.530	15249
696.572	15524
696.604	15559
696.614	15542
696.656	15415
696.698	15315
696.724	15210
696.740	15302
696.783	15368
696.825	15504
696.844	15573
696.867	15642
696.909	15587
696.951	15490
696.964	15431
696.992	15486
697.034	15480
697.076	15549
697.083	15520
697.118	15850
697.160	16230
697.202	16504
697.203	16472
697.244	16213
697.286	16020
697.323	15607
697.327	15681
697.369	16120
697.411	16560
697.442	16874
697.453	16990
697.494	17229
697.536	17495
697.562	17571
697.578	17715
697.620	18197
697.661	18452
697.682	18577
697.703	19095
697.744	20011
697.786	21042
697.801	21309
697.828	21240
697.869	21035
697.911	20888
697.921	20809
697.952	20049
697.994	18930
698.035	17828
698.040	17649
698.077	17553
698.118	17370
698.160	17286
698.160	17244
698.201	17289
698.243	17342
698.279	17346
698.284	17465
698.325	18157
698.367	18886
698.399	19412
698.408	19318
698.449	18585
698.491	17958
698.518	17447
698.532	17633
698.573	18072
698.614	18571
698.638	18781
698.656	18880
698.697	19031
698.738	19155
698.757	19175
698.779	19403
698.820	19727
698.862	20075
698.877	20147
698.903	19923
698.944	19499
698.985	19068
698.996	18905
699.026	19011
699.067	19093
699.116	19146
699.235	18371
699.354	18774
699.474	17847
699.593	19761
699.713	18653
699.832	20188
699.951	20085
700.070	18814
700.190	17419
700.309	17994
700.428	18142
700.547	17959
700.667	18483
700.786	20129
700.905	17269
701.024	17878
701.143	16935
701.262	17350
701.381	17647
701.500	18837
701.619	21960
701.738	18378
701.857	16519
701.976	16026
702.095	16874
702.214	20620
702.333	21230
702.452	18753
702.571	16529
702.690	16635
702.809	15652
702.928	15763
703.047	16095
703.165	16506
703.284	16272
703.403	16317
703.522	16097
703.640	16807
703.759	19843
703.878	22691
703.997	16442
704.115	15444
704.234	16273
704.353	16553
704.471	14505
704.590	14496
704.708	13669
704.827	13997
704.946	13857
705.064	15515
705.183	14356
705.301	15821
705.420	16112
705.538	16710
705.656	13947
705.775	14468
705.893	16724
706.012	16134
706.130	14416
706.249	15649
706.367	15055
706.485	15370
706.604	15034
706.722	16515
706.840	19261
706.958	17969
707.077	14496
707.195	14617
707.313	13767
707.431	13370
707.549	14266
707.668	12826
707.786	13578
707.904	13662
708.022	14102
708.140	15018
708.258	14025
708.376	14428
708.494	13481
708.612	16087
708.730	18009
708.848	17225
708.966	17470
709.084	17304
709.202	15838
709.320	14800
709.438	14018
709.556	15417
709.674	13534
709.791	14106
709.909	12539
710.027	13548
710.145	12314
710.263	14203
710.380	13017
710.498	13516
710.616	12859
710.733	13878
710.851	13252
710.969	15356
711.086	13348
711.204	13922
711.322	13592
711.439	13690
711.557	13400
711.674	13685
711.792	13204
711.909	13384
712.027	12503
712.144	13297
712.262	13101
712.379	14548
712.497	15865
712.614	16558
712.732	14317
712.849	15484
712.966	16932
713.084	22676
713.201	15677
713.318	16019
713.436	15093
713.553	15901
713.670	18705
713.787	18388
713.905	18537
714.022	16288
714.139	18075
714.256	25675
714.373	39093
714.490	78606
714.608	228525
714.725	997739
714.842	970736
714.959	74659
715.076	30977
715.193	22295
715.310	19494
715.427	15559
715.544	15301
715.661	14969
715.778	13732
715.895	15495
716.011	15188
716.128	15174
716.245	15575
716.362	19835
716.479	20151
716.596	13809
716.713	13110
716.829	12780
716.946	11846
717.063	12209
717.180	12203
717.296	11882
717.413	10901
717.530	12622
717.646	12195
717.763	11807
717.880	10708
717.996	12260
718.113	12947
718.229	13189
718.346	10634
718.462	13446
718.579	18988
718.695	39732
718.812	22327
718.928	16867
719.045	12456
719.161	11334
719.277	11412
719.394	12313
719.510	11696
719.626	14633
719.743	20104
719.859	32420
719.975	69697
720.092	312215
720.208	712862
720.324	72504
720.440	20021
720.557	18367
720.673	29739
720.789	29445
720.905	43913
721.021	16515
721.137	10686
721.253	10952
721.369	10686
721.486	12089
721.602	15303
721.718	9897
721.834	9786
721.950	10761
722.066	9907
722.181	9905
722.297	10902
722.413	10588
722.529	9717
722.645	9719
722.761	8751
722.877	9421
722.993	11075
723.108	15111
723.224	12204
723.340	10588
723.456	9409
723.571	8850
723.687	7882
723.803	8585
723.918	8922
724.034	8937
724.150	8664
724.265	9721
724.381	16140
724.497	21324
724.612	8931
724.728	8675
724.843	7646
724.959	10657
725.074	17115
725.190	19011
725.305	10312
725.421	8986
725.536	7169
725.651	8360
725.767	7832
725.882	8439
725.997	8823
726.113	8700
726.228	6805
726.343	8060
726.459	7157
726.574	7447
726.689	7046
726.804	7373
726.920	7582
727.035	7568
727.150	8425
727.265	8091
727.380	7673
727.495	8742
727.610	7311
727.725	7907
727.841	7574
727.956	9021
728.071	8197
728.186	7908
728.301	6149
728.416	9100
728.531	7730
728.645	6886
728.760	9173
728.875	11467
728.990	9642
729.105	9696
729.220	10249
729.335	10336
729.449	7246
729.564	6894
729.679	6227
729.794	7691
729.908	7834
730.023	7263
730.138	6713
730.253	8304
730.367	7021
730.482	7488
730.596	7149
730.711	9406
730.826	9427
730.940	9127
731.055	8673
731.169	9579
731.284	7794
731.398	7973
731.513	9513
731.627	10143
731.742	11849
731.856	13944
731.970	14097
732.085	20081
732.199	29816
732.313	56059
732.428	153207
732.542	444778
732.656	246659
732.771	42806
732.885	22207
732.999	17469
733.113	15576
733.227	14143
733.342	12794
733.456	11826
733.570	10762
733.684	11362
733.798	10660
733.912	10458
734.026	9297
734.140	8853
734.254	10057
734.368	14573
734.482	16115
734.596	10046
734.710	9323
734.824	9456
734.938	9031
735.052	10032
735.166	10319
735.280	10723
735.393	8578
735.507	9702
735.621	11307
735.735	15364
735.849	9632
735.962	8686
736.076	8614
736.190	9114
736.303	10895
736.417	12784
736.531	8498
736.644	8261
736.758	7852
736.872	8834
736.985	8525
737.099	7753
737.212	7129
737.326	8501
737.439	8688
737.553	8909
737.666	9116
737.780	7330
737.893	7715
738.007	7587
738.120	7219
738.233	7740
738.347	7457
738.460	7857
738.573	9013
738.687	9392
738.800	9492
738.913	13614
739.026	9237
739.140	7414
739.253	7123
739.366	7264
739.479	8149
739.592	7441
739.705	6232
739.818	8424
739.932	7070
740.045	8276
740.158	7758
740.271	8114
740.384	7319
740.497	8711
740.610	8282
740.723	8677
740.836	8199
740.949	9106
741.062	14030
741.174	10599
741.287	7426
741.400	8317
741.513	7508
741.626	9434
741.739	8712
741.851	8789
741.964	7954
742.077	7280
742.189	7549
742.302	10973
742.415	8928
742.527	8932
742.640	6959
742.753	7630
742.865	6124
742.978	6571
743.090	6717
743.203	7234
743.316	5641
743.428	6518
743.541	5730
743.653	6118
743.766	7045
743.878	7071
743.990	7390
744.103	9876
744.215	7376
744.327	6697
744.440	10051
744.552	17652
744.664	8367
744.777	6669
744.889	5667
745.001	6529
745.113	6561
745.226	5504
745.338	5355
745.450	6202
745.562	4742
745.674	5598
745.786	5725
745.898	5591
746.010	4649
746.122	5869
746.234	5796
746.347	5887
746.459	5829
746.570	6279
746.682	6978
746.794	7603
746.906	6358
747.018	5270
747.130	5871
747.242	5424
747.354	5080
747.466	6088
747.577	5239
747.689	6389
747.801	5449
747.913	5071
748.024	4227
748.136	4919
748.248	4746
748.359	5461
748.471	5794
748.583	4834
748.694	3812
748.806	5216
748.918	5295
749.029	6045
749.141	6562
749.252	6658
749.364	7838
749.475	18654
749.587	10221
749.698	6046
749.809	4693
749.921	4867
750.032	4658
750.144	4413
750.255	4364
750.366	4478
750.478	4935
750.589	5192
750.700	5814
750.811	6866
750.923	7496
751.034	20250
751.145	20844
751.256	5590
751.367	4832
751.479	4497
751.590	4399
751.701	4587
751.812	4286
751.923	5914
752.034	5330
752.145	5168
752.256	3928
752.367	4570
752.478	4545
752.589	4930
752.700	4020
752.811	3954
752.922	4143
753.032	6138
753.143	7177
753.254	4459
753.365	5945
753.476	5608
753.586	3843
753.697	3938
753.808	4129
753.919	3825
754.029	3804
754.140	4591
754.251	4186
754.361	4621
754.472	4064
754.582	4868
754.693	4593
754.804	5276
754.914	3430
755.025	3998
755.135	4143
755.246	3909
755.356	3182
755.466	4024
755.577	3710
755.687	5204
755.798	3526
755.908	4169
756.018	2719
756.129	4497
756.239	4534
756.349	4220
756.460	4285
756.570	6258
756.680	4250
756.790	5359
756.900	5332
757.011	3996
757.121	4035
757.231	3894
757.341	3591
757.451	3853
757.561	3516
757.671	3495
757.781	3143
757.891	5167
758.001	4188
758.111	4184
758.221	5111
758.331	7247
758.441	6070
758.551	10563
758.661	8978
758.771	6237
758.880	5695
758.990	5532
759.100	3963
759.210	5632
759.320	4475
759.429	5144
759.539	5635
759.649	6604
759.758	7766
759.868	8310
759.978	7169
760.087	9024
760.197	8613
760.307	8047
760.416	7298
760.526	7123
760.635	7835
760.745	7139
760.854	8691
760.964	10506
761.073	10036
761.182	9645
761.292	7355
761.401	7056
761.511	5515
761.620	5473
761.729	4542
761.839	4311
761.948	4694
762.057	5675
762.166	4281
762.276	4301
762.385	5302
762.494	5230
762.603	3820
762.712	4642
762.822	4063
762.931	3826
763.040	3237
763.149	3801
763.258	2991
763.367	4331
763.476	3468
763.585	4232
763.694	3800
763.803	4786
763.912	4027
764.021	4524
764.130	2673
764.238	3614
764.347	4904
764.456	5161
764.565	4319
764.674	4277
764.783	3324
764.891	4155
765.000	4962
765.109	5408
765.217	4014
765.326	6300
765.435	6778
765.543	7444
765.652	6140
765.761	8186
765.869	10120
765.978	14783
766.086	26436
766.195	54060
766.303	156826
766.412	533930
766.520	426734
766.629	63919
766.737	22443
766.846	14442
766.954	9908
767.062	10017
767.171	5854
767.279	6684
767.387	4462
767.496	5500
767.604	4534
767.712	4776
767.820	4717
767.928	4560
768.037	4201
768.145	5900
768.253	4935
768.361	4195
768.469	5283
768.577	4812
768.685	4720
768.793	4328
768.901	4173
769.009	5667
769.117	4460
769.225	5724
769.333	8194
769.441	11754
769.549	22849
769.657	53000
769.765	199244
769.873	454370
769.981	105993
770.088	17832
770.196	10250
770.304	8804
770.412	7016
770.519	6539
770.627	5064
770.735	4578
770.842	5086
770.950	5531
771.058	5266
771.165	5663
771.273	4710
771.380	5457
771.488	6535
771.595	7137
771.703	5202
771.810	6212
771.918	6768
772.025	6486
772.133	5945
772.240	7325
772.348	7358
772.455	7732
772.562	5843
772.670	5967
772.777	6395
772.884	6015
772.991	5553
773.099	7278
773.206	5618
773.313	5897
773.420	5573
773.528	5743
773.635	6196
773.742	6851
773.849	5315
773.956	5503
774.063	5588
774.170	5797
774.277	5794
774.384	5700
774.491	6006
774.598	6733
774.705	6523
774.812	7737
774.919	6811
775.026	6099
775.133	5098
775.239	5890
775.346	5335
775.453	5327
775.560	5660
775.667	5178
775.773	4680
775.880	5477
775.987	5094
776.093	5258
776.200	4459
776.307	4485
776.413	4754
776.520	5110
776.627	4490
776.733	4708
776.840	3950
776.946	6983
777.053	6506
777.159	8675
777.266	5795
777.372	9466
777.478	6858
777.585	6173
777.691	4339
777.798	5691
777.904	6405
778.010	8509
778.117	7714
778.223	5107
778.329	4523
778.435	4014
778.542	4261
778.648	4383
778.754	3247
778.860	5135
778.966	4318
779.072	4132
779.178	4109
779.284	3801
779.391	3325
779.497	3979
779.603	5539
779.708	4176
779.815	4624
779.920	8404
780.026	10054
780.132	4451
780.238	3961
780.344	4304
780.450	4298
780.556	4044
780.661	3435
780.767	5128
780.873	2707
780.979	4886
781.085	3580
781.190	3916
781.296	2462
781.402	3593
781.507	3463
781.613	3101
781.719	2750
781.824	3978
781.930	3859
782.035	4213
782.141	4034
782.246	3027
782.352	3789
782.457	3619
782.563	3164
782.668	4806
782.773	3420
782.879	3331
782.984	3308
783.090	5088
783.195	8754
783.300	6257
783.405	3739
783.511	2929
783.616	3771
783.721	2825
783.826	3892
783.932	3355
784.037	3464
784.142	3503
784.247	2943
784.352	4275
784.457	2277
784.562	3402
784.667	2789
784.772	3105
784.877	2104
784.982	4509
785.087	2680
785.192	4363
785.297	2475
785.402	4692
785.507	2378
785.611	3523
785.716	2442
785.821	3201
785.926	3001
786.031	2888
786.135	2784
786.240	3428
786.345	2478
786.450	2951
786.554	2107
786.659	2573
786.763	2317
786.868	3333
786.973	3505
787.077	2064
787.182	1987
787.286	3562
787.391	3108
787.495	2817
787.600	2335
787.704	2064
787.809	3288
787.913	2998
788.017	3043
788.122	3609
788.226	2535
788.330	1560
788.435	2726
788.539	3761
788.643	2059
788.747	2039
788.852	1658
788.956	3211
789.060	2487
789.164	3392
789.268	2837
789.372	3107
789.476	1697
789.580	2465
789.684	2389
789.788	4010
789.892	2306
789.996	2704
790.100	2114
790.204	3353
790.308	2892
790.412	2533
790.516	2472
790.620	2107
790.724	2308
790.828	3008
790.931	1706
791.035	3041
791.139	1794
791.242	3404
791.346	3263
791.450	3022
791.554	2435
791.657	982
791.761	3110
791.864	3382
791.968	2637
792.072	2915
792.175	2496
792.279	1975
792.382	2391
792.486	3185
792.589	2617
792.693	2657
792.796	1258
792.899	2897
793.003	2498
793.106	1442
793.209	2390
793.313	3055
793.416	983
793.519	4608
793.623	5063
793.726	9430
793.829	3362
793.932	2637
794.035	1039
794.138	3515
794.242	3606
794.345	3391
794.448	3769
794.551	7544
794.654	8527
794.757	6783
794.860	2991
794.963	3524
795.066	1186
795.169	3252
795.272	2138
795.375	2840
795.477	992
795.580	2715
795.683	876
795.786	1890
795.889	1295
795.991	2953
796.094	2807
796.197	2014
796.300	3170
796.402	1869
796.505	1162
796.608	2198
796.710	2717
796.813	2988
796.915	1985
797.018	2840
797.120	2302
797.223	1333
797.326	3092
797.428	2761
797.530	1047
797.633	2510
797.735	3939
797.838	4051
797.940	3433
798.042	1428
798.145	1587
798.247	2291
798.349	466
798.452	3799
798.554	2278
798.656	1798
798.758	2937
798.860	2514
798.962	1835
799.065	1808
799.167	1288
799.269	2807
799.371	3373
799.473	5254
799.575	3099
799.677	3491
799.779	4487
799.881	7614
799.983	4241
800.085	1908
800.187	1630
800.289	1209
800.390	1599
800.492	2426
800.594	2817
800.696	1460
800.798	1590
800.899	1654
801.001	2269
801.103	1538
801.205	2660
801.306	2425
801.408	957
801.509	1266
801.611	2232
801.713	2042
801.814	273
801.916	1640
802.017	792
802.119	981
802.220	1277
802.322	549
802.423	3629
802.525	1254
802.626	1924
802.727	3116
802.829	2995
802.930	213
803.031	3237
803.133	1301
803.234	1562
803.335	1792
803.436	1343
803.538	1394
803.639	782
803.740	1566
803.841	640
803.942	1859
804.043	1672
804.144	1036
804.245	1617
804.346	1670
804.447	1382
804.548	4851
804.649	4549
804.750	1139
804.851	1194
804.952	1313
805.053	-74
805.154	795
805.255	2088
805.355	842
805.456	546
805.557	1361
805.658	169
805.758	2710
805.859	1057
805.960	933
806.061	1315
806.161	1071
806.262	935
806.362	1458
806.463	931
806.564	2432
806.664	1225
806.765	1452
806.865	1940
806.966	1137
807.066	152
807.166	2180
807.267	1466
807.367	319
807.468	1830
807.568	752
807.668	1522
807.769	2131
807.869	328
807.969	2164
808.069	1183
808.170	1560
808.270	1190
808.370	2164
808.470	2883
808.570	2421
808.670	991
808.770	1415
808.870	736
808.970	1411
809.070	285
809.170	770
809.271	1101
809.370	1366
809.470	712
809.570	887
809.670	593
809.770	1886
809.870	992
809.970	1147
810.070	639
810.169	1680
810.269	-1045
810.369	2150
810.469	197
810.568	849
810.668	140
810.768	907
810.867	870
810.967	1032
811.066	536
811.166	1236
811.265	777
811.365	148
811.464	241
811.564	937
811.663	913
811.763	180
811.862	1520
811.962	1740
812.061	194
812.160	104
812.260	1060
812.359	1106
812.458	687
812.557	2151
812.657	1042
812.756	1920
812.855	803
812.954	1134
813.053	898
813.153	1764
813.252	32
813.351	2074
813.450	908
813.549	402
813.648	792
813.747	670
813.846	1770
813.945	1785
814.044	396
814.143	1217
814.242	1197
814.341	1360
814.439	1453
814.538	2092
814.637	1512
814.736	1051
814.835	1329
814.933	749
815.032	1507
815.131	2190
815.229	3689
815.328	4087
815.427	3017
815.525	3454
815.624	2545
815.722	2530
815.821	3765
815.919	3544
816.018	3139
816.116	3783
816.215	2281
816.313	4221
816.412	3105
816.510	4096
816.609	5661
816.707	5305
816.805	4073
816.904	3976
817.002	5066
817.100	6151
817.198	5505
817.296	5027
817.395	5995
817.493	5790
817.591	4204
817.689	6009
817.787	6485
817.885	9483
817.983	15062
818.081	28219
818.179	64734
818.277	159502
818.375	145026
818.473	42636
818.571	16663
818.669	12073
818.767	9899
818.865	10432
818.963	10824
819.061	15719
819.158	25432
819.256	57602
819.354	131514
819.452	298311
819.549	203865
819.647	57729
819.745	22764
819.842	15302
819.940	10966
820.038	7755
820.135	6502
820.233	7612
820.330	4816
820.428	4114
820.525	6026
820.623	3916
820.720	3378
820.818	4217
820.915	3996
821.012	3721
821.110	1910
821.207	3926
821.304	2947
821.402	4332
821.499	4052
821.596	4273
821.693	3424
821.791	5087
821.888	5578
821.985	11791
822.082	8396
822.179	5021
822.276	3757
822.373	2968
822.470	2870
822.567	3364
822.664	1277
822.761	2700
822.858	2019
822.955	3103
823.052	1739
823.149	2957
823.246	2504
823.343	2004
823.440	1973
823.536	2598
823.633	2695
823.730	1798
823.827	2055
823.923	2729
824.020	1976
824.117	2299
824.213	2322
824.310	2115
824.407	1497
824.503	2078
824.600	1802
824.696	2103
824.793	2870
824.889	2704
824.986	2258
825.082	1494
825.179	2378
825.275	2068
825.371	1558
825.468	2381
825.564	1187
825.660	2526
825.757	2268
825.853	2341
825.949	1028
826.045	1692
826.142	717
826.238	2322
826.334	2110
826.430	1887
826.526	1709
826.622	786
826.718	1812
826.814	2730
826.910	2447
827.006	456
827.102	254
827.198	1724
827.294	1133
827.390	2152
827.486	1579
827.582	539
827.678	768
827.774	2936
827.869	622
827.965	1948
828.061	895
828.157	2150
828.252	1791
828.348	364
828.444	1951
828.539	122
828.635	2308
828.731	2830
828.826	486
828.922	2893
829.017	2036
829.113	2590
829.208	1929
829.304	2597
829.399	3614
829.495	1726
829.590	2128
829.685	1220
829.781	2675
829.876	3041
829.971	-34
830.066	1394
830.162	1986
830.257	2182
830.352	1584
830.447	2281
830.543	1820
830.638	1759
830.733	2701
830.828	1159
830.923	2415
831.018	2307
831.113	1753
831.208	852
831.303	921
831.398	839
831.493	695
831.588	2155
831.683	778
831.778	530
831.873	1880
831.967	2275
832.062	1467
832.157	899
832.252	1836
832.346	2146
832.441	3341
832.536	3301
832.631	8841
832.725	6997
832.820	1321
832.914	1679
833.009	1201
833.104	2456
833.198	3337
833.293	1137
833.387	1877
833.482	1238
833.576	1528
833.670	2160
833.765	2160
833.859	2409
833.954	2144
834.048	1403
834.142	1498
834.237	273
834.331	1266
834.425	1391
834.519	-13
834.613	2027
834.708	744
834.802	1670
834.896	-357
834.990	1332
835.084	1189
835.178	821
835.272	751
835.366	1564
835.460	2120
835.554	1951
835.648	490
835.742	875
835.836	631
835.930	395
836.024	1283
836.117	1561
836.211	260
836.305	2039
836.399	1108
836.493	765
836.586	1413
836.680	575
836.774	-476
836.867	2437
836.961	-299
837.055	70
837.148	1106
837.242	724
837.335	410
837.429	695
837.522	644
837.616	1246
837.709	1449
837.803	1649
837.896	1949
837.989	1879
838.083	1135
838.176	2316
838.269	2106
838.363	1552
838.456	612
838.549	3413
838.642	3677
838.735	10977
838.829	4354
838.922	520
839.015	1021
839.108	-36
839.201	654
839.294	1067
839.387	487
839.480	311
839.573	931
839.666	1400
839.759	-3
839.852	-39
839.945	1162
840.038	118
840.131	459
840.223	19
840.316	1450
840.409	659
840.502	957
840.594	1245
840.687	-332
840.780	1457
840.873	-62
840.965	391
841.058	1655
841.150	3030
841.243	1051
841.336	1396
841.428	732
841.521	195
841.613	-177
841.706	1329
841.798	157
841.890	676
841.983	-787
842.075	1331
842.167	55
842.260	823
842.352	1473
842.444	1590
842.537	2231
842.629	4503
842.721	876
842.813	374
842.905	-666
842.997	467
843.090	479
843.182	2552
843.274	2209
843.366	6171
843.458	11525
843.550	7928
843.642	714
843.734	1067
843.826	-5
843.918	1563
844.009	1209
844.101	538
844.193	616
844.285	712
844.377	299
844.469	1853
844.560	1347
844.652	774
844.744	299
844.835	1557
844.927	986
845.019	731
845.110	18
845.202	766
845.293	459
845.385	386
845.476	334
845.568	1169
845.659	166
845.751	590
845.842	462
845.934	315
846.025	-419
846.116	1513
846.208	544
846.299	1057
846.390	-40
846.482	833
846.573	1166
846.664	1735
846.755	2771
846.846	2796
846.937	-235
847.029	510
847.120	-512
847.211	126
847.302	963
847.393	-228
847.484	897
847.575	326
847.666	113
847.757	-416
847.847	364
847.938	1307
848.029	640
848.120	99
848.211	296
848.302	-54
848.392	-110
848.483	1779
848.574	-296
848.664	583
848.755	475
848.846	934
848.936	423
849.027	579
849.118	985
849.208	1583
849.299	3826
849.389	7926
849.480	17304
849.570	37079
849.661	71398
849.751	124707
849.841	45783
849.932	7340
850.022	2211
850.112	2649
850.203	730
850.293	1732
850.383	872
850.474	781
850.564	429
850.654	1329
850.744	813
850.834	776
850.924	105
851.014	1502
851.104	1226
851.194	1070
851.284	2094
851.374	2193
851.464	1222
851.554	1441
851.644	617
851.734	1851
851.824	527
851.914	318
852.004	1051
852.094	828
852.183	825
852.273	1019
852.363	684
852.452	797
852.542	548
852.632	889
852.721	1591
852.811	699
852.901	857
852.990	1295
853.080	1161
853.169	3113
853.259	2951
853.348	3757
853.438	5277
853.527	7749
853.617	11349
853.706	21243
853.795	39537
853.885	87003
853.974	161545
854.063	285631
854.152	420474
854.242	187198
854.331	44269
854.420	18872
854.509	11844
854.598	9253
854.687	5729
854.777	5357
854.866	3351
854.955	3560
855.044	1471
855.133	1942
855.222	1125
855.311	2130
855.400	2271
855.488	806
855.577	1657
855.666	1076
855.755	1447
855.844	1314
855.933	-247
856.021	866
856.110	1334
856.199	613
856.288	97
856.376	1586
856.465	279
856.554	854
856.642	208
856.731	735
856.819	1333
856.908	375
856.996	89
857.085	-91
857.173	-118
857.262	925
857.350	564
857.438	-49
857.527	872
857.615	45
857.703	56
857.792	193
857.880	-592
857.968	855
858.056	425
858.145	616
858.233	-20
858.321	266
858.409	-61
858.497	281
858.585	353
858.673	1160
858.761	-382
858.849	229
858.937	-767
859.025	782
859.113	722
859.201	880
859.289	388
859.377	867
859.465	-454
859.552	217
859.640	46
859.728	1081
859.816	-158
859.903	27
859.991	-465
860.079	674
860.166	256
860.254	307
860.342	-4
860.429	-67
860.517	-700
860.604	119
860.692	208
860.779	-634
860.867	62
860.954	450
861.042	888
861.129	1395
861.216	1047
861.304	719
861.391	531
861.478	99
861.565	472
861.653	947
861.740	-738
861.827	-79
861.914	303
862.001	326
862.089	432
862.176	-224
862.263	605
862.350	133
862.437	-606
862.524	321
862.611	-288
862.698	232
862.785	-742
862.871	876
862.958	123
863.045	247
863.132	1544
863.219	737
863.306	-149
863.392	882
863.479	-322
863.566	-32
863.652	-104
863.739	309
863.826	885
863.912	756
863.999	106
864.086	1261
864.172	626
864.259	621
864.345	819
864.432	1150
864.518	738
864.604	914
864.691	-96
864.777	816
864.863	1200
864.950	2421
865.036	2301
865.122	5462
865.209	4573
865.295	5108
865.381	5112
865.467	6673
865.553	8469
865.639	13521
865.726	22060
865.812	46308
865.898	88236
865.984	134820
866.070	234361
866.156	255429
866.242	79337
866.328	20374
866.414	9180
866.499	8553
866.585	6271
866.671	5140
866.757	5477
866.843	5093
866.928	3740
867.014	4082
867.100	3021
867.186	3389
867.271	3053
867.357	4256
867.442	3422
867.528	3565
867.614	2076
867.699	2945
867.785	3072
867.870	2870
867.956	2420
868.041	3211
868.127	2244
868.212	3029
868.297	3158
868.383	3466
868.468	4520
868.553	6678
868.639	7203
868.724	13356
868.809	11611
868.894	3469
868.979	1765
869.065	2415
869.150	406
869.235	2357
869.320	1800
869.405	1666
869.490	1203
869.575	1409
869.660	1058
869.745	2188
869.830	1254
869.915	2025
870.000	1469
870.085	1583
870.169	2820
870.254	3368
870.339	1574
870.424	1640
870.509	742
870.593	1982
870.678	1208
870.763	2310
870.847	1878
870.932	2180
871.016	1052
871.101	1328
871.186	1516
871.270	2488
871.355	739
871.439	1361
871.523	379
871.608	1661
871.692	1004
871.777	1623
871.861	1572
871.945	1243
872.030	894
872.114	1045
872.198	508
872.282	1302
872.367	905
872.451	1292
872.535	1175
872.619	1422
872.703	1107
872.787	878
872.871	1587
872.955	1268
873.039	235
873.123	1464
873.207	1260
873.291	77
873.375	730
873.459	1868
873.543	-232
873.627	974
873.711	1164
873.794	1681
873.878	884
873.962	1257
874.045	510
874.129	2204
874.137	2065
874.213	669
874.245	1057
874.296	1689
874.352	876
874.380	476
874.460	820
874.464	833
874.547	40
874.568	242
874.631	844
874.676	739
874.714	639
874.784	1577
874.798	1766
874.881	1643
874.892	1538
874.965	803
874.999	682
875.048	512
875.107	995
875.131	1190
875.215	702
875.215	702
875.298	713
875.323	763
875.381	919
875.430	1429
875.465	1742
875.538	1283
875.548	1222
875.631	1195
875.646	1038
875.714	312
875.753	437
875.798	596
875.861	753
875.881	784
875.964	640
875.968	637
876.047	625
876.076	757
876.130	1055
876.183	884
876.213	783
876.291	2018
876.296	2101
876.379	909
876.398	927
876.462	945
876.506	574
876.545	205
876.613	1283
876.628	1547
876.711	1191
876.721	1188
876.794	1059
876.828	728
876.877	290
876.935	678
876.960	840
877.043	794
877.043	793
877.125	637
877.150	728
877.208	981
877.258	1014
877.291	1036
877.365	477
877.374	403
877.456	1032
877.472	865
877.539	94
877.579	492
877.622	1000
877.687	885
877.704	838
877.787	1384
877.794	1302
877.869	338
877.901	592
877.952	1034
878.008	384
878.034	66
878.115	836
878.117	855
878.199	-82
878.222	234
878.282	919
878.329	1017
878.364	1161
878.437	957
878.447	901
878.529	22
878.544	65
878.611	363
878.651	280
878.694	306
878.758	1102
878.776	1310
878.858	1294
878.865	1336
878.941	1419
878.972	922
879.023	206
879.078	852
879.105	1380
879.185	1489
879.187	1475
879.269	1117
879.292	978
879.351	736
879.399	418
879.433	319
879.506	912
879.516	981
879.598	1307
879.613	1255
879.680	802
879.720	773
879.762	1038
879.827	941
879.844	800
879.926	1387
879.933	1354
880.007	939
880.040	1207
880.089	1828
880.147	3180
880.171	3815
880.253	8166
880.254	8196
880.335	11384
880.360	12376
880.417	15246
880.467	22733
880.499	27485
880.574	31959
880.580	32020
880.662	10705
880.680	8776
880.744	2723
880.787	1511
880.825	957
880.893	940
880.907	926
880.989	334
881.000	410
881.070	1197
881.106	1198
881.152	961
881.213	815
881.233	779
881.315	497
881.319	507
881.396	890
881.426	619
881.478	-18
881.532	409
881.559	654
881.639	123
881.641	112
881.722	560
881.745	584
881.803	858
881.852	930
881.885	700
881.958	565
881.966	617
882.047	1339
882.064	1322
882.129	1095
882.171	1375
882.210	1443
882.277	1654
882.291	1820
882.372	1610
882.383	1530
882.454	412
882.489	419
882.535	705
882.596	627
882.616	477
882.697	390
882.702	357
882.778	259
882.808	330
882.859	311
882.914	219
882.940	289
883.020	481
883.021	485
883.102	686
883.127	801
883.183	736
883.233	317
883.264	155
883.339	417
883.345	434
883.426	-206
883.445	-64
883.507	450
883.551	259
883.587	113
883.657	275
883.668	352
883.749	752
883.763	764
883.830	495
883.869	393
883.910	228
883.975	279
883.991	420
884.072	809
884.081	842
884.152	697
884.187	726
884.233	690
884.292	628
884.314	591
884.394	110
884.398	100
884.475	413
884.504	490
884.555	252
884.610	131
884.636	262
884.716	146
884.716	147
884.797	587
884.821	477
884.877	346
884.927	559
884.958	600
885.033	122
885.038	74
885.118	22
885.139	-76
885.199	83
885.244	180
885.279	400
885.350	978
885.359	1009
885.439	1011
885.456	978
885.520	786
885.561	818
885.600	552
885.667	-83
885.680	-56
885.760	348
885.773	360
885.840	494
885.878	820
885.920	776
885.984	226
886.000	227
886.080	556
886.089	579
886.160	770
886.195	920
886.240	760
886.300	403
886.320	432
886.400	586
886.406	594
886.480	-36
886.511	-191
886.560	547
886.616	1095
886.640	796
886.720	-62
886.722	-82
886.800	775
886.827	1036
886.879	503
886.932	131
886.959	241
887.038	458
887.039	463
887.119	669
887.143	805
887.198	1266
887.248	1468
887.278	1118
887.354	417
887.358	412
887.437	262
887.459	181
887.517	297
887.564	437
887.596	501
887.669	655
887.676	611
887.755	67
887.774	-88
887.835	181
887.880	423
887.914	270
887.985	-70
887.994	-25
888.073	338
888.090	418
888.153	521
888.195	556
888.232	575
888.300	693
888.311	677
888.391	442
888.405	414
888.470	33
888.510	-248
888.549	20
888.615	578
888.628	638
888.708	842
888.720	885
888.787	513
888.825	263
888.866	269
888.930	313
888.945	351
889.024	534
889.035	560
889.103	331
889.140	198
889.182	385
889.245	690
889.261	629
889.340	273
889.349	240
889.419	451
889.454	539
889.498	399
889.559	220
889.577	312
889.656	720
889.664	762
889.735	1128
889.768	1297
889.814	905
889.873	383
889.978	32
890.083	297
890.187	280
890.292	781
890.397	531
890.501	474
890.606	-620
890.710	659
890.815	1370
890.919	831
891.024	716
891.128	487
891.233	883
891.337	1276
891.442	1050
891.546	102
891.650	936
891.755	255
891.859	820
891.963	881
892.068	647
892.172	626
892.276	550
892.380	-383
892.484	1174
892.589	807
892.693	499
892.797	-406
892.901	614
893.005	1012
893.109	-277
893.213	63
893.317	1300
893.421	5
893.525	1049
893.629	686
893.733	776
893.837	771
893.941	401
894.045	1059
894.148	-93
894.252	697
894.356	59
894.460	1374
894.564	520
894.667	-200
894.771	141
894.875	-727
894.978	127
895.082	416
895.186	660
895.289	765
895.393	634
895.496	641
895.600	427
895.703	-72
895.807	-129
895.910	1080
896.014	392
896.117	306
896.221	682
896.324	923
896.427	453
896.531	136
896.634	1263
896.737	573
896.840	702
896.944	63
897.047	284
897.150	1037
897.253	526
897.356	-175
897.460	554
897.563	110
897.666	17
897.769	443
897.872	-245
897.975	398
898.078	583
898.181	231
898.284	-889
898.387	-219
898.490	855
898.593	1089
898.695	1224
898.798	-638
898.901	497
899.004	6
899.107	893
899.209	50
899.312	294
899.415	985
899.518	-212
899.620	569
899.723	486
899.826	1434
899.928	1617
900.031	779
900.133	150
900.236	-203
900.338	839
900.441	428
900.543	896
900.646	816
900.748	609
900.851	744
900.953	568
901.055	-217
901.158	645
901.260	-430
901.362	330
901.465	371
901.567	869
901.669	38
901.771	417
901.873	-101
901.976	596
902.078	-826
902.180	-627
902.282	191
902.384	-283
902.486	466
902.588	643
902.690	-192
902.792	-6
902.894	671
902.996	44
903.098	812
903.200	141
903.302	394
903.404	540
903.505	386
903.607	-210
903.709	700
903.811	384
903.913	-434
904.014	-591
904.116	-342
904.218	673
904.319	353
904.421	1071
904.523	897
904.624	576
904.726	35
904.827	-65
904.929	705
905.030	985
905.132	786
905.233	311
905.335	-64
905.436	641
905.537	380
905.639	81
905.740	471
905.841	-119
905.943	106
906.044	-197
906.145	332
906.247	-212
906.348	664
906.449	626
906.550	804
906.651	-8
906.752	308
906.854	218
906.955	-300
907.056	355
907.157	703
907.258	667
907.359	473
907.460	125
907.561	169
907.662	200
907.762	-25
907.863	-490
907.964	664
908.065	1134
908.166	119
908.267	-317
908.367	-361
908.468	523
908.569	-153
908.670	449
908.770	510
908.871	139
908.971	-392
909.072	901
909.173	-490
909.273	292
909.374	-127
909.474	-48
909.575	786
909.675	553
909.776	454
909.876	-572
909.977	626
910.077	470
910.177	558
910.278	376
910.378	-529
910.478	614
910.579	-501
910.679	159
910.779	998
910.879	581
910.980	39
911.080	317
911.180	-215
911.280	-408
911.380	-381
911.480	677
911.580	384
911.680	59
911.780	972
911.880	-153
911.980	220
912.080	827
912.180	335
912.280	-511
912.380	102
912.480	313
912.580	71
912.679	-439
912.779	-729
912.879	43
912.979	-222
913.078	-657
913.178	-280
913.278	-258
913.377	42
913.477	110
913.577	-410
913.676	307
913.776	576
913.875	109
913.975	-41
914.074	-604
914.174	-303
914.273	-58
914.373	486
914.472	-172
914.572	-475
914.671	-255
914.770	-2
914.870	-152
914.969	348
915.068	275
915.167	247
915.267	-95
915.366	461
915.465	-19
915.564	309
915.663	405
915.763	24
915.862	-312
915.961	-424
916.060	-418
916.159	56
916.258	-449
916.357	-326
916.456	212
916.555	-1176
916.654	-132
916.752	-985
916.851	202
916.950	646
917.049	410
917.148	-433
917.247	314
917.345	63
917.444	-56
917.543	396
917.642	-7
917.740	-388
917.839	-255
917.937	375
918.036	678
918.135	-95
918.233	53
918.332	-556
918.430	-752
918.529	-564
918.627	-431
918.726	-143
918.824	929
918.923	-261
919.021	667
919.119	52
919.218	-466
919.316	199
919.414	-297
919.512	-563
919.611	-60
919.709	26
919.807	807
919.905	-102
920.003	158
920.102	192
920.200	-547
920.298	424
920.396	397
920.494	-352
920.592	-618
920.690	127
920.788	-372
920.886	413
920.984	452
921.082	-428
921.180	349
921.277	267
921.375	524
921.473	254
921.571	244
921.669	-257
921.766	156
921.864	695
921.962	1229
922.060	250
922.157	799
922.255	191
922.352	492
922.450	728
922.548	440
922.645	235
922.743	1349
922.840	1798
922.938	2653
923.035	2319
923.133	986
923.230	1974
923.327	2681
923.425	2329
923.522	2287
923.619	1491
923.717	2374
923.814	2449
923.911	1557
924.008	1723
924.106	1441
924.203	1270
924.300	2023
924.397	1692
924.494	1933
924.591	2503
924.688	1848
924.786	809
924.883	2124
924.979	1530
925.077	1767
925.173	1606
925.270	1703
925.367	2105
925.464	2159
925.561	1743
925.658	1890
925.755	1770
925.852	2526
925.948	1342
926.045	2111
926.142	2333
926.239	2821
926.335	1313
926.432	2093
926.529	2225
926.625	2804
926.722	1090
926.818	1577
926.915	1924
927.011	1470
927.108	1764
927.204	1247
927.301	1396
927.397	1540
927.494	1142
927.590	1148
927.687	1038
927.783	2546
927.879	1197
927.976	942
928.072	1322
928.168	1422
928.264	1969
928.361	1940
928.457	736
928.553	1717
928.649	1084
928.745	546
928.841	1083
928.937	1269
929.033	1680
929.129	877
929.225	1151
929.321	1798
929.417	974
929.513	1435
929.609	849
929.705	267
929.801	1948
929.897	963
929.993	167
930.089	893
930.184	774
930.280	1196
930.376	1815
930.471	915
930.567	1310
930.663	987
930.758	776
930.854	337
930.950	856
931.045	1138
931.141	1154
931.236	2311
931.332	1666
931.427	553
931.523	1741
931.618	1893
931.714	331
931.809	724
931.905	1255
932.000	759
932.095	156
932.191	868
932.286	1105
932.381	474
932.476	1006
932.572	238
932.667	1414
932.762	535
932.857	1673
932.952	674
933.047	-507
933.142	-179
933.237	745
933.332	684
933.427	1696
933.522	668
933.617	334
933.712	946
933.807	1460
933.902	1676
933.997	1150
934.092	147
934.187	560
934.282	206
934.376	646
934.471	1407
934.566	574
934.661	384
934.755	826
934.850	716
934.945	1087
935.039	141
935.134	138
935.228	743
935.323	1545
935.417	388
935.512	459
935.606	-142
935.701	324
935.795	1463
935.890	84
935.984	851
936.079	146
936.173	1272
936.267	1010
936.362	245
936.456	847
936.550	792
936.644	360
936.738	403
936.833	525
936.927	-55
937.021	-121
937.115	1066
937.209	98
937.303	1475
937.397	-150
937.491	465
937.585	124
937.679	298
937.773	152
937.867	529
937.961	130
938.055	528
938.149	859
938.243	217
938.337	185
938.430	1422
938.524	1011
938.618	963
938.712	787
938.805	1039
938.899	243
938.993	784
939.086	-106
939.180	420
939.274	1035
939.367	-13
939.461	964
939.554	312
939.648	181
939.741	-171
939.835	103
939.928	1220
940.022	896
940.115	615
940.208	280
940.302	574
940.395	661
940.488	-122
940.582	1268
940.675	17
940.768	165
940.861	579
940.954	1162
941.048	-2
941.141	363
941.234	542
941.327	505
941.420	590
941.513	670
941.606	-62
941.699	974
941.792	512
941.885	621
941.978	558
942.071	921
942.164	-1133
942.257	-108
942.349	-165
942.442	634
942.535	-353
942.628	226
942.721	483
942.813	-389
942.906	1008
942.999	497
943.091	784
943.184	460
943.277	349
943.369	-241
943.462	-848
943.554	-316
943.647	-402
943.739	1162
943.832	637
943.924	37
944.017	621
944.109	-337
944.201	111
944.294	160
944.386	63
944.478	723
944.571	-648
944.663	491
944.755	344
944.847	976
944.940	483
945.032	-424
945.124	-504
945.216	696
945.308	727
945.400	277
945.492	-81
945.584	1073
945.676	112
945.768	542
945.860	1188
945.952	249
946.044	88
946.136	-76
946.228	-585
946.320	-197
946.412	97
946.503	374
946.595	1693
946.687	-658
946.779	52
946.870	192
946.962	-763
947.054	-248
947.145	369
947.237	675
947.329	150
947.420	367
947.512	498
947.603	172
947.695	-514
947.786	63
947.878	-384
947.969	505
948.061	-173
948.152	272
948.243	447
948.335	199
948.426	-384
948.517	-1087
948.609	719
948.700	-255
948.791	265
948.882	205
948.973	940
949.065	-458
949.156	942
949.247	-1158
949.338	-107
949.429	-1524
949.520	198
949.611	-462
949.702	670
949.793	83
949.884	-1001
949.975	331
950.066	-789
950.157	-322
950.247	-303
950.338	-800
950.429	-735
950.520	-484
950.611	-349
950.701	463
950.792	199
950.883	122
950.973	170
951.064	-615
951.155	-510
951.245	504
951.336	-132
951.427	-592
951.517	1203
951.608	-235
951.698	-289
951.788	-895
951.879	-622
951.969	-1223
952.060	215
952.150	217
952.240	365
952.331	-1283
952.421	38
952.511	-1197
952.602	-818
952.692	-862
952.782	114
952.872	-893
952.962	-82
953.052	-8
953.143	-275
953.233	600
953.323	-26
953.413	-64
953.503	-324
953.593	-569
953.683	-18
953.773	-1216
953.863	-88
953.953	-674
954.042	415
954.132	-245
954.222	181
954.312	-360
954.402	-990
954.492	-250
954.581	-98
954.671	-628
954.761	-816
954.850	41
954.940	-1029
955.030	334
955.119	-403
955.209	32
955.298	-759
955.388	-623
955.477	1391
955.567	-993
955.656	-111
955.746	-834
955.835	-1226
955.925	-960
956.014	-336
956.103	-407
956.193	-726
956.282	-813
956.371	-86
956.461	-187
956.550	-685
956.639	-14
956.728	-603
956.817	-651
956.906	76
956.995	-200
957.085	-311
957.174	-181
957.263	-98
957.352	-1084
957.441	-1164
957.530	-958
957.619	-647
957.708	-635
957.796	-1108
957.885	-147
957.974	-1199
958.063	-17
958.152	-767
958.241	-851
958.329	-854
958.418	-987
958.507	-1321
958.596	332
958.684	-1499
958.773	314
958.861	-345
958.950	-147
959.039	-183
959.127	-1483
959.216	-139
959.304	175
959.393	-896
959.481	84
959.570	-526
959.658	-1097
959.746	-783
959.835	-50
959.923	-855
960.011	-385
960.100	507
960.188	-1240
960.276	-1004
960.365	-616
960.453	-763
960.541	-966
960.629	-835
960.717	-841
960.805	-746
960.893	-828
960.981	-1498
961.069	472
961.158	-283
961.245	-260
961.333	-680
961.421	-1425
961.509	-786
961.597	-765
961.685	-636
961.773	-888
961.861	-1193
961.949	294
962.036	-1316
962.124	225
962.212	-968
962.299	-763
962.387	-1142
962.475	-910
962.562	-978
962.650	-582
962.738	-1165
962.825	-1069
962.913	-520
963.000	-772
963.088	-782
963.175	-1210
963.263	-1031
963.350	-904
963.438	-189
963.525	-1271
963.612	-132
963.700	-212
963.787	49
963.874	-312
963.962	-221
964.049	-844
964.136	-983
964.223	-1249
964.310	-670
964.398	-940
964.485	-1478
964.572	-292
964.659	-876
964.746	-621
964.833	-941
964.920	-1019
965.007	-208
965.094	-1038
965.181	-1084
965.268	-1060
965.355	-186
965.441	-1068
965.528	-413
965.615	-215
965.702	-731
965.789	-884
965.875	-704
965.962	-779
966.049	-974
966.136	-542
966.222	-1131
966.309	-899
966.395	-1154
966.482	-956
966.569	-1845
966.655	-709
966.742	-1558
966.828	-1091
966.915	-966
967.001	25
967.087	-934
967.174	-422
967.260	-969
967.347	-1220
967.433	-1010
967.519	351
967.605	-1014
967.692	-1013
967.778	-760
967.864	-1286
967.950	-935
968.036	-1276
968.123	-635
968.209	-1267
968.295	-1949
968.381	489
968.467	-519
968.553	-2063
968.639	93
968.725	-1202
968.811	-340
968.897	-509
968.983	-392
969.069	-1328
969.154	-77
969.240	-496
969.326	-1111
969.412	-1948
969.497	-609
969.583	-1619
969.669	450
969.755	-1168
969.840	-353
969.926	-92
970.012	-408
970.097	-286
970.183	-102
970.268	-662
970.354	-845
970.439	-1650
970.525	-103
970.610	-1015
970.696	66
970.781	-1030
970.866	-1745
970.952	-804
971.037	-829
971.122	-790
971.208	-214
971.293	-625
971.378	-2298
971.463	-1550
971.549	-595
971.634	-861
971.719	-1149
971.804	-826
971.889	157
971.974	-1271
972.059	-1169
972.144	-930
972.229	-1344
972.314	-1474
972.399	-684
972.484	-1456
972.569	-709
972.654	-2031
972.739	477
972.824	-1432
972.908	-784
972.993	-1403
973.078	-1795
973.163	-1120
973.247	-459
973.332	-1536
973.417	289
973.501	-1855
973.586	-1150
973.671	-625
973.755	-993
973.840	-618
973.924	72
974.009	-649
974.093	-800
974.178	-655
974.262	-341
974.346	-706
974.431	-976
974.515	-1649
974.600	-1406
974.684	19
974.768	-998
974.852	-34
974.937	-718
975.021	-700
975.105	-995
975.189	-1211
975.273	-574
975.358	-1744
975.442	-1189
975.526	-698
975.610	-1373
975.694	-1354
975.778	-338
975.862	-1060
975.946	-2783
976.030	429
976.114	-1923
976.198	-1450
976.281	-1368
976.365	-980
976.449	-803
976.533	-1165
976.617	-1672
976.700	-1350
976.784	-530
976.868	-1794
976.951	-588
977.035	-687
977.119	-661
977.202	-1415
977.286	-709
977.369	-404
977.453	-24
977.536	-945
977.620	-645
977.703	377
977.787	-874
977.870	617
977.953	176
978.037	-1761
978.120	18
978.203	-611
978.287	-706
978.370	-1097
978.453	-681
978.536	-439
978.620	-198
978.703	-632
978.786	-1577
978.869	-1601
978.952	-1742
979.035	721
979.118	-823
979.201	-1573
979.284	-188
979.367	-1984
979.450	216
979.533	-1987
979.616	-1110
979.699	-1326
979.782	-864
979.865	-1125
979.948	-1518
980.030	-1295
980.113	-356
980.196	-2577
980.279	-519
980.361	-1657
980.444	-1032
980.526	-261
980.609	-721
980.692	-925
980.774	-713
980.857	-1266
980.939	-309
981.022	-1215
981.104	-604
981.187	-735
981.269	-630
981.352	-871
981.434	-1983
981.516	-1416
981.599	78
981.681	-937
981.763	-1137
981.846	-431
981.928	-1050
982.010	-569
982.092	-1483
982.174	-827
982.256	-1300
982.339	-804
982.421	-1363
982.503	-225
982.585	-1195
982.667	-1029
982.749	-5
982.831	-660
982.913	-1787
982.995	-748
983.077	-786
983.158	125
983.240	-1547
983.322	-144
983.404	76
983.486	-1158
983.568	-114
983.649	-1347
983.731	72
983.813	-1542
983.894	-261
983.976	-1501
984.058	-1610
984.139	-739
984.221	-1629
984.302	615
984.384	-1050
984.465	-1140
984.547	-413
984.628	-1001
984.710	373
984.791	-833
984.872	-1177
984.954	-1026
985.035	-926
985.116	-102
985.198	-1236
985.279	-97
985.360	-1169
985.441	-1161
985.522	205
985.604	-1498
985.685	-2363
985.766	-107
985.847	119
985.928	-944
986.009	-1229
986.090	-705
986.171	-830
986.252	-1607
986.333	85
986.414	-1269
986.495	-450
986.576	-532
986.656	-659
986.737	-337
986.818	-1014
986.899	-897
986.980	-1271
987.060	-407
987.141	-976
987.222	-1535
987.302	-483
987.383	131
987.464	-913
987.544	-520
987.625	-888
987.705	-571
987.786	-455
987.866	-716
987.947	-257
988.027	-1548
988.108	-497
988.188	-595
988.268	-794
988.349	-957
988.429	-393
988.509	-595
988.589	-389
988.670	-2368
988.750	701
988.830	-1529
988.910	280
988.990	-26
989.070	-801
989.151	-477
989.231	-1461
989.311	-603
989.391	-294
989.471	-1034
989.551	-1554
989.631	-1462
989.711	-207
989.791	-1257
989.870	-1250
989.950	-546
990.030	-1135
990.110	-1208
990.190	-1821
990.269	-1125
990.349	-895
990.429	-1117
990.509	-975
990.588	-654
990.668	-1087
990.747	-685
990.827	-1003
990.907	-453
990.986	-976
991.066	-758
991.145	-1762
991.225	-923
991.304	-1316
991.383	-1166
991.463	-1988
991.542	-103
991.622	-1691
991.701	-1689
991.780	-1605
991.859	-1354
991.939	-494
992.018	-1008
992.097	-1024
992.176	-790
992.256	-967
992.335	-1459
992.414	-533
992.493	-968
992.572	-852
992.651	-666
992.730	-1280
992.809	-1341
992.888	-1748
992.967	-1275
993.046	-1545
993.125	-1742
993.203	-1636
993.282	-1623
993.361	-1204
993.440	-1551
993.519	-1551
993.597	-1049
993.676	-2136
993.755	-775
993.834	249
993.912	-2156
993.991	-620
994.069	-1799
994.148	-1386
994.226	-1183
994.305	-1346
994.384	-1979
994.462	-1315
994.540	-1601
994.619	-1465
994.697	-719
994.776	-1639
994.854	-992
994.932	-1764
995.011	-1138
995.089	-1087
995.167	-1407
995.245	-1613
995.324	-1691
995.402	-1294
995.480	-1364
995.558	-563
995.636	-2780
995.714	-1820
995.792	-834
995.870	-1221
995.948	-1681
996.026	-948
996.104	-2029
996.182	-165
996.260	-1639
996.338	-855
996.416	-2014
996.494	-2009
996.572	-435
996.649	-2204
996.727	-1801
996.805	-1340
996.883	-2029
996.960	-1802
997.038	-1210
997.116	-1012
997.193	-2241
997.271	-389
997.348	-1386
997.426	-1577
997.504	-2331
997.581	-730
997.658	-1493
997.736	-2501
997.813	-2274
997.891	-591
997.968	-2053
998.046	-1551
998.123	-1175
998.200	-683
998.277	-1542
998.355	-1337
998.432	-2382
998.509	-1576
998.586	-1299
998.663	-1082
998.741	-1414
998.818	-1200
998.895	-1447
998.972	-1450
999.049	-1062
999.126	-2033
999.203	-396
999.280	-1383
999.357	-1308
999.434	-1719
999.511	-1646
999.587	-799
999.664	-2018
999.741	-1940
999.818	-1226
999.895	-1969
999.971	-2011
1000.048	-2177
1000.125	-981
1000.202	-1491
1000.278	-1926
1000.355	-891
1000.431	-2104
1000.508	-2024
1000.584	-1875
1000.661	-1003
1000.738	-1824
1000.814	-1759
1000.890	-790
1000.967	-1024
1001.043	-951
1001.120	-2238
1001.196	-1465
1001.272	-1780
1001.349	-1955
1001.425	-1351
1001.501	-1601
1001.577	-1974
1001.654	-1699
1001.730	-1702
1001.806	-1834
1001.882	-1561
1001.958	-1795
1002.034	-539
1002.110	-1767
1002.186	-1671
1002.262	-2094
1002.338	-1866
1002.414	-1004
1002.490	-683
1002.566	-2207
1002.642	-2123
1002.718	-598
1002.794	-1865
1002.870	-1859
1002.945	-1152
1003.021	-1777
1003.097	-1095
1003.173	-1311
1003.248	-2490
1003.324	-1460
1003.400	-1164
1003.475	-2050
1003.551	-1567
1003.626	-1701
1003.702	-1970
1003.777	-1408
1003.853	-2013
1003.928	-2047
1004.004	-1868
1004.079	-1145
1004.155	-2576
1004.230	-2481
1004.305	-602
1004.381	-2051
1004.456	-1169
1004.531	-1828
1004.607	-1345
1004.682	-1688
1004.757	-1007
1004.832	-2223
1004.907	-1042
1004.982	-1809
1005.057	-2176
1005.133	-1690
1005.208	-1732
1005.283	-1721
1005.358	-773
1005.433	-1901
1005.508	-1713
1005.583	-2743
1005.657	-1217
1005.732	-1842
1005.807	-2464
1005.882	-2225
1005.957	-1296
1006.032	-959
1006.106	-1213
1006.181	-1638
1006.256	-1379
1006.331	-1845
1006.405	-2770
1006.480	-2090
1006.554	-1897
1006.629	-1820
1006.704	-1572
1006.778	-1296
1006.853	-1238
1006.927	-1613
1007.002	-1646
1007.076	-1121
1007.150	-1637
1007.225	-2346
1007.299	-1269
1007.373	-2037
1007.448	-682
1007.522	-1214
1007.596	-1353
1007.671	-2045
1007.745	-1901
1007.819	-2214
1007.893	-2299
1007.967	-1202
1008.041	-2299
1008.115	-829
1008.190	-2113
1008.264	-1836
1008.338	-3071
1008.412	-2289
1008.486	-1859
1008.560	-1749
1008.633	-1501
1008.707	-3231
1008.781	-1489
1008.855	-1386
1008.929	-1335
1009.003	-2178
1009.076	-1239
1009.150	-1857
1009.224	-1293
1009.298	-1163
1009.371	-2008
1009.445	-997
1009.519	-1945
1009.592	-1335
1009.666	-1420
1009.739	-1592
1009.813	-2260
1009.886	-489
1009.960	-3225
1010.033	-1062
1010.107	-1386
1010.180	-2100
1010.253	-2613
1010.327	-2886
1010.400	-1465
1010.473	-1877
1010.547	-1285
1010.620	-2379
1010.693	-1426
1010.766	-2180
1010.840	-1868
1010.913	-1162
1010.986	-2248
1011.059	-1712
1011.132	-2399
1011.205	-1441
1011.278	-1898
1011.351	-2083
1011.424	-816
1011.497	-1619
1011.570	-1328
1011.643	-1890
1011.716	-1748
1011.789	-2089
1011.862	-1604
1011.934	-1362
1012.007	-1998
1012.080	-2792
1012.153	-1764
1012.225	-1376
1012.298	-1792
1012.371	-2031
1012.443	-1440
1012.516	-2406
1012.588	-1825
1012.661	-1354
1012.733	-2192
1012.806	-1677
1012.879	-1785
1012.951	-1960
1013.023	-2290
1013.096	-2363
1013.168	-2594
1013.241	-2116
1013.313	-2288
1013.385	-1951
1013.458	-2197
1013.530	-1576
1013.602	-2334
1013.674	-782
1013.746	-2419
1013.819	-2352
1013.891	-2347
1013.963	-2189
1014.035	-1545
1014.107	-2458
1014.179	-1417
1014.251	-2098
1014.323	-1721
1014.395	-2426
1014.467	-1706
1014.539	-2262
1014.611	-1640
1014.683	-1498
1014.754	-1981
1014.826	-2436
1014.898	-1546
1014.970	-2381
1015.042	-1770
1015.113	-1252
1015.185	-1952
1015.257	-2815
1015.328	-1742
1015.400	-2176
1015.471	-1752
1015.543	-2212
1015.615	-1790
1015.686	-2683
1015.757	-2169
1015.829	-1665
1015.901	-1690
1015.972	-2151
1016.043	-1541
1016.115	-2155
1016.186	-1827
1016.257	-2008
1016.328	-1786
1016.400	-1564
1016.471	-1683
1016.542	-2466
1016.613	-1825
1016.685	-2390
1016.756	-1296
1016.827	-2069
1016.898	-3005
1016.969	-1730
1017.040	-2230
1017.111	-2582
1017.182	-2051
1017.253	-2561
1017.324	-2026
1017.395	-2095
1017.466	-1384
1017.537	-2112
1017.608	-1977
1017.678	-2281
1017.749	-1873
1017.820	-2093
1017.891	-2170
1017.961	-2133
1018.032	-1832
1018.103	-1712
1018.173	-1578
1018.244	-2303
1018.315	-1659
1018.385	-2318
1018.456	-2458
1018.526	-3246
1018.597	-2398
1018.667	-2303
1018.738	-3062
1018.808	-2631
1018.878	-2521
1018.949	-2032
1019.019	-1650
1019.089	-1748
1019.160	-1887
1019.230	-2443
1019.300	-2144
1019.371	-2798
1019.441	-1492
1019.511	-2426
1019.581	-2148
1019.651	-1954
1019.721	-1880
1019.791	-2381
1019.861	-2038
1019.931	-2244
1020.001	-1696
1020.071	-2237
1020.141	-2643
1020.211	-2551
1020.281	-2549
1020.351	-2841
1020.421	-2099
1020.491	-1574
1020.560	-2862
1020.630	-2151
1020.700	-2540
1020.770	-2795
1020.839	-2205
1020.909	-3005
1020.979	-2226
1021.048	-2134
1021.118	-2373
1021.187	-2422
1021.257	-2343
1021.326	-2569
1021.396	-1953
1021.465	-2398
1021.535	-2228
1021.604	-2991
1021.674	-1948
1021.743	-2005
1021.812	-2257
1021.882	-1992
1021.951	-2687
1022.020	-1939
1022.089	-2004
1022.159	-2702
1022.228	-1941
1022.297	-2281
1022.366	-2113
1022.435	-2967
1022.504	-2692
1022.573	-2573
1022.642	-1329
1022.711	-2886
1022.781	-2552
1022.849	-2106
1022.918	-3132
1022.987	-2239
1023.056	-2660
1023.125	-2644
1023.194	-2883
1023.263	-2479
1023.331	-2035
1023.400	-2952
1023.469	-1663
1023.538	-2248
1023.606	-2759
1023.675	-2319
1023.744	-2347
1023.812	-2253
1023.881	-1918
1023.949	-2598
1024.018	-1964
1024.086	-3068
1024.155	-2181
1024.223	-2194
1024.292	-1352
1024.360	-2475
1024.429	-2273
1024.497	-2611
1024.565	-2553
1024.634	-1790
1024.702	-2961
1024.770	-2425
1024.838	-3042
1024.907	-1869
1024.975	-2435
1025.043	-2225
1025.111	-2542
1025.179	-2326
1025.247	-2386
1025.315	-2798
1025.383	-3218
1025.451	-2289
1025.519	-2180
1025.587	-2230
1025.655	-2740
1025.723	-2574
1025.791	-2249
1025.859	-1780
1025.927	-1854
1025.995	-2543
1026.062	-2259
1026.130	-2501
1026.198	-2317
1026.266	-2540
1026.333	-2249
1026.401	-1688
1026.469	-1847
1026.536	-2923
1026.604	-2530
1026.671	-2589
1026.739	-2298
1026.806	-2522
1026.874	-2791
1026.941	-3017
1027.009	-1609
1027.076	-2226
1027.144	-1798
1027.211	-2350
1027.278	-3020
1027.345	-1616
1027.413	-2015
1027.480	-2662
1027.547	-3570
1027.614	-2307
1027.682	-2971
1027.749	-2145
1027.816	-2081
1027.883	-2417
1027.950	-1682
1028.017	-2580
1028.084	-2587
1028.151	-1870
1028.218	-1754
1028.285	-2278
1028.352	-2639
1028.419	-3459
1028.486	-2336
1028.553	-2055
1028.619	-3232
1028.686	-2961
1028.753	-2759
1028.820	-2188
1028.886	-1926
1028.953	-2696
1029.020	-2729
1029.086	-2852
1029.153	-1782
1029.220	-3117
1029.286	-2141
1029.353	-2922
1029.419	-2472
1029.486	-2943
1029.552	-2871
1029.619	-2330
1029.685	-2591
1029.751	-2985
1029.818	-2016
1029.884	-2799
1029.951	-1773
1030.017	-1768
1030.083	-2364
1030.149	-1553
1030.216	-2213
1030.282	-2384
1030.348	-3048
1030.414	-3503
1030.480	-2130
1030.546	-2368
1030.612	-2881
1030.678	-3340
1030.744	-2242
1030.810	-1860
1030.876	-2638
1030.942	-2532
1031.008	-2640
1031.074	-3154
1031.140	-1807
1031.206	-2102
1031.272	-2695
1031.337	-2834
1031.403	-1969
1031.469	-3060
1031.534	-3128
1031.600	-2170
1031.666	-3248
1031.731	-2982
1031.797	-2834
1031.863	-2626
1031.928	-2153
1031.994	-2674
1032.059	-2253
1032.125	-1938
1032.190	-2489
1032.256	-2137
1032.321	-2189
1032.386	-2662
1032.452	-2029
1032.517	-3336
1032.582	-2748
1032.647	-2766
1032.713	-3484
1032.778	-2505
1032.843	-2338
1032.908	-2341
1032.974	-2635
1033.039	-2951
1033.104	-2393
1033.169	-3046
1033.234	-2437
1033.299	-2196
1033.364	-2138
1033.429	-2310
1033.494	-2214
1033.559	-2721
1033.624	-2250
1033.688	-2154
1033.753	-2562
1033.818	-3539
1033.883	-2325
1033.948	-2269
1034.013	-2093
1034.077	-2377
1034.142	-1431
1034.207	-2625
1034.271	-843
1034.336	-879
1034.400	-1059
1034.465	-1493
1034.530	-2577
1034.594	-2181
1034.658	-2317
1034.723	-2181
1034.787	-2389
1034.852	-2019
1034.916	-2501
1034.981	-3019
1035.045	-2525
1035.109	-1818
1035.173	-1854
1035.238	-1915
1035.302	-2058
1035.366	-2091
1035.430	-2305
1035.495	-2792
1035.559	-2387
1035.623	-3018
1035.687	-1775
1035.751	-2310
1035.815	-1851
1035.879	-2250
1035.943	-2563
1036.007	-2578
1036.071	-2611
1036.135	-2572
1036.198	-2185
1036.262	-3194
1036.326	-2279
1036.390	-1484
1036.454	-2835
1036.517	-2017
1036.581	-1982
1036.645	-1322
1036.709	-1455
1036.772	-2023
1036.836	-2301
1036.900	-2616
1036.963	-2613
1037.026	-2435
1037.090	-2620
1037.154	-2501
1037.217	-2416
1037.280	-2139
1037.344	-2820
1037.407	-2969
1037.471	-1868
1037.534	-2865
1037.597	-2272
1037.661	-2209
1037.724	-2684
1037.787	-2559
1037.850	-2482
1037.913	-3168
1037.977	-2379
1038.040	-2825
1038.103	-1913
1038.166	-2553
1038.229	-2682
1038.292	-2917
1038.355	-2531
1038.418	-2474
1038.481	-2021
1038.544	-3370
1038.607	-1832
1038.670	-1917
1038.732	-2752
1038.795	-2773
1038.858	-2834
1038.921	-2785
1038.984	-3042
1039.046	-2617
1039.109	-2536
1039.172	-2345
1039.234	-2596
1039.297	-2486
1039.360	-1567
1039.422	-2217
1039.485	-2218
1039.547	-3288
1039.610	-2528
1039.672	-2030
1039.734	-3019
1039.797	-2646
1039.859	-2391
1039.922	-3389
1039.984	-2489
1040.046	-2140
1040.109	-1659
1040.171	-2859
1040.233	-2650
1040.295	-2855
1040.358	-2506
1040.420	-2621
1040.482	-1794
1040.544	-2691
1040.606	-2168
1040.668	-2936
1040.730	-2517
1040.792	-2755
1040.854	-1915
1040.916	-1601
1040.978	-2210
1041.040	-2112
1041.102	-2160
1041.164	-2866
1041.225	-2426
1041.287	-2346
1041.349	-2892
1041.411	-1663
1041.472	-2227
1041.534	-2176
1041.596	-2299
1041.657	-2284
1041.719	-1968
1041.781	-2229
1041.842	-1980
1041.904	-2121
1041.965	-2050
1042.027	-2504
1042.088	-2853
1042.150	-2777
1042.211	-2750
1042.272	-2356
1042.334	-2694
1042.395	-2797
1042.456	-2416
1042.518	-1898
1042.579	-2087
1042.640	-2164
1042.701	-1665
1042.763	-2175
1042.824	-2462
1042.885	-3042
1042.946	-2477
1043.007	-2495
1043.068	-1841
1043.129	-2470
1043.190	-2875
1043.251	-2175
1043.312	-1780
1043.373	-2290
1043.434	-2545
1043.495	-2189
1043.556	-1929
1043.616	-2407
1043.677	-2970
1043.738	-2517
1043.799	-2487
1043.859	-2508
1043.920	-2145
1043.981	-2062
1044.041	-2162
1044.102	-2608
1044.162	-2119
1044.223	-2701
1044.284	-2459
1044.344	-2419
1044.405	-2966
1044.465	-2983
1044.525	-2789
1044.586	-2308
1044.646	-2765
1044.707	-2941
1044.767	-1469
1044.827	-2203
1044.887	-2352
1044.948	-2536
1045.008	-1588
1045.068	-3284
1045.128	-2225
1045.188	-2272
1045.249	-1773
1045.309	-2191
1045.369	-1809
1045.429	-1551
1045.489	-1898
1045.549	-2403
1045.609	-2472
1045.669	-2592
1045.729	-2036
1045.789	-2762
1045.848	-3151
1045.908	-2364
1045.968	-1561
1046.028	-2294
1046.088	-1848
1046.147	-2128
1046.207	-1670
1046.267	-2135
1046.326	-2036
1046.386	-1772
1046.446	-1594
1046.505	-1500
1046.565	-1508
1046.624	-2186
1046.684	-658
1046.743	-2058
1046.803	-794
1046.862	-528
1046.922	0
