'Start Wavelength	183.907
'End Wavelength	1046.922
'Gate Delay	5.000
'Gate Width (ms)	1.050
'Laser Output Level	0.000
'X Position	0.000
'Y Position	0.000
'Z Position	0.000
'Grid Point Number	1.000
'Shot Number	100.000
183.907	606.000
183.977	329.000
184.047	6
184.116	576
184.186	-37
184.256	-171
184.325	32
184.395	-95
184.465	1241
184.534	67
184.604	135
184.674	65
184.743	-107
184.813	590
184.883	904
184.952	840
185.022	206
185.092	549
185.161	-169
185.231	1421
185.301	-316
185.370	882
185.440	-41
185.509	-47
185.579	374
185.649	-182
185.718	218
185.788	221
185.857	-716
185.927	368
185.996	342
186.066	-103
186.136	-98
186.205	48
186.275	170
186.344	977
186.414	329
186.483	-131
186.553	640
186.622	1323
186.692	-587
186.761	791
186.831	211
186.900	527
186.970	1050
187.039	365
187.109	408
187.178	1237
187.248	351
187.317	1283
187.387	-372
187.456	530
187.526	1241
187.595	487
187.664	994
187.734	1378
187.803	671
187.873	351
187.942	745
188.012	633
188.081	-271
188.150	788
188.220	54
188.289	1107
188.358	482
188.428	1020
188.497	227
188.567	974
188.636	637
188.705	653
188.775	1112
188.844	657
188.913	1553
188.983	499
189.052	202
189.121	691
189.191	836
189.260	1595
189.329	1190
189.399	579
189.468	513
189.537	230
189.606	508
189.676	1339
189.745	1075
189.814	1304
189.883	554
189.953	722
190.022	900
190.091	3016
190.161	3679
190.230	1298
190.299	972
190.368	920
190.437	76
190.507	1245
190.576	1315
190.645	158
190.714	845
190.783	997
190.853	1709
190.922	1549
190.991	956
191.060	2174
191.129	937
191.198	1856
191.268	769
191.337	926
191.406	1483
191.475	1125
191.544	156
191.613	736
191.682	323
191.752	416
191.821	842
191.890	579
191.959	1030
192.028	733
192.097	-303
192.166	1264
192.235	300
192.304	1408
192.373	189
192.442	1240
192.511	-355
192.580	23
192.650	784
192.719	1010
192.788	1161
192.857	265
192.926	223
192.995	308
193.064	1306
193.133	1009
193.202	480
193.271	774
193.340	264
193.409	930
193.478	694
193.547	365
193.615	1376
193.684	1406
193.753	1723
193.822	1769
193.891	591
193.960	564
194.029	1063
194.098	1702
194.167	-132
194.236	1741
194.305	914
194.374	1059
194.443	571
194.512	1049
194.580	1571
194.649	1388
194.718	1626
194.787	1306
194.856	341
194.925	2720
194.994	1120
195.062	1861
195.131	1826
195.200	2348
195.269	2632
195.338	1385
195.407	905
195.475	981
195.544	1960
195.613	1887
195.682	1204
195.751	2300
195.819	2386
195.888	2313
195.957	2136
196.026	2429
196.094	2622
196.163	3229
196.232	2841
196.301	2291
196.369	1671
196.438	1542
196.507	1256
196.576	666
196.644	-298
196.713	1064
196.782	151
196.850	1071
196.919	1223
196.988	1581
197.056	5
197.125	988
197.194	985
197.262	988
197.331	657
197.400	2185
197.468	690
197.537	407
197.606	535
197.674	1789
197.743	3492
197.812	1261
197.880	3966
197.949	3061
198.017	2973
198.086	2143
198.155	844
198.223	1642
198.292	4011
198.360	1867
198.429	637
198.497	1034
198.566	2442
198.635	4795
198.703	2048
198.772	1167
198.840	4591
198.909	5152
198.977	1134
199.046	1600
199.114	1510
199.183	1451
199.251	453
199.320	892
199.388	1311
199.457	1069
199.525	1740
199.594	1635
199.662	817
199.731	1825
199.799	980
199.867	1451
199.936	1171
200.004	1107
200.073	1965
200.141	798
200.210	64
200.278	1145
200.346	800
200.415	1940
200.483	1575
200.552	929
200.620	306
200.688	1277
200.757	1241
200.825	1128
200.893	1494
200.962	898
201.030	462
201.098	1184
201.167	2074
201.235	1395
201.303	911
201.372	818
201.440	914
201.508	2035
201.577	1374
201.645	1199
201.713	693
201.781	634
201.850	1510
201.918	1146
201.986	1438
202.055	1447
202.123	1452
202.191	1390
202.259	1312
202.327	558
202.396	1501
202.464	1133
202.532	1020
202.600	6400
202.669	4840
202.737	821
202.805	1105
202.873	1350
202.941	1575
203.009	1256
203.078	602
203.146	773
203.214	884
203.282	428
203.350	1565
203.418	1267
203.487	1088
203.555	1639
203.623	810
203.691	1186
203.759	925
203.827	656
203.895	1573
203.963	2349
204.031	704
204.099	859
204.168	1561
204.236	1935
204.304	1379
204.372	1930
204.440	1228
204.508	1589
204.576	632
204.644	1270
204.712	582
204.780	1144
204.848	944
204.916	727
204.984	1172
205.052	1706
205.120	1549
205.188	2158
205.256	1018
205.324	1598
205.392	891
205.460	1330
205.528	1132
205.596	1250
205.664	1272
205.732	1889
205.799	3738
205.867	8943
205.935	1521
206.003	2210
206.071	1260
206.139	1190
206.207	1997
206.275	1098
206.343	1238
206.411	1483
206.478	1426
206.546	1436
206.614	1516
206.682	1252
206.750	912
206.818	1515
206.885	1509
206.953	90
207.021	1896
207.089	1185
207.157	824
207.225	1037
207.292	526
207.360	1853
207.428	646
207.496	640
207.563	585
207.631	1921
207.699	579
207.767	1270
207.834	536
207.902	1864
207.970	800
208.038	762
208.105	1305
208.173	1090
208.241	1758
208.309	1643
208.376	1653
208.444	5422
208.512	1989
208.579	214
208.647	1878
208.715	2373
208.782	1167
208.850	1499
208.918	843
208.985	1526
209.053	1428
209.120	1849
209.188	845
209.256	2503
209.323	1137
209.391	3083
209.459	2322
209.526	1368
209.594	1211
209.661	1662
209.729	1048
209.796	1660
209.864	1071
209.932	396
209.999	2356
210.067	2283
210.134	2692
210.202	1678
210.269	3425
210.337	3643
210.404	1248
210.472	2191
210.539	1401
210.607	2108
210.674	3435
210.742	2847
210.809	1674
210.877	2758
210.944	3811
211.012	1865
211.079	4480
211.146	1554
211.214	1226
211.281	2831
211.349	3313
211.416	2286
211.484	3320
211.551	1936
211.618	1418
211.686	2718
211.753	1258
211.821	2359
211.888	1606
211.955	2044
212.023	1880
212.090	1732
212.157	2322
212.225	2368
212.292	4324
212.359	8471
212.427	24994
212.494	11779
212.561	4204
212.629	3039
212.696	2395
212.763	2643
212.831	1491
212.898	2670
212.965	1167
213.032	2563
213.100	3170
213.167	2718
213.234	3194
213.301	1975
213.369	1494
213.436	1754
213.503	1231
213.570	1964
213.638	1774
213.705	1094
213.772	1070
213.839	3553
213.906	4416
213.973	4049
214.041	2047
214.108	2193
214.175	1756
214.242	3361
214.309	2156
214.376	3141
214.444	2966
214.511	3752
214.578	2560
214.645	1953
214.712	3099
214.779	2055
214.846	1496
214.913	2116
214.980	3286
215.048	3284
215.115	4418
215.182	4389
215.249	3022
215.316	2509
215.383	2596
215.450	2287
215.517	3094
215.584	3777
215.651	3019
215.718	2878
215.785	4703
215.852	4921
215.919	6827
215.986	5202
216.053	2493
216.120	2001
216.187	4519
216.254	4875
216.321	3279
216.388	4085
216.455	4361
216.522	3220
216.589	5080
216.656	8915
216.722	9778
216.789	3293
216.856	3233
216.923	1937
216.990	2483
217.057	2707
217.124	4228
217.191	3526
217.258	3860
217.324	4014
217.391	3605
217.458	1853
217.525	1684
217.592	1766
217.659	2153
217.725	3774
217.792	5572
217.859	6892
217.926	1920
217.993	1779
218.059	1987
218.126	1872
218.193	1514
218.260	1485
218.327	1872
218.393	3715
218.460	1788
218.527	1446
218.594	2009
218.660	7699
218.727	9393
218.794	2924
218.860	2029
218.927	1647
218.994	1980
219.061	1559
219.127	4636
219.194	6914
219.261	3276
219.327	1703
219.394	2356
219.461	1063
219.527	1063
219.594	4460
219.661	3297
219.727	1012
219.794	2282
219.860	1917
219.927	2001
219.994	3986
220.060	9530
220.127	5821
220.193	2225
220.260	1987
220.326	2034
220.393	3064
220.460	3748
220.526	2412
220.593	1211
220.659	3978
220.726	2525
220.792	9669
220.859	7470
220.925	4489
220.992	5894
221.058	9618
221.125	14420
221.191	10697
221.258	3698
221.324	3100
221.391	4511
221.457	2174
221.524	2831
221.590	3942
221.657	13897
221.723	10425
221.789	8037
221.856	8569
221.922	3873
221.989	3912
222.055	2673
222.121	2756
222.188	7317
222.254	4150
222.321	2800
222.387	2210
222.453	1805
222.520	4058
222.586	1891
222.652	2903
222.719	4614
222.785	3812
222.851	1798
222.918	3228
222.984	4615
223.050	7939
223.116	5361
223.183	3086
223.249	1085
223.315	1756
223.382	3518
223.448	2767
223.514	898
223.580	1647
223.647	1743
223.713	1075
223.779	2406
223.845	3431
223.911	4185
223.978	1408
224.044	2719
224.110	1526
224.176	2034
224.242	1723
224.309	1213
224.375	1664
224.441	1651
224.507	1979
224.573	1737
224.639	2693
224.705	1948
224.772	2037
224.838	848
224.904	5118
224.970	3118
225.036	3371
225.102	3662
225.168	3149
225.234	3263
225.300	3500
225.366	2326
225.432	2048
225.499	1696
225.565	3517
225.631	2766
225.697	1790
225.763	2411
225.829	3084
225.895	3466
225.961	7542
226.027	7143
226.093	6464
226.159	6393
226.225	4304
226.291	5367
226.357	9618
226.423	10911
226.489	6869
226.554	5204
226.620	4201
226.686	7052
226.752	15058
226.818	9471
226.884	14595
226.950	13286
227.016	4535
227.082	5226
227.148	5140
227.214	8806
227.279	11318
227.345	10520
227.411	5451
227.477	4269
227.543	6504
227.609	10731
227.674	12943
227.740	6537
227.806	5365
227.872	3475
227.938	4790
228.003	15106
228.069	6572
228.135	2159
228.201	2992
228.267	3040
228.332	4219
228.398	6620
228.464	5274
228.530	2079
228.595	2260
228.661	2603
228.727	8184
228.792	6688
228.858	3139
228.924	3797
228.990	6060
229.055	4864
229.121	6734
229.187	3341
229.252	5336
229.318	3522
229.384	5271
229.449	8143
229.515	2395
229.581	1899
229.646	4478
229.712	5302
229.777	11572
229.843	13528
229.909	9372
229.974	12408
230.040	11190
230.105	5635
230.171	6521
230.236	9320
230.302	15372
230.368	11443
230.433	5306
230.499	4929
230.564	12621
230.630	6457
230.695	3336
230.761	4052
230.826	2738
230.892	8315
230.957	4119
231.023	2630
231.088	2623
231.154	2835
231.219	3743
231.284	5546
231.350	7630
231.415	3028
231.481	3232
231.546	2275
231.612	2429
231.677	2032
231.742	1259
231.808	4332
231.873	2854
231.939	1271
232.004	6958
232.069	8203
232.135	3333
232.200	3197
232.265	3257
232.331	1465
232.396	2563
232.461	2026
232.527	2088
232.592	1914
232.657	2407
232.723	11243
232.788	9673
232.853	3395
232.918	2822
232.984	2447
233.049	2611
233.114	9834
233.179	9442
233.245	12217
233.310	19990
233.375	5094
233.440	4792
233.506	3411
233.571	3482
233.636	3523
233.701	3878
233.766	10166
233.832	16178
233.897	7139
233.962	7203
234.027	9321
234.092	7979
234.157	6459
234.222	6639
234.288	10126
234.353	34305
234.418	35444
234.483	17954
234.548	11784
234.613	8027
234.678	8664
234.743	9322
234.808	36938
234.873	25253
234.938	9739
235.004	6020
235.069	6217
235.134	6023
235.199	5628
235.264	4559
235.329	3249
235.394	5467
235.459	9061
235.524	8624
235.589	5810
235.654	4242
235.719	2695
235.784	5162
235.849	5845
235.913	20530
235.978	23139
236.043	29011
236.108	9250
236.173	8150
236.238	10127
236.303	4341
236.368	4673
236.433	10066
236.498	23376
236.563	9744
236.627	8140
236.692	21014
236.757	16598
236.822	11327
236.887	16134
236.952	10085
237.017	7007
237.081	9153
237.146	9345
237.211	10204
237.276	17641
237.341	45181
237.405	33411
237.470	15664
237.535	16128
237.600	7383
237.664	6468
237.729	5793
237.794	7031
237.859	9747
237.923	15707
237.988	9983
238.053	16362
238.118	18930
238.182	41480
238.247	43827
238.312	25418
238.376	16129
238.441	14242
238.506	12367
238.570	5732
238.635	6557
238.700	5338
238.764	5568
238.829	18013
238.893	27511
238.958	11779
239.023	10828
239.087	5604
239.152	7915
239.216	4760
239.281	4643
239.346	4674
239.410	5824
239.475	6665
239.539	42633
239.604	38343
239.668	11367
239.733	5652
239.797	5795
239.862	11513
239.926	33697
239.991	16219
240.055	7993
240.120	5935
240.184	6796
240.249	6306
240.313	5843
240.378	7127
240.442	27447
240.507	46981
240.571	16846
240.635	19598
240.700	29295
240.764	10005
240.829	7394
240.893	5224
240.957	7597
241.022	22667
241.086	48100
241.151	26261
241.215	8438
241.279	11472
241.344	26563
241.408	11484
241.472	6348
241.537	6982
241.601	5941
241.665	5135
241.730	5870
241.794	8699
241.858	9781
241.922	6254
241.987	6643
242.051	5447
242.115	7038
242.179	6929
242.244	4638
242.308	6507
242.372	8408
242.436	16663
242.501	8800
242.565	5290
242.629	4929
242.693	5264
242.757	4690
242.822	7634
242.886	8792
242.950	7803
243.014	9747
243.078	9161
243.142	10606
243.206	7764
243.271	10338
243.335	10584
243.399	10628
243.463	25184
243.527	75644
243.591	28882
243.655	13525
243.719	8325
243.783	9795
243.847	12873
243.911	18891
243.975	30626
244.040	26168
244.104	15278
244.168	8048
244.232	14517
244.296	20326
244.360	15605
244.424	13585
244.488	12239
244.552	11647
244.615	8417
244.679	7615
244.743	10202
244.807	12572
244.871	7072
244.935	6178
244.999	6170
245.063	8597
245.127	10083
245.191	12499
245.255	11864
245.319	12366
245.383	14079
245.446	11211
245.510	6703
245.574	9954
245.638	10683
245.702	9048
245.766	24733
245.829	15046
245.893	12673
245.957	9566
246.021	10196
246.085	11302
246.149	15613
246.212	32931
246.276	49421
246.340	23824
246.404	16918
246.467	15409
246.531	27673
246.595	16761
246.659	15675
246.722	14681
246.786	18686
246.850	18577
246.913	23641
246.977	11401
247.041	11568
247.104	15099
247.168	11825
247.232	29479
247.295	64755
247.359	34473
247.423	14746
247.486	28131
247.550	18021
247.614	13633
247.677	20327
247.741	14319
247.804	10895
247.868	15500
247.932	25025
247.995	62545
248.059	25936
248.122	12776
248.186	16467
248.249	27112
248.313	91922
248.376	102519
248.440	67119
248.503	25648
248.567	19966
248.630	29971
248.694	42508
248.757	47036
248.821	99343
248.884	63752
248.948	53946
249.011	79105
249.075	115162
249.138	105832
249.202	42254
249.265	26719
249.328	41918
249.392	27308
249.455	19448
249.519	13411
249.582	18708
249.645	31314
249.709	22714
249.772	14098
249.835	13953
249.899	20838
249.962	15423
250.025	11638
250.089	34680
250.152	54216
250.215	27762
250.279	18690
250.342	18546
250.405	17910
250.468	15026
250.532	19674
250.595	26003
250.658	65927
250.721	120880
250.785	51816
250.848	27789
250.911	16531
250.974	15264
251.038	21966
251.101	56469
251.164	32944
251.227	32833
251.290	25590
251.354	27665
251.417	95131
251.480	104938
251.543	59757
251.606	169740
251.669	141006
251.732	61100
251.795	70620
251.859	63166
251.922	117660
251.985	78773
252.048	38927
252.111	31656
252.174	27505
252.237	49422
252.300	116299
252.363	100542
252.426	171303
252.489	91710
252.552	72444
252.615	50919
252.678	37621
252.741	80773
252.804	85830
252.867	159666
252.930	128894
252.993	93449
253.056	50430
253.119	50053
253.182	35156
253.245	37706
253.308	33940
253.371	45041
253.434	46905
253.497	47250
253.559	66936
253.622	54325
253.685	64593
253.748	71185
253.811	32727
253.874	43999
253.937	45572
254.000	28502
254.062	42631
254.125	67785
254.188	72357
254.251	62617
254.314	28709
254.376	48839
254.439	56338
254.502	52915
254.565	45405
254.628	79634
254.690	58413
254.753	33817
254.816	27429
254.878	29008
254.941	47249
255.004	52528
255.067	26889
255.129	27175
255.192	15902
255.255	13352
255.317	18355
255.380	13081
255.443	10150
255.505	10305
255.568	14279
255.631	16078
255.693	15348
255.756	11314
255.819	10455
255.881	9460
255.944	9716
256.006	8522
256.069	11432
256.132	9638
256.194	14585
256.257	49459
256.319	36318
256.382	35453
256.444	15347
256.507	10822
256.569	9156
256.632	9099
256.694	20194
256.757	17547
256.819	28826
256.882	17796
256.944	12886
257.007	14356
257.069	22885
257.132	19959
257.194	10853
257.257	11926
257.319	13702
257.381	9817
257.444	16938
257.506	36114
257.569	64505
257.631	98177
257.693	48754
257.756	20002
257.818	24078
257.880	13258
257.943	10851
258.005	10968
258.067	15096
258.130	14591
258.192	16103
258.254	41550
258.317	27327
258.379	13980
258.441	37927
258.503	35555
258.566	43361
258.628	66217
258.690	17849
258.753	14736
258.815	32954
258.877	18484
258.939	9814
259.001	10547
259.064	12276
259.126	15681
259.188	28581
259.250	15852
259.312	24963
259.375	81414
259.437	51014
259.499	16002
259.561	14671
259.623	17558
259.685	22096
259.747	14739
259.809	40813
259.872	85292
259.934	116309
259.996	137086
260.058	45074
260.120	15707
260.182	12403
260.244	10281
260.306	10058
260.368	12565
260.430	14164
260.492	39205
260.554	88898
260.616	67524
260.678	63588
260.740	94477
260.802	27766
260.864	19473
260.926	16739
260.988	18218
261.050	18968
261.112	55136
261.174	121827
261.236	80362
261.298	26992
261.359	39461
261.421	65214
261.483	20188
261.545	15409
261.607	10523
261.669	10791
261.731	25920
261.793	69359
261.854	31935
261.916	20491
261.978	25648
262.040	31617
262.102	17657
262.164	31336
262.225	26157
262.287	13718
262.349	33676
262.411	30731
262.472	15543
262.534	26995
262.596	68666
262.658	22980
262.719	13422
262.781	16374
262.843	60608
262.904	31058
262.966	19449
263.028	20469
263.090	72241
263.151	201352
263.213	87922
263.275	61457
263.336	21855
263.398	14056
263.459	11136
263.521	12882
263.583	30042
263.644	24129
263.706	12074
263.767	9680
263.829	9771
263.891	8849
263.952	8223
264.014	8927
264.075	25097
264.137	73794
264.198	30772
264.260	12942
264.321	10789
264.383	30925
264.444	100797
264.506	35241
264.567	18281
264.629	33166
264.690	88317
264.752	31148
264.813	16331
264.875	12407
264.936	15456
264.998	13869
265.059	7180
265.120	7360
265.182	9252
265.243	14575
265.305	14031
265.366	8860
265.427	7332
265.489	9725
265.550	6771
265.611	10793
265.673	12613
265.734	14743
265.795	7979
265.857	6330
265.918	5288
265.979	7827
266.040	20322
266.102	20813
266.163	15709
266.224	28320
266.286	13198
266.347	7820
266.408	9813
266.469	13982
266.530	10449
266.592	8017
266.653	19469
266.714	38418
266.775	13303
266.836	8960
266.898	7847
266.959	26801
267.020	19346
267.081	9074
267.142	6680
267.203	6489
267.264	5773
267.326	9650
267.387	7422
267.448	6909
267.509	6930
267.570	6690
267.631	7017
267.692	6457
267.753	6429
267.814	6564
267.875	14989
267.936	41202
267.997	34125
268.058	24895
268.119	11258
268.180	12487
268.241	8919
268.302	8666
268.363	6468
268.424	10823
268.485	13725
268.546	11567
268.607	5979
268.668	6348
268.729	6197
268.790	7842
268.851	11630
268.912	34254
268.972	36978
269.033	20339
269.094	9663
269.155	7463
269.216	7856
269.277	10927
269.338	8315
269.398	7358
269.459	9984
269.520	15118
269.581	20816
269.642	27590
269.702	17045
269.763	12178
269.824	8287
269.885	11405
269.945	21130
270.006	9615
270.067	6574
270.128	7567
270.188	8520
270.249	8897
270.310	6810
270.370	7285
270.431	10517
270.492	6911
270.553	8423
270.613	21888
270.674	42008
270.734	21280
270.795	11495
270.856	16841
270.916	17216
270.977	10292
271.038	13093
271.098	13872
271.159	20917
271.219	24888
271.280	10638
271.340	9488
271.401	13047
271.462	42273
271.522	24313
271.583	12413
271.643	14063
271.704	11659
271.764	14970
271.825	28131
271.885	85330
271.946	123275
272.006	44419
272.066	49537
272.127	89505
272.187	29743
272.248	17116
272.308	17235
272.369	59810
272.429	39648
272.489	37743
272.550	46031
272.610	35686
272.671	30069
272.731	31233
272.791	59399
272.852	27791
272.912	22636
272.972	12730
273.033	12562
273.093	27147
273.153	30784
273.214	20227
273.274	17429
273.334	65602
273.394	109363
273.455	47618
273.515	43498
273.575	99051
273.635	42604
273.696	51095
273.756	96874
273.816	42078
273.876	25085
273.936	53372
273.997	116462
274.057	36614
274.117	22881
274.177	28478
274.237	122945
274.297	116389
274.358	91643
274.418	79257
274.478	64964
274.538	30957
274.598	24024
274.658	84422
274.718	121690
274.778	49623
274.838	24868
274.898	51524
274.958	168568
275.018	111297
275.078	68001
275.138	33094
275.198	19678
275.258	14700
275.318	20512
275.378	38043
275.438	39629
275.498	25370
275.558	58811
275.618	128770
275.678	75771
275.738	50156
275.798	54113
275.858	37896
275.918	16209
275.978	15648
276.038	16259
276.098	12939
276.157	26350
276.217	74776
276.277	37335
276.337	28003
276.397	16349
276.457	19874
276.517	18221
276.576	11369
276.636	10260
276.696	18837
276.756	46191
276.815	37258
276.875	17956
276.935	21213
276.995	18783
277.055	10837
277.114	10121
277.174	15453
277.234	54103
277.293	28085
277.353	16985
277.413	11774
277.472	13530
277.532	14799
277.592	13590
277.651	30229
277.711	57741
277.771	22225
277.830	73390
277.890	65982
277.950	40196
278.009	103290
278.069	44072
278.128	35718
278.188	58391
278.248	27556
278.307	56191
278.367	43019
278.426	19900
278.486	15092
278.545	11766
278.605	10978
278.664	10686
278.724	12349
278.783	31223
278.843	87544
278.902	29974
278.962	19101
279.021	21128
279.081	27477
279.140	29739
279.199	22539
279.259	19145
279.318	18888
279.378	22424
279.437	41542
279.496	147447
279.556	323222
279.615	279993
279.675	85846
279.734	49408
279.793	81981
279.853	147211
279.912	57810
279.971	32058
280.031	30053
280.090	50935
280.149	95664
280.208	61761
280.268	235900
280.327	256552
280.386	74889
280.445	56470
280.505	55831
280.564	32786
280.623	30375
280.682	33751
280.742	51717
280.801	21245
280.860	17454
280.919	19089
280.978	17303
281.037	17346
281.097	14754
281.156	12543
281.215	12558
281.274	15101
281.333	58374
281.392	50405
281.451	14508
281.510	11266
281.569	10621
281.628	9740
281.688	9842
281.747	14796
281.806	19549
281.865	13109
281.924	10615
281.983	11960
282.042	9957
282.101	9274
282.160	9841
282.219	9308
282.278	10948
282.337	36402
282.396	29613
282.454	12942
282.513	14290
282.572	55579
282.631	38239
282.690	15363
282.749	12495
282.808	18280
282.867	19436
282.926	16378
282.985	10006
283.043	9231
283.102	9813
283.161	13885
283.220	37013
283.279	72045
283.338	22776
283.396	14199
283.455	13169
283.514	13867
283.573	21842
283.631	19273
283.690	13689
283.749	11002
283.808	23500
283.866	32232
283.925	12653
283.984	11355
284.043	17082
284.101	20403
284.160	16027
284.219	38287
284.277	20922
284.336	21877
284.395	69671
284.453	62681
284.512	21400
284.570	29104
284.629	24615
284.688	18506
284.746	19276
284.805	20833
284.863	27653
284.922	32550
284.981	33818
285.039	42944
285.098	69023
285.156	157389
285.215	334791
285.273	315081
285.332	184264
285.390	102406
285.449	62764
285.507	41485
285.566	31383
285.624	26586
285.683	22006
285.741	18697
285.799	18135
285.858	20965
285.916	19498
285.975	13688
286.033	12404
286.091	11560
286.150	10281
286.208	14282
286.267	23761
286.325	16919
286.383	25709
286.442	21067
286.500	10257
286.558	8768
286.616	9463
286.675	13993
286.733	13773
286.791	13193
286.850	15763
286.908	23646
286.966	34701
287.024	16438
287.083	10237
287.141	9451
287.199	10525
287.257	18377
287.315	13873
287.374	14954
287.432	32351
287.490	23948
287.548	17443
287.606	12076
287.664	10949
287.723	22528
287.781	41514
287.839	18581
287.897	15876
287.955	17398
288.013	20083
288.071	33766
288.129	113406
288.187	355751
288.245	177608
288.303	57421
288.361	34737
288.419	43932
288.477	32165
288.535	18280
288.593	14594
288.651	15021
288.709	12412
288.767	13425
288.825	13701
288.883	15137
288.941	16011
288.999	11983
289.057	11308
289.115	16020
289.173	15690
289.231	13500
289.289	13086
289.346	11102
289.404	12886
289.462	22800
289.520	26012
289.578	14533
289.636	9154
289.694	8918
289.751	8814
289.809	9193
289.867	10122
289.925	13366
289.983	17004
290.040	11555
290.098	8398
290.156	13267
290.214	15988
290.271	11732
290.329	9481
290.387	9469
290.444	9431
290.502	7932
290.560	11990
290.617	14688
290.675	11504
290.733	10804
290.790	12582
290.848	11355
290.906	12138
290.963	13934
291.021	13989
291.078	12733
291.136	13838
291.194	47312
291.251	104801
291.309	35453
291.366	15688
291.424	13917
291.481	14821
291.539	12984
291.596	11594
291.654	8985
291.711	9335
291.769	11457
291.826	26333
291.884	20867
291.941	10602
291.999	12032
292.056	14372
292.114	16099
292.171	11486
292.228	11602
292.286	16376
292.343	30475
292.401	34876
292.458	23571
292.515	16776
292.573	22301
292.630	21696
292.687	22310
292.745	18110
292.802	27404
292.859	74965
292.917	87322
292.974	53303
293.031	22111
293.089	15046
293.146	14436
293.203	13811
293.260	13869
293.318	29837
293.375	50293
293.432	27844
293.489	16762
293.546	14069
293.604	18309
293.661	42724
293.718	109367
293.775	80941
293.832	40545
293.889	30007
293.947	44486
294.004	32139
294.061	26198
294.118	39661
294.175	86136
294.232	129189
294.289	56916
294.346	26464
294.403	20355
294.460	21250
294.517	21287
294.574	19679
294.631	16818
294.688	19569
294.745	37643
294.802	133546
294.859	182467
294.916	94082
294.973	61632
295.030	38404
295.087	31209
295.144	21524
295.201	19273
295.258	16900
295.315	19225
295.372	47289
295.429	88517
295.486	47703
295.542	33573
295.599	81528
295.656	150808
295.713	103312
295.770	95497
295.827	43856
295.883	26076
295.940	25994
295.997	43424
296.054	43206
296.111	24812
296.167	19267
296.224	16172
296.281	14915
296.338	16143
296.394	16960
296.451	19563
296.508	46307
296.564	96433
296.621	76524
296.678	97893
296.734	150456
296.791	74218
296.848	40267
296.904	34959
296.961	68317
297.018	102223
297.074	92796
297.131	41482
297.187	28169
297.244	30882
297.301	81428
297.357	146262
297.414	63071
297.470	31602
297.527	26567
297.583	20404
297.640	21958
297.696	19460
297.753	16570
297.809	16475
297.866	13951
297.922	15154
297.979	14463
298.035	16782
298.092	23562
298.148	55471
298.204	59483
298.261	33540
298.317	53423
298.374	124077
298.430	75938
298.486	44984
298.543	37906
298.599	29611
298.656	25145
298.712	36916
298.768	72173
298.824	52451
298.881	26266
298.937	19471
298.993	18938
299.050	27513
299.106	25843
299.162	21782
299.218	21614
299.275	16893
299.331	17218
299.387	27686
299.443	89121
299.500	99908
299.556	47948
299.612	28664
299.668	23930
299.724	23501
299.780	25279
299.837	20827
299.893	26679
299.949	77998
300.005	95478
300.061	88786
300.117	146120
300.173	79458
300.229	38977
300.285	45257
300.341	52072
300.397	30510
300.453	20983
300.510	19798
300.566	20192
300.622	20782
300.678	35894
300.734	78916
300.790	84110
300.845	96723
300.901	62440
300.957	82321
301.013	74121
301.069	34255
301.125	26256
301.181	29117
301.237	22991
301.293	18241
301.349	16732
301.405	16622
301.461	17433
301.516	19315
301.572	22830
301.628	38819
301.684	39316
301.740	52340
301.796	69238
301.851	48897
301.907	72354
301.963	70944
302.019	93070
302.074	237603
302.130	244494
302.186	122427
302.242	57828
302.297	39619
302.353	36005
302.409	62078
302.464	57098
302.520	47643
302.576	103061
302.631	122511
302.687	78140
302.743	39933
302.798	26646
302.854	21404
302.910	22143
302.965	32110
303.021	50563
303.076	45839
303.132	54746
303.187	63896
303.243	38191
303.299	24193
303.354	19968
303.410	18941
303.465	18103
303.521	18213
303.576	18370
303.632	20426
303.687	32161
303.743	82304
303.798	76629
303.853	39747
303.909	26433
303.964	23314
304.020	31547
304.075	48164
304.130	42920
304.186	72884
304.241	77671
304.297	65132
304.352	40040
304.358	38873
304.407	29435
304.449	29498
304.463	29536
304.518	31366
304.539	30220
304.573	28436
304.629	26764
304.630	26986
304.684	38011
304.720	61019
304.739	72345
304.794	101447
304.811	88864
304.850	58961
304.902	36854
304.905	35457
304.960	24808
304.992	22377
305.015	20685
305.071	18775
305.083	18626
305.126	18001
305.173	17021
305.181	16893
305.236	16340
305.264	18000
305.292	19637
305.347	22721
305.354	22838
305.402	23622
305.445	23680
305.457	23700
305.512	26834
305.535	28050
305.567	29918
305.622	28700
305.626	29366
305.678	45040
305.716	78429
305.733	90076
305.788	109347
305.807	98355
305.843	80438
305.897	91635
305.898	91673
305.953	90436
305.988	65611
306.008	52521
306.063	35157
306.078	32253
306.118	25778
306.168	21681
306.173	21298
306.228	18171
306.259	17821
306.283	17725
306.338	18070
306.349	18302
306.393	18953
306.440	18010
306.448	18331
306.503	23417
306.530	28820
306.558	39548
306.613	101013
306.620	107659
306.668	136086
306.711	123494
306.723	117709
306.778	84044
306.801	65778
306.833	46547
306.888	28630
306.892	27961
306.943	22019
306.982	20759
306.997	20638
307.052	21487
307.072	23276
307.107	30142
307.162	46602
307.163	46943
307.217	79080
307.253	94182
307.272	96046
307.327	96081
307.343	84261
307.381	62691
307.434	48214
307.436	48592
307.491	90353
307.524	129606
307.546	138388
307.600	106234
307.614	91747
307.655	56811
307.704	33153
307.710	32610
307.765	42089
307.795	57328
307.819	68386
307.874	115970
307.885	114008
307.929	81299
307.975	41073
307.984	37052
308.038	28286
308.065	26860
308.093	33689
308.148	56336
308.156	63453
308.202	95424
308.246	113258
308.257	113731
308.312	74855
308.336	66931
308.366	61237
308.421	51057
308.426	49132
308.475	31475
308.517	22461
308.530	20936
308.585	19417
308.607	19368
308.639	23902
308.694	33315
308.697	34459
308.748	77367
308.787	126549
308.803	127960
308.857	90531
308.877	70703
308.912	51280
308.967	39017
308.967	38936
309.021	38123
309.058	38916
309.076	43495
309.130	65716
309.148	74248
309.185	109669
309.238	168850
309.239	168975
309.293	186190
309.328	163384
309.348	142203
309.402	72992
309.418	56625
309.457	41678
309.508	30157
309.511	29879
309.566	32525
309.598	35923
309.620	43930
309.674	71650
309.688	79402
309.729	76962
309.778	59755
309.783	58611
309.837	44970
309.868	39159
309.892	51545
309.946	88029
309.959	99924
310.001	125584
310.049	145987
310.055	141479
310.109	83928
310.139	50031
310.163	39748
310.218	27037
310.229	25324
310.272	24357
310.319	24272
310.326	24149
310.381	26356
310.409	26418
310.435	26550
310.489	27396
310.499	27696
310.543	30898
310.589	34732
310.598	34351
310.652	33044
310.679	30671
310.706	26401
310.760	17971
310.769	16757
310.814	13799
310.859	11854
310.868	12081
310.923	13948
310.948	15170
310.977	17549
311.031	22474
311.038	23163
311.085	21507
311.128	19150
311.139	19001
311.193	18826
311.218	18813
311.247	17569
311.301	15025
311.308	14769
311.356	16870
311.398	19339
311.410	18596
311.464	14631
311.488	12840
311.518	13259
311.572	14190
311.578	14381
311.626	20385
311.668	25830
311.680	27502
311.734	35023
311.758	38464
311.788	35982
311.842	30866
311.847	30393
311.896	41698
311.937	52184
311.950	49809
312.004	39257
312.027	34461
312.058	28234
312.112	17635
312.117	16653
312.165	18199
312.207	19660
312.297	35970
312.386	24312
312.476	22021
312.566	33587
312.656	17589
312.745	15573
312.835	21055
312.925	20803
313.015	27515
313.104	27299
313.194	14372
313.284	14555
313.374	18255
313.463	15984
313.553	15017
313.643	12762
313.732	12512
313.822	12909
313.912	16802
314.001	20102
314.091	30512
314.180	35338
314.270	28835
314.360	36682
314.449	24721
314.539	15924
314.628	17295
314.718	25885
314.808	34342
314.897	14413
314.987	14138
315.076	19127
315.166	34575
315.255	32257
315.345	30636
315.434	34257
315.524	31808
315.613	27890
315.703	27020
315.792	27627
315.881	45326
315.971	29521
316.060	73141
316.150	131369
316.239	118981
316.328	32805
316.418	15589
316.507	15682
316.597	21197
316.686	23067
316.775	65316
316.865	109601
316.954	18575
317.043	12742
317.133	15516
317.222	14250
317.311	14209
317.400	11715
317.490	20193
317.579	19851
317.668	14843
317.757	20218
317.847	36306
317.936	76400
318.025	48530
318.114	25540
318.203	23100
318.293	29645
318.382	41956
318.471	41692
318.560	84202
318.649	149129
318.738	30684
318.828	25111
318.917	28386
319.006	56225
319.095	134901
319.184	198468
319.273	91411
319.362	44712
319.451	20967
319.540	22807
319.629	48394
319.718	61024
319.807	33587
319.896	97122
319.985	231544
320.074	70071
320.163	45390
320.252	79138
320.341	60284
320.430	39471
320.519	42333
320.608	25674
320.697	24046
320.786	21028
320.875	25817
320.964	31118
321.053	48220
321.142	67799
321.230	65724
321.319	73674
321.408	138991
321.497	56145
321.586	62386
321.675	122082
321.764	91334
321.852	60589
321.941	77728
322.030	46153
322.119	73476
322.207	159829
322.296	156655
322.385	70522
322.474	64051
322.562	157505
322.651	79667
322.740	77682
322.829	142453
322.917	170785
323.006	63078
323.095	53391
323.183	58804
323.272	63613
323.361	137836
323.449	306000
323.538	120546
323.626	273520
323.715	124869
323.804	87468
323.892	257498
323.981	109810
324.069	46619
324.158	167530
324.246	109616
324.335	40259
324.424	47972
324.512	21665
324.601	23527
324.689	27484
324.778	67122
324.866	113309
324.954	28308
325.043	27809
325.131	90723
325.220	155502
325.308	151947
325.397	115313
325.485	51009
325.574	18633
325.662	18613
325.750	17775
325.839	17246
325.927	16244
326.015	29817
326.104	78189
326.192	75074
326.280	17943
326.369	20314
326.457	26160
326.545	41238
326.634	16315
326.722	13345
326.810	13689
326.898	12662
326.987	17624
327.075	49066
327.163	68195
327.251	28148
327.340	16005
327.428	16365
327.516	13983
327.604	18974
327.692	24269
327.781	47471
327.869	70874
327.957	32558
328.045	21114
328.133	19218
328.221	33753
328.309	18009
328.397	13985
328.485	19353
328.574	26534
328.662	82629
328.750	70272
328.838	34687
328.926	14132
329.014	13519
329.102	29862
329.190	75380
329.278	31668
329.366	12134
329.454	14596
329.542	14963
329.630	12375
329.718	13882
329.806	16117
329.893	23297
329.981	15456
330.069	10064
330.157	12770
330.245	17147
330.333	15232
330.421	12650
330.509	29132
330.597	97084
330.684	63138
330.772	42655
330.860	77860
330.948	79525
331.036	23332
331.123	12198
331.211	18386
331.299	26022
331.387	81941
331.475	97145
331.562	30988
331.650	16290
331.738	35863
331.825	44778
331.913	13661
332.001	14265
332.089	37040
332.176	79401
332.264	183381
332.352	100144
332.439	29872
332.527	22772
332.614	32645
332.702	37227
332.790	23791
332.877	95541
332.965	134062
333.052	23508
333.140	36700
333.228	58422
333.315	16204
333.403	33095
333.490	120355
333.578	59807
333.665	37603
333.753	31286
333.840	16542
333.928	36080
334.015	116765
334.103	138408
334.190	287525
334.278	62814
334.365	44486
334.452	26051
334.540	16762
334.627	40301
334.715	43378
334.802	106706
334.889	483694
334.977	293021
335.064	31184
335.151	21500
335.239	27215
335.326	38275
335.413	153798
335.501	136769
335.588	21717
335.675	18365
335.762	41612
335.850	53399
335.937	25654
336.024	119882
336.111	399404
336.199	117119
336.286	20849
336.373	14048
336.460	11201
336.547	17315
336.635	22908
336.722	18588
336.809	18004
336.896	29585
336.983	105761
337.070	216162
337.157	258479
337.245	288949
337.332	150749
337.419	26166
337.506	18669
337.593	26261
337.680	110878
337.767	198724
337.854	67862
337.941	100396
338.028	135246
338.115	41751
338.202	50958
338.289	106466
338.376	276377
338.463	78700
338.550	156217
338.637	108265
338.724	92850
338.811	111689
338.898	21872
338.984	20210
339.071	24679
339.158	22864
339.245	55610
339.332	37299
339.419	104657
339.506	65284
339.593	10383
339.679	12529
339.766	12668
339.853	23882
339.940	32703
340.027	14675
340.113	14421
340.200	23746
340.287	18495
340.374	22118
340.460	29056
340.547	14738
340.634	28589
340.720	90602
340.807	39648
340.894	12386
340.980	16683
341.067	13500
341.154	15623
341.240	22448
341.327	38430
341.414	11576
341.500	10103
341.587	14742
341.674	13829
341.760	32277
341.847	32363
341.933	11351
342.020	6946
342.106	8111
342.193	15007
342.279	23565
342.366	17421
342.452	27941
342.539	16302
342.625	44254
342.712	84697
342.798	34905
342.885	16260
342.971	8168
343.058	7330
343.144	9691
343.230	8347
343.317	8429
343.403	7170
343.490	9164
343.576	7404
343.662	10560
343.749	10700
343.835	13908
343.921	29772
344.008	164400
344.094	287649
344.180	61187
344.267	33427
344.353	128888
344.439	135588
344.525	44747
344.612	14115
344.698	14545
344.784	10481
344.870	8379
344.957	10472
345.043	17053
345.129	14908
345.215	29669
345.301	14516
345.387	10747
345.474	9050
345.560	15390
345.646	23267
345.732	14242
345.818	11419
345.904	12212
345.990	18396
346.076	37619
346.162	59846
346.249	15993
346.335	8602
346.421	13036
346.507	49428
346.593	126013
346.679	29363
346.765	14392
346.851	12128
346.937	11598
347.023	9234
347.108	11849
347.194	10050
347.280	9843
347.366	13634
347.452	45618
347.538	155747
347.624	124442
347.710	119072
347.796	24023
347.882	14851
347.967	16258
348.053	29381
348.139	16433
348.225	10526
348.311	10698
348.397	8528
348.482	15545
348.568	16536
348.654	7412
348.740	6616
348.825	8055
348.911	21817
348.997	94129
349.083	154573
349.168	30237
349.254	9624
349.340	10648
349.425	8337
349.511	17312
349.597	19009
349.682	35690
349.768	92506
349.854	40410
349.939	14773
350.025	12326
350.110	8111
350.196	7281
350.282	5324
350.367	14001
350.453	47193
350.538	34078
350.624	21560
350.709	18039
350.795	8884
350.880	9431
350.966	15471
351.051	39880
351.137	24112
351.222	11659
351.308	35733
351.393	75730
351.479	14434
351.564	7753
351.649	10907
351.735	9133
351.820	6840
351.906	10284
351.991	21638
352.076	64786
352.162	69535
352.247	14424
352.332	11635
352.418	18044
352.503	30308
352.588	123818
352.673	83413
352.759	21481
352.844	10355
352.929	13958
353.014	18400
353.100	17390
353.185	37312
353.270	42628
353.355	31528
353.441	14690
353.526	25434
353.611	36173
353.696	33516
353.781	19821
353.866	8980
353.952	12644
354.037	32694
354.122	67094
354.207	57494
354.292	19931
354.377	9977
354.462	9763
354.547	15788
354.632	20339
354.717	35518
354.802	42059
354.887	13810
354.972	8699
355.057	6417
355.142	7690
355.227	11223
355.312	21154
355.397	48209
355.482	105835
355.567	43965
355.652	37361
355.737	40314
355.822	113406
355.907	71992
355.991	14282
356.076	11671
356.161	11757
356.246	6572
356.331	10263
356.416	31784
356.501	178048
356.585	145104
356.670	19571
356.755	14670
356.840	31371
356.924	159357
357.009	408610
357.094	124107
357.179	33225
357.263	23966
357.348	32282
357.433	30098
357.517	21830
357.602	16142
357.687	15195
357.771	23576
357.856	21724
357.941	20610
358.025	100897
358.110	347985
358.195	132364
358.279	21878
358.364	22760
358.448	88908
358.533	203749
358.617	142293
358.702	140791
358.787	48303
358.871	31372
358.956	23451
359.040	9216
359.125	7049
359.209	8163
359.294	10456
359.378	13922
359.462	24549
359.547	24791
359.631	22317
359.716	10060
359.800	17554
359.885	28969
359.969	12840
360.053	11524
360.138	10154
360.222	18965
360.306	32783
360.391	25889
360.475	31882
360.559	62747
360.644	83609
360.728	58763
360.812	108169
360.896	240389
360.981	125244
361.065	68010
361.149	18503
361.233	18957
361.318	15705
361.402	19239
361.486	12848
361.570	8673
361.654	15692
361.739	45506
361.823	175595
361.907	214912
361.991	33388
362.075	30223
362.159	62098
362.243	39381
362.327	27876
362.411	29896
362.495	28953
362.580	15899
362.664	9581
362.748	7806
362.832	8828
362.916	10523
363.000	34617
363.084	161417
363.168	245656
363.252	55364
363.336	28696
363.420	59082
363.503	205248
363.587	174468
363.671	28597
363.755	29078
363.839	32971
363.923	14702
364.007	35967
364.091	50903
364.175	96190
364.258	258862
364.342	98303
364.426	44589
364.510	35686
364.594	45885
364.677	61398
364.761	215560
364.845	124786
364.929	51349
365.013	42258
365.096	39897
365.180	46522
365.264	103988
365.347	273737
365.431	114576
365.515	35058
365.598	16616
365.682	18134
365.766	54285
365.849	49792
365.933	29060
366.017	43653
366.100	32051
366.184	15839
366.267	16727
366.351	8369
366.435	8708
366.518	6922
366.602	7500
366.685	9634
366.769	17001
366.852	45313
366.936	53463
367.019	24984
367.103	41536
367.186	57471
367.270	13918
367.353	6537
367.436	9465
367.520	7913
367.603	12099
367.687	22025
367.770	36800
367.853	22825
367.937	74933
368.020	99952
368.104	26732
368.187	29877
368.270	38121
368.353	37956
368.437	103793
368.520	238925
368.603	101041
368.687	94932
368.770	135997
368.853	36096
368.936	58163
369.020	52665
369.103	14826
369.186	10170
369.269	12088
369.352	31284
369.436	46036
369.519	22683
369.602	10001
369.685	15445
369.768	17750
369.851	14235
369.934	11409
370.018	19025
370.101	36043
370.184	30471
370.267	24892
370.350	34853
370.433	58115
370.516	120230
370.599	124094
370.682	48748
370.765	87385
370.848	107901
370.931	185612
371.014	77484
371.097	18669
371.180	10207
371.263	7876
371.346	7122
371.429	9233
371.511	13338
371.594	28101
371.677	54619
371.760	58572
371.843	34366
371.926	141476
372.009	260255
372.091	82907
372.174	87863
372.257	162592
372.340	63807
372.423	93623
372.505	98638
372.588	33363
372.671	65358
372.754	171494
372.836	83690
372.919	109996
373.002	161648
373.085	40248
373.167	31632
373.250	82064
373.332	158311
373.415	212333
373.498	370817
373.580	130294
373.663	183094
373.746	215755
373.828	53618
373.911	34277
373.993	56366
374.076	194529
374.159	157597
374.241	69012
374.324	150393
374.406	89250
374.489	138512
374.571	318452
374.654	116210
374.736	82034
374.819	225121
374.901	288554
374.983	255867
375.066	42208
375.148	35184
375.231	163767
375.313	249478
375.395	90215
375.478	18124
375.560	13398
375.643	24017
375.725	93385
375.807	294552
375.890	302323
375.972	185057
376.054	115794
376.136	198359
376.219	67867
376.301	95883
376.383	221109
376.465	75473
376.548	60312
376.630	81870
376.712	191274
376.794	74098
376.877	11783
376.959	10511
377.041	21098
377.123	61551
377.205	52875
377.287	8562
377.369	10434
377.452	11339
377.534	11153
377.616	11099
377.698	9630
377.780	6587
377.862	9884
377.944	9237
378.026	7390
378.108	8818
378.190	9522
378.272	8521
378.354	6971
378.436	11248
378.518	39983
378.600	102405
378.682	64141
378.764	104628
378.846	78430
378.928	36715
379.010	38538
379.091	26147
379.173	11853
379.255	10511
379.337	19093
379.419	66548
379.501	152099
379.583	57579
379.664	20011
379.746	46274
379.828	110963
379.910	135699
379.991	103699
380.073	21482
380.155	20241
380.237	12165
380.318	9842
380.400	11137
380.482	31355
380.564	45516
380.645	50821
380.727	39629
380.809	20800
380.890	15090
380.972	12970
381.053	11554
381.135	17258
381.217	43342
381.298	106850
381.380	51959
381.461	59825
381.543	204068
381.624	207762
381.706	41119
381.787	29673
381.869	27918
381.951	99644
382.032	298987
382.113	168690
382.195	45089
382.276	33378
382.358	81869
382.439	178426
382.521	190603
382.602	265858
382.684	131764
382.765	248443
382.846	194367
382.928	186786
383.009	95115
383.090	68166
383.172	263756
383.253	402919
383.334	190093
383.416	252283
383.497	105237
383.578	39361
383.659	70837
383.741	232901
383.822	581483
383.903	293210
383.984	167644
384.066	309921
384.147	173284
384.228	34755
384.309	28074
384.390	20985
384.471	16155
384.553	23550
384.634	37326
384.715	30074
384.796	17109
384.877	30221
384.958	95175
385.039	102892
385.120	34982
385.201	25179
385.282	45043
385.363	47882
385.444	26065
385.525	44304
385.606	134675
385.687	106305
385.768	45724
385.849	56360
385.930	151149
386.011	217379
386.092	54216
386.173	20391
386.254	25581
386.335	23758
386.416	23668
386.496	72563
386.577	112376
386.658	61627
386.739	42510
386.820	50829
386.901	39742
386.981	25436
387.062	13514
387.143	37614
387.224	109743
387.304	96313
387.385	41640
387.466	41844
387.547	44605
387.627	20469
387.708	50851
387.789	185781
387.869	191587
387.950	47612
388.031	15301
388.111	37280
388.192	109976
388.273	136732
388.353	54503
388.434	20221
388.514	44968
388.595	166383
388.676	194538
388.756	96434
388.837	97268
388.917	54060
388.998	16904
389.078	14617
389.159	10641
389.239	10991
389.320	21053
389.400	24623
389.480	63190
389.561	116914
389.641	46033
389.722	24195
389.802	38503
389.883	61867
389.963	143081
390.043	121495
390.124	51918
390.204	45599
390.284	112225
390.365	82938
390.445	131086
390.525	170168
390.605	109516
390.686	43596
390.766	17321
390.846	13675
390.927	9170
391.007	12993
391.087	20035
391.167	19030
391.247	23080
391.328	63477
391.408	72805
391.488	36647
391.568	12542
391.648	18714
391.728	21695
391.808	22240
391.888	26438
391.969	63986
392.049	95049
392.129	59544
392.209	59632
392.289	113071
392.369	77217
392.449	95634
392.529	43808
392.609	30473
392.689	40845
392.769	111686
392.849	87435
392.929	99406
393.009	180442
393.089	89748
393.169	42140
393.248	143037
393.328	527453
393.408	521834
393.488	105015
393.568	28902
393.648	17311
393.728	13221
393.807	10618
393.887	9670
393.967	8039
394.047	12672
394.127	14910
394.206	20160
394.286	49766
394.366	175138
394.446	154744
394.525	26640
394.605	12451
394.685	45525
394.764	141233
394.844	208087
394.924	117597
395.003	27613
395.083	15473
395.163	14771
395.242	14851
395.322	14800
395.402	7535
395.481	21872
395.561	95313
395.640	195917
395.720	126953
395.799	204528
395.879	117177
395.958	22069
396.038	59445
396.117	234704
396.197	238089
396.276	106854
396.356	69928
396.435	71593
396.515	28340
396.594	27084
396.673	47491
396.753	169358
396.832	498293
396.912	381460
396.991	94679
397.070	23713
397.150	13289
397.229	11135
397.308	10522
397.388	13524
397.467	9242
397.546	8059
397.625	8341
397.705	15410
397.784	15298
397.863	8631
397.942	7375
398.022	19785
398.101	96175
398.180	213234
398.259	103387
398.338	25296
398.417	17777
398.497	17188
398.576	15298
398.655	9159
398.734	9676
398.813	22724
398.892	96106
398.971	213756
399.050	81716
399.129	11429
399.208	9004
399.287	10339
399.366	8618
399.445	12944
399.524	14268
399.603	15216
399.682	25344
399.761	89005
399.840	228397
399.919	142883
399.998	20679
400.077	6805
400.156	7852
400.235	17983
400.313	15279
400.392	24566
400.471	64085
400.550	85422
400.629	25470
400.708	18642
400.786	33757
400.865	82289
400.944	68611
401.023	24109
401.102	6294
401.180	13534
401.259	21680
401.338	23332
401.416	20887
401.495	21747
401.574	20296
401.652	16503
401.731	24713
401.810	23544
401.888	8960
401.967	6024
402.046	9005
402.124	25032
402.203	28663
402.281	14711
402.360	32889
402.438	91267
402.517	53602
402.596	26295
402.674	25442
402.753	14244
402.831	11098
402.910	18401
402.988	81180
403.066	197866
403.145	97762
403.223	74385
403.302	151691
403.380	113696
403.459	111129
403.537	46094
403.615	19720
403.694	5605
403.772	5564
403.850	5648
403.929	5892
404.007	12880
404.085	30814
404.164	31552
404.242	13178
404.320	13420
404.398	16432
404.477	65414
404.555	242438
404.633	175871
404.711	22187
404.789	9970
404.868	13046
404.946	9279
405.024	4876
405.102	4182
405.180	4445
405.258	6091
405.336	9121
405.415	15564
405.493	35585
405.571	25026
405.649	8144
405.727	11652
405.805	20425
405.883	19670
405.961	26031
406.039	32522
406.117	11879
406.195	18130
406.273	77717
406.351	220861
406.429	126576
406.507	37672
406.585	12164
406.663	11464
406.740	14329
406.818	14110
406.896	10093
406.974	10761
407.052	30920
407.130	138323
407.208	158193
407.285	29109
407.363	10273
407.441	9855
407.519	8830
407.596	14878
407.674	22870
407.752	43745
407.830	73486
407.907	44503
407.985	15586
408.063	7742
408.141	11359
408.218	30257
408.296	27996
408.373	15538
408.451	11508
408.529	10860
408.606	8834
408.684	13254
408.762	5381
408.839	3802
408.917	2953
408.994	3933
409.072	2325
409.149	3666
409.227	5448
409.304	4841
409.382	2044
409.459	3711
409.537	6399
409.614	5461
409.692	3798
409.769	5956
409.846	9627
409.924	13855
410.001	6549
410.079	7505
410.156	6354
410.233	5944
410.311	4025
410.388	4106
410.465	5666
410.543	6064
410.620	4710
410.697	8516
410.775	8956
410.852	5609
410.929	10736
411.006	13082
411.083	7805
411.161	15867
411.238	27441
411.315	19245
411.392	6424
411.469	9059
411.547	7027
411.624	4601
411.701	4548
411.778	11910
411.855	22006
411.932	12357
412.009	7687
412.086	9644
412.163	14595
412.240	21189
412.317	31909
412.394	23072
412.471	7077
412.548	5937
412.625	8533
412.702	19756
412.779	25875
412.856	12939
412.933	6738
413.010	6302
413.087	17648
413.164	59430
413.241	66419
413.318	18493
413.395	15124
413.471	17007
413.548	7954
413.625	10659
413.702	19548
413.779	15600
413.855	4727
413.932	4456
414.009	4082
414.086	4633
414.162	8197
414.239	22686
414.316	68780
414.393	111045
414.469	34391
414.546	7358
414.623	5261
414.699	5887
414.776	6698
414.853	6150
414.929	9258
415.006	14723
415.082	21065
415.159	14242
415.236	9568
415.312	9077
415.389	14864
415.465	20368
415.542	10601
415.618	9104
415.695	12391
415.771	11520
415.848	10742
415.924	13718
416.000	10830
416.077	6388
416.153	2154
416.230	2084
416.306	5551
416.383	10254
416.459	5827
416.535	5585
416.612	5864
416.688	6433
416.764	4500
416.841	5202
416.917	7146
416.993	8250
417.069	11597
417.146	13748
417.222	11189
417.298	8002
417.374	6266
417.451	8169
417.527	9503
417.603	10871
417.679	8739
417.755	7874
417.831	3941
417.908	4926
417.984	4480
418.060	5132
418.136	17000
418.212	20156
418.288	8131
418.364	5908
418.440	7152
418.516	18662
418.592	36764
418.668	41552
418.744	40928
418.820	26442
418.896	8400
418.972	4195
419.048	6797
419.124	18634
419.200	12192
419.276	5621
419.352	2567
419.428	3519
419.504	6159
419.579	9771
419.655	8957
419.731	10667
419.807	29213
419.883	48116
419.959	26902
420.034	11126
420.110	24917
420.186	72555
420.262	47341
420.337	14670
420.413	8567
420.489	5228
420.565	5353
420.640	4923
420.716	4162
420.792	3080
420.867	4786
420.943	5160
421.019	11122
421.094	8457
421.170	4443
421.245	2330
421.321	3369
421.397	4280
421.472	3967
421.548	8541
421.623	10004
421.699	7195
421.774	6660
421.850	6611
421.925	12118
422.001	8827
422.076	4643
422.152	7201
422.227	13280
422.302	11250
422.378	12053
422.453	19945
422.529	39936
422.604	132990
422.679	237365
422.755	128063
422.830	35106
422.905	12006
422.981	6179
423.056	5267
423.131	4456
423.207	5896
423.282	9215
423.357	20670
423.432	13414
423.508	19767
423.583	39450
423.658	23823
423.733	12865
423.808	18973
423.883	14638
423.959	10295
424.034	6187
424.109	4209
424.184	1891
424.259	3555
424.334	3873
424.409	2651
424.484	3781
424.559	7149
424.634	6267
424.709	10979
424.784	11517
424.859	10417
424.934	20167
425.009	57198
425.084	79807
425.159	27790
425.234	5685
425.309	3377
425.384	3623
425.459	4875
425.534	8560
425.609	14380
425.683	6705
425.758	5121
425.833	7989
425.908	11294
425.983	40299
426.058	88178
426.132	37067
426.207	18316
426.282	35451
426.357	26660
426.431	7237
426.506	9502
426.581	11925
426.655	8907
426.730	3409
426.805	5665
426.879	6446
426.954	10702
427.029	25446
427.103	95806
427.178	181958
427.253	71257
427.327	14615
427.402	31149
427.476	41538
427.551	15563
427.625	16951
427.700	13333
427.774	11128
427.849	14867
427.923	6968
427.998	8957
428.072	12710
428.147	26481
428.221	51272
428.296	66510
428.370	24260
428.444	20496
428.519	47052
428.593	81387
428.667	63550
428.742	81384
428.816	57851
428.890	100895
428.965	89198
429.039	76763
429.113	84410
429.188	22752
429.262	8033
429.336	21035
429.410	50170
429.485	41914
429.559	69854
429.633	42085
429.707	14014
429.781	45851
429.855	151812
429.930	172368
430.004	195882
430.078	274312
430.152	148509
430.226	73231
430.300	54871
430.374	14816
430.448	22133
430.522	107129
430.596	216337
430.670	91740
430.744	130684
430.818	174962
430.892	37319
430.966	9833
431.040	6047
431.114	5875
431.188	6562
431.262	11009
431.336	12951
431.410	47849
431.484	95156
431.557	39126
431.631	4882
431.705	5042
431.779	16566
431.853	52767
431.927	30670
432.000	7381
432.074	10399
432.148	20786
432.222	13272
432.295	7019
432.369	6202
432.443	23575
432.516	105362
432.590	185433
432.664	62978
432.737	9608
432.811	2920
432.885	2216
432.958	2129
433.032	3523
433.106	1992
433.179	2377
433.253	2338
433.326	6404
433.400	8279
433.473	5901
433.547	2907
433.620	5755
433.694	12667
433.767	19020
433.841	9904
433.914	4334
433.988	2631
434.061	3845
434.134	3370
434.208	2795
434.281	1894
434.355	4272
434.428	4300
434.501	4014
434.575	6476
434.648	7929
434.721	2025
434.795	1862
434.868	1658
434.941	2716
435.014	1769
435.088	2835
435.161	4648
435.234	9570
435.307	11453
435.381	7161
435.454	5040
435.527	4775
435.600	3232
435.673	3819
435.746	2277
435.819	3832
435.892	2514
435.966	4032
436.039	6610
436.112	5400
436.185	2007
436.258	2877
436.331	1218
436.404	1766
436.477	3078
436.550	2179
436.623	1906
436.696	2963
436.769	4749
436.842	6313
436.915	10245
436.987	12111
437.060	4085
437.133	3064
437.206	3880
437.279	5697
437.352	2211
437.425	3690
437.498	6224
437.570	12567
437.643	10501
437.716	2566
437.789	2274
437.861	8371
437.934	14955
438.007	8425
438.080	2826
438.152	5389
438.225	17891
438.298	110559
438.370	228987
438.443	74941
438.516	16181
438.588	6418
438.661	4059
438.734	6159
438.806	8332
438.879	7904
438.951	6024
439.024	9990
439.096	5336
439.169	6062
439.241	2464
439.314	8674
439.386	21882
439.459	33638
439.531	36180
439.604	10015
439.676	3454
439.749	3536
439.821	3019
439.893	5607
439.966	9017
440.038	8648
440.110	7061
440.183	4533
440.255	3047
440.327	11928
440.400	67397
440.472	177817
440.544	87136
440.617	12026
440.689	8285
440.761	12476
440.833	17141
440.905	12464
440.978	3805
441.050	4160
441.122	4691
441.194	4051
441.266	3049
441.338	3532
441.411	11703
441.483	61473
441.555	70388
441.627	21369
441.699	26575
441.771	25528
441.843	8188
441.915	4405
441.987	2551
442.059	4436
442.131	10679
442.203	18435
442.275	20273
442.347	12144
442.419	8640
442.491	21787
442.563	52724
442.635	57431
442.706	81876
442.778	44136
442.850	8474
442.922	8091
442.994	16153
443.066	19054
443.137	10575
443.209	6556
443.281	10131
443.353	24016
443.425	42270
443.496	75238
443.568	75400
443.640	41292
443.711	14369
443.783	7952
443.855	6402
443.926	5309
443.998	12688
444.070	15878
444.141	11559
444.213	13195
444.285	18636
444.356	28614
444.428	23438
444.499	8379
444.571	3530
444.642	4270
444.714	6247
444.785	13191
444.857	35260
444.928	70529
445.000	35007
445.071	55339
445.143	43073
445.214	19570
445.285	48808
445.357	100574
445.428	89289
445.500	170862
445.571	134095
445.642	64358
445.714	84431
445.785	82391
445.856	19949
445.928	14913
445.999	13192
446.070	12197
446.141	12785
446.213	18844
446.284	14969
446.355	20547
446.426	11105
446.497	13470
446.569	28783
446.640	26831
446.711	13415
446.782	13633
446.853	27288
446.924	17111
446.995	8850
447.066	18096
447.138	31302
447.209	12227
447.280	4334
447.351	3666
447.422	5604
447.493	13968
447.564	11230
447.635	12628
447.706	5373
447.777	3414
447.847	3753
447.918	7712
447.989	16328
448.060	26149
448.131	52733
448.202	30870
448.273	20380
448.344	10074
448.414	6256
448.485	6150
448.556	3964
448.627	3846
448.698	4712
448.768	4995
448.839	11171
448.910	28984
448.981	16044
449.051	7212
449.122	4013
449.193	4818
449.263	4734
449.334	4526
449.405	7432
449.475	18527
449.546	18169
449.616	31644
449.687	17260
449.758	6600
449.828	4180
449.899	4703
449.969	3709
450.040	7492
450.110	18299
450.181	15794
450.251	4843
450.322	4149
450.392	6912
450.463	6142
450.533	4996
450.604	6537
450.674	5324
450.744	5888
450.815	5303
450.885	5599
450.955	4295
451.026	4849
451.096	7176
451.166	11878
451.237	44398
451.307	70595
451.377	19625
451.447	5121
451.518	3634
451.588	6400
451.658	5727
451.728	23909
451.799	87304
451.869	63766
451.939	12819
452.009	5167
452.079	3502
452.149	7823
452.219	31851
452.289	93548
452.360	43023
452.430	9157
452.500	7230
452.570	9704
452.640	16256
452.710	60657
452.780	66956
452.850	35937
452.920	28232
452.990	12307
453.060	8042
453.129	12951
453.199	20867
453.269	97755
453.339	144029
453.409	190351
453.479	250633
453.549	350515
453.619	341921
453.688	99508
453.758	16217
453.828	8650
453.898	7371
453.968	8584
454.037	6231
454.087	6559
454.107	6554
454.168	5447
454.177	5150
454.247	5268
454.249	5539
454.316	7932
454.330	10994
454.386	19666
454.411	36631
454.456	59547
454.492	56944
454.525	54776
454.574	26069
454.595	14341
454.655	10483
454.665	10242
454.734	21801
454.736	23317
454.804	49303
454.817	63490
454.873	103746
454.898	100823
454.943	90929
454.979	62501
455.013	40879
455.060	27486
455.082	24635
455.141	41549
455.152	42009
455.221	94524
455.222	95960
455.291	92732
455.303	80376
455.360	39119
455.384	37818
455.430	41496
455.465	59733
455.499	68345
455.546	93815
455.569	97152
455.627	46899
455.638	40265
455.707	13896
455.708	14068
455.777	15197
455.789	15375
455.846	14572
455.869	14441
455.916	14732
455.950	16836
455.985	17083
456.031	16699
456.054	16649
456.112	13921
456.124	14026
456.193	19455
456.193	19219
456.262	29317
456.274	31690
456.332	37602
456.355	39252
456.401	33809
456.436	24167
456.470	17509
456.516	13006
456.540	11737
456.597	11167
456.609	10948
456.678	11238
456.678	11142
456.747	11048
456.759	11116
456.817	10794
456.840	11199
456.886	12658
456.920	13517
456.955	15939
457.001	20543
457.024	24835
457.082	36625
457.093	38208
457.162	56976
457.163	57396
457.232	52959
457.243	48899
457.301	25551
457.324	18487
457.370	14255
457.405	14805
457.439	15897
457.485	16672
457.508	16664
457.566	18040
457.577	18282
457.646	19256
457.647	19387
457.715	25918
457.727	27130
457.784	33508
457.808	37951
457.853	40380
457.889	42797
457.922	41431
457.969	35841
457.991	39022
458.050	47739
458.060	49056
458.129	66667
458.130	67364
458.198	50370
458.211	45417
458.267	34194
458.292	28136
458.336	26139
458.372	28291
458.405	36268
458.453	48794
458.474	57160
458.533	84708
458.543	85046
458.611	95872
458.614	96456
458.680	58747
458.694	47560
458.749	32712
458.775	28121
458.818	25152
458.855	24989
458.887	25462
458.936	27695
458.955	28199
459.016	30105
459.024	30077
459.093	30366
459.097	30406
459.162	31442
459.177	32134
459.230	34715
459.257	35949
459.299	36244
459.338	36960
459.368	37249
459.418	38026
459.437	36279
459.499	30310
459.505	30181
459.574	27401
459.579	27399
459.643	27697
459.659	27756
459.711	29575
459.740	31082
459.780	34934
459.820	39203
459.849	42174
459.900	48295
459.917	45903
459.981	35291
459.986	34801
460.054	28026
460.061	27507
460.123	30631
460.141	31975
460.191	35930
460.222	38050
460.260	38604
460.302	40737
460.328	38502
460.382	31135
460.397	31122
460.462	32118
460.465	32142
460.534	34070
460.543	34391
460.602	41585
460.623	44419
460.671	52268
460.703	58097
460.739	52417
460.783	45230
460.808	44168
460.864	39250
460.876	39304
460.944	40746
460.945	40635
461.013	35418
461.024	34422
461.081	35660
461.104	36962
461.150	35871
461.184	33935
461.218	34085
461.264	34752
461.286	35931
461.345	39074
461.355	39424
461.423	42899
461.425	42980
461.491	55548
461.505	58381
461.559	122270
461.585	152408
461.628	232994
461.665	310144
461.696	311972
461.745	319228
461.764	266893
461.825	63978
461.832	61554
461.901	50904
461.905	50860
461.969	48772
461.985	48110
462.037	48792
462.065	49059
462.105	71047
462.145	93418
462.173	128447
462.225	196107
462.241	214427
462.305	294814
462.310	283920
462.378	100912
462.385	79499
462.446	52518
462.465	46673
462.514	46429
462.545	46925
462.582	49250
462.625	52160
462.650	54517
462.705	58939
462.718	64177
462.785	92746
462.786	93552
462.854	139514
462.865	147278
462.922	162261
462.945	167191
462.990	107887
463.025	59175
463.058	54881
463.104	50832
463.126	50855
463.184	52489
463.194	53038
463.262	56045
463.264	56138
463.330	63066
463.344	64374
463.398	74820
463.424	80190
463.466	81792
463.504	83052
463.533	80592
463.583	75704
463.601	80144
463.663	94825
463.669	98888
463.737	147154
463.743	151395
463.805	250241
463.823	278824
463.873	430940
463.903	525989
463.940	510673
463.982	492236
464.008	374549
464.062	110691
464.076	101101
464.142	59363
464.144	59270
464.211	58866
464.221	58913
464.279	64240
464.301	66145
464.347	81214
464.381	92599
464.414	111370
464.461	137014
464.482	134911
464.540	129786
464.550	122704
464.617	67749
464.620	65802
464.685	66474
464.699	66691
464.753	67850
464.779	68359
464.820	77133
464.859	84768
464.888	97842
464.938	120822
464.956	121107
465.018	121890
465.023	118355
465.091	67840
465.098	62551
465.158	61394
465.177	61215
465.226	64135
465.257	65823
465.293	69864
465.336	74292
465.361	83854
465.416	105005
465.428	121766
465.495	211720
465.496	213155
465.563	381623
465.575	410659
465.631	438806
465.654	449408
465.698	251127
465.734	83259
465.765	72745
465.813	58840
465.833	58790
465.893	60123
465.900	60365
465.968	61584
465.972	61562
466.035	59607
466.052	58887
466.102	61063
466.131	62228
466.170	63534
466.210	64591
466.237	64749
466.290	64774
466.304	65528
466.369	68109
466.372	68347
466.439	71435
466.449	71735
466.506	87506
466.528	93351
466.573	164931
466.607	218272
466.641	327931
466.687	479671
466.708	508262
466.766	585491
466.775	535040
466.842	144527
466.845	125738
466.909	95107
466.925	87927
466.977	82941
467.004	80176
467.044	82179
467.083	83889
467.111	84662
467.163	85538
467.178	85742
467.242	85661
467.245	86313
467.312	95912
467.321	96976
467.379	117968
467.400	125221
467.446	154534
467.480	175175
467.559	117843
467.638	95536
467.717	100986
467.796	102043
467.875	111202
467.955	121159
468.034	247271
468.113	548784
468.192	722818
468.271	133170
468.350	97715
468.429	106981
468.508	97044
468.588	96281
468.667	111342
468.746	109310
468.825	109593
468.904	98322
468.983	157184
469.062	285115
469.141	311954
469.220	96418
469.299	99406
469.378	99170
469.456	77037
469.535	81870
469.614	96634
469.693	130687
469.772	198524
469.851	326388
469.930	142607
470.009	78569
470.088	73701
470.166	79443
470.245	92458
470.324	98004
470.403	79629
470.482	76328
470.560	77770
470.639	88538
470.718	98684
470.797	92910
470.875	147180
470.954	241704
471.033	235097
471.111	74214
471.190	68165
471.269	71920
471.347	77448
471.426	93116
471.505	112556
471.583	85662
471.662	75432
471.740	75705
471.819	76173
471.898	77406
471.976	73489
472.055	80981
472.133	114730
472.212	191178
472.290	205186
472.369	95241
472.447	78600
472.526	71652
472.604	74626
472.683	85278
472.761	91913
472.839	82422
472.918	79091
472.996	102207
473.075	140274
473.153	112909
473.231	96406
473.310	129000
473.388	107514
473.466	97615
473.545	85451
473.623	102018
473.701	100096
473.780	79828
473.858	81872
473.936	87439
474.014	85207
474.093	118115
474.171	233036
474.249	362256
474.327	157887
474.405	71130
474.484	69337
474.562	72918
474.640	79843
474.718	98772
474.796	83790
474.874	70550
474.952	66205
475.030	68486
475.108	67613
475.187	73743
475.265	97759
475.343	155468
475.421	156891
475.499	78209
475.577	94262
475.655	177283
475.733	426639
475.811	757409
475.889	646193
475.966	310629
476.044	110982
476.122	154304
476.200	186593
476.278	139287
476.356	111539
476.434	125173
476.512	156096
476.590	201997
476.667	153121
476.745	103334
476.823	106643
476.901	121940
476.979	133307
477.056	113751
477.134	113276
477.212	104162
477.290	100106
477.367	100384
477.445	101028
477.523	102937
477.601	100894
477.678	114718
477.756	166745
477.834	185167
477.911	105662
477.989	107913
478.066	119513
478.144	152016
478.222	155609
478.299	234208
478.377	170458
478.454	93416
478.532	93086
478.609	97431
478.687	98279
478.764	89568
478.842	96700
478.919	105261
478.997	101701
479.074	108248
479.152	163236
479.229	221067
479.307	109712
479.384	83642
479.461	91438
479.539	125829
479.616	150558
479.694	115852
479.771	143916
479.848	159694
479.926	252412
480.003	213017
480.080	97678
480.157	96965
480.235	95990
480.312	107103
480.389	166427
480.467	306790
480.544	348681
480.621	144282
480.698	139391
480.775	169630
480.853	178497
480.930	126496
481.007	137408
481.084	173362
481.161	165769
481.238	155831
481.315	115054
481.392	113666
481.470	117661
481.547	123682
481.624	120388
481.701	121807
481.778	134784
481.855	165505
481.932	275327
482.009	471421
482.086	237840
482.163	130334
482.240	186818
482.317	296333
482.393	193331
482.470	130227
482.547	139615
482.624	117561
482.701	124566
482.778	115985
482.855	97231
482.932	97335
483.009	99828
483.085	108427
483.162	119894
483.239	113470
483.316	101080
483.393	102894
483.469	111794
483.546	154309
483.623	159866
483.699	112677
483.776	113995
483.853	132195
483.930	227719
484.006	553415
484.083	800651
484.160	177327
484.236	126866
484.313	129020
484.389	134183
484.466	113222
484.543	114932
484.619	130591
484.696	149113
484.772	207564
484.849	229399
484.925	125322
485.002	124251
485.078	139302
485.155	135864
485.231	123303
485.308	125002
485.384	148835
485.461	257068
485.537	540437
485.614	557686
485.690	136232
485.766	121622
485.843	134822
485.919	172975
485.995	163615
486.072	113938
486.148	111716
486.224	115386
486.301	146514
486.377	187833
486.453	153226
486.530	121176
486.606	132713
486.682	189451
486.758	398217
486.835	468000
486.911	344940
486.987	653048
487.063	381119
487.139	341899
487.215	221187
487.292	113739
487.368	117472
487.444	137015
487.520	151618
487.596	124219
487.672	174885
487.748	355124
487.824	419329
487.900	162225
487.976	138482
488.052	171261
488.128	178652
488.204	153852
488.280	146564
488.356	248171
488.432	632089
488.508	872387
488.584	171101
488.660	108915
488.736	107445
488.812	111653
488.888	135011
488.964	186144
489.039	392319
489.115	520144
489.191	263473
489.267	147333
489.343	142582
489.418	100018
489.494	95282
489.570	98174
489.646	108778
489.722	112010
489.797	138007
489.873	329804
489.949	789671
490.024	481655
490.100	125229
490.176	124131
490.251	137640
490.327	150060
490.403	101746
490.478	90482
490.554	79974
490.629	87301
490.705	91812
490.781	103731
490.856	122267
490.932	117618
491.007	111728
491.083	112985
491.158	130265
491.234	245994
491.309	630034
491.385	505612
491.460	148551
491.536	143704
491.611	99127
491.686	107242
491.762	144133
491.837	291608
491.913	498113
491.988	708025
492.063	654413
492.139	420842
492.214	219060
492.289	90111
492.365	103272
492.440	141265
492.515	164706
492.590	137660
492.666	110229
492.741	210662
492.816	372281
492.891	127716
492.967	75249
493.042	76605
493.117	71225
493.192	74006
493.267	82979
493.342	99753
493.418	94639
493.493	74511
493.568	77201
493.643	90752
493.718	168705
493.793	288283
493.868	187541
493.943	99850
494.018	90380
494.093	109567
494.168	99587
494.243	74644
494.318	78408
494.393	81996
494.468	78779
494.543	75807
494.618	88045
494.693	91034
494.768	106025
494.842	94783
494.917	83108
494.992	83520
495.067	70785
495.142	70868
495.217	75658
495.292	81681
495.366	107934
495.441	153712
495.516	179911
495.591	231197
495.665	602525
495.740	1075168
495.815	375997
495.890	175528
495.964	154437
496.039	147215
496.114	141371
496.188	140427
496.263	141857
496.338	156723
496.412	198022
496.487	207806
496.561	181630
496.636	169131
496.710	156532
496.785	201656
496.860	237172
496.934	149310
497.009	144082
497.083	138554
497.158	152010
497.232	206855
497.307	247565
497.381	172847
497.455	269852
497.530	361679
497.604	177061
497.679	213954
497.753	389355
497.827	398670
497.902	222548
497.976	291038
498.050	802721
498.125	2341913
498.199	1799774
498.273	306141
498.348	211106
498.422	177174
498.496	185637
498.570	168584
498.645	156584
498.719	175688
498.793	251196
498.867	486173
498.941	580139
499.016	1243533
499.090	2441568
499.164	682584
499.238	162160
499.312	151776
499.386	176414
499.460	180403
499.534	173892
499.609	230137
499.683	398371
499.757	322055
499.831	688569
499.905	2005171
499.979	1481505
500.053	554587
500.127	455568
500.201	223498
500.275	175046
500.349	166835
500.422	189892
500.496	258567
500.570	505713
500.644	1278237
500.718	1912015
500.792	385083
500.866	224123
500.940	324833
501.013	212012
501.087	202707
501.161	297600
501.235	509489
501.309	1256864
501.382	2309870
501.456	1452658
501.530	595649
501.603	1013584
501.677	299404
501.751	172502
501.825	214597
501.898	479793
501.972	1192417
502.046	542362
502.119	236931
502.193	581764
502.266	1231441
502.340	508571
502.413	724760
502.487	1256950
502.561	760689
502.634	193191
502.708	147316
502.781	135299
502.855	121255
502.928	124089
503.002	124729
503.075	133039
503.149	143615
503.222	135653
503.295	153578
503.369	187427
503.442	316795
503.516	1069409
503.589	2220955
503.662	1191175
503.736	500164
503.809	1161603
503.882	752987
503.956	1103958
504.029	755906
504.102	329821
504.175	287450
504.249	159499
504.322	222606
504.395	189328
504.468	136890
504.542	160277
504.615	104632
504.688	94404
504.761	112278
504.834	130878
504.907	127237
504.980	171166
505.053	131062
505.127	141655
505.200	189572
505.273	281176
505.346	145381
505.419	124430
505.492	104334
505.565	90482
505.638	94275
505.711	98906
505.784	99488
505.857	93677
505.930	99943
506.003	99476
506.076	109421
506.149	189677
506.221	221824
506.294	173370
506.367	521163
506.440	1303260
506.513	505633
506.586	242010
506.659	121754
506.731	101690
506.804	141208
506.877	171290
506.950	134702
507.022	105798
507.095	203680
507.168	192065
507.241	89013
507.313	78776
507.386	95242
507.459	106288
507.531	81157
507.604	83380
507.677	81274
507.749	69512
507.822	88212
507.894	117043
507.967	102644
508.040	70162
508.112	71787
508.185	79541
508.257	77130
508.330	102613
508.402	88702
508.475	105256
508.547	108506
508.620	138896
508.692	253288
508.765	99993
508.837	71181
508.909	66502
508.982	76341
509.054	76623
509.127	66803
509.199	69484
509.271	69494
509.344	63003
509.416	65104
509.488	71813
509.560	68140
509.633	68752
509.705	79382
509.777	84859
509.849	99470
509.922	71774
509.994	63755
510.066	67670
510.138	62285
510.210	71002
510.283	81412
510.355	71975
510.427	62935
510.499	63926
510.571	70590
510.643	78636
510.715	104035
510.787	85173
510.859	83489
510.931	121320
511.003	109034
511.076	92997
511.148	74315
511.219	100506
511.291	241075
511.363	233177
511.435	76264
511.507	68290
511.579	66736
511.651	66076
511.723	68509
511.795	65041
511.867	79638
511.939	151454
512.010	413809
512.082	204642
512.154	81609
512.226	76589
512.298	78987
512.369	95539
512.441	78407
512.513	84215
512.585	68515
512.656	84012
512.728	98725
512.800	61666
512.871	70964
512.943	73654
513.015	54612
513.086	60563
513.158	65881
513.230	82688
513.301	111205
513.373	100769
513.444	64034
513.516	57169
513.588	58458
513.659	64942
513.731	79573
513.802	81326
513.874	153595
513.945	212522
514.016	77112
514.088	64592
514.159	72244
514.231	88301
514.302	82722
514.374	75077
514.445	139052
514.516	399809
514.588	197868
514.659	150225
514.730	335073
514.802	130080
514.873	62544
514.944	68338
515.016	74170
515.087	100928
515.158	226541
515.229	261044
515.301	64620
515.372	64490
515.443	58413
515.514	52513
515.585	51778
515.656	53453
515.728	53590
515.799	57521
515.870	65346
515.941	71659
516.012	63513
516.083	66129
516.154	80337
516.225	97647
516.296	81612
516.367	71254
516.438	80105
516.509	100069
516.580	154690
516.651	437846
516.722	1109677
516.793	389178
516.864	190480
516.935	199031
517.006	200683
517.077	260033
517.148	484582
517.219	1132534
517.289	1373276
517.360	1260459
517.431	362831
517.502	143153
517.573	137144
517.643	135293
517.714	148166
517.785	135006
517.856	137977
517.926	143741
517.997	147358
518.068	157489
518.138	180724
518.209	269133
518.280	798692
518.350	1802368
518.421	507234
518.492	163838
518.562	176073
518.633	201827
518.703	163635
518.774	226583
518.845	396602
518.915	291029
518.986	174233
519.056	186736
519.127	292089
519.197	521018
519.268	1311969
519.338	643702
519.408	241660
519.479	191591
519.549	141040
519.620	118078
519.690	101303
519.760	114229
519.831	109889
519.901	112384
519.971	106273
520.042	146040
520.112	178527
520.182	132871
520.253	131795
520.323	112064
520.393	120947
520.463	119070
520.534	148358
520.604	202902
520.674	136602
520.744	165899
520.814	195447
520.885	205013
520.955	532774
521.025	1422636
521.095	403880
521.165	152118
521.235	148490
521.305	117485
521.375	96095
521.445	103441
521.515	116608
521.585	131477
521.655	120243
521.725	115706
521.795	118061
521.865	120267
521.935	231584
522.005	169429
522.075	104508
522.145	118253
522.215	183464
522.285	268143
522.355	432445
522.424	813955
522.494	525291
522.564	175199
522.634	283521
522.704	502822
522.774	169740
522.843	109911
522.913	102705
522.983	115591
523.053	100809
523.122	104814
523.192	133496
523.262	336022
523.331	238082
523.401	100718
523.471	81474
523.540	85260
523.610	73327
523.680	84353
523.749	96463
523.819	161563
523.888	139732
523.958	87803
524.027	105074
524.097	115168
524.166	94446
524.236	99399
524.305	102263
524.375	93246
524.444	93587
524.514	105755
524.583	135574
524.653	177501
524.722	181533
524.791	106239
524.861	99998
524.930	95670
524.999	102040
525.069	134118
525.138	150569
525.207	190909
525.277	105575
525.346	111776
525.415	97327
525.484	109106
525.554	168729
525.623	124500
525.692	94613
525.761	105309
525.830	96249
525.900	109038
525.969	171668
526.038	172394
526.107	252662
526.176	475778
526.245	306960
526.314	238275
526.383	359113
526.452	340385
526.522	651923
526.591	607004
526.660	291473
526.729	148347
526.797	176519
526.867	380557
526.935	1174556
527.004	1271451
527.073	430241
527.142	132697
527.211	101359
527.280	106874
527.349	104717
527.418	83563
527.487	82843
527.555	81417
527.624	75404
527.693	77224
527.762	77698
527.831	76615
527.899	83075
527.968	83377
528.037	85768
528.106	98545
528.174	159426
528.243	172970
528.312	279857
528.380	230426
528.449	104343
528.518	77324
528.586	68962
528.655	73609
528.723	73472
528.792	78081
528.861	99582
528.929	86184
528.998	73925
529.066	70248
529.135	71945
529.203	70857
529.272	75287
529.340	73483
529.409	79415
529.477	86563
529.545	145559
529.614	129064
529.682	184255
529.751	177740
529.819	165362
529.887	99912
529.956	80763
530.024	79757
530.092	67454
530.161	82390
530.229	106212
530.297	75927
530.365	67167
530.434	61842
530.502	63940
530.570	64598
530.638	65433
530.707	71740
530.775	81217
530.843	73924
530.911	71910
530.979	64124
531.047	71786
531.115	75305
531.183	73326
531.252	75199
531.320	83174
531.388	73951
531.456	72391
531.524	66105
531.592	67878
531.660	76167
531.728	71699
531.796	69603
531.864	68505
531.932	77940
532.000	73425
532.067	74321
532.135	71735
532.203	81458
532.271	88931
532.339	130711
532.407	246708
532.475	125087
532.542	87192
532.610	96097
532.678	140814
532.746	438469
532.814	705823
532.881	173841
532.949	80158
533.017	77589
533.084	77633
533.152	74610
533.220	75224
533.287	76115
533.355	68076
533.423	71633
533.490	68866
533.558	75670
533.625	78479
533.693	84125
533.761	77646
533.828	83170
533.896	76358
533.963	115282
534.031	134027
534.098	175599
534.166	94363
534.233	69627
534.300	72474
534.368	77565
534.435	76711
534.503	69622
534.570	67532
534.637	69644
534.705	72121
534.772	79180
534.840	103870
534.907	266771
534.974	207121
535.041	106644
535.109	140982
535.176	74719
535.243	66354
535.310	73527
535.378	69637
535.445	62148
535.512	63081
535.579	71601
535.646	71693
535.714	70140
535.781	69839
535.848	74160
535.915	82662
535.982	76566
536.049	76315
536.116	79481
536.183	76007
536.250	77164
536.317	80432
536.384	89582
536.451	109569
536.518	107696
536.585	94047
536.652	116768
536.719	131988
536.786	109333
536.853	97088
536.920	161124
536.987	204902
537.053	178450
537.120	486855
537.187	274495
537.254	82814
537.321	79069
537.388	76712
537.454	75647
537.521	69283
537.588	70309
537.654	77493
537.721	77471
537.788	75979
537.855	66865
537.921	72915
537.988	74252
538.055	75525
538.121	79505
538.188	80406
538.254	111390
538.321	170186
538.388	103732
538.454	80063
538.521	72454
538.587	69083
538.654	71683
538.720	69438
538.787	70912
538.853	88847
538.920	119331
538.986	127640
539.053	96939
539.119	91172
539.185	83602
539.252	91860
539.318	113666
539.385	89236
539.451	85831
539.517	83996
539.583	108082
539.650	244204
539.716	372957
539.782	105981
539.849	76194
539.915	80767
539.981	81192
540.047	86945
540.114	85382
540.180	82608
540.246	80711
540.312	107704
540.378	187519
540.444	157866
540.510	204430
540.576	369389
540.643	119848
540.709	78591
540.775	80622
540.841	89698
540.907	146311
540.973	170192
541.039	110118
541.105	106411
541.171	79205
541.237	77995
541.303	80200
541.369	85078
541.435	104271
541.500	148211
541.566	96799
541.632	73212
541.698	70832
541.764	73296
541.830	76045
541.896	80169
541.961	75922
542.027	80610
542.093	72334
542.159	75879
542.224	88597
542.290	108100
542.356	159238
542.421	151578
542.487	84922
542.553	89048
542.618	105949
542.684	79715
542.750	83267
542.815	104911
542.881	192578
542.947	398319
543.012	189171
543.078	76105
543.143	76247
543.209	83609
543.274	82953
543.340	95079
543.405	177478
543.471	188911
543.536	80015
543.602	84411
543.667	84123
543.732	71806
543.798	79371
543.863	76269
543.928	69660
543.994	68484
544.059	70001
544.124	66895
544.190	66905
544.255	68240
544.320	67289
544.386	73824
544.451	93570
544.516	102995
544.581	118986
544.646	288496
544.712	281434
544.777	105930
544.842	131987
544.907	151618
544.972	115094
545.037	112761
545.102	122914
545.168	126271
545.233	124522
545.298	130684
545.363	156454
545.428	145999
545.493	222858
545.558	316855
545.623	156521
545.688	125553
545.753	117996
545.818	117029
545.883	119468
545.947	119926
546.012	149830
546.077	144864
546.142	119963
546.207	116894
546.272	135251
546.337	131994
546.401	117566
546.466	116720
546.531	118870
546.596	131423
546.661	120369
546.725	112442
546.790	113081
546.855	114575
546.919	115130
546.984	122993
547.049	143724
547.113	175483
547.178	136653
547.243	159818
547.307	165341
547.372	203360
547.436	221907
547.501	137166
547.565	142339
547.630	157362
547.695	175373
547.759	261151
547.823	174672
547.888	132353
547.952	131418
548.017	148043
548.081	189243
548.146	290448
548.210	198214
548.274	135518
548.339	124408
548.403	126058
548.468	120429
548.532	127305
548.596	128556
548.660	134876
548.725	147852
548.789	200665
548.853	187705
548.917	162081
548.982	279433
549.046	230931
549.110	135443
549.174	129414
549.238	127374
549.303	120184
549.367	128063
549.431	126085
549.495	124230
549.559	127780
549.623	132761
549.687	158747
549.751	182092
549.815	164084
549.879	151679
549.943	147489
550.007	164604
550.071	167405
550.135	184623
550.199	157495
550.263	153875
550.327	199829
550.391	270506
550.455	161802
550.519	155786
550.582	162965
550.646	193189
550.710	182863
550.774	157273
550.838	164797
550.901	171018
550.965	175827
551.029	192062
551.093	223341
551.156	321596
551.220	653597
551.284	533328
551.347	326643
551.411	834698
551.475	644950
551.538	178436
551.602	155333
551.666	150468
551.729	141942
551.793	145873
551.856	142577
551.920	136621
551.983	137985
552.047	138523
552.110	130601
552.174	136230
552.237	139356
552.301	130231
552.364	131400
552.428	135505
552.491	134421
552.554	130297
552.618	139221
552.681	141907
552.745	147587
552.808	168809
552.871	174250
552.934	141771
552.998	148473
553.061	161490
553.124	134378
553.187	130722
553.251	140087
553.314	141959
553.377	130896
553.440	141444
553.503	146488
553.567	141073
553.630	132635
553.693	135796
553.756	140330
553.819	127677
553.882	135012
553.945	128743
554.008	123286
554.071	126260
554.134	125888
554.197	121062
554.260	114799
554.323	128572
554.386	130704
554.449	128366
554.512	123389
554.575	125083
554.638	136099
554.701	123931
554.764	119578
554.827	124943
554.889	114903
554.952	111037
555.015	114811
555.078	115978
555.141	113035
555.203	110742
555.266	113700
555.329	118003
555.391	107737
555.454	115474
555.517	117339
555.580	109368
555.642	105567
555.705	106856
555.768	108088
555.830	107845
555.893	103905
555.955	106559
556.018	110721
556.080	109328
556.143	105519
556.206	112002
556.268	123972
556.330	119139
556.393	118154
556.455	141177
556.518	246738
556.580	190913
556.643	104918
556.705	101954
556.767	106489
556.830	110716
556.892	115070
556.955	141263
557.017	113625
557.079	105765
557.142	102902
557.204	119470
557.266	176945
557.328	141311
557.391	103028
557.453	100439
557.515	104260
557.577	120543
557.639	111988
557.701	99104
557.764	98874
557.826	107489
557.888	117539
557.950	105225
558.012	106361
558.074	127504
558.136	203934
558.198	275126
558.260	135766
558.322	117548
558.384	112141
558.446	115293
558.508	129879
558.570	154961
558.632	213926
558.694	257779
558.756	248326
558.818	600378
558.880	844525
558.942	263773
559.003	288009
559.065	132332
559.127	111165
559.189	117489
559.251	128243
559.312	163837
559.374	338308
559.436	671647
559.498	223129
559.559	118723
559.621	124322
559.683	158718
559.744	278017
559.806	552387
559.868	447665
559.929	171972
559.991	169027
560.052	217218
560.114	336089
560.176	197894
560.237	258524
560.299	263211
560.360	135841
560.422	136279
560.483	132160
560.545	132124
560.606	131485
560.667	129440
560.729	127249
560.790	122752
560.852	125010
560.913	124299
560.974	122135
561.036	122197
561.097	122354
561.158	119637
561.220	122143
561.281	121713
561.342	125896
561.403	136209
561.465	158809
561.526	259581
561.587	247884
561.648	131836
561.709	122567
561.771	123213
561.832	120093
561.893	120297
561.954	116292
562.015	119610
562.076	117685
562.137	118747
562.198	118650
562.259	117368
562.320	119701
562.381	123445
562.442	142477
562.503	122840
562.564	114308
562.625	112409
562.686	115959
562.747	121962
562.808	121296
562.869	141587
562.930	178979
562.991	160933
563.051	145516
563.112	135885
563.173	129299
563.234	126416
563.294	119957
563.355	121195
563.416	121856
563.477	122691
563.537	134698
563.598	139483
563.659	132630
563.720	131575
563.780	131749
563.841	131931
563.901	127137
563.962	127360
564.023	128143
564.083	129270
564.144	131791
564.204	134516
564.265	146877
564.325	192341
564.386	377269
564.446	251374
564.507	123240
564.567	117214
564.628	118794
564.688	122998
564.749	130726
564.809	169118
564.869	183209
564.930	119041
564.990	109987
565.050	111641
565.111	109510
565.171	108945
565.231	109250
565.292	105765
565.352	108440
565.412	114627
565.472	119737
565.532	116863
565.593	109587
565.653	105848
565.713	113569
565.773	114879
565.833	123507
565.893	131209
565.953	112146
566.013	115606
566.074	136850
566.134	202056
566.194	336895
566.254	265657
566.314	165923
566.374	119844
566.434	118703
566.494	117090
566.554	109829
566.614	109671
566.673	110069
566.733	118595
566.793	121248
566.853	122097
566.913	118558
566.973	124251
567.033	123578
567.092	119334
567.152	122725
567.212	121756
567.272	130925
567.331	138141
567.391	127511
567.451	147876
567.511	227291
567.570	191053
567.630	113389
567.690	110515
567.749	108162
567.809	106581
567.868	112263
567.928	122766
567.988	137867
568.047	111344
568.107	105737
568.166	102454
568.226	104529
568.285	108971
568.345	102023
568.404	99164
568.464	99380
568.523	99864
568.582	101885
568.642	104426
568.701	106685
568.761	117073
568.820	125616
568.879	141844
568.939	187367
568.998	119162
569.057	98399
569.116	98762
569.176	93474
569.235	94254
569.294	96450
569.353	95621
569.413	107517
569.472	109745
569.531	101121
569.590	102712
569.649	101349
569.708	96913
569.767	100805
569.827	109251
569.886	100631
569.945	96946
570.004	98691
570.063	101318
570.122	107328
570.181	121263
570.240	150084
570.299	126178
570.358	106847
570.417	97659
570.475	95452
570.534	99093
570.593	98220
570.652	102143
570.711	102915
570.770	109311
570.829	119250
570.887	98619
570.946	101024
571.005	95172
571.064	97411
571.122	109760
571.181	133030
571.240	103943
571.299	101874
571.357	123445
571.416	125260
571.475	154088
571.533	138772
571.592	113104
571.650	120174
571.709	96605
571.768	95100
571.826	95200
571.885	95657
571.943	95987
572.002	106118
572.060	105915
572.119	87391
572.177	87934
572.236	84111
572.294	82926
572.352	83804
572.411	84624
572.469	83422
572.528	83896
572.586	86388
572.644	93163
572.703	97783
572.761	92172
572.819	91335
572.877	86904
572.936	84114
572.994	81977
573.052	81856
573.110	83580
573.169	81544
573.227	80797
573.285	81072
573.343	82200
573.401	85502
573.459	83814
573.517	83006
573.576	81293
573.634	83320
573.692	85881
573.750	83252
573.808	92152
573.866	106032
573.924	148289
573.982	125217
574.040	92546
574.098	87464
574.155	80189
574.213	77448
574.271	78806
574.329	79096
574.387	77152
574.445	80545
574.503	74465
574.560	70454
574.618	71116
574.676	69813
574.734	70548
574.792	72074
574.849	70333
574.907	67952
574.965	69897
575.022	69077
575.080	69762
575.138	72935
575.195	75441
575.253	77693
575.311	76012
575.368	70199
575.426	71926
575.483	71690
575.541	71072
575.598	74197
575.656	82256
575.713	76855
575.771	71577
575.828	74036
575.886	78257
575.943	84322
576.001	87716
576.058	89966
576.115	99922
576.173	123264
576.230	128695
576.287	113400
576.345	96138
576.402	91504
576.459	93688
576.517	102647
576.574	114727
576.631	118658
576.688	96471
576.746	89508
576.803	88009
576.860	88989
576.917	93006
576.974	87357
577.031	84834
577.089	86382
577.146	89656
577.203	89073
577.260	97456
577.317	112053
577.374	130164
577.431	109720
577.488	87827
577.545	79306
577.602	80112
577.659	79525
577.716	76030
577.773	76427
577.830	76409
577.886	76152
577.943	75990
578.000	79061
578.057	87769
578.114	79230
578.171	75056
578.227	76208
578.284	77969
578.341	82262
578.398	85137
578.454	95275
578.511	117998
578.568	131339
578.625	101119
578.681	81486
578.738	75612
578.794	81116
578.851	78450
578.908	82646
578.964	81988
579.021	80289
579.077	81848
579.134	79672
579.190	72031
579.247	72314
579.303	72311
579.360	67682
579.416	68711
579.473	68535
579.529	68703
579.586	70366
579.642	72737
579.698	77554
579.755	76494
579.811	68882
579.867	69744
579.924	68200
579.980	70433
580.036	72629
580.093	70798
580.149	73470
580.205	75192
580.261	77095
580.317	84554
580.374	97678
580.430	117164
580.486	101202
580.542	83775
580.598	78079
580.619	77599
580.654	76873
580.692	75484
580.710	74954
580.765	74187
580.767	74268
580.823	76866
580.838	75716
580.879	73014
580.911	72023
580.935	71482
580.984	72727
580.991	73000
581.047	75921
581.057	76382
581.103	78948
581.130	79995
581.159	81297
581.203	82373
581.215	82769
581.270	84687
581.276	84317
581.326	81759
581.349	81559
581.382	81507
581.422	81402
581.438	81470
581.494	86173
581.494	86032
581.550	79692
581.567	80292
581.606	81817
581.640	80719
581.661	80159
581.713	77167
581.717	77017
581.773	76615
581.786	77301
581.829	79840
581.859	79783
581.885	79805
581.932	76465
581.940	75930
581.996	79988
582.004	79370
582.052	76237
582.077	75564
582.107	74938
582.150	78018
582.163	79029
582.219	79157
582.223	79097
582.274	79085
582.296	81823
582.330	86120
582.368	82941
582.386	81645
582.441	73017
582.441	73041
582.497	71127
582.514	70817
582.552	70612
582.587	70661
582.608	70632
582.659	72013
582.663	72154
582.719	72305
582.732	71917
582.774	70858
582.805	73131
582.830	75013
582.877	71214
582.885	70584
582.941	70100
582.950	69945
582.996	69334
583.023	69778
583.052	70392
583.095	70746
583.107	70899
583.162	75183
583.168	75013
583.218	73075
583.240	71390
583.273	68873
583.313	66759
583.328	66066
583.384	67779
583.385	67863
583.439	70358
583.458	69010
583.494	66168
583.531	65497
583.549	65335
583.603	66386
583.605	66395
583.660	64245
583.676	64494
583.715	65445
583.748	68644
583.770	70911
583.820	71183
583.825	71112
583.881	66847
583.893	67017
583.936	67827
583.965	66874
583.991	65993
584.038	65384
584.046	65298
584.101	67930
584.110	67501
584.156	64689
584.183	64650
584.211	64616
584.255	61183
584.266	60319
584.321	59690
584.328	60086
584.376	63180
584.400	62722
584.431	62060
584.472	61747
584.486	61395
584.541	58835
584.545	58879
584.596	59892
584.617	61353
584.651	64196
584.689	66049
584.706	66358
584.761	65580
584.762	65609
584.816	64689
584.834	64799
584.871	64911
584.906	65558
584.926	65595
584.978	64024
584.980	63959
585.035	66497
585.051	67241
585.090	68762
585.123	68723
585.145	68597
585.195	70012
585.200	70045
585.254	68523
585.267	68937
585.309	70088
585.340	71306
585.364	72089
585.412	72898
585.419	73016
585.473	77130
585.484	79293
585.528	88645
585.556	96310
585.583	104218
585.628	123901
585.637	128815
585.692	210123
585.700	216289
585.747	239157
585.772	184472
585.801	115084
585.845	80297
585.856	74269
585.910	68752
585.917	68435
585.965	67246
585.989	67626
586.019	67704
586.061	67455
586.074	67385
586.128	68658
586.133	69200
586.183	76198
586.205	78210
586.237	79376
586.277	79816
586.292	79828
586.346	79278
586.349	79407
586.401	79254
586.421	81533
586.455	87358
586.493	99129
586.509	107295
586.564	146504
586.565	148917
586.618	254015
586.637	235361
586.672	161624
586.709	104436
586.727	84281
586.781	72011
586.781	71887
586.835	68076
586.853	67406
586.889	66434
586.925	65538
586.944	65021
586.996	66976
586.998	66934
587.052	69437
587.068	69367
587.106	68400
587.140	68028
587.161	67672
587.212	68590
587.215	68566
587.269	70837
587.284	71089
587.323	70297
587.356	69741
587.377	69205
587.427	68946
587.431	68793
587.485	67673
587.499	67935
587.539	69034
587.571	70239
587.593	70646
587.643	70953
587.648	70886
587.702	71654
587.715	72665
587.755	75266
587.786	74700
587.810	72867
587.858	68731
587.864	68440
587.917	71943
587.930	73147
587.971	78472
588.001	82132
588.025	81855
588.073	73225
588.079	72160
588.133	69733
588.145	69776
588.187	70714
588.217	71246
588.241	71948
588.288	74596
588.295	74726
588.348	76645
588.360	77344
588.402	80290
588.431	82382
588.456	83554
588.503	88208
588.510	88679
588.564	93157
588.575	94867
588.617	101636
588.646	107705
588.671	113751
588.718	131978
588.725	135610
588.778	174680
588.789	186517
588.832	276219
588.861	350831
588.886	484533
588.932	790246
588.939	818086
588.993	938029
589.004	924121
589.047	500976
589.075	264455
589.100	196940
589.147	122500
589.154	119176
589.207	106965
589.218	105593
589.261	107149
589.290	111266
589.314	115855
589.361	129691
589.368	134191
589.421	181894
589.433	195683
589.475	328611
589.504	446688
589.528	585066
589.576	836255
589.582	809570
589.635	401378
589.647	326534
589.689	181121
589.718	105287
589.742	99741
589.790	94462
589.795	95518
589.849	113592
589.861	121850
589.902	146717
589.932	142285
589.955	119415
590.004	78326
590.009	76443
590.062	71590
590.075	70314
590.115	66941
590.146	65503
590.168	65659
590.218	67140
590.222	66997
590.275	68376
590.289	68991
590.328	70339
590.360	70036
590.381	68024
590.431	65163
590.435	64944
590.488	66296
590.503	66614
590.541	66756
590.574	67343
590.594	66560
590.645	64956
590.647	64692
590.700	63604
590.716	63443
590.753	61964
590.787	61126
590.806	60902
590.859	61572
590.859	61346
590.912	60221
590.930	60250
590.965	60855
591.001	61947
591.018	61424
591.071	60001
591.072	60211
591.124	60287
591.143	60595
591.177	60845
591.214	61660
591.230	62028
591.283	63711
591.285	64041
591.336	66154
591.356	67029
591.389	66091
591.427	65091
591.442	63757
591.495	60243
591.498	60228
591.547	58967
591.569	58752
591.600	58839
591.640	59680
591.653	59630
591.706	60622
591.711	60988
591.759	65529
591.782	69126
591.811	73290
591.853	78344
591.864	75762
591.917	62899
591.924	61549
591.969	61367
591.995	61865
592.022	62529
592.066	64279
592.075	65417
592.127	74589
592.137	76918
592.180	86606
592.208	91736
592.233	81752
592.279	64045
592.285	63180
592.338	59273
592.350	58667
592.390	56928
592.421	56141
592.443	56149
592.491	57027
592.495	56777
592.548	57005
592.562	57360
592.600	56808
592.633	56807
592.653	55879
592.704	53929
592.705	54255
592.775	55639
592.846	55404
592.916	57817
592.987	60808
593.058	59615
593.128	54587
593.199	53471
593.270	52848
593.341	52687
593.411	54496
593.482	54149
593.553	52994
593.623	51856
593.694	54351
593.764	60937
593.835	54440
593.906	53728
593.976	53327
594.047	58898
594.117	69935
594.188	70518
594.258	51854
594.329	50668
594.399	50213
594.470	49399
594.540	47349
594.611	49579
594.681	49046
594.751	51989
594.822	54157
594.892	55934
594.963	59777
595.033	59255
595.103	60405
595.174	68228
595.244	98854
595.314	119839
595.384	61068
595.455	57239
595.525	58252
595.595	58284
595.665	58189
595.736	57013
595.806	56564
595.876	55113
595.946	54659
596.016	53517
596.087	55635
596.157	55882
596.227	54983
596.297	60186
596.367	62590
596.437	69152
596.507	92034
596.577	113164
596.647	65265
596.717	56739
596.787	56509
596.857	55566
596.927	54934
596.997	56353
597.067	54441
597.137	58680
597.207	56938
597.277	58285
597.347	58632
597.417	56136
597.487	56566
597.557	61459
597.626	60686
597.696	67081
597.766	81630
597.836	106745
597.906	67534
597.975	55133
598.045	54322
598.115	55720
598.185	53235
598.254	57415
598.324	58955
598.394	57709
598.464	59399
598.533	55540
598.603	52017
598.672	56456
598.742	53721
598.812	53866
598.881	53680
598.951	52008
599.020	51729
599.090	50983
599.159	51986
599.229	50641
599.299	49955
599.368	51697
599.437	49057
599.507	51767
599.576	53949
599.646	51576
599.715	51784
599.785	52577
599.854	58621
599.924	63946
599.993	58804
600.062	52891
600.132	51604
600.201	53239
600.270	57223
600.340	54517
600.409	50972
600.478	52303
600.547	51197
600.617	55001
600.686	52646
600.755	51178
600.824	51142
600.894	51887
600.963	48068
601.032	47602
601.101	48086
601.170	47275
601.239	47451
601.308	54106
601.378	49123
601.447	47074
601.516	45169
601.585	50510
601.654	55990
601.723	50339
601.792	47554
601.861	46287
601.930	49143
601.999	52862
602.068	47954
602.137	56801
602.206	51001
602.275	47383
602.343	54255
602.412	52973
602.481	44102
602.550	44780
602.619	43203
602.688	46193
602.756	45329
602.825	42676
602.894	43120
602.963	44373
603.032	43949
603.100	42591
603.169	43782
603.238	44514
603.307	42998
603.375	42055
603.444	42724
603.513	44156
603.581	41357
603.650	43586
603.719	41221
603.787	43145
603.856	42786
603.924	43228
603.993	43989
604.061	42947
604.130	43784
604.198	44727
604.267	44299
604.335	43661
604.404	42435
604.472	42730
604.541	44959
604.609	43985
604.678	43177
604.746	43429
604.815	42323
604.883	44613
604.951	44224
605.020	42434
605.088	44824
605.156	46876
605.225	45345
605.293	44230
605.361	45804
605.429	45463
605.498	46878
605.566	48785
605.634	48788
605.702	48444
605.771	49180
605.839	48473
605.907	47642
605.975	46253
606.043	46522
606.111	45996
606.180	44901
606.248	46376
606.316	47942
606.384	51238
606.452	63639
606.520	61893
606.588	50735
606.656	45778
606.724	46133
606.792	44296
606.860	42476
606.928	40210
606.996	40330
607.064	39107
607.132	39925
607.200	42574
607.267	40875
607.335	39957
607.403	40936
607.471	42211
607.539	41553
607.607	41344
607.674	39378
607.742	42472
607.810	42554
607.878	41293
607.946	38323
608.013	40159
608.081	41023
608.149	38463
608.216	40382
608.284	42839
608.352	42100
608.419	47181
608.487	67678
608.555	46735
608.622	39229
608.690	40268
608.757	41654
608.825	41606
608.893	43410
608.960	47264
609.028	55200
609.095	71596
609.163	46105
609.230	42681
609.298	40614
609.365	36259
609.432	37229
609.500	39787
609.567	43064
609.635	45696
609.702	45945
609.769	48428
609.837	51517
609.904	41863
609.971	36743
610.039	39839
610.106	47874
610.173	72476
610.241	134117
610.308	78121
610.375	43866
610.442	38324
610.509	35790
610.577	38104
610.644	37809
610.711	38093
610.778	38462
610.845	39864
610.912	39692
610.980	40107
611.047	41445
611.114	41777
611.181	39266
611.248	37230
611.315	41219
611.382	40524
611.449	39181
611.516	41900
611.583	42543
611.650	41321
611.717	42766
611.784	41255
611.851	43106
611.918	47201
611.984	51873
612.051	71414
612.118	123497
612.185	279183
612.252	151610
612.319	52027
612.386	48215
612.452	46935
612.519	54445
612.586	77707
612.653	54287
612.719	44659
612.786	42016
612.853	40146
612.919	38855
612.986	41259
613.053	37737
613.120	37102
613.186	36530
613.253	39602
613.319	36363
613.386	38871
613.453	38110
613.519	43418
613.586	51686
613.652	65880
613.719	55960
613.785	49136
613.852	37900
613.918	36969
613.985	36454
614.051	37126
614.118	43002
614.184	40700
614.250	36015
614.317	36233
614.383	35428
614.449	35285
614.516	37535
614.582	41729
614.648	37743
614.715	36471
614.781	37551
614.847	42581
614.914	42396
614.980	40265
615.046	37773
615.112	35600
615.179	36434
615.245	37870
615.311	37128
615.377	37947
615.443	38246
615.509	40732
615.575	42025
615.642	41562
615.708	44935
615.774	49533
615.840	53166
615.906	59002
615.972	62144
616.038	84619
616.104	161538
616.170	369904
616.236	267972
616.302	78994
616.368	64465
616.434	55576
616.500	56816
616.565	58408
616.631	63387
616.697	56159
616.763	56924
616.829	73907
616.895	105552
616.961	94654
617.026	58902
617.092	49204
617.158	49143
617.224	49998
617.289	48862
617.355	50301
617.421	53235
617.487	53293
617.552	47630
617.618	46672
617.684	46175
617.749	48770
617.815	44813
617.880	44128
617.946	44696
618.012	45105
618.077	43837
618.143	45985
618.208	46086
618.274	49196
618.339	51199
618.405	46212
618.470	49183
618.536	51698
618.601	59397
618.667	56078
618.732	50824
618.798	49914
618.863	48935
618.928	50315
618.994	54233
619.059	58741
619.124	70554
619.190	57278
619.255	51473
619.320	53099
619.386	50238
619.451	48348
619.516	49107
619.581	50429
619.647	49511
619.712	49463
619.777	49156
619.842	48922
619.907	48707
619.972	48697
620.038	50149
620.103	47973
620.168	46530
620.233	47651
620.298	45717
620.363	45885
620.428	46583
620.493	47696
620.558	45479
620.623	45787
620.688	45540
620.753	44963
620.818	46184
620.883	47157
620.948	46664
621.013	47571
621.078	49565
621.143	51476
621.207	54279
621.272	55311
621.337	56562
621.402	64515
621.467	86803
621.532	83870
621.596	63983
621.661	60190
621.726	56886
621.791	58253
621.855	61408
621.920	63677
621.985	68460
622.049	77302
622.114	72830
622.179	64908
622.243	70745
622.308	65957
622.373	67279
622.437	65533
622.502	61876
622.566	63442
622.631	64996
622.695	65048
622.760	64182
622.824	61634
622.889	63912
622.953	66746
623.018	83550
623.082	77957
623.147	62682
623.211	60600
623.276	61012
623.340	58277
623.404	56009
623.469	57624
623.533	58191
623.597	56000
623.662	55973
623.726	56377
623.790	54481
623.854	57338
623.919	56601
623.983	54957
624.047	57623
624.111	52928
624.176	55294
624.240	55758
624.304	60160
624.368	55540
624.432	55686
624.496	56305
624.560	58358
624.625	61356
624.689	53641
624.753	54455
624.817	54209
624.881	53166
624.945	55560
625.009	55281
625.073	51013
625.137	55452
625.201	62483
625.265	62313
625.329	54686
625.393	57478
625.456	56811
625.520	61467
625.584	69813
625.648	83841
625.712	122038
625.776	257030
625.839	277878
625.903	111131
625.967	70632
626.031	108920
626.095	160224
626.158	64693
626.222	48879
626.286	45869
626.349	46277
626.413	45100
626.477	48737
626.540	43274
626.604	45528
626.668	45308
626.731	43042
626.795	49961
626.858	48146
626.922	45419
626.986	43305
627.049	42032
627.113	44575
627.176	42077
627.240	42847
627.303	42383
627.366	43572
627.430	42516
627.493	44133
627.557	46321
627.620	44871
627.684	43839
627.747	44800
627.810	41485
627.874	42308
627.937	41101
628.000	44144
628.064	43831
628.127	38976
628.190	41693
628.253	41970
628.317	39399
628.380	39458
628.443	39932
628.506	39296
628.569	38246
628.632	37473
628.696	36828
628.759	36985
628.822	36845
628.885	36530
628.948	36727
629.011	36569
629.074	38478
629.137	34521
629.200	36644
629.263	40279
629.326	35401
629.389	35395
629.452	36931
629.515	38335
629.578	37239
629.641	37805
629.704	37507
629.767	37559
629.830	34866
629.892	34931
629.955	33916
630.018	37747
630.081	37832
630.144	43731
630.207	37030
630.269	38570
630.332	42452
630.395	36898
630.458	32650
630.520	32134
630.583	33807
630.646	31481
630.708	31066
630.771	31349
630.834	32540
630.896	30136
630.959	31234
631.021	30890
631.084	32622
631.146	36122
631.209	40315
631.272	31306
631.334	29825
631.397	30589
631.459	29207
631.522	29853
631.584	30925
631.646	30328
631.709	32135
631.771	38248
631.834	32634
631.896	29692
631.958	26333
632.021	29281
632.083	29794
632.145	31394
632.208	29049
632.270	30450
632.332	27647
632.395	27952
632.457	30156
632.519	28056
632.581	28965
632.643	26066
632.706	28461
632.768	26424
632.830	27953
632.892	25552
632.954	27392
633.016	27969
633.078	27022
633.141	26059
633.203	27458
633.265	27445
633.327	26893
633.389	26031
633.451	30086
633.513	34229
633.575	35222
633.637	33196
633.698	29647
633.760	26975
633.822	26490
633.884	26281
633.946	25727
634.008	25508
634.070	25311
634.132	24601
634.193	25597
634.255	25607
634.317	25654
634.379	26588
634.441	26318
634.502	25361
634.564	24995
634.626	24613
634.687	23884
634.749	24893
634.811	24489
634.873	22224
634.934	22685
634.996	25560
635.057	23768
635.119	23157
635.181	24402
635.242	24870
635.304	21494
635.365	25508
635.427	23254
635.488	23732
635.550	23439
635.611	23352
635.673	21877
635.734	26881
635.796	24945
635.857	27029
635.918	24477
635.980	26123
636.041	25439
636.102	25248
636.164	25138
636.225	24292
636.286	23700
636.348	24467
636.409	24328
636.470	21040
636.531	24734
636.593	28280
636.654	27105
636.715	21482
636.776	21214
636.838	21276
636.899	23103
636.960	21384
637.021	19977
637.082	21214
637.143	22117
637.204	19896
637.265	20384
637.326	20260
637.387	21210
637.448	18367
637.509	19873
637.570	20347
637.631	21530
637.692	19259
637.753	18624
637.814	19888
637.875	19987
637.936	20692
637.997	20367
638.058	20666
638.119	22488
638.179	19977
638.240	19665
638.301	19388
638.362	20227
638.423	20381
638.483	21617
638.544	17385
638.605	20770
638.666	19117
638.726	20782
638.787	19737
638.848	18329
638.908	18973
638.969	20151
639.030	21808
639.090	18079
639.151	18614
639.211	21756
639.272	25938
639.332	36179
639.393	26801
639.453	19874
639.514	19608
639.574	18649
639.635	17626
639.695	20124
639.756	18416
639.816	18445
639.877	21674
639.937	33457
639.997	39206
640.058	18747
640.118	17275
640.178	18136
640.239	16375
640.299	17884
640.359	16589
640.420	17858
640.480	17209
640.540	17396
640.600	16681
640.661	19085
640.721	17543
640.781	21868
640.841	16819
640.901	19118
640.961	18556
641.021	20706
641.082	21757
641.142	27461
641.202	20786
641.262	15841
641.322	17101
641.382	16697
641.442	19214
641.502	18210
641.562	18518
641.622	17013
641.682	17101
641.742	16629
641.802	17227
641.861	19567
641.921	20111
641.981	22134
642.041	21049
642.101	24025
642.161	17442
642.221	17051
642.280	17642
642.340	16821
642.400	16799
642.460	17895
642.519	16750
642.579	17272
642.639	18112
642.698	15463
642.758	18679
642.818	17237
642.877	17383
642.937	18429
642.997	20341
643.056	25151
643.116	17950
643.175	18480
643.235	16168
643.294	16163
643.354	16718
643.414	17946
643.473	17572
643.532	18174
643.592	19361
643.651	25019
643.711	34076
643.770	55417
643.830	119751
643.889	230025
643.948	53103
644.008	20383
644.067	17817
644.126	16869
644.186	15424
644.245	16458
644.304	13190
644.363	17144
644.423	14229
644.482	16161
644.541	15989
644.600	12987
644.659	16722
644.719	16550
644.778	19899
644.837	22830
644.896	33527
644.955	55667
645.014	24950
645.073	17250
645.132	16660
645.191	17569
645.250	14600
645.309	16526
645.368	16020
645.427	17734
645.486	17929
645.545	23525
645.604	17011
645.663	16164
645.722	15717
645.781	15587
645.840	14851
645.898	16350
645.957	19141
646.016	20597
646.075	30462
646.134	48866
646.192	117265
646.251	151602
646.310	27574
646.369	16935
646.427	15053
646.486	14023
646.545	14896
646.603	14766
646.662	14403
646.721	15048
646.779	12587
646.838	12835
646.896	15175
646.955	15723
647.014	17108
647.072	21692
647.131	37865
647.189	22151
647.248	12922
647.306	13886
647.365	14336
647.423	12371
647.481	13500
647.540	12462
647.598	13538
647.657	12724
647.715	13463
647.773	13483
647.832	13843
647.890	14233
647.948	13458
648.007	15790
648.065	13797
648.123	13478
648.181	15269
648.240	15316
648.298	12873
648.356	14249
648.414	14876
648.472	14993
648.531	15216
648.589	15233
648.647	13907
648.705	13851
648.763	15364
648.821	15176
648.879	13483
648.937	15598
648.995	14097
649.053	15423
649.111	17283
649.169	21988
649.227	26521
649.285	40821
649.343	95158
649.401	51878
649.459	40995
649.516	28641
649.574	15481
649.632	18512
649.690	17904
649.748	18554
649.806	16577
649.863	18831
649.921	29732
649.979	22311
650.037	14923
650.094	12367
650.152	13752
650.210	11908
650.268	12959
650.325	13172
650.383	12423
650.440	12531
650.498	12782
650.556	12890
650.613	11344
650.671	13105
650.728	13318
650.786	15789
650.843	13497
650.901	11015
650.958	11409
651.016	11855
651.073	12713
651.131	12345
651.188	12210
651.246	13488
651.303	12050
651.360	12533
651.418	12217
651.475	12689
651.532	10692
651.590	11640
651.647	11899
651.704	12734
651.762	12528
651.819	13299
651.876	12907
651.933	12427
651.990	12814
652.048	11351
652.105	12002
652.162	12917
652.219	11554
652.276	12482
652.333	11986
652.390	10412
652.448	11641
652.505	11697
652.562	10867
652.619	10815
652.676	12893
652.733	11941
652.790	11075
652.847	10551
652.904	11812
652.961	10506
653.017	10410
653.074	11062
653.131	10483
653.188	10993
653.245	11057
653.302	11250
653.359	10607
653.415	11753
653.472	10979
653.529	11812
653.586	10021
653.642	11498
653.699	10173
653.756	10339
653.813	9921
653.869	10730
653.926	9812
653.983	9798
654.039	10346
654.096	10964
654.152	12749
654.209	11555
654.266	13001
654.322	13560
654.379	15535
654.435	15809
654.492	15189
654.548	20293
654.605	31304
654.661	17876
654.717	12437
654.774	13835
654.830	13092
654.887	12405
654.943	13031
655.000	13590
655.056	13225
655.112	14873
655.168	13699
655.225	14361
655.281	17244
655.337	21716
655.394	35475
655.450	28585
655.506	23285
655.562	33577
655.618	30406
655.675	14184
655.731	14101
655.787	13020
655.843	14163
655.899	12615
655.955	12890
656.011	13639
656.067	11812
656.123	13558
656.179	14430
656.235	14956
656.291	12526
656.347	16358
656.403	13877
656.459	16090
656.515	17175
656.571	17811
656.627	14974
656.683	14731
656.739	13595
656.795	13264
656.850	13495
656.906	16225
656.962	13910
657.018	12062
657.074	12933
657.129	11992
657.185	13894
657.241	14718
657.297	13045
657.352	12772
657.408	12689
657.464	14230
657.519	13932
657.575	11624
657.630	12313
657.686	12284
657.742	12861
657.797	13400
657.853	13232
657.908	14016
657.964	11970
658.019	12832
658.075	13572
658.130	13778
658.186	11850
658.241	11929
658.297	11284
658.352	12454
658.407	12244
658.463	11711
658.518	12723
658.573	13282
658.629	11541
658.684	11489
658.739	12128
658.795	10715
658.850	11559
658.905	12048
658.960	11089
659.016	12111
659.071	12036
659.126	13575
659.181	13612
659.236	18194
659.291	18736
659.346	14978
659.401	13902
659.457	12775
659.512	12436
659.567	14040
659.622	12889
659.677	13841
659.732	12783
659.787	14326
659.842	15516
659.897	21352
659.952	14552
660.007	13772
660.061	14030
660.116	12926
660.171	12524
660.226	11570
660.281	12368
660.336	11936
660.391	12491
660.445	12250
660.500	13709
660.555	13538
660.610	12358
660.664	13585
660.719	12378
660.774	13430
660.828	13058
660.883	13173
660.938	14079
660.992	12613
661.047	13115
661.101	12287
661.156	13110
661.211	12064
661.265	13312
661.320	12948
661.374	13052
661.429	12878
661.483	13442
661.538	13802
661.592	12873
661.647	13814
661.701	12181
661.755	13347
661.810	13966
661.864	13896
661.919	12692
661.973	14098
662.027	14021
662.081	13331
662.136	13261
662.190	14785
662.244	15616
662.299	14574
662.353	13639
662.407	13545
662.461	14587
662.515	15248
662.569	15054
662.624	16768
662.678	14486
662.732	15542
662.786	13913
662.840	15170
662.894	15491
662.948	14668
663.002	12960
663.056	13363
663.110	13745
663.164	14528
663.218	13755
663.272	13973
663.326	14621
663.380	14860
663.434	16559
663.488	15607
663.542	15680
663.595	15577
663.649	15825
663.703	15849
663.757	15189
663.811	14303
663.864	13632
663.918	14634
663.972	14397
664.026	14198
664.079	14143
664.133	14963
664.187	12870
664.240	13292
664.294	13573
664.348	14708
664.401	14770
664.455	14272
664.508	14005
664.562	15005
664.615	14554
664.669	14510
664.722	14306
664.776	14950
664.829	14918
664.883	15293
664.936	15454
664.990	16498
665.043	17009
665.097	19319
665.150	20510
665.203	18140
665.257	17767
665.310	17972
665.363	17486
665.417	17967
665.470	17308
665.523	17764
665.576	17860
665.630	16387
665.683	17179
665.736	17495
665.789	17474
665.842	17531
665.895	16909
665.949	16646
666.002	16206
666.055	17363
666.108	18204
666.161	18514
666.214	17872
666.267	18101
666.320	19782
666.373	18381
666.426	17954
666.479	17766
666.532	20580
666.585	21812
666.638	24928
666.691	22170
666.744	22929
666.796	24027
666.849	21111
666.902	19279
666.955	16505
667.008	16410
667.060	15686
667.113	16700
667.166	16229
667.219	15624
667.271	17026
667.324	16308
667.377	17007
667.430	16755
667.482	16894
667.535	16833
667.587	19111
667.640	18402
667.693	21771
667.745	25704
667.798	26582
667.850	19480
667.903	19189
667.955	18835
668.008	19055
668.060	22874
668.113	23360
668.165	23395
668.218	22391
668.270	21847
668.322	21053
668.375	19340
668.427	20206
668.479	20401
668.532	19827
668.584	21411
668.636	19134
668.689	20148
668.741	20556
668.793	20736
668.845	19550
668.898	20847
668.950	19616
669.002	19499
669.054	20687
669.106	21865
669.158	21471
669.211	20697
669.263	20101
669.315	21336
669.367	19429
669.419	20309
669.471	21122
669.523	19519
669.575	20083
669.627	20716
669.679	18415
669.731	18865
669.783	18423
669.835	19429
669.886	19061
669.938	19100
669.990	18828
670.042	18851
670.094	18452
670.146	19397
670.197	18588
670.249	20663
670.301	18906
670.353	20182
670.404	19922
670.456	21543
670.508	22492
670.560	25262
670.611	29024
670.663	37656
670.715	70484
670.766	96300
670.818	36432
670.869	21302
670.921	20929
670.972	20978
671.024	20930
671.075	19973
671.127	20991
671.178	18450
671.230	20438
671.281	20311
671.333	20521
671.384	23627
671.436	24075
671.487	25344
671.538	25391
671.590	26501
671.641	28670
671.692	32688
671.744	40571
671.795	34956
671.846	26118
671.897	25492
671.949	26300
672.000	23584
672.051	23683
672.102	24712
672.153	23410
672.204	23322
672.256	23839
672.307	25446
672.358	25123
672.409	25684
672.460	23441
672.511	22587
672.562	24104
672.613	22749
672.664	22354
672.715	23132
672.766	23756
672.817	23391
672.868	22404
672.919	21702
672.970	23414
673.021	23301
673.071	22514
673.122	22202
673.173	21267
673.224	22398
673.275	22048
673.326	20911
673.376	21975
673.427	22352
673.478	22399
673.528	21475
673.579	21717
673.630	22104
673.680	23168
673.731	23000
673.782	19595
673.832	21430
673.883	24801
673.934	22371
673.984	20982
674.035	22882
674.085	22641
674.136	23845
674.186	25542
674.237	28894
674.287	41674
674.338	31924
674.388	23652
674.438	23090
674.489	21999
674.539	24686
674.589	24210
674.640	24550
674.690	23907
674.740	25671
674.791	27485
674.841	27099
674.891	25465
674.942	24774
674.992	23341
675.042	23508
675.092	21910
675.142	24065
675.193	23908
675.243	22069
675.293	24230
675.343	25373
675.393	23759
675.443	23468
675.493	21172
675.543	21798
675.593	23015
675.643	23144
675.693	21124
675.743	23601
675.793	22059
675.843	20971
675.893	23227
675.943	22428
675.993	20552
676.043	22617
676.093	21286
676.142	21687
676.192	22514
676.242	21968
676.292	20440
676.341	23799
676.391	24289
676.441	21579
676.491	20430
676.540	20928
676.590	20189
676.640	20803
676.689	21875
676.739	20180
676.789	19656
676.838	19764
676.888	19787
676.937	21031
676.987	20520
677.037	19813
677.086	18855
677.136	20754
677.185	20608
677.235	18417
677.284	19053
677.333	20734
677.383	19863
677.432	18657
677.482	19367
677.531	20265
677.580	20119
677.630	20527
677.679	17434
677.728	20799
677.778	18877
677.827	18225
677.876	18963
677.925	18849
677.975	19063
678.024	21027
678.073	19946
678.122	22224
678.171	24106
678.220	22064
678.269	23157
678.319	25274
678.368	22551
678.417	23066
678.466	24816
678.515	23664
678.564	24083
678.613	23832
678.662	21622
678.711	23342
678.760	21441
678.809	21728
678.857	21840
678.906	22709
678.955	22882
679.004	23262
679.053	21428
679.102	22466
679.151	23613
679.199	22351
679.248	21091
679.297	22304
679.346	23305
679.394	22402
679.443	21483
679.492	21321
679.540	21622
679.589	23083
679.638	23357
679.686	20456
679.735	20250
679.784	21263
679.832	22667
679.881	20360
679.929	19028
679.978	19828
680.026	19964
680.075	20574
680.123	20161
680.172	20536
680.220	18123
680.268	19967
680.317	19599
680.365	19743
680.414	18596
680.462	20545
680.510	20569
680.559	18848
680.607	18652
680.655	19788
680.703	20312
680.752	19872
680.800	18435
680.848	19052
680.896	17131
680.945	18838
680.993	19529
681.041	19569
681.089	18844
681.137	17116
681.185	17555
681.233	19646
681.258	19783
681.281	19841
681.329	18626
681.377	17935
681.380	18067
681.425	19120
681.473	21246
681.502	22154
681.521	22642
681.569	21872
681.617	21211
681.624	21228
681.665	20772
681.713	22634
681.745	21618
681.761	21030
681.809	21524
681.857	20778
681.867	20860
681.904	20834
681.952	20573
681.989	21492
682.000	21683
682.048	22013
682.096	21463
682.111	21606
682.143	21663
682.191	20897
682.233	22566
682.239	22737
682.286	21349
682.334	21147
682.354	21175
682.382	21110
682.430	22654
682.476	23240
682.477	23184
682.525	21117
682.572	21654
682.598	21314
682.620	20993
682.667	22103
682.715	23324
682.720	23565
682.763	25113
682.810	22831
682.841	22302
682.857	21909
682.905	22441
682.952	22196
682.963	22480
683.000	23285
683.047	22873
683.085	23069
683.095	23009
683.142	22677
683.190	22019
683.206	22313
683.237	22880
683.284	22750
683.328	22951
683.332	22893
683.379	24014
683.426	22882
683.449	23072
683.473	23205
683.521	23138
683.568	23176
683.571	23163
683.615	22245
683.662	23720
683.693	23502
683.709	23306
683.757	23227
683.804	23218
683.814	23334
683.851	23523
683.898	24466
683.936	23399
683.945	23110
683.992	24112
684.039	25251
684.057	25081
684.086	24589
684.133	24720
684.179	25655
684.180	25639
684.227	25787
684.274	25299
684.300	25317
684.321	25238
684.368	24205
684.415	26011
684.422	25891
684.462	24851
684.509	24174
684.543	25254
684.556	25657
684.603	24677
684.649	24942
684.665	25143
684.696	25440
684.743	26504
684.786	26659
684.790	26680
684.837	27396
684.883	29128
684.908	30298
684.930	31101
684.977	32942
685.023	31282
685.029	31183
685.070	29489
685.117	28800
685.150	29051
685.164	29427
685.210	33396
685.257	32923
685.272	33065
685.303	32554
685.350	30798
685.393	31420
685.396	31491
685.443	31569
685.490	32511
685.514	33080
685.536	33283
685.583	32641
685.629	32147
685.636	32146
685.675	31899
685.722	31139
685.757	31255
685.768	31391
685.815	32395
685.861	33842
685.878	33365
685.908	32467
685.954	32806
686.000	34391
686.000	34412
686.047	37376
686.093	41426
686.121	41950
686.139	41242
686.185	36366
686.232	34420
686.242	34291
686.278	34301
686.324	33146
686.363	31400
686.370	31174
686.416	31444
686.463	32713
686.484	32791
686.509	32852
686.555	31702
686.601	31826
686.606	31904
686.647	32504
686.693	32671
686.727	31967
686.739	31711
686.785	32627
686.831	32530
686.848	32518
686.877	32278
686.923	31499
686.969	30662
686.969	30658
687.015	31953
687.061	33507
687.090	33741
687.107	33540
687.153	32787
687.199	32293
687.211	32034
687.245	31773
687.291	31954
687.332	33937
687.336	34169
687.382	35838
687.428	34777
687.453	34442
687.474	33430
687.520	32647
687.565	31890
687.574	31717
687.611	32076
687.657	31510
687.695	32194
687.702	32338
687.748	32807
687.794	33281
687.816	33196
687.839	32646
687.885	32196
687.931	31196
687.937	31122
687.976	31996
688.022	32875
688.058	34309
688.067	34513
688.113	34048
688.158	33707
688.179	33353
688.204	33043
688.249	34013
688.295	34688
688.300	34859
688.340	36780
688.386	37897
688.421	37059
688.431	36511
688.477	35755
688.522	35330
688.542	34952
688.567	34952
688.613	35572
688.658	34284
688.663	34317
688.703	34789
688.749	35213
688.784	35103
688.794	35090
688.839	35181
688.884	35541
688.905	35327
688.930	34936
688.975	34255
689.020	34668
689.026	34705
689.065	35662
689.110	35034
689.146	35631
689.155	35642
689.201	34848
689.246	33245
689.267	33138
689.291	33711
689.336	35158
689.381	35866
689.388	35923
689.426	35509
689.471	35224
689.509	34363
689.516	34201
689.561	33675
689.606	33155
689.630	32824
689.651	33143
689.696	34148
689.741	34724
689.750	34968
689.785	35407
689.830	34919
689.871	34281
689.875	34235
689.920	33737
689.965	33969
689.992	33404
690.010	33348
690.054	34191
690.099	34937
690.112	35001
690.144	35013
690.189	34151
690.233	34454
690.233	34488
690.278	33574
690.323	33802
690.354	33344
690.367	33370
690.412	33682
690.457	34298
690.474	34257
690.501	33997
690.546	33202
690.590	32761
690.595	32751
690.635	33472
690.680	33039
690.716	33429
690.724	33560
690.769	34169
690.813	34252
690.836	34130
690.857	34092
690.902	33775
690.946	34697
690.957	34694
690.991	35212
691.035	35883
691.077	36187
691.080	36244
691.124	36774
691.168	37594
691.198	38287
691.213	38477
691.257	38718
691.301	37817
691.318	37446
691.346	36460
691.390	35264
691.434	33761
691.439	33681
691.478	35023
691.522	36055
691.559	36557
691.567	36628
691.611	36732
691.655	37011
691.680	37123
691.699	37307
691.743	37912
691.787	38018
691.800	38030
691.831	38865
691.875	39803
691.919	41467
691.921	41443
691.964	41587
692.008	42058
692.041	41624
692.052	41486
692.096	41898
692.139	41190
692.162	40875
692.183	40602
692.227	40050
692.271	40429
692.282	40171
692.315	39895
692.359	40039
692.402	40118
692.403	40180
692.447	40264
692.490	39859
692.523	40354
692.534	40761
692.578	41972
692.622	42447
692.643	42612
692.666	41936
692.709	40708
692.753	39428
692.763	39090
692.797	38866
692.840	38311
692.884	37986
692.884	38054
692.928	38874
692.971	39907
693.004	40488
693.015	40476
693.059	40075
693.102	39456
693.124	39115
693.146	39369
693.189	39928
693.233	40938
693.245	41018
693.276	41160
693.320	41382
693.363	41156
693.365	41094
693.407	41452
693.450	41742
693.485	41739
693.493	41716
693.537	41013
693.580	41139
693.605	40843
693.624	40771
693.667	40214
693.710	39807
693.725	39664
693.753	40772
693.797	42477
693.840	44044
693.845	44155
693.883	43191
693.926	41964
693.966	40412
693.970	40324
694.013	38973
694.056	37357
694.086	36689
694.099	37444
694.142	39522
694.185	41448
694.206	42089
694.229	41955
694.272	41929
694.315	41985
694.326	41870
694.358	41763
694.401	41295
694.444	40915
694.446	40830
694.487	41268
694.530	41557
694.566	41904
694.573	41746
694.616	39773
694.659	37852
694.686	36597
694.702	36635
694.745	36936
694.787	36754
694.806	36778
694.830	37351
694.873	38291
694.916	38774
694.926	38838
694.959	38336
695.002	37589
695.044	36938
695.046	36842
695.087	37858
695.130	38933
695.166	39525
695.172	39634
695.215	39764
695.258	40106
695.286	40238
695.301	40282
695.343	40380
695.386	40115
695.406	39728
695.428	39160
695.471	38605
695.514	37977
695.526	37691
695.556	38185
695.599	38830
695.641	39412
695.646	39372
695.684	39093
695.726	38876
695.766	38462
695.769	38568
695.811	39203
695.854	39762
695.886	40075
695.896	39854
695.938	38424
695.981	37050
696.005	36110
696.023	36516
696.065	37622
696.108	38684
696.125	39109
696.150	39494
696.192	39520
696.235	39927
696.245	39871
696.277	38971
696.319	37744
696.361	36558
696.365	36385
696.404	36943
696.446	37237
696.485	37761
696.488	37905
696.530	38461
696.572	39093
696.604	39502
696.614	39367
696.656	38342
696.698	37361
696.724	36607
696.740	36721
696.783	36889
696.825	37183
696.844	37161
696.867	37551
696.909	38236
696.951	38821
696.964	38961
696.992	38541
697.034	37506
697.076	36655
697.083	36445
697.118	37216
697.160	37950
697.202	38744
697.203	38674
697.244	38142
697.286	37671
697.323	37175
697.327	37245
697.369	36913
697.411	36786
697.442	36563
697.453	36884
697.494	37920
697.536	38991
697.562	39462
697.578	39214
697.620	38383
697.661	37556
697.682	37034
697.703	37515
697.744	38447
697.786	39312
697.801	39536
697.828	39703
697.869	39726
697.911	39813
697.921	39739
697.952	39482
697.994	39050
698.035	38636
698.040	38489
698.077	37773
698.118	36840
698.160	35936
698.160	35845
698.201	36013
698.243	36109
698.279	36171
698.284	36329
698.325	36928
698.367	37593
698.399	37960
698.408	37807
698.449	36718
698.491	35649
698.518	34826
698.532	35264
698.573	36373
698.614	37474
698.638	38017
698.656	38036
698.697	37865
698.738	37683
698.757	37508
698.779	38123
698.820	39128
698.862	40123
698.877	40395
698.903	40842
698.944	41407
698.985	41971
698.996	42027
699.026	41716
699.067	41145
699.116	40366
699.235	38954
699.354	36148
699.474	38487
699.593	43434
699.713	40334
699.832	37625
699.951	38708
700.070	37469
700.190	35990
700.309	37313
700.428	39915
700.547	37017
700.667	38393
700.786	40772
700.905	34569
701.024	39241
701.143	36588
701.262	31685
701.381	32496
701.500	34970
701.619	35215
701.738	31868
701.857	31757
701.976	31039
702.095	31243
702.214	35989
702.333	34274
702.452	33597
702.571	30998
702.690	31560
702.809	30729
702.928	29582
703.047	31388
703.165	30336
703.284	29266
703.403	31216
703.522	35888
703.640	33367
703.759	40408
703.878	52365
703.997	30883
704.115	29793
704.234	29040
704.353	29127
704.471	29095
704.590	27667
704.708	27045
704.827	27125
704.946	29385
705.064	32519
705.183	30917
705.301	45051
705.420	72386
705.538	59991
705.656	47374
705.775	43226
705.893	47966
706.012	52159
706.130	51862
706.249	49800
706.367	51464
706.485	53668
706.604	51204
706.722	50740
706.840	57811
706.958	49631
707.077	47932
707.195	45262
707.313	45090
707.431	44981
707.549	44540
707.668	45683
707.786	45528
707.904	43553
708.022	42211
708.140	42373
708.258	42123
708.376	43053
708.494	43133
708.612	52856
708.730	83518
708.848	73905
708.966	64527
709.084	58373
709.202	57800
709.320	62381
709.438	63635
709.556	62482
709.674	61344
709.791	60118
709.909	59835
710.027	60256
710.145	58088
710.263	58510
710.380	58435
710.498	55990
710.616	57354
710.733	56938
710.851	58540
710.969	58639
711.086	56176
711.204	53698
711.322	55381
711.439	56969
711.557	56809
711.674	54256
711.792	53581
711.909	50681
712.027	50574
712.144	51087
712.262	52113
712.379	64744
712.497	98357
712.614	93063
712.732	75806
712.849	71858
712.966	74939
713.084	85893
713.201	78114
713.318	76600
713.436	75156
713.553	75514
713.670	75374
713.787	81061
713.905	77990
714.022	70934
714.139	70149
714.256	72720
714.373	73884
714.490	78137
714.608	101224
714.725	237837
714.842	234758
714.959	72949
715.076	65376
715.193	63691
715.310	60858
715.427	61588
715.544	58856
715.661	61478
715.778	63220
715.895	68676
716.011	67313
716.128	61437
716.245	62740
716.362	63970
716.479	65642
716.596	58077
716.713	60146
716.829	57191
716.946	57958
717.063	56023
717.180	56690
717.296	55206
717.413	56145
717.530	55510
717.646	53519
717.763	53978
717.880	52509
717.996	51937
718.113	52601
718.229	52851
718.346	48928
718.462	50757
718.579	57087
718.695	71536
718.812	65194
718.928	67924
719.045	50949
719.161	47138
719.277	44938
719.394	44910
719.510	48603
719.626	49742
719.743	61315
719.859	53061
719.975	56380
720.092	92671
720.208	152049
720.324	59970
720.440	48877
720.557	56421
720.673	67275
720.789	99801
720.905	183693
721.021	66621
721.137	46502
721.253	48199
721.369	50795
721.486	55374
721.602	70435
721.718	45385
721.834	40616
721.950	44278
722.066	41945
722.181	41011
722.297	42993
722.413	38465
722.529	40874
722.645	39429
722.761	40280
722.877	39151
722.993	37906
723.108	40719
723.224	37535
723.340	39757
723.456	36982
723.571	38783
723.687	35511
723.803	37903
723.918	35042
724.034	38199
724.150	37578
724.265	44703
724.381	88496
724.497	84218
724.612	36568
724.728	33636
724.843	35285
724.959	43509
725.074	82353
725.190	73501
725.305	38847
725.421	33768
725.536	30319
725.651	31188
725.767	30586
725.882	30376
725.997	29625
726.113	29305
726.228	28976
726.343	29660
726.459	27247
726.574	32359
726.689	29277
726.804	28692
726.920	30311
727.035	30435
727.150	31367
727.265	29401
727.380	30233
727.495	28784
727.610	24751
727.725	27471
727.841	27286
727.956	27040
728.071	32752
728.186	27372
728.301	24340
728.416	27410
728.531	25285
728.645	24328
728.760	26944
728.875	25090
728.990	24592
729.105	25616
729.220	25263
729.335	24320
729.449	22940
729.564	21201
729.679	23089
729.794	23495
729.908	27892
730.023	24282
730.138	20808
730.253	23631
730.367	21874
730.482	21718
730.596	21767
730.711	22937
730.826	20612
730.940	21399
731.055	22363
731.169	19827
731.284	20450
731.398	20888
731.513	25482
731.627	23273
731.742	28761
731.856	27321
731.970	18630
732.085	21449
732.199	21171
732.313	22598
732.428	33743
732.542	76890
732.656	50831
732.771	20328
732.885	20174
732.999	20285
733.113	21608
733.227	20580
733.342	16784
733.456	18821
733.570	17466
733.684	18016
733.798	18713
733.912	17866
734.026	16037
734.140	17176
734.254	22401
734.368	46398
734.482	42679
734.596	16625
734.710	16614
734.824	16057
734.938	15842
735.052	16892
735.166	20537
735.280	18280
735.393	16018
735.507	17457
735.621	28580
735.735	49319
735.849	18953
735.962	17414
736.076	17634
736.190	18111
736.303	30750
736.417	31925
736.531	16379
736.644	16920
736.758	13539
736.872	14438
736.985	15371
737.099	13457
737.212	13164
737.326	13947
737.439	12941
737.553	13177
737.666	13550
737.780	12885
737.893	13658
738.007	13891
738.120	12924
738.233	13460
738.347	13040
738.460	13415
738.573	14391
738.687	13297
738.800	13678
738.913	15970
739.026	14454
739.140	12921
739.253	11274
739.366	12706
739.479	12533
739.592	11613
739.705	12406
739.818	12701
739.932	12600
740.045	12196
740.158	12191
740.271	13833
740.384	13783
740.497	12308
740.610	12993
740.723	12529
740.836	11855
740.949	11784
741.062	16373
741.174	15566
741.287	12765
741.400	11410
741.513	11871
741.626	12618
741.739	12376
741.851	12061
741.964	11344
742.077	12680
742.189	12754
742.302	12651
742.415	11763
742.527	10929
742.640	10388
742.753	10748
742.865	10727
742.978	10146
743.090	11928
743.203	11675
743.316	10317
743.428	11096
743.541	10398
743.653	10176
743.766	10715
743.878	12316
743.990	19763
744.103	15716
744.215	12772
744.327	10933
744.440	13758
744.552	18505
744.664	10553
744.777	10172
744.889	9785
745.001	10894
745.113	9309
745.226	9708
745.338	10154
745.450	10857
745.562	9460
745.674	7987
745.786	9545
745.898	8877
746.010	9445
746.122	9782
746.234	8983
746.347	8887
746.459	10531
746.570	9834
746.682	11046
746.794	12737
746.906	10232
747.018	10420
747.130	9282
747.242	9363
747.354	9256
747.466	10220
747.577	9185
747.689	9162
747.801	8966
747.913	8591
748.024	9100
748.136	8806
748.248	9268
748.359	8694
748.471	8360
748.583	8770
748.694	9022
748.806	11335
748.918	15479
749.029	10048
749.141	9789
749.252	9743
749.364	11826
749.475	21239
749.587	15063
749.698	8530
749.809	8238
749.921	8137
750.032	8430
750.144	7817
750.255	7312
750.366	7791
750.478	7758
750.589	9037
750.700	8151
750.811	8485
750.923	11744
751.034	22187
751.145	17808
751.256	7818
751.367	8273
751.479	8153
751.590	6650
751.701	7767
751.812	6848
751.923	7601
752.034	7040
752.145	6177
752.256	7785
752.367	8193
752.478	6394
752.589	7822
752.700	6663
752.811	8542
752.922	7471
753.032	8098
753.143	8562
753.254	7096
753.365	7509
753.476	7131
753.586	6425
753.697	7275
753.808	7194
753.919	7338
754.029	7254
754.140	6315
754.251	7347
754.361	6636
754.472	7459
754.582	7180
754.693	6910
754.804	7210
754.914	5707
755.025	5928
755.135	6030
755.246	6413
755.356	6213
755.466	6934
755.577	7140
755.687	7148
755.798	6455
755.908	6518
756.018	6069
756.129	6427
756.239	6605
756.349	7304
756.460	5779
756.570	7056
756.680	6475
756.790	7671
756.900	8534
757.011	7086
757.121	7032
757.231	6294
757.341	5919
757.451	6011
757.561	6196
757.671	6887
757.781	5293
757.891	7867
758.001	7415
758.111	6738
758.221	6707
758.331	8425
758.441	8523
758.551	10391
758.661	9391
758.771	8414
758.880	10330
758.990	9486
759.100	8423
759.210	8739
759.320	8814
759.429	7880
759.539	7743
759.649	8959
759.758	8073
759.868	9356
759.978	7494
760.087	8525
760.197	8388
760.307	7824
760.416	8124
760.526	8532
760.635	8968
760.745	8829
760.854	8245
760.964	8541
761.073	8044
761.182	8480
761.292	9377
761.401	10806
761.511	8737
761.620	8364
761.729	8776
761.839	8824
761.948	8488
762.057	8574
762.166	8565
762.276	6552
762.385	9045
762.494	8019
762.603	8294
762.712	10217
762.822	9735
762.931	10097
763.040	8340
763.149	9606
763.258	7975
763.367	9148
763.476	8697
763.585	8812
763.694	8906
763.803	10161
763.912	9997
764.021	9304
764.130	8832
764.238	9652
764.347	8234
764.456	8921
764.565	9023
764.674	9089
764.783	8321
764.891	8937
765.000	10162
765.109	9423
765.217	9838
765.326	12506
765.435	12985
765.543	11046
765.652	10578
765.761	11077
765.869	13141
765.978	17046
766.086	23812
766.195	41681
766.303	105179
766.412	328573
766.520	265975
766.629	56968
766.737	26948
766.846	19084
766.954	15703
767.062	16828
767.171	16644
767.279	14121
767.387	12621
767.496	13041
767.604	12471
767.712	11535
767.820	11738
767.928	12739
768.037	11298
768.145	13213
768.253	12125
768.361	11213
768.469	11049
768.577	11183
768.685	13135
768.793	10948
768.901	11528
769.009	11830
769.117	12079
769.225	12510
769.333	13623
769.441	16463
769.549	22062
769.657	42767
769.765	128929
769.873	283186
769.981	82556
770.088	22081
770.196	15119
770.304	13879
770.412	13903
770.519	14888
770.627	12642
770.735	13588
770.842	12372
770.950	11657
771.058	11338
771.165	12238
771.273	12203
771.380	11362
771.488	11131
771.595	11361
771.703	11269
771.810	11081
771.918	10956
772.025	12043
772.133	11222
772.240	11201
772.348	11899
772.455	11085
772.562	10277
772.670	9982
772.777	11414
772.884	10042
772.991	10089
773.099	11172
773.206	9334
773.313	10214
773.420	9756
773.528	8865
773.635	9870
773.742	10587
773.849	10361
773.956	9799
774.063	9551
774.170	10345
774.277	11129
774.384	10725
774.491	10091
774.598	11000
774.705	11052
774.812	13702
774.919	13612
775.026	12532
775.133	11361
775.239	10978
775.346	11263
775.453	10495
775.560	10310
775.667	11162
775.773	11044
775.880	11290
775.987	11722
776.093	11410
776.200	11554
776.307	10774
776.413	11816
776.520	11007
776.627	11274
776.733	11401
776.840	9142
776.946	12800
777.053	14169
777.159	17608
777.266	13332
777.372	17307
777.478	14339
777.585	11585
777.691	8503
777.798	10561
777.904	11634
778.010	12922
778.117	12025
778.223	10441
778.329	11260
778.435	9801
778.542	10254
778.648	10199
778.754	9074
778.860	10146
778.966	11024
779.072	10230
779.178	10651
779.284	9623
779.391	8812
779.497	8523
779.603	10322
779.708	8669
779.815	10243
779.920	13700
780.026	18918
780.132	8701
780.238	9325
780.344	9294
780.450	9406
780.556	8082
780.661	8964
780.767	8413
780.873	8255
780.979	9278
781.085	9757
781.190	8757
781.296	7557
781.402	8667
781.507	7839
781.613	8558
781.719	7244
781.824	8371
781.930	8837
782.035	9454
782.141	8320
782.246	8557
782.352	7751
782.457	7467
782.563	8023
782.668	8581
782.773	9689
782.879	9252
782.984	9898
783.090	10460
783.195	13055
783.300	10651
783.405	9498
783.511	8703
783.616	9599
783.721	8739
783.826	7870
783.932	9370
784.037	8399
784.142	9511
784.247	8591
784.352	7565
784.457	8569
784.562	8157
784.667	8569
784.772	7974
784.877	7916
784.982	8383
785.087	7706
785.192	9000
785.297	8491
785.402	8876
785.507	7437
785.611	8744
785.716	8910
785.821	7453
785.926	7512
786.031	7578
786.135	8161
786.240	8084
786.345	6768
786.450	8212
786.554	6861
786.659	7223
786.763	6328
786.868	8751
786.973	8054
787.077	6646
787.182	6729
787.286	7193
787.391	7292
787.495	7169
787.600	6324
787.704	6549
787.809	7361
787.913	6542
788.017	7090
788.122	6729
788.226	7126
788.330	6325
788.435	7042
788.539	7625
788.643	6186
788.747	6214
788.852	6253
788.956	5682
789.060	6314
789.164	6491
789.268	5635
789.372	7117
789.476	6918
789.580	5816
789.684	6468
789.788	7197
789.892	5573
789.996	8146
790.100	6072
790.204	7075
790.308	7003
790.412	6633
790.516	6836
790.620	7174
790.724	7415
790.828	7494
790.931	6505
791.035	8963
791.139	7354
791.242	6213
791.346	7802
791.450	6977
791.554	6711
791.657	5690
791.761	7631
791.864	7206
791.968	6153
792.072	7114
792.175	6863
792.279	6549
792.382	6531
792.486	6721
792.589	7515
792.693	7332
792.796	4979
792.899	6780
793.003	6690
793.106	4183
793.209	5557
793.313	6887
793.416	4360
793.519	7787
793.623	8853
793.726	10980
793.829	6706
793.932	6589
794.035	5790
794.138	7410
794.242	7073
794.345	8436
794.448	8763
794.551	10425
794.654	12783
794.757	12599
794.860	12142
794.963	7298
795.066	6182
795.169	6376
795.272	4248
795.375	5539
795.477	4237
795.580	5336
795.683	4037
795.786	5839
795.889	4208
795.991	7103
796.094	8001
796.197	5069
796.300	6484
796.402	4761
796.505	4054
796.608	4449
796.710	5815
796.813	5043
796.915	4261
797.018	5881
797.120	4473
797.223	3434
797.326	5827
797.428	4423
797.530	5194
797.633	6900
797.735	9609
797.838	16047
797.940	9104
798.042	3945
798.145	5090
798.247	5685
798.349	3610
798.452	5556
798.554	4701
798.656	4417
798.758	6005
798.860	4610
798.962	3972
799.065	4734
799.167	3614
799.269	6017
799.371	6268
799.473	7156
799.575	8696
799.677	7965
799.779	8204
799.881	7172
799.983	4616
800.085	4338
800.187	4654
800.289	4715
800.390	3861
800.492	4004
800.594	4693
800.696	3783
800.798	4064
800.899	3856
801.001	2953
801.103	4076
801.205	3595
801.306	4380
801.408	3464
801.509	4638
801.611	4128
801.713	4605
801.814	3241
801.916	4138
802.017	4402
802.119	3487
802.220	4573
802.322	3673
802.423	11294
802.525	5708
802.626	4411
802.727	3617
802.829	4374
802.930	2595
803.031	4870
803.133	3346
803.234	3574
803.335	3909
803.436	2761
803.538	3510
803.639	2862
803.740	3920
803.841	2442
803.942	3994
804.043	3941
804.144	3045
804.245	4525
804.346	2941
804.447	2661
804.548	5224
804.649	6273
804.750	3474
804.851	2492
804.952	3732
805.053	3164
805.154	2273
805.255	3503
805.355	3129
805.456	2873
805.557	2846
805.658	2869
805.758	4205
805.859	3323
805.960	2716
806.061	2670
806.161	3099
806.262	2961
806.362	3302
806.463	3623
806.564	4027
806.664	3316
806.765	6924
806.865	5380
806.966	3288
807.066	2674
807.166	3530
807.267	2834
807.367	2788
807.468	3389
807.568	1706
807.668	3242
807.769	3518
807.869	2288
807.969	3303
808.069	2807
808.170	3670
808.270	2583
808.370	3625
808.470	5039
808.570	3087
808.670	1802
808.770	2299
808.870	2058
808.970	4056
809.070	2663
809.170	2213
809.271	2926
809.370	2869
809.470	3038
809.570	2511
809.670	2033
809.770	2645
809.870	2914
809.970	3266
810.070	2692
810.169	3458
810.269	1265
810.369	2981
810.469	3352
810.568	1731
810.668	1519
810.768	2745
810.867	2231
810.967	2235
811.066	2399
811.166	1889
811.265	2976
811.365	1812
811.464	2384
811.564	2057
811.663	2371
811.763	834
811.862	1928
811.962	2922
812.061	1825
812.160	1996
812.260	1785
812.359	2237
812.458	1935
812.557	3038
812.657	2236
812.756	2857
812.855	2228
812.954	2302
813.053	3198
813.153	1851
813.252	950
813.351	2293
813.450	1803
813.549	1970
813.648	1925
813.747	1926
813.846	2639
813.945	831
814.044	1843
814.143	2216
814.242	2661
814.341	1587
814.439	1839
814.538	2695
814.637	1123
814.736	1092
814.835	2139
814.933	1017
815.032	1986
815.131	1633
815.229	1367
815.328	2250
815.427	1970
815.525	2240
815.624	2566
815.722	1855
815.821	2332
815.919	1994
816.018	1203
816.116	1847
816.215	1127
816.313	3126
816.412	1812
816.510	1949
816.609	3665
816.707	2615
816.805	2512
816.904	1596
817.002	2168
817.100	2679
817.198	2618
817.296	1289
817.395	2142
817.493	2923
817.591	1177
817.689	2182
817.787	1370
817.885	3610
817.983	4302
818.081	7671
818.179	14806
818.277	41828
818.375	30073
818.473	5788
818.571	3325
818.669	4133
818.767	3853
818.865	3048
818.963	2987
819.061	3714
819.158	5795
819.256	13876
819.354	32136
819.452	79624
819.549	36069
819.647	8130
819.745	3110
819.842	4353
819.940	2901
820.038	2546
820.135	2428
820.233	4248
820.330	1810
820.428	2037
820.525	2948
820.623	2771
820.720	2001
820.818	1935
820.915	3093
821.012	3434
821.110	992
821.207	3340
821.304	821
821.402	3284
821.499	3978
821.596	5114
821.693	2433
821.791	3203
821.888	4850
821.985	9797
822.082	6861
822.179	3529
822.276	2865
822.373	2606
822.470	1236
822.567	2064
822.664	998
822.761	2996
822.858	1294
822.955	2016
823.052	2250
823.149	2344
823.246	1911
823.343	1640
823.440	1909
823.536	1757
823.633	868
823.730	2122
823.827	2029
823.923	2456
824.020	3028
824.117	1619
824.213	1854
824.310	3026
824.407	1650
824.503	1452
824.600	2311
824.696	1648
824.793	2822
824.889	2541
824.986	1714
825.082	1681
825.179	2012
825.275	1217
825.371	1473
825.468	1849
825.564	611
825.660	2013
825.757	1926
825.853	2504
825.949	1158
826.045	1505
826.142	864
826.238	1391
826.334	1624
826.430	1147
826.526	1683
826.622	631
826.718	3185
826.814	753
826.910	1994
827.006	2051
827.102	674
827.198	1794
827.294	1423
827.390	2022
827.486	2668
827.582	1390
827.678	1298
827.774	2195
827.869	1329
827.965	2754
828.061	925
828.157	1088
828.252	1808
828.348	796
828.444	2009
828.539	974
828.635	1612
828.731	2762
828.826	1436
828.922	2791
829.017	2067
829.113	2419
829.208	1239
829.304	1501
829.399	2822
829.495	1655
829.590	2870
829.685	1070
829.781	1276
829.876	1924
829.971	1675
830.066	2533
830.162	2492
830.257	1628
830.352	2244
830.447	2796
830.543	3603
830.638	1467
830.733	3410
830.828	2326
830.923	2806
831.018	3044
831.113	3093
831.208	1724
831.303	1560
831.398	1625
831.493	1271
831.588	2665
831.683	1093
831.778	1545
831.873	1265
831.967	3125
832.062	1881
832.157	1838
832.252	2256
832.346	2370
832.441	2535
832.536	4643
832.631	9733
832.725	6774
832.820	2306
832.914	1680
833.009	1287
833.104	2273
833.198	3911
833.293	1393
833.387	3124
833.482	2229
833.576	1419
833.670	1954
833.765	1338
833.859	1691
833.954	2946
834.048	2113
834.142	984
834.237	1590
834.331	1065
834.425	1442
834.519	1667
834.613	2466
834.708	1479
834.802	2236
834.896	1689
834.990	1928
835.084	2273
835.178	2248
835.272	1981
835.366	1315
835.460	2315
835.554	1811
835.648	1556
835.742	1317
835.836	1767
835.930	1803
836.024	1848
836.117	4704
836.211	3981
836.305	8251
836.399	9004
836.493	1545
836.586	3121
836.680	362
836.774	1821
836.867	2446
836.961	383
837.055	1172
837.148	1631
837.242	2496
837.335	1567
837.429	3599
837.522	2429
837.616	5415
837.709	13739
837.803	6973
837.896	3786
837.989	5204
838.083	9023
838.176	19886
838.269	12436
838.363	4210
838.456	2904
838.549	4673
838.642	7022
838.735	12003
838.829	4876
838.922	2456
839.015	2257
839.108	1906
839.201	3007
839.294	2364
839.387	3667
839.480	4071
839.573	7251
839.666	8035
839.759	1774
839.852	2057
839.945	2479
840.038	1760
840.131	1878
840.223	1929
840.316	1218
840.409	2350
840.502	746
840.594	2926
840.687	1214
840.780	2598
840.873	1927
840.965	5219
841.058	8554
841.150	17223
841.243	8379
841.336	2358
841.428	2357
841.521	2681
841.613	3737
841.706	3555
841.798	1963
841.890	2623
841.983	2022
842.075	2525
842.167	2425
842.260	4491
842.352	7144
842.444	9491
842.537	21823
842.629	21399
842.721	4244
842.813	2199
842.905	2005
842.997	3978
843.090	5562
843.182	10545
843.274	20108
843.366	46923
843.458	72198
843.550	34517
843.642	6085
843.734	5645
843.826	6330
843.918	4107
844.009	2239
844.101	2779
844.193	2074
844.285	3382
844.377	2865
844.469	3277
844.560	4332
844.652	3574
844.744	3009
844.835	2731
844.927	3934
845.019	5287
845.110	3347
845.202	2303
845.293	1702
845.385	2076
845.476	2811
845.568	3120
845.659	3112
845.751	2908
845.842	1671
845.934	1265
846.025	1510
846.116	2606
846.208	2177
846.299	2258
846.390	2516
846.482	3388
846.573	5080
846.664	6912
846.755	9156
846.846	6172
846.937	1066
847.029	2537
847.120	2264
847.211	1862
847.302	2429
847.393	996
847.484	2480
847.575	1757
847.666	2490
847.757	3048
847.847	3201
847.938	2992
848.029	1686
848.120	2020
848.211	1796
848.302	1999
848.392	1058
848.483	2502
848.574	1646
848.664	1295
848.755	1362
848.846	1995
848.936	1524
849.027	2236
849.118	1532
849.208	1841
849.299	2686
849.389	3579
849.480	6050
849.570	8797
849.661	14174
849.751	21887
849.841	7606
849.932	2775
850.022	1348
850.112	2718
850.203	2000
850.293	1812
850.383	1884
850.474	1779
850.564	1643
850.654	1976
850.744	820
850.834	1472
850.924	2153
851.014	2731
851.104	1797
851.194	2678
851.284	3382
851.374	4166
851.464	3259
851.554	4752
851.644	5097
851.734	8436
851.824	4231
851.914	2252
852.004	2321
852.094	1913
852.183	1971
852.273	2187
852.363	2172
852.452	2870
852.542	2591
852.632	1423
852.721	2169
852.811	2196
852.901	1471
852.990	1722
853.080	1967
853.169	1812
853.259	2305
853.348	2200
853.438	2513
853.527	2323
853.617	2779
853.706	6536
853.795	9329
853.885	21790
853.974	37725
854.063	70937
854.152	105989
854.242	35387
854.331	5641
854.420	3570
854.509	3394
854.598	4756
854.687	5361
854.777	5006
854.866	1984
854.955	2530
855.044	1633
855.133	1760
855.222	1189
855.311	1296
855.400	1651
855.488	2303
855.577	823
855.666	2488
855.755	2124
855.844	2132
855.933	1309
856.021	3077
856.110	1899
856.199	2005
856.288	826
856.376	2064
856.465	1273
856.554	2040
856.642	2101
856.731	2441
856.819	2176
856.908	2424
856.996	935
857.085	1683
857.173	1597
857.262	1648
857.350	1879
857.438	2023
857.527	1583
857.615	1752
857.703	2489
857.792	1796
857.880	1723
857.968	1444
858.056	1671
858.145	1973
858.233	2381
858.321	1150
858.409	1510
858.497	1561
858.585	1337
858.673	1363
858.761	1158
858.849	1586
858.937	1288
859.025	2710
859.113	2459
859.201	1858
859.289	2756
859.377	2273
859.465	2171
859.552	1754
859.640	1676
859.728	2852
859.816	1679
859.903	2402
859.991	1401
860.079	1731
860.166	1931
860.254	1964
860.342	2009
860.429	1431
860.517	1121
860.604	1748
860.692	1451
860.779	1752
860.867	1481
860.954	1309
861.042	2497
861.129	2759
861.216	2268
861.304	647
861.391	1999
861.478	1645
861.565	1729
861.653	1962
861.740	1455
861.827	1779
861.914	1279
862.001	1529
862.089	1049
862.176	830
862.263	926
862.350	1019
862.437	1693
862.524	1468
862.611	1310
862.698	2844
862.785	2657
862.871	2375
862.958	1273
863.045	1627
863.132	1865
863.219	945
863.306	438
863.392	790
863.479	806
863.566	1502
863.652	2320
863.739	1603
863.826	2255
863.912	1343
863.999	976
864.086	2064
864.172	985
864.259	757
864.345	1177
864.432	1559
864.518	1963
864.604	2408
864.691	883
864.777	808
864.863	1613
864.950	2515
865.036	1022
865.122	2777
865.209	1831
865.295	2182
865.381	2307
865.467	2617
865.553	2788
865.639	3818
865.726	5521
865.812	10974
865.898	20911
865.984	30730
866.070	59836
866.156	58938
866.242	13145
866.328	3777
866.414	2576
866.499	2330
866.585	1824
866.671	2282
866.757	1495
866.843	2867
866.928	1696
867.014	1889
867.100	3204
867.186	3489
867.271	4372
867.357	7819
867.442	8262
867.528	2644
867.614	2184
867.699	1767
867.785	2923
867.870	4166
867.956	4176
868.041	4156
868.127	5255
868.212	5630
868.297	4022
868.383	2362
868.468	4497
868.553	6437
868.639	6963
868.724	13990
868.809	10454
868.894	3149
868.979	2069
869.065	2622
869.150	2283
869.235	1810
869.320	1115
869.405	1239
869.490	1047
869.575	1284
869.660	881
869.745	1671
869.830	1285
869.915	634
870.000	1115
870.085	1501
870.169	2522
870.254	2106
870.339	735
870.424	840
870.509	2025
870.593	1786
870.678	1073
870.763	1827
870.847	1451
870.932	1299
871.016	1370
871.101	974
871.186	931
871.270	977
871.355	707
871.439	1010
871.523	1496
871.608	1385
871.692	1417
871.777	1856
871.861	1034
871.945	1393
872.030	1346
872.114	1698
872.198	640
872.282	585
872.367	1063
872.451	954
872.535	867
872.619	631
872.703	553
872.787	1243
872.871	1667
872.955	440
873.039	680
873.123	1220
873.207	1997
873.291	1882
873.375	1723
873.459	1641
873.543	1183
873.627	1225
873.711	575
873.794	753
873.878	372
873.962	615
874.045	979
874.129	274
874.137	317
874.213	745
874.245	713
874.296	662
874.352	745
874.380	785
874.460	-251
874.464	-293
874.547	979
874.568	1058
874.631	1298
874.676	1246
874.714	1189
874.784	1208
874.798	1216
874.881	1839
874.892	1639
874.965	273
874.999	680
875.048	1200
875.107	846
875.131	721
875.215	1657
875.215	1656
875.298	313
875.323	424
875.381	753
875.430	1142
875.465	1433
875.538	1555
875.548	1554
875.631	1313
875.646	1048
875.714	-234
875.753	-168
875.798	-20
875.861	889
875.881	1136
875.964	1229
875.968	1196
876.047	782
876.076	844
876.130	889
876.183	1002
876.213	1112
876.291	2211
876.296	2278
876.379	1138
876.398	1267
876.462	1798
876.506	2014
876.545	2032
876.613	957
876.628	764
876.711	574
876.721	643
876.794	1192
876.828	952
876.877	619
876.935	859
876.960	959
877.043	938
877.043	937
877.125	607
877.150	600
877.208	663
877.258	1169
877.291	1458
877.365	264
877.374	121
877.456	1014
877.472	984
877.539	1051
877.579	1110
877.622	1062
877.687	1129
877.704	1168
877.787	1131
877.794	1086
877.869	523
877.901	614
877.952	769
878.008	966
878.034	1034
878.115	223
878.117	216
878.199	187
878.222	488
878.282	1045
878.329	870
878.364	713
878.437	859
878.447	879
878.529	713
878.544	680
878.611	724
878.651	818
878.694	898
878.758	914
878.776	923
878.858	1150
878.865	1170
878.941	1112
878.972	1030
879.023	1191
879.078	1158
879.105	1205
879.185	1833
879.187	1835
879.269	1751
879.292	1576
879.351	1215
879.399	905
879.433	761
879.506	1204
879.516	1258
879.598	1012
879.613	920
879.680	807
879.720	1117
879.762	1138
879.827	956
879.844	983
879.926	1319
879.933	1286
880.007	1077
880.040	1105
880.089	1139
880.147	1701
880.171	1935
880.253	3355
880.254	3359
880.335	4215
880.360	4674
880.417	6599
880.467	9047
880.499	10832
880.574	13397
880.580	13164
880.662	4397
880.680	3344
880.744	1954
880.787	1538
880.825	1264
880.893	1047
880.907	1097
880.989	909
881.000	977
881.070	1199
881.106	1047
881.152	950
881.213	1039
881.233	1108
881.315	1327
881.319	1333
881.396	1323
881.426	1288
881.478	1162
881.532	1139
881.559	1280
881.639	1257
881.641	1245
881.722	1388
881.745	1302
881.803	1432
881.852	1409
881.885	1358
881.958	1352
881.966	1388
882.047	2780
882.064	2802
882.129	2840
882.171	3355
882.210	4656
882.277	6666
882.291	6458
882.372	3081
882.383	2833
882.454	2055
882.489	1541
882.535	1148
882.596	1163
882.616	1300
882.697	1183
882.702	1182
882.778	1279
882.808	1509
882.859	1484
882.914	1124
882.940	1198
883.020	1164
883.021	1165
883.102	1114
883.127	1210
883.183	1506
883.233	1293
883.264	1094
883.339	1030
883.345	1040
883.426	1364
883.445	1368
883.507	1735
883.551	1930
883.587	1899
883.657	2265
883.668	2348
883.749	2178
883.763	2155
883.830	1583
883.869	1534
883.910	1735
883.975	1664
883.991	1642
884.072	1633
884.081	1599
884.152	1099
884.187	929
884.233	956
884.292	1092
884.314	1116
884.394	1384
884.398	1371
884.475	1287
884.504	1287
884.555	1098
884.610	1260
884.636	1442
884.716	1191
884.716	1195
884.797	1671
884.821	1662
884.877	1453
884.927	1551
884.958	1686
885.033	1567
885.038	1538
885.118	863
885.139	803
885.199	1048
885.244	1171
885.279	1262
885.350	1320
885.359	1350
885.439	1879
885.456	1902
885.520	1477
885.561	1387
885.600	1579
885.667	1670
885.680	1724
885.760	2386
885.773	2429
885.840	2973
885.878	3208
885.920	2836
885.984	2471
886.000	2436
886.080	2205
886.089	2148
886.160	2138
886.195	2286
886.240	2757
886.300	3262
886.320	3114
886.400	2620
886.406	2564
886.480	2814
886.511	2960
886.560	3541
886.616	4168
886.640	3998
886.720	3414
886.722	3391
886.800	2756
886.827	2490
886.879	2402
886.932	2484
886.959	2871
887.038	3897
887.039	3899
887.119	3133
887.143	2952
887.198	2624
887.248	2333
887.278	2518
887.354	2802
887.358	2803
887.437	2787
887.459	2762
887.517	2641
887.564	2509
887.596	2564
887.669	2702
887.676	2706
887.755	2722
887.774	2667
887.835	2483
887.880	2530
887.914	2579
887.985	2372
887.994	2287
888.073	1630
888.090	1490
888.153	2332
888.195	2906
888.232	2928
888.300	2801
888.311	2870
888.391	3416
888.405	3502
888.470	3103
888.510	2865
888.549	2906
888.615	2960
888.628	2851
888.708	2100
888.720	1987
888.787	2763
888.825	3143
888.866	2570
888.930	1745
888.945	1946
889.024	2968
889.035	3097
889.103	2904
889.140	2784
889.182	2774
889.245	2808
889.261	2799
889.340	2650
889.349	2633
889.419	3002
889.454	3172
889.498	2730
889.559	2083
889.577	2238
889.656	2934
889.664	2997
889.735	3242
889.768	3348
889.814	3005
889.873	2532
889.978	2430
890.083	2301
890.187	2346
890.292	2422
890.397	2272
890.501	2934
890.606	2385
890.710	1883
890.815	2591
890.919	2997
891.024	2470
891.128	3211
891.233	2742
891.337	3285
891.442	1796
891.546	2486
891.650	3329
891.755	2926
891.859	4189
891.963	2591
892.068	2109
892.172	2824
892.276	1964
892.380	2634
892.484	2363
892.589	2588
892.693	2224
892.797	2806
892.901	2056
893.005	3219
893.109	3126
893.213	2600
893.317	1970
893.421	2958
893.525	1792
893.629	2807
893.733	3108
893.837	2496
893.941	2425
894.045	2064
894.148	2148
894.252	2584
894.356	2712
894.460	3309
894.564	2984
894.667	2481
894.771	2248
894.875	2888
894.978	2351
895.082	3495
895.186	1923
895.289	2463
895.393	2499
895.496	2364
895.600	2354
895.703	2588
895.807	2367
895.910	2617
896.014	2159
896.117	1930
896.221	2719
896.324	2800
896.427	2791
896.531	2171
896.634	2311
896.737	3055
896.840	1921
896.944	1929
897.047	1954
897.150	3096
897.253	1337
897.356	2823
897.460	3052
897.563	2944
897.666	1657
897.769	2569
897.872	3184
897.975	2207
898.078	2324
898.181	3233
898.284	2006
898.387	3169
898.490	3435
898.593	2877
898.695	2588
898.798	5310
898.901	6748
899.004	3718
899.107	2181
899.209	3020
899.312	1800
899.415	1949
899.518	2385
899.620	2247
899.723	2625
899.826	5003
899.928	7239
900.031	2727
900.133	1765
900.236	2422
900.338	1646
900.441	2551
900.543	1748
900.646	1941
900.748	1983
900.851	2179
900.953	2196
901.055	2107
901.158	2820
901.260	2412
901.362	2782
901.465	2466
901.567	1313
901.669	2636
901.771	2586
901.873	2011
901.976	2177
902.078	2408
902.180	1937
902.282	3734
902.384	3173
902.486	3849
902.588	5244
902.690	9890
902.792	3677
902.894	3369
902.996	1503
903.098	1669
903.200	2050
903.302	2626
903.404	1988
903.505	2136
903.607	1442
903.709	3028
903.811	2648
903.913	1674
904.014	2645
904.116	1518
904.218	1586
904.319	2502
904.421	3181
904.523	3017
904.624	1900
904.726	2098
904.827	2727
904.929	1983
905.030	1693
905.132	2281
905.233	1782
905.335	2486
905.436	1200
905.537	1649
905.639	1854
905.740	1918
905.841	905
905.943	1928
906.044	1987
906.145	2346
906.247	1526
906.348	1748
906.449	1385
906.550	1315
906.651	1304
906.752	1537
906.854	1399
906.955	1579
907.056	1507
907.157	2265
907.258	830
907.359	1356
907.460	650
907.561	1973
907.662	1480
907.762	2225
907.863	1483
907.964	1628
908.065	2313
908.166	1570
908.267	1370
908.367	1491
908.468	1835
908.569	2289
908.670	4606
908.770	6317
908.871	4909
908.971	10188
909.072	10923
909.173	2773
909.273	1177
909.374	1384
909.474	1072
909.575	1593
909.675	496
909.776	1717
909.876	911
909.977	855
910.077	1219
910.177	1260
910.278	1417
910.378	1605
910.478	1113
910.579	2146
910.679	1410
910.779	1807
910.879	1676
910.980	1272
911.080	787
911.180	1144
911.280	1619
911.380	1942
911.480	1298
911.580	2047
911.680	1506
911.780	2358
911.880	2377
911.980	1499
912.080	1123
912.180	2635
912.280	3821
912.380	1881
912.480	1063
912.580	1484
912.679	1800
912.779	2421
912.879	1280
912.979	1464
913.078	1157
913.178	1538
913.278	1337
913.377	2008
913.477	1952
913.577	1245
913.676	1353
913.776	1898
913.875	383
913.975	2388
914.074	557
914.174	601
914.273	1456
914.373	1250
914.472	783
914.572	916
914.671	-125
914.770	1581
914.870	860
914.969	1174
915.068	333
915.167	1458
915.267	1269
915.366	1106
915.465	1444
915.564	1137
915.663	1235
915.763	1494
915.862	1032
915.961	1366
916.060	143
916.159	1643
916.258	446
916.357	712
916.456	1051
916.555	2065
916.654	2947
916.752	4032
916.851	1310
916.950	1526
917.049	1403
917.148	991
917.247	1245
917.345	1426
917.444	998
917.543	955
917.642	367
917.740	754
917.839	746
917.937	1082
918.036	1034
918.135	1289
918.233	874
918.332	863
918.430	853
918.529	251
918.627	671
918.726	1537
918.824	1200
918.923	1925
919.021	2174
919.119	547
919.218	922
919.316	667
919.414	1458
919.512	1627
919.611	-150
919.709	804
919.807	846
919.905	1142
920.003	1284
920.102	957
920.200	803
920.298	1017
920.396	1405
920.494	1647
920.592	-35
920.690	1221
920.788	2129
920.886	886
920.984	2064
921.082	1138
921.180	1838
921.277	1173
921.375	1754
921.473	1509
921.571	578
921.669	1895
921.766	916
921.864	1330
921.962	1380
922.060	1590
922.157	763
922.255	1849
922.352	1686
922.450	2327
922.548	1107
922.645	1840
922.743	1641
922.840	1314
922.938	1979
923.035	2791
923.133	1462
923.230	1273
923.327	771
923.425	2615
923.522	571
923.619	2485
923.717	1334
923.814	1573
923.911	1446
924.008	2400
924.106	1154
924.203	1672
924.300	2038
924.397	1679
924.494	2255
924.591	5926
924.688	3141
924.786	2102
924.883	1989
924.979	2275
925.077	2288
925.173	2432
925.270	1207
925.367	1864
925.464	2177
925.561	2633
925.658	2755
925.755	5788
925.852	3446
925.948	2656
926.045	2842
926.142	3032
926.239	2734
926.335	3286
926.432	2873
926.529	3055
926.625	3328
926.722	2184
926.818	2247
926.915	2275
927.011	1756
927.108	1406
927.204	1323
927.301	1449
927.397	1845
927.494	2372
927.590	542
927.687	1348
927.783	1282
927.879	1027
927.976	1374
928.072	1085
928.168	1755
928.264	1882
928.361	881
928.457	3012
928.553	2200
928.649	2837
928.745	1599
928.841	1911
928.937	513
929.033	1725
929.129	1899
929.225	2461
929.321	1267
929.417	1451
929.513	974
929.609	1485
929.705	330
929.801	1175
929.897	901
929.993	2017
930.089	705
930.184	1031
930.280	1677
930.376	2030
930.471	1663
930.567	1015
930.663	1745
930.758	1386
930.854	1554
930.950	1733
931.045	1241
931.141	1992
931.236	2507
931.332	2484
931.427	915
931.523	2144
931.618	1162
931.714	1100
931.809	686
931.905	1859
932.000	1657
932.095	993
932.191	623
932.286	2184
932.381	1203
932.476	1223
932.572	1333
932.667	1294
932.762	1522
932.857	1621
932.952	1128
933.047	270
933.142	556
933.237	1548
933.332	925
933.427	2443
933.522	524
933.617	1261
933.712	703
933.807	1629
933.902	815
933.997	2031
934.092	1084
934.187	791
934.282	473
934.376	1599
934.471	535
934.566	998
934.661	634
934.755	1055
934.850	802
934.945	2386
935.039	1013
935.134	2232
935.228	1370
935.323	1006
935.417	918
935.512	1555
935.606	325
935.701	1232
935.795	779
935.890	407
935.984	1741
936.079	1328
936.173	1272
936.267	1818
936.362	1017
936.456	909
936.550	1135
936.644	1973
936.738	784
936.833	1152
936.927	1049
937.021	1566
937.115	785
937.209	776
937.303	1567
937.397	1473
937.491	1291
937.585	1427
937.679	1310
937.773	1562
937.867	853
937.961	1348
938.055	894
938.149	1957
938.243	1314
938.337	677
938.430	1056
938.524	2975
938.618	2478
938.712	2390
938.805	2070
938.899	541
938.993	2115
939.086	2770
939.180	3138
939.274	3403
939.367	1142
939.461	1812
939.554	1634
939.648	830
939.741	1784
939.835	1689
939.928	1057
940.022	1402
940.115	1119
940.208	1526
940.302	583
940.395	1633
940.488	494
940.582	1663
940.675	532
940.768	1458
940.861	802
940.954	2161
941.048	1374
941.141	1776
941.234	1442
941.327	2930
941.420	2561
941.513	1632
941.606	1092
941.699	1582
941.792	891
941.885	585
941.978	1204
942.071	1310
942.164	495
942.257	889
942.349	892
942.442	1772
942.535	165
942.628	1294
942.721	1148
942.813	450
942.906	1354
942.999	1909
943.091	935
943.184	2336
943.277	558
943.369	1116
943.462	96
943.554	662
943.647	517
943.739	1175
943.832	1046
943.924	-95
944.017	623
944.109	629
944.201	595
944.294	2287
944.386	1241
944.478	1235
944.571	-313
944.663	894
944.755	177
944.847	1367
944.940	-91
945.032	-163
945.124	134
945.216	2204
945.308	452
945.400	1439
945.492	697
945.584	1238
945.676	-112
945.768	965
945.860	815
945.952	1222
946.044	551
946.136	659
946.228	913
946.320	642
946.412	609
946.503	1074
946.595	1617
946.687	769
946.779	159
946.870	1240
946.962	778
947.054	1044
947.145	644
947.237	897
947.329	1114
947.420	649
947.512	84
947.603	-532
947.695	690
947.786	804
947.878	-450
947.969	778
948.061	-303
948.152	174
948.243	900
948.335	1263
948.426	1441
948.517	1259
948.609	228
948.700	1356
948.791	852
948.882	1353
948.973	358
949.065	951
949.156	159
949.247	693
949.338	493
949.429	-501
949.520	274
949.611	-472
949.702	752
949.793	1110
949.884	295
949.975	1050
950.066	496
950.157	998
950.247	1339
950.338	1188
950.429	876
950.520	4199
950.611	5038
950.701	3025
950.792	4344
950.883	4479
950.973	2067
951.064	4317
951.155	3809
951.245	2205
951.336	353
951.427	806
951.517	1010
951.608	1179
951.698	362
951.788	1474
951.879	376
951.969	228
952.060	279
952.150	-139
952.240	1184
952.331	-344
952.421	1643
952.511	404
952.602	135
952.692	287
952.782	548
952.872	899
952.962	337
953.052	479
953.143	-161
953.233	1088
953.323	371
953.413	-147
953.503	98
953.593	712
953.683	-205
953.773	488
953.863	320
953.953	368
954.042	148
954.132	651
954.222	1665
954.312	1827
954.402	3469
954.492	9640
954.581	20600
954.671	7158
954.761	193
954.850	2072
954.940	285
955.030	1549
955.119	-199
955.209	363
955.298	93
955.388	896
955.477	1285
955.567	-107
955.656	69
955.746	1396
955.835	-501
955.925	375
956.014	39
956.103	-17
956.193	-56
956.282	321
956.371	241
956.461	1077
956.550	-598
956.639	1829
956.728	-864
956.817	530
956.906	206
956.995	1420
957.085	-374
957.174	184
957.263	-509
957.352	365
957.441	-503
957.530	-694
957.619	984
957.708	-267
957.796	-561
957.885	418
957.974	-778
958.063	980
958.152	-1304
958.241	458
958.329	-319
958.418	835
958.507	-754
958.596	1016
958.684	-356
958.773	748
958.861	836
958.950	930
959.039	653
959.127	0
959.216	48
959.304	1263
959.393	236
959.481	877
959.570	1098
959.658	1946
959.746	3688
959.835	12720
959.923	27128
960.011	10311
960.100	1305
960.188	1332
960.276	-266
960.365	289
960.453	711
960.541	-545
960.629	662
960.717	46
960.805	-843
960.893	-532
960.981	-442
961.069	334
961.158	-417
961.245	1392
961.333	-11
961.421	-165
961.509	-104
961.597	752
961.685	60
961.773	688
961.861	-405
961.949	1001
962.036	-1090
962.124	918
962.212	-214
962.299	360
962.387	-558
962.475	525
962.562	-526
962.650	853
962.738	55
962.825	-704
962.913	381
963.000	547
963.088	544
963.175	1170
963.263	2032
963.350	2842
963.438	4845
963.525	8385
963.612	18520
963.700	48644
963.787	100408
963.874	42455
963.962	4099
964.049	2513
964.136	860
964.223	1056
964.310	1133
964.398	1711
964.485	2581
964.572	7767
964.659	20171
964.746	18446
964.833	1251
964.920	690
965.007	347
965.094	649
965.181	1376
965.268	1090
965.355	202
965.441	-241
965.528	-1321
965.615	425
965.702	-762
965.789	-133
965.875	154
965.962	719
966.049	958
966.136	2041
966.222	709
966.309	985
966.395	-54
966.482	-28
966.569	-471
966.655	1107
966.742	37
966.828	545
966.915	122
967.001	1150
967.087	881
967.174	4087
967.260	6474
967.347	15201
967.433	38974
967.519	73199
967.605	23622
967.692	2156
967.778	418
967.864	729
967.950	-570
968.036	-29
968.123	681
968.209	-77
968.295	-1180
968.381	2059
968.467	835
968.553	-69
968.639	2512
968.725	5090
968.811	13602
968.897	11787
968.983	1273
969.069	-291
969.154	119
969.240	960
969.326	254
969.412	-681
969.497	-450
969.583	-724
969.669	-86
969.755	1101
969.840	589
969.926	515
970.012	99
970.097	2041
970.183	2898
970.268	4658
970.354	10855
970.439	26461
970.525	49870
970.610	16279
970.696	2312
970.781	575
970.866	-796
970.952	951
971.037	-441
971.122	43
971.208	114
971.293	56
971.378	-1063
971.463	754
971.549	1576
971.634	2021
971.719	2830
971.804	7507
971.889	8519
971.974	1478
972.059	-94
972.144	431
972.229	-119
972.314	-207
972.399	497
972.484	2218
972.569	3544
972.654	8241
972.739	24716
972.824	29499
972.908	5529
972.993	399
973.078	742
973.163	-117
973.247	389
973.332	-694
973.417	495
973.501	88
973.586	-169
973.671	317
973.755	1265
973.840	2452
973.924	1960
974.009	2394
974.093	3094
974.178	9023
974.262	20477
974.346	22751
974.431	4242
974.515	722
974.600	1431
974.684	2045
974.768	387
974.852	1123
974.937	-896
975.021	316
975.105	-1063
975.189	-332
975.273	-657
975.358	-915
975.442	-1570
975.526	480
975.610	-940
975.694	-1095
975.778	124
975.862	-461
975.946	-2563
976.030	1199
976.114	-144
976.198	203
976.281	166
976.365	665
976.449	-561
976.533	685
976.617	-204
976.700	910
976.784	2018
976.868	5399
976.951	12961
977.035	8266
977.119	1146
977.202	-192
977.286	-515
977.369	-9
977.453	6
977.536	-401
977.620	-407
977.703	849
977.787	-225
977.870	899
977.953	2482
978.037	2366
978.120	8246
978.203	17201
978.287	30915
978.370	13769
978.453	1736
978.536	4035
978.620	9118
978.703	17737
978.786	8190
978.869	204
978.952	-1726
979.035	1013
979.118	-568
979.201	-961
979.284	549
979.367	-420
979.450	-441
979.533	-61
979.616	-127
979.699	52
979.782	490
979.865	543
979.948	62
980.030	-85
980.113	-500
980.196	-737
980.279	-542
980.361	-938
980.444	-790
980.526	375
980.609	-1154
980.692	-616
980.774	-98
980.857	-1305
980.939	123
981.022	-337
981.104	-1263
981.187	-1136
981.269	-27
981.352	42
981.434	-1428
981.516	-1069
981.599	484
981.681	58
981.763	-1107
981.846	511
981.928	-868
982.010	-1833
982.092	-914
982.174	754
982.256	-916
982.339	-501
982.421	-33
982.503	162
982.585	-1494
982.667	-417
982.749	-176
982.831	305
982.913	-805
982.995	2511
983.077	1967
983.158	4911
983.240	801
983.322	184
983.404	-427
983.486	-408
983.568	-591
983.649	-493
983.731	-155
983.813	-362
983.894	-678
983.976	-790
984.058	-326
984.139	503
984.221	-1024
984.302	708
984.384	426
984.465	-886
984.547	-927
984.628	-801
984.710	-349
984.791	95
984.872	-691
984.954	-1032
985.035	-519
985.116	-1351
985.198	-1539
985.279	-3
985.360	-1022
985.441	-1024
985.522	172
985.604	-837
985.685	-2390
985.766	515
985.847	735
985.928	-733
986.009	-1073
986.090	-624
986.171	-80
986.252	-754
986.333	-558
986.414	-955
986.495	-346
986.576	-546
986.656	-871
986.737	-237
986.818	-1393
986.899	-1250
986.980	-448
987.060	240
987.141	-1320
987.222	-517
987.302	-356
987.383	-689
987.464	-961
987.544	59
987.625	-699
987.705	217
987.786	-1055
987.866	307
987.947	-258
988.027	-715
988.108	-817
988.188	297
988.268	-537
988.349	110
988.429	-953
988.509	57
988.589	-810
988.670	-2271
988.750	888
988.830	179
988.910	-179
988.990	-287
989.070	-719
989.151	-685
989.231	-1643
989.311	-527
989.391	-1271
989.471	-364
989.551	-1149
989.631	-482
989.711	108
989.791	-1210
989.870	-1055
989.950	511
990.030	-1495
990.110	-1137
990.190	-1215
990.269	-442
990.349	-1453
990.429	-726
990.509	-480
990.588	-1089
990.668	-1877
990.747	-455
990.827	-2069
990.907	-782
990.986	-1193
991.066	86
991.145	-267
991.225	5
991.304	-1161
991.383	-453
991.463	-527
991.542	417
991.622	-1236
991.701	-713
991.780	-1588
991.859	-744
991.939	-505
992.018	37
992.097	-37
992.176	-799
992.256	-1065
992.335	-986
992.414	-164
992.493	221
992.572	-117
992.651	3219
992.730	169
992.809	99
992.888	-2040
992.967	-828
993.046	-140
993.125	-1500
993.203	-1375
993.282	-448
993.361	-700
993.440	-1200
993.519	-1190
993.597	-182
993.676	-1839
993.755	95
993.834	-1268
993.912	-572
993.991	-293
994.069	-395
994.148	-1152
994.226	-1092
994.305	-970
994.384	-885
994.462	-31
994.540	-1352
994.619	-1994
994.697	-531
994.776	-1172
994.854	458
994.932	-1008
995.011	-204
995.089	-1513
995.167	-739
995.245	-1047
995.324	-1396
995.402	-718
995.480	-1149
995.558	-643
995.636	-1279
995.714	-1561
995.792	-131
995.870	-1837
995.948	-721
996.026	-1172
996.104	-1665
996.182	-442
996.260	190
996.338	-758
996.416	-1112
996.494	-1951
996.572	-752
996.649	-1550
996.727	-1964
996.805	-696
996.883	-1077
996.960	-2118
997.038	-1335
997.116	-802
997.193	-1238
997.271	0
997.348	-1305
997.426	-1179
997.504	-1312
997.581	-1171
997.658	-570
997.736	-2302
997.813	-1998
997.891	-1042
997.968	-970
998.046	-328
998.123	100
998.200	364
998.277	-1420
998.355	-1273
998.432	-1365
998.509	-1299
998.586	-659
998.663	-955
998.741	-1501
998.818	-1712
998.895	-1910
998.972	-428
999.049	-643
999.126	-884
999.203	-820
999.280	-971
999.357	-649
999.434	-1737
999.511	359
999.587	119
999.664	602
999.741	1047
999.818	596
999.895	-1699
999.971	-1502
1000.048	-1248
1000.125	709
1000.202	456
1000.278	244
1000.355	-999
1000.431	-1048
1000.508	-1608
1000.584	-123
1000.661	-1472
1000.738	-2027
1000.814	-535
1000.890	216
1000.967	-1125
1001.043	521
1001.120	-678
1001.196	-486
1001.272	-1469
1001.349	-273
1001.425	-67
1001.501	-279
1001.577	-2084
1001.654	-1147
1001.730	-1949
1001.806	-1254
1001.882	-2147
1001.958	-1302
1002.034	-737
1002.110	-544
1002.186	-1931
1002.262	-1236
1002.338	-1751
1002.414	-589
1002.490	167
1002.566	-44
1002.642	-1287
1002.718	214
1002.794	-199
1002.870	-1315
1002.945	-2401
1003.021	-575
1003.097	-516
1003.173	-612
1003.248	-1962
1003.324	-112
1003.400	173
1003.475	-1286
1003.551	-1239
1003.626	-1523
1003.702	-1582
1003.777	-797
1003.853	-1350
1003.928	-1553
1004.004	-1076
1004.079	172
1004.155	-1518
1004.230	-2747
1004.305	-917
1004.381	-1053
1004.456	-296
1004.531	-950
1004.607	-1380
1004.682	-1072
1004.757	-1000
1004.832	-373
1004.907	-550
1004.982	-304
1005.057	-820
1005.133	-856
1005.208	-744
1005.283	-1690
1005.358	-663
1005.433	-504
1005.508	-592
1005.583	-1017
1005.657	696
1005.732	1906
1005.807	-938
1005.882	77
1005.957	-854
1006.032	-807
1006.106	-1552
1006.181	-1425
1006.256	-1316
1006.331	-1518
1006.405	-1849
1006.480	-633
1006.554	-1255
1006.629	-1108
1006.704	-2060
1006.778	-1080
1006.853	-843
1006.927	-1312
1007.002	-1338
1007.076	52
1007.150	-1041
1007.225	-606
1007.299	-1373
1007.373	-1084
1007.448	-1710
1007.522	87
1007.596	-1525
1007.671	-1305
1007.745	-916
1007.819	-1407
1007.893	-956
1007.967	-618
1008.041	-2907
1008.115	-375
1008.190	-2394
1008.264	-565
1008.338	-2504
1008.412	-927
1008.486	-1240
1008.560	-784
1008.633	-2851
1008.707	-1359
1008.781	-1454
1008.855	-1926
1008.929	-1656
1009.003	-1787
1009.076	-1909
1009.150	-1612
1009.224	-2064
1009.298	-903
1009.371	-1498
1009.445	-566
1009.519	-1158
1009.592	-1734
1009.666	-1665
1009.739	-801
1009.813	-2477
1009.886	-544
1009.960	-2604
1010.033	-1639
1010.107	-1182
1010.180	-2738
1010.253	-2001
1010.327	-1727
1010.400	-1735
1010.473	-1425
1010.547	-312
1010.620	-1657
1010.693	-2168
1010.766	-1326
1010.840	-1742
1010.913	-1564
1010.986	-2721
1011.059	-980
1011.132	-1940
1011.205	-770
1011.278	-1318
1011.351	-2483
1011.424	-1104
1011.497	-1553
1011.570	-2026
1011.643	-790
1011.716	-1597
1011.789	-1854
1011.862	-1945
1011.934	-341
1012.007	-2386
1012.080	-1228
1012.153	-1280
1012.225	-1270
1012.298	-2024
1012.371	-1838
1012.443	-2100
1012.516	-1978
1012.588	-1872
1012.661	-842
1012.733	-1561
1012.806	179
1012.879	-1365
1012.951	-1305
1013.023	-2439
1013.096	-1279
1013.168	-1972
1013.241	-1560
1013.313	-1529
1013.385	-1764
1013.458	-1938
1013.530	-1510
1013.602	-2255
1013.674	-1697
1013.746	-2344
1013.819	-1556
1013.891	-905
1013.963	-1770
1014.035	-1031
1014.107	-1094
1014.179	-949
1014.251	-1394
1014.323	-1710
1014.395	-1279
1014.467	-1232
1014.539	-1494
1014.611	-1749
1014.683	-190
1014.754	-1838
1014.826	-1665
1014.898	-1567
1014.970	-1294
1015.042	-1839
1015.113	-655
1015.185	-998
1015.257	-2355
1015.328	-1463
1015.400	-1373
1015.471	-1983
1015.543	-2866
1015.615	-1250
1015.686	-1037
1015.757	-1762
1015.829	-861
1015.901	-1649
1015.972	-2122
1016.043	-1879
1016.115	-1054
1016.186	-2307
1016.257	-1924
1016.328	-1631
1016.400	-874
1016.471	-1530
1016.542	-1514
1016.613	-1755
1016.685	-1242
1016.756	-1819
1016.827	-1536
1016.898	-1965
1016.969	-745
1017.040	-1661
1017.111	-1311
1017.182	-1944
1017.253	-714
1017.324	-2315
1017.395	-1595
1017.466	-2167
1017.537	-2028
1017.608	-2293
1017.678	-1711
1017.749	-2636
1017.820	-1727
1017.891	-2002
1017.961	-1797
1018.032	-2175
1018.103	-1477
1018.173	-1382
1018.244	-1390
1018.315	-2950
1018.385	-1683
1018.456	-1624
1018.526	-2360
1018.597	-2144
1018.667	-1086
1018.738	-2082
1018.808	-1573
1018.878	-2365
1018.949	-1841
1019.019	-1516
1019.089	-1535
1019.160	-2105
1019.230	-2110
1019.300	-2239
1019.371	-2222
1019.441	-2028
1019.511	-2041
1019.581	-1831
1019.651	-1617
1019.721	-1606
1019.791	-1591
1019.861	-2370
1019.931	-1111
1020.001	-1827
1020.071	-1870
1020.141	-2710
1020.211	-1718
1020.281	-2449
1020.351	-2329
1020.421	-2058
1020.491	-813
1020.560	-2076
1020.630	-974
1020.700	-1959
1020.770	-1580
1020.839	-2147
1020.909	-2205
1020.979	-2689
1021.048	-2150
1021.118	-2732
1021.187	-1019
1021.257	-2404
1021.326	-1512
1021.396	-2738
1021.465	-2083
1021.535	-2017
1021.604	-1962
1021.674	-1978
1021.743	-1385
1021.812	-2494
1021.882	-1175
1021.951	-2367
1022.020	-2324
1022.089	-2094
1022.159	-2758
1022.228	-1645
1022.297	-1922
1022.366	-2446
1022.435	-1798
1022.504	-1928
1022.573	-1115
1022.642	-2512
1022.711	-1990
1022.781	-2153
1022.849	-2406
1022.918	-2888
1022.987	-1375
1023.056	-1968
1023.125	-1794
1023.194	-1910
1023.263	-1182
1023.331	-2207
1023.400	-1555
1023.469	-2513
1023.538	-2232
1023.606	-2108
1023.675	-1989
1023.744	-2106
1023.812	-2118
1023.881	-1901
1023.949	-2111
1024.018	-2121
1024.086	-1619
1024.155	-2265
1024.223	-2124
1024.292	-2201
1024.360	-2084
1024.429	-2769
1024.497	-2084
1024.565	-1973
1024.634	-1786
1024.702	-2030
1024.770	-1430
1024.838	-2126
1024.907	-1573
1024.975	-2598
1025.043	-2215
1025.111	-2750
1025.179	-1672
1025.247	-1841
1025.315	-1380
1025.383	-2645
1025.451	-1423
1025.519	-3062
1025.587	-1594
1025.655	-2033
1025.723	-1905
1025.791	-2507
1025.859	-957
1025.927	-1380
1025.995	-1903
1026.062	-2492
1026.130	-1931
1026.198	-1653
1026.266	-1933
1026.333	-1591
1026.401	-1561
1026.469	-1907
1026.536	-2273
1026.604	-1956
1026.671	-2610
1026.739	-2751
1026.806	-1676
1026.874	-2168
1026.941	-2086
1027.009	-2087
1027.076	-2345
1027.144	-2553
1027.211	-1497
1027.278	-3006
1027.345	-1664
1027.413	-2730
1027.480	-1986
1027.547	-3052
1027.614	-2261
1027.682	-1949
1027.749	-2013
1027.816	-2109
1027.883	-984
1027.950	-1551
1028.017	-2096
1028.084	-1538
1028.151	-2733
1028.218	-3053
1028.285	-2012
1028.352	-2257
1028.419	-2219
1028.486	-2432
1028.553	-2055
1028.619	-2702
1028.686	-2840
1028.753	-2488
1028.820	-2141
1028.886	-2330
1028.953	-1882
1029.020	-1869
1029.086	-2147
1029.153	-3226
1029.220	-2707
1029.286	-1305
1029.353	-1691
1029.419	-1817
1029.486	-2227
1029.552	-2413
1029.619	-2618
1029.685	-2978
1029.751	-2484
1029.818	-2021
1029.884	-1568
1029.951	-1969
1030.017	-2148
1030.083	-2488
1030.149	-1146
1030.216	-2058
1030.282	-2115
1030.348	-2673
1030.414	-1956
1030.480	-2309
1030.546	-1999
1030.612	-2329
1030.678	-2348
1030.744	-3167
1030.810	-1821
1030.876	-1895
1030.942	-1836
1031.008	-2311
1031.074	-1689
1031.140	-2300
1031.206	-1623
1031.272	-2902
1031.337	-2176
1031.403	-1640
1031.469	-2217
1031.534	-2229
1031.600	-1917
1031.666	-3095
1031.731	-2617
1031.797	-1860
1031.863	-1758
1031.928	-2889
1031.994	-2482
1032.059	-2002
1032.125	-2585
1032.190	-1877
1032.256	-1858
1032.321	-2294
1032.386	-1767
1032.452	-2151
1032.517	-1924
1032.582	-3001
1032.647	-2800
1032.713	-2280
1032.778	-1774
1032.843	-2550
1032.908	-1525
1032.974	-2032
1033.039	-2621
1033.104	-2187
1033.169	-2522
1033.234	-2580
1033.299	-1837
1033.364	-1367
1033.429	-856
1033.494	-2137
1033.559	-2212
1033.624	-1938
1033.688	-2212
1033.753	-2938
1033.818	-1972
1033.883	-1730
1033.948	-1182
1034.013	-1789
1034.077	-1009
1034.142	-1271
1034.207	-1233
1034.271	-2075
1034.336	-837
1034.400	-613
1034.465	-1591
1034.530	-1191
1034.594	-1666
1034.658	-1846
1034.723	-1754
1034.787	-1804
1034.852	-1450
1034.916	-2385
1034.981	-2353
1035.045	-1889
1035.109	-2173
1035.173	-2245
1035.238	-2494
1035.302	-2023
1035.366	-1850
1035.430	-1934
1035.495	-2463
1035.559	-1368
1035.623	-1790
1035.687	-2633
1035.751	-2076
1035.815	-2019
1035.879	-2004
1035.943	-2139
1036.007	-2017
1036.071	-1774
1036.135	-2469
1036.198	-2251
1036.262	-2116
1036.326	-2984
1036.390	-2221
1036.454	-1518
1036.517	-1850
1036.581	-1931
1036.645	-879
1036.709	-1739
1036.772	-2121
1036.836	-2321
1036.900	-1800
1036.963	-2021
1037.026	-1932
1037.090	-2869
1037.154	-2560
1037.217	-1822
1037.280	-2093
1037.344	-2652
1037.407	-2172
1037.471	-2315
1037.534	-2556
1037.597	-2247
1037.661	-1840
1037.724	-1990
1037.787	-1950
1037.850	-2489
1037.913	-2146
1037.977	-1907
1038.040	-2271
1038.103	-1512
1038.166	-2540
1038.229	-1971
1038.292	-2503
1038.355	-2563
1038.418	-2559
1038.481	-830
1038.544	-1055
1038.607	-1313
1038.670	-2010
1038.732	-2883
1038.795	-2114
1038.858	-2067
1038.921	-1924
1038.984	-1978
1039.046	-2561
1039.109	-2931
1039.172	-2499
1039.234	-2866
1039.297	-1468
1039.360	-2006
1039.422	-1924
1039.485	-1561
1039.547	-1441
1039.610	-1063
1039.672	-1409
1039.734	-2070
1039.797	-2110
1039.859	-1798
1039.922	-2618
1039.984	-2653
1040.046	-2216
1040.109	-2143
1040.171	-1709
1040.233	-2568
1040.295	-2859
1040.358	-2471
1040.420	-1746
1040.482	-2562
1040.544	-2989
1040.606	-1578
1040.668	-1761
1040.730	-2040
1040.792	-2464
1040.854	-1986
1040.916	-2111
1040.978	-2100
1041.040	-1762
1041.102	-1884
1041.164	-1783
1041.225	-3376
1041.287	-2248
1041.349	-2400
1041.411	-2056
1041.472	-1660
1041.534	-1832
1041.596	-2155
1041.657	-1466
1041.719	-2331
1041.781	-2302
1041.842	-2172
1041.904	-2032
1041.965	-1711
1042.027	-901
1042.088	-1912
1042.150	-1810
1042.211	-1648
1042.272	-1669
1042.334	-2463
1042.395	-2156
1042.456	-2206
1042.518	-2283
1042.579	-2267
1042.640	-3222
1042.701	-2612
1042.763	-2334
1042.824	-2421
1042.885	-1964
1042.946	-3142
1043.007	-2032
1043.068	-2668
1043.129	-2247
1043.190	-2569
1043.251	-1201
1043.312	-2346
1043.373	-1077
1043.434	-1671
1043.495	-2421
1043.556	-1810
1043.616	-759
1043.677	-2072
1043.738	-1948
1043.799	-2238
1043.859	-2286
1043.920	-2388
1043.981	-2188
1044.041	-2448
1044.102	-2543
1044.162	-2188
1044.223	-1734
1044.284	-2627
1044.344	-1879
1044.405	-2497
1044.465	-1401
1044.525	-1842
1044.586	-1595
1044.646	-1526
1044.707	-1170
1044.767	-1717
1044.827	-1657
1044.887	-2250
1044.948	-262
1045.008	-2478
1045.068	-1860
1045.128	-1880
1045.188	-1086
1045.249	-1739
1045.309	-1588
1045.369	-2033
1045.429	-1867
1045.489	-2185
1045.549	-1396
1045.609	-2575
1045.669	-2107
1045.729	-3478
1045.789	-2032
1045.848	-2262
1045.908	-1582
1045.968	-1938
1046.028	-1592
1046.088	-1819
1046.147	-1907
1046.207	-2631
1046.267	-1295
1046.326	-1616
1046.386	-1506
1046.446	-1103
1046.505	-708
1046.565	-766
1046.624	-178
1046.684	-1512
1046.743	-622
1046.803	-980
1046.862	-1105
1046.922	0
