'Start Wavelength	183.907
'End Wavelength	1046.922
'Gate Delay	5.000
'Gate Width (ms)	1.050
'Laser Output Level	0.000
'X Position	0.000
'Y Position	0.000
'Z Position	0.000
'Grid Point Number	1.000
'Shot Number	100.000
183.907	408.000
183.977	-268.000
184.047	2
184.116	205
184.186	322
184.256	305
184.325	538
184.395	-243
184.465	1342
184.534	269
184.604	-204
184.674	311
184.743	-244
184.813	340
184.883	478
184.952	-200
185.022	828
185.092	143
185.161	297
185.231	81
185.301	444
185.370	315
185.440	-414
185.509	98
185.579	-253
185.649	526
185.718	680
185.788	210
185.857	-435
185.927	544
185.996	13
186.066	646
186.136	73
186.205	-218
186.275	487
186.344	289
186.414	309
186.483	-151
186.553	320
186.622	624
186.692	687
186.761	-280
186.831	541
186.900	497
186.970	1135
187.039	493
187.109	1148
187.178	193
187.248	138
187.317	728
187.387	263
187.456	721
187.526	149
187.595	470
187.664	-57
187.734	884
187.803	613
187.873	561
187.942	1101
188.012	471
188.081	-623
188.150	270
188.220	354
188.289	959
188.358	547
188.428	799
188.497	-1015
188.567	489
188.636	453
188.705	7
188.775	387
188.844	203
188.913	318
188.983	212
189.052	223
189.121	660
189.191	-406
189.260	922
189.329	277
189.399	219
189.468	419
189.537	163
189.606	590
189.676	326
189.745	839
189.814	455
189.883	-5
189.953	162
190.022	156
190.091	-9
190.161	1744
190.230	743
190.299	726
190.368	359
190.437	-187
190.507	802
190.576	444
190.645	-135
190.714	8
190.783	484
190.853	749
190.922	970
190.991	547
191.060	-115
191.129	-575
191.198	714
191.268	456
191.337	-758
191.406	437
191.475	34
191.544	159
191.613	403
191.682	90
191.752	266
191.821	379
191.890	306
191.959	438
192.028	225
192.097	723
192.166	85
192.235	154
192.304	699
192.373	550
192.442	101
192.511	563
192.580	7
192.650	897
192.719	214
192.788	-25
192.857	748
192.926	417
192.995	335
193.064	723
193.133	1291
193.202	918
193.271	1272
193.340	536
193.409	1231
193.478	1476
193.547	827
193.615	1645
193.684	2230
193.753	657
193.822	1027
193.891	219
193.960	1168
194.029	-264
194.098	94
194.167	160
194.236	604
194.305	676
194.374	-464
194.443	43
194.512	447
194.580	169
194.649	841
194.718	207
194.787	-190
194.856	333
194.925	814
194.994	496
195.062	-46
195.131	1540
195.200	419
195.269	1738
195.338	1125
195.407	359
195.475	250
195.544	1261
195.613	526
195.682	1150
195.751	513
195.819	768
195.888	583
195.957	1281
196.026	666
196.094	1079
196.163	277
196.232	562
196.301	-340
196.369	492
196.438	-88
196.507	328
196.576	-164
196.644	182
196.713	112
196.782	-32
196.850	590
196.919	618
196.988	423
197.056	516
197.125	688
197.194	210
197.262	199
197.331	-230
197.400	798
197.468	394
197.537	109
197.606	612
197.674	601
197.743	1334
197.812	778
197.880	1481
197.949	845
198.017	1018
198.086	1163
198.155	550
198.223	887
198.292	1400
198.360	895
198.429	522
198.497	304
198.566	868
198.635	901
198.703	697
198.772	586
198.840	888
198.909	1073
198.977	337
199.046	232
199.114	156
199.183	268
199.251	483
199.320	501
199.388	426
199.457	-214
199.525	628
199.594	161
199.662	317
199.731	350
199.799	819
199.867	1436
199.936	-447
200.004	1031
200.073	1177
200.141	322
200.210	877
200.278	361
200.346	639
200.415	133
200.483	219
200.552	1069
200.620	473
200.688	856
200.757	121
200.825	736
200.893	746
200.962	104
201.030	429
201.098	842
201.167	845
201.235	605
201.303	258
201.372	442
201.440	-301
201.508	723
201.577	885
201.645	270
201.713	102
201.781	197
201.850	1281
201.918	397
201.986	1220
202.055	997
202.123	260
202.191	878
202.259	1182
202.327	1064
202.396	578
202.464	1606
202.532	307
202.600	1959
202.669	893
202.737	105
202.805	92
202.873	1028
202.941	1224
203.009	716
203.078	261
203.146	1236
203.214	379
203.282	853
203.350	777
203.418	516
203.487	161
203.555	677
203.623	753
203.691	1357
203.759	887
203.827	521
203.895	1380
203.963	137
204.031	379
204.099	450
204.168	241
204.236	1835
204.304	741
204.372	846
204.440	225
204.508	397
204.576	-335
204.644	987
204.712	619
204.780	593
204.848	451
204.916	994
204.984	624
205.052	859
205.120	885
205.188	809
205.256	-74
205.324	719
205.392	803
205.460	1055
205.528	222
205.596	1073
205.664	202
205.732	1037
205.799	1787
205.867	2796
205.935	686
206.003	1823
206.071	-281
206.139	787
206.207	856
206.275	121
206.343	604
206.411	702
206.478	1447
206.546	1741
206.614	1047
206.682	736
206.750	263
206.818	953
206.885	986
206.953	-742
207.021	723
207.089	1231
207.157	309
207.225	108
207.292	774
207.360	781
207.428	649
207.496	723
207.563	917
207.631	916
207.699	585
207.767	813
207.834	627
207.902	-13
207.970	792
208.038	452
208.105	745
208.173	1220
208.241	960
208.309	1081
208.376	1234
208.444	1342
208.512	1344
208.579	334
208.647	607
208.715	1836
208.782	349
208.850	1499
208.918	635
208.985	974
209.053	818
209.120	1258
209.188	190
209.256	933
209.323	697
209.391	1447
209.459	2083
209.526	1018
209.594	418
209.661	811
209.729	1076
209.796	1465
209.864	1372
209.932	53
209.999	1579
210.067	857
210.134	1529
210.202	1007
210.269	1979
210.337	1009
210.404	1001
210.472	1974
210.539	1543
210.607	672
210.674	2434
210.742	1340
210.809	1397
210.877	1526
210.944	1692
211.012	1152
211.079	2231
211.146	343
211.214	798
211.281	1510
211.349	1151
211.416	492
211.484	1390
211.551	906
211.618	918
211.686	1409
211.753	586
211.821	1661
211.888	212
211.955	1576
212.023	762
212.090	558
212.157	938
212.225	1152
212.292	2229
212.359	3067
212.427	7038
212.494	3354
212.561	1789
212.629	1328
212.696	814
212.763	1340
212.831	1032
212.898	1009
212.965	972
213.032	1936
213.100	1624
213.167	1408
213.234	1846
213.301	1192
213.369	1191
213.436	311
213.503	1243
213.570	757
213.638	1262
213.705	597
213.772	663
213.839	1170
213.906	1698
213.973	1442
214.041	284
214.108	1011
214.175	914
214.242	828
214.309	954
214.376	1682
214.444	1274
214.511	1765
214.578	1309
214.645	1729
214.712	1730
214.779	871
214.846	1157
214.913	2168
214.980	1405
215.048	1921
215.115	3095
215.182	2229
215.249	1602
215.316	1145
215.383	2157
215.450	1318
215.517	1058
215.584	1370
215.651	1316
215.718	515
215.785	1933
215.852	739
215.919	2502
215.986	1528
216.053	713
216.120	944
216.187	1235
216.254	1727
216.321	1006
216.388	1499
216.455	1674
216.522	1269
216.589	1753
216.656	2265
216.722	3185
216.789	2195
216.856	2156
216.923	1917
216.990	1991
217.057	1610
217.124	2136
217.191	1972
217.258	3263
217.324	3420
217.391	4193
217.458	2692
217.525	2688
217.592	1621
217.659	1193
217.725	2599
217.792	1384
217.859	2003
217.926	449
217.993	440
218.059	1856
218.126	952
218.193	574
218.260	355
218.327	455
218.393	891
218.460	504
218.527	525
218.594	775
218.660	1888
218.727	1969
218.794	581
218.860	1461
218.927	1068
218.994	-226
219.061	409
219.127	691
219.194	1566
219.261	1787
219.327	657
219.394	620
219.461	309
219.527	567
219.594	2004
219.661	1246
219.727	-278
219.794	1207
219.860	1006
219.927	1081
219.994	1037
220.060	3500
220.127	2277
220.193	1812
220.260	1745
220.326	2035
220.393	3986
220.460	5849
220.526	3275
220.593	2675
220.659	2621
220.726	1890
220.792	4257
220.859	5150
220.925	7189
220.992	9722
221.058	8353
221.125	6811
221.191	5062
221.258	1935
221.324	1495
221.391	1599
221.457	1445
221.524	1444
221.590	1459
221.657	5471
221.723	3310
221.789	2582
221.856	3467
221.922	1690
221.989	2253
222.055	567
222.121	347
222.188	2171
222.254	1417
222.321	1095
222.387	546
222.453	1391
222.520	418
222.586	728
222.652	685
222.719	28
222.785	381
222.851	573
222.918	817
222.984	1845
223.050	695
223.116	-126
223.183	1539
223.249	-9
223.315	121
223.382	550
223.448	650
223.514	334
223.580	360
223.647	742
223.713	-195
223.779	1414
223.845	208
223.911	1128
223.978	316
224.044	828
224.110	927
224.176	1012
224.242	610
224.309	-1010
224.375	978
224.441	90
224.507	951
224.573	-435
224.639	1149
224.705	-130
224.772	522
224.838	-509
224.904	1016
224.970	713
225.036	769
225.102	746
225.168	1334
225.234	1084
225.300	477
225.366	637
225.432	1357
225.499	452
225.565	548
225.631	826
225.697	761
225.763	747
225.829	1609
225.895	1080
225.961	1698
226.027	1981
226.093	558
226.159	2893
226.225	3188
226.291	8144
226.357	14873
226.423	8113
226.489	3813
226.554	2756
226.620	2764
226.686	2921
226.752	4886
226.818	8261
226.884	18324
226.950	16237
227.016	5796
227.082	3067
227.148	2610
227.214	2551
227.279	2964
227.345	1831
227.411	1840
227.477	1974
227.543	4813
227.609	4677
227.674	3338
227.740	1400
227.806	1877
227.872	455
227.938	1358
228.003	3335
228.069	436
228.135	862
228.201	1019
228.267	801
228.332	644
228.398	1271
228.464	1146
228.530	755
228.595	660
228.661	-3
228.727	1682
228.792	2395
228.858	1116
228.924	186
228.990	2057
229.055	223
229.121	1699
229.187	711
229.252	1181
229.318	317
229.384	2067
229.449	1056
229.515	-584
229.581	-308
229.646	1855
229.712	497
229.777	2141
229.843	2060
229.909	1852
229.974	2267
230.040	2208
230.105	1001
230.171	512
230.236	2589
230.302	2940
230.368	2382
230.433	429
230.499	1539
230.564	2476
230.630	608
230.695	981
230.761	1790
230.826	-829
230.892	3001
230.957	940
231.023	289
231.088	942
231.154	253
231.219	1048
231.284	1509
231.350	2572
231.415	-132
231.481	679
231.546	521
231.612	894
231.677	649
231.742	-38
231.808	2052
231.873	939
231.939	-843
232.004	2149
232.069	2519
232.135	-203
232.200	658
232.265	1318
232.331	772
232.396	21
232.461	-178
232.527	300
232.592	1
232.657	698
232.723	971
232.788	880
232.853	1618
232.918	323
232.984	507
233.049	257
233.114	334
233.179	1138
233.245	2196
233.310	1495
233.375	-129
233.440	1138
233.506	224
233.571	57
233.636	341
233.701	-24
233.766	1199
233.832	2366
233.897	866
233.962	-413
234.027	1752
234.092	1425
234.157	745
234.222	692
234.288	1282
234.353	3527
234.418	4309
234.483	2140
234.548	1935
234.613	1724
234.678	1209
234.743	198
234.808	4803
234.873	2537
234.938	2147
235.004	1093
235.069	929
235.134	699
235.199	1136
235.264	772
235.329	-252
235.394	1563
235.459	2108
235.524	760
235.589	1346
235.654	861
235.719	-139
235.784	1877
235.849	869
235.913	2159
235.978	2422
236.043	3388
236.108	551
236.173	978
236.238	2103
236.303	925
236.368	597
236.433	2999
236.498	2816
236.563	2747
236.627	5137
236.692	21176
236.757	19017
236.822	7428
236.887	3868
236.952	4541
237.017	1577
237.081	4142
237.146	3829
237.211	9948
237.276	21234
237.341	34419
237.405	16753
237.470	6886
237.535	3700
237.600	2125
237.664	1897
237.729	869
237.794	2125
237.859	6633
237.923	3669
237.988	2399
238.053	3586
238.118	2091
238.182	5586
238.247	6882
238.312	2144
238.376	1781
238.441	1
238.506	2339
238.570	940
238.635	1676
238.700	-94
238.764	-87
238.829	2261
238.893	2253
238.958	2679
239.023	1525
239.087	1081
239.152	878
239.216	194
239.281	1477
239.346	946
239.410	685
239.475	559
239.539	5971
239.604	3569
239.668	2419
239.733	897
239.797	2346
239.862	7345
239.926	6618
239.991	3131
240.055	1494
240.120	491
240.184	626
240.249	433
240.313	924
240.378	684
240.442	3289
240.507	5298
240.571	1684
240.635	2781
240.700	3329
240.764	800
240.829	970
240.893	-520
240.957	1606
241.022	3052
241.086	6033
241.151	1680
241.215	-258
241.279	2458
241.344	2008
241.408	1723
241.472	662
241.537	2493
241.601	1828
241.665	239
241.730	-154
241.794	1932
241.858	1467
241.922	570
241.987	1359
242.051	504
242.115	70
242.179	2074
242.244	508
242.308	1311
242.372	1613
242.436	594
242.501	638
242.565	202
242.629	147
242.693	1651
242.757	377
242.822	1257
242.886	1209
242.950	1873
243.014	480
243.078	1563
243.142	1850
243.206	432
243.271	1481
243.335	1504
243.399	2616
243.463	7569
243.527	25057
243.591	8283
243.655	2467
243.719	761
243.783	2380
243.847	2936
243.911	4504
243.975	5291
244.040	3020
244.104	4119
244.168	1054
244.232	2758
244.296	4285
244.360	3726
244.424	2056
244.488	1106
244.552	748
244.615	78
244.679	1715
244.743	1342
244.807	1113
244.871	1586
244.935	1626
244.999	-135
245.063	941
245.127	2112
245.191	3512
245.255	2607
245.319	2346
245.383	79
245.446	2961
245.510	419
245.574	1270
245.638	1534
245.702	179
245.766	5560
245.829	3341
245.893	1171
245.957	1457
246.021	2312
246.085	1376
246.149	2144
246.212	6162
246.276	8527
246.340	3715
246.404	3206
246.467	3342
246.531	3192
246.595	2730
246.659	2760
246.722	371
246.786	3551
246.850	2943
246.913	3983
246.977	1640
247.041	1883
247.104	1977
247.168	2732
247.232	4558
247.295	12070
247.359	6376
247.423	2265
247.486	5086
247.550	3917
247.614	2155
247.677	3383
247.741	1820
247.804	1660
247.868	2132
247.932	3993
247.995	12383
248.059	3484
248.122	964
248.186	3657
248.249	4362
248.313	18312
248.376	20384
248.440	12938
248.503	4209
248.567	4566
248.630	4640
248.694	8165
248.757	9525
248.821	21287
248.884	13797
248.948	9371
249.011	15261
249.075	23331
249.138	21010
249.202	7643
249.265	3872
249.328	4747
249.392	3488
249.455	4184
249.519	2858
249.582	3892
249.645	7283
249.709	4414
249.772	2624
249.835	2602
249.899	3090
249.962	2126
250.025	1953
250.089	5998
250.152	10612
250.215	5075
250.279	2709
250.342	3330
250.405	3313
250.468	3154
250.532	4528
250.595	7060
250.658	21614
250.721	39155
250.785	14216
250.848	8344
250.911	2688
250.974	3678
251.038	4354
251.101	12198
251.164	5799
251.227	5987
251.290	5353
251.354	9266
251.417	30762
251.480	33064
251.543	21371
251.606	55752
251.669	44644
251.732	18180
251.795	15829
251.859	16569
251.922	36165
251.985	23029
252.048	9313
252.111	6951
252.174	4937
252.237	10412
252.300	23620
252.363	23516
252.426	48381
252.489	22004
252.552	12124
252.615	6873
252.678	7122
252.741	16751
252.804	21624
252.867	48625
252.930	30742
252.993	16964
253.056	10367
253.119	7685
253.182	4936
253.245	8183
253.308	7160
253.371	5566
253.434	5525
253.497	5810
253.559	11633
253.622	7769
253.685	8676
253.748	8939
253.811	4322
253.874	5536
253.937	4557
254.000	4566
254.062	6905
254.125	12097
254.188	12002
254.251	10387
254.314	4268
254.376	7614
254.439	9885
254.502	7455
254.565	7129
254.628	14326
254.690	7944
254.753	4154
254.816	3481
254.878	4012
254.941	8374
255.004	8330
255.067	3657
255.129	3242
255.192	3544
255.255	1142
255.317	2635
255.380	2438
255.443	1306
255.505	2170
255.568	1153
255.631	1226
255.693	2472
255.756	1118
255.819	1857
255.881	671
255.944	1784
256.006	1583
256.069	1174
256.132	625
256.194	1812
256.257	4676
256.319	4241
256.382	3041
256.444	2648
256.507	2146
256.569	1373
256.632	1233
256.694	2498
256.757	10374
256.819	35541
256.882	14353
256.944	4946
257.007	4012
257.069	3181
257.132	2441
257.194	2748
257.257	2589
257.319	1255
257.381	2420
257.444	7712
257.506	37745
257.569	45748
257.631	20706
257.693	10557
257.756	4665
257.818	2715
257.880	2335
257.943	3471
258.005	1605
258.067	2277
258.130	2055
258.192	2193
258.254	4455
258.317	2857
258.379	2585
258.441	6473
258.503	6331
258.566	5485
258.628	8822
258.690	2165
258.753	2180
258.815	5646
258.877	2298
258.939	2219
259.001	2020
259.064	1501
259.126	1741
259.188	2150
259.250	1970
259.312	2705
259.375	8062
259.437	5367
259.499	1616
259.561	1603
259.623	2430
259.685	2439
259.747	2622
259.809	5469
259.872	11140
259.934	17129
259.996	20123
260.058	7685
260.120	1709
260.182	1297
260.244	1333
260.306	1206
260.368	2110
260.430	1270
260.492	5978
260.554	12037
260.616	6363
260.678	10267
260.740	13190
260.802	3924
260.864	3277
260.926	1420
260.988	2779
261.050	2302
261.112	8237
261.174	19294
261.236	11077
261.298	3468
261.359	5198
261.421	7600
261.483	1326
261.545	2617
261.607	-114
261.669	896
261.731	3293
261.793	8460
261.854	4010
261.916	3244
261.978	2521
262.040	3746
262.102	2713
262.164	2650
262.225	2178
262.287	1845
262.349	5779
262.411	5438
262.472	2441
262.534	2320
262.596	6541
262.658	2154
262.719	816
262.781	2706
262.843	5970
262.904	3764
262.966	3084
263.028	2205
263.090	12800
263.151	37999
263.213	16370
263.275	9602
263.336	3569
263.398	3015
263.459	1067
263.521	1996
263.583	5840
263.644	4425
263.706	1477
263.767	43
263.829	1756
263.891	1246
263.952	503
264.014	1664
264.075	4284
264.137	12780
264.198	5202
264.260	1505
264.321	2118
264.383	5344
264.444	17858
264.506	6302
264.567	2395
264.629	6211
264.690	14094
264.752	6082
264.813	2655
264.875	736
264.936	2771
264.998	1853
265.059	1285
265.120	2022
265.182	1875
265.243	17866
265.305	19000
265.366	4581
265.427	2954
265.489	2410
265.550	1052
265.611	2098
265.673	2184
265.734	2053
265.795	1023
265.857	455
265.918	599
265.979	3258
266.040	29566
266.102	25176
266.163	7344
266.224	5577
266.286	2169
266.347	249
266.408	1631
266.469	1948
266.530	348
266.592	440
266.653	2744
266.714	5609
266.775	2632
266.836	1161
266.898	485
266.959	3107
267.020	3008
267.081	1656
267.142	247
267.203	1642
267.264	140
267.326	1548
267.387	709
267.448	396
267.509	1160
267.570	362
267.631	1109
267.692	-358
267.753	698
267.814	246
267.875	3241
267.936	7414
267.997	5296
268.058	3524
268.119	820
268.180	608
268.241	132
268.302	1382
268.363	413
268.424	1336
268.485	1806
268.546	417
268.607	500
268.668	240
268.729	465
268.790	147
268.851	1554
268.912	5760
268.972	6481
269.033	3175
269.094	774
269.155	714
269.216	127
269.277	511
269.338	1628
269.398	902
269.459	808
269.520	1953
269.581	2704
269.642	4175
269.702	2821
269.763	1669
269.824	874
269.885	1867
269.945	3724
270.006	1319
270.067	370
270.128	902
270.188	-626
270.249	610
270.310	210
270.370	1162
270.431	318
270.492	284
270.553	668
270.613	3126
270.674	7542
270.734	3070
270.795	1749
270.856	2306
270.916	2114
270.977	1148
271.038	1744
271.098	1548
271.159	3015
271.219	4185
271.280	985
271.340	1080
271.401	1585
271.462	3395
271.522	1747
271.583	1493
271.643	1628
271.704	437
271.764	2618
271.825	4503
271.885	18304
271.946	24509
272.006	7942
272.066	10291
272.127	18677
272.187	6127
272.248	2900
272.308	2434
272.369	12054
272.429	7429
272.489	6017
272.550	6636
272.610	5869
272.671	3966
272.731	3444
272.791	6065
272.852	3131
272.912	3389
272.972	1923
273.033	1143
273.093	2341
273.153	4264
273.214	2281
273.274	2392
273.334	12491
273.394	22102
273.455	7986
273.515	6430
273.575	19587
273.635	7046
273.696	8307
273.756	17252
273.816	6677
273.876	3047
273.936	6754
273.997	13538
274.057	3896
274.117	3013
274.177	4465
274.237	24290
274.297	21202
274.358	11151
274.418	15204
274.478	11912
274.538	4898
274.598	2410
274.658	9055
274.718	12442
274.778	5048
274.838	2504
274.898	4397
274.958	17921
275.018	17207
275.078	11900
275.138	4107
275.198	2291
275.258	776
275.318	1696
275.378	5021
275.438	5578
275.498	2903
275.558	7293
275.618	17429
275.678	13739
275.738	8028
275.798	8367
275.858	5991
275.918	1447
275.978	1445
276.038	2443
276.098	1370
276.157	3790
276.217	13255
276.277	6700
276.337	4259
276.397	2526
276.457	2464
276.517	1691
276.576	842
276.636	648
276.696	2078
276.756	8043
276.815	5837
276.875	1907
276.935	1581
276.995	2939
277.055	905
277.114	1717
277.174	2818
277.234	11594
277.293	4534
277.353	2057
277.413	2003
277.472	2124
277.532	1824
277.592	2143
277.651	6973
277.711	14398
277.771	4958
277.830	19063
277.890	15048
277.950	9241
278.009	29589
278.069	11194
278.128	8837
278.188	13752
278.248	5416
278.307	14977
278.367	8586
278.426	2317
278.486	1515
278.545	770
278.605	841
278.664	910
278.724	1307
278.783	5625
278.843	20017
278.902	5313
278.962	2651
279.021	2263
279.081	3053
279.140	2523
279.199	2190
279.259	2368
279.318	2650
279.378	2341
279.437	6038
279.496	27496
279.556	67142
279.615	54491
279.675	13794
279.734	6908
279.793	12354
279.853	23369
279.912	9200
279.971	3562
280.031	3169
280.090	8883
280.149	18975
280.208	9779
280.268	48010
280.327	49529
280.386	11814
280.445	10009
280.505	9905
280.564	4476
280.623	3963
280.682	5524
280.742	10644
280.801	3401
280.860	2055
280.919	1606
280.978	2262
281.037	1655
281.097	1015
281.156	1362
281.215	1250
281.274	2433
281.333	12854
281.392	10736
281.451	2613
281.510	671
281.569	961
281.628	883
281.688	1385
281.747	1344
281.806	2254
281.865	1389
281.924	1114
281.983	1006
282.042	978
282.101	749
282.160	483
282.219	283
282.278	1401
282.337	7023
282.396	4379
282.454	2467
282.513	1565
282.572	11933
282.631	7130
282.690	1639
282.749	942
282.808	2056
282.867	1959
282.926	3029
282.985	1508
283.043	1032
283.102	799
283.161	1283
283.220	5260
283.279	14271
283.338	3617
283.396	1750
283.455	2171
283.514	2006
283.573	3476
283.631	1967
283.690	1082
283.749	1513
283.808	4096
283.866	5561
283.925	1119
283.984	2101
284.043	1727
284.101	3017
284.160	1718
284.219	3940
284.277	2814
284.336	3738
284.395	14978
284.453	13642
284.512	3558
284.570	5257
284.629	3680
284.688	3355
284.746	3522
284.805	3108
284.863	4942
284.922	6383
284.981	6520
285.039	8598
285.098	16357
285.156	46426
285.215	112786
285.273	115658
285.332	58050
285.390	27101
285.449	16051
285.507	10188
285.566	7243
285.624	5035
285.683	4648
285.741	2843
285.799	3244
285.858	2200
285.916	2616
285.975	1654
286.033	1553
286.091	1873
286.150	1491
286.208	1436
286.267	1824
286.325	2517
286.383	3012
286.442	3389
286.500	1100
286.558	1220
286.616	1166
286.675	2560
286.733	1633
286.791	1215
286.850	2032
286.908	3319
286.966	6622
287.024	2899
287.083	1363
287.141	1235
287.199	1025
287.257	2493
287.315	2251
287.374	2038
287.432	6725
287.490	4274
287.548	2905
287.606	1115
287.664	1504
287.723	2702
287.781	5693
287.839	2331
287.897	1839
287.955	2611
288.013	3991
288.071	8910
288.129	42842
288.187	132707
288.245	61695
288.303	19736
288.361	9772
288.419	7828
288.477	5422
288.535	3631
288.593	2966
288.651	2756
288.709	1866
288.767	1378
288.825	955
288.883	919
288.941	1240
288.999	1256
289.057	2008
289.115	1400
289.173	1211
289.231	1809
289.289	1744
289.346	1286
289.404	1737
289.462	3397
289.520	3471
289.578	2221
289.636	-117
289.694	918
289.751	1186
289.809	2
289.867	1134
289.925	1293
289.983	2567
290.040	1077
290.098	1351
290.156	1256
290.214	1682
290.271	746
290.329	1119
290.387	843
290.444	217
290.502	74
290.560	1386
290.617	1700
290.675	810
290.733	456
290.790	1417
290.848	1457
290.906	1814
290.963	2062
291.021	1885
291.078	1300
291.136	1870
291.194	9282
291.251	22621
291.309	6970
291.366	1778
291.424	1970
291.481	1719
291.539	1528
291.596	1861
291.654	1202
291.711	987
291.769	1742
291.826	3513
291.884	1634
291.941	1330
291.999	955
292.056	1801
292.114	2000
292.171	1852
292.228	1598
292.286	1758
292.343	4369
292.401	5126
292.458	3496
292.515	2931
292.573	2719
292.630	2506
292.687	2410
292.745	817
292.802	3043
292.859	13915
292.917	17276
292.974	10557
293.031	3166
293.089	1961
293.146	1482
293.203	1360
293.260	931
293.318	2971
293.375	8359
293.432	4317
293.489	1870
293.546	962
293.604	2336
293.661	7390
293.718	25133
293.775	15330
293.832	6178
293.889	3884
293.947	4322
294.004	3280
294.061	3084
294.118	7461
294.175	19192
294.232	30390
294.289	12142
294.346	4999
294.403	3868
294.460	3442
294.517	2877
294.574	2043
294.631	2218
294.688	2320
294.745	6828
294.802	31971
294.859	42218
294.916	16482
294.973	8766
295.030	5786
295.087	4053
295.144	3535
295.201	2771
295.258	2626
295.315	2521
295.372	10875
295.429	22157
295.486	9964
295.542	5664
295.599	19471
295.656	34763
295.713	23010
295.770	23763
295.827	9307
295.883	5073
295.940	3865
295.997	6644
296.054	6905
296.111	3423
296.167	2858
296.224	1846
296.281	2304
296.338	2300
296.394	2639
296.451	2936
296.508	9445
296.564	21147
296.621	14110
296.678	21954
296.734	35041
296.791	15462
296.848	7944
296.904	6484
296.961	14128
297.018	24511
297.074	19878
297.131	7408
297.187	5054
297.244	5360
297.301	20946
297.357	40055
297.414	14810
297.470	6590
297.527	4673
297.583	4135
297.640	3273
297.696	2713
297.753	3207
297.809	1773
297.866	2036
297.922	2526
297.979	2226
298.035	2173
298.092	3798
298.148	13876
298.204	13106
298.261	6140
298.317	11816
298.374	29889
298.430	18225
298.486	7399
298.543	4798
298.599	3288
298.656	3586
298.712	8107
298.768	19444
298.824	14624
298.881	4543
298.937	3449
298.993	3458
299.050	4691
299.106	4157
299.162	2556
299.218	3227
299.275	2508
299.331	1720
299.387	5723
299.443	23345
299.500	27925
299.556	12816
299.612	5070
299.668	5329
299.724	7816
299.780	8795
299.837	3480
299.893	5537
299.949	22256
300.005	24966
300.061	21645
300.117	39526
300.173	19348
300.229	8716
300.285	8217
300.341	10236
300.397	4333
300.453	3910
300.510	3292
300.566	2284
300.622	4445
300.678	15043
300.734	26512
300.790	23017
300.845	25266
300.901	17016
300.957	25155
301.013	17901
301.069	7036
301.125	4863
301.181	5510
301.237	3618
301.293	2751
301.349	2242
301.405	2789
301.461	3073
301.516	2678
301.572	3858
301.628	7120
301.684	5609
301.740	8719
301.796	14421
301.851	9812
301.907	14969
301.963	14739
302.019	22880
302.074	65402
302.130	65324
302.186	28903
302.242	12679
302.297	8033
302.353	7554
302.409	15706
302.464	13268
302.520	10197
302.576	24694
302.631	28826
302.687	17320
302.743	7889
302.798	4475
302.854	4252
302.910	3799
302.965	5648
303.021	9193
303.076	8426
303.132	10540
303.187	12623
303.243	6348
303.299	3540
303.354	3417
303.410	3478
303.465	3205
303.521	2824
303.576	2277
303.632	3864
303.687	6999
303.743	21470
303.798	19302
303.853	8969
303.909	4729
303.964	4542
304.020	5689
304.075	8983
304.130	8538
304.186	13566
304.241	15355
304.297	12544
304.352	8126
304.358	7780
304.407	4978
304.449	5452
304.463	5616
304.518	5008
304.539	4537
304.573	3791
304.629	4886
304.630	4914
304.684	6399
304.720	13323
304.739	16787
304.794	25594
304.811	22199
304.850	13986
304.902	7679
304.905	7290
304.960	4680
304.992	4784
305.015	4795
305.071	3729
305.083	3711
305.126	3721
305.173	3386
305.181	3337
305.236	2385
305.264	2937
305.292	3494
305.347	4634
305.354	4629
305.402	4646
305.445	4836
305.457	4863
305.512	5590
305.535	5594
305.567	5687
305.622	5790
305.626	5994
305.678	10856
305.716	22118
305.733	26080
305.788	27453
305.807	23968
305.843	18342
305.897	23868
305.898	23918
305.953	23058
305.988	16041
306.008	12277
306.063	8764
306.078	8042
306.118	6477
306.168	4231
306.173	4030
306.228	3287
306.259	3579
306.283	3870
306.338	3435
306.349	3467
306.393	3732
306.440	4676
306.448	4847
306.503	4830
306.530	5517
306.558	7829
306.613	19179
306.620	20630
306.668	27225
306.711	29410
306.723	29157
306.778	20600
306.801	15905
306.833	11084
306.888	6236
306.892	6075
306.943	4856
306.982	4272
306.997	4140
307.052	4314
307.072	4622
307.107	5755
307.162	8237
307.163	8288
307.217	13911
307.253	17220
307.272	17832
307.327	18121
307.343	16147
307.381	11987
307.434	9732
307.436	9942
307.491	19646
307.524	28910
307.546	30805
307.600	25934
307.614	22774
307.655	14692
307.704	8085
307.710	7848
307.765	9397
307.795	12668
307.819	15840
307.874	26103
307.885	26264
307.929	20553
307.975	13209
307.984	13053
308.038	15403
308.065	17770
308.093	30150
308.148	64998
308.156	73613
308.202	118859
308.246	143587
308.257	138693
308.312	73528
308.336	49013
308.366	36920
308.421	23615
308.426	22506
308.475	15056
308.517	10302
308.530	9449
308.585	8136
308.607	7714
308.639	7852
308.694	9217
308.697	9434
308.748	20438
308.787	31908
308.803	31953
308.857	23546
308.877	19434
308.912	15874
308.967	13152
308.967	13130
309.021	15940
309.058	18517
309.076	23380
309.130	41858
309.148	49275
309.185	91846
309.238	169670
309.239	170217
309.293	183375
309.328	165815
309.348	141235
309.402	65406
309.418	46424
309.457	31635
309.508	18895
309.511	18508
309.566	15458
309.598	14737
309.620	16163
309.674	21519
309.688	22863
309.729	21664
309.778	18025
309.783	17686
309.837	13484
309.868	11713
309.892	14609
309.946	23049
309.959	25944
310.001	35027
310.049	42388
310.055	40975
310.109	24162
310.139	14418
310.163	11572
310.218	7615
310.229	7024
310.272	6247
310.319	5568
310.326	5511
310.381	5726
310.409	5718
310.435	5665
310.489	5424
310.499	5445
310.543	6302
310.589	7346
310.598	7345
310.652	7050
310.679	6929
310.706	6357
310.760	4853
310.769	4639
310.814	3867
310.859	3023
310.868	3148
310.923	4218
310.948	4689
310.977	5148
311.031	6291
311.038	6420
311.085	5996
311.128	5412
311.139	5392
311.193	5392
311.218	5393
311.247	5042
311.301	4446
311.308	4351
311.356	4714
311.398	5207
311.410	5164
311.464	4787
311.488	4651
311.518	4328
311.572	3720
311.578	3658
311.626	5248
311.668	6654
311.680	7001
311.734	8477
311.758	9199
311.788	9087
311.842	8719
311.847	8679
311.896	11356
311.937	13726
311.950	13351
312.004	11671
312.027	10878
312.058	8663
312.112	4756
312.117	4380
312.165	4708
312.207	5015
312.297	10214
312.386	8054
312.476	5682
312.566	9850
312.656	5348
312.745	4928
312.835	6107
312.925	6380
313.015	5786
313.104	6573
313.194	4211
313.284	4077
313.374	5005
313.463	4789
313.553	3564
313.643	4632
313.732	2684
313.822	4035
313.912	4667
314.001	6516
314.091	7079
314.180	10921
314.270	7976
314.360	8363
314.449	5750
314.539	4679
314.628	4249
314.718	6145
314.808	8550
314.897	4705
314.987	4473
315.076	5937
315.166	6552
315.255	7616
315.345	7371
315.434	8083
315.524	6668
315.613	6770
315.703	8050
315.792	12342
315.881	31782
315.971	11857
316.060	14485
316.150	24655
316.239	24737
316.328	8063
316.418	4166
316.507	4514
316.597	5977
316.686	6504
316.775	11714
316.865	25031
316.954	5313
317.043	3950
317.133	3802
317.222	3534
317.311	3945
317.400	3116
317.490	5671
317.579	6654
317.668	4516
317.757	8061
317.847	19659
317.936	55202
318.025	19484
318.114	13302
318.203	8705
318.293	13117
318.382	25776
318.471	18186
318.560	27641
318.649	53305
318.738	9783
318.828	6389
318.917	7428
319.006	10625
319.095	29118
319.184	63920
319.273	28602
319.362	12973
319.451	4508
319.540	5242
319.629	11285
319.718	16497
319.807	9164
319.896	23819
319.985	75750
320.074	23100
320.163	8954
320.252	16974
320.341	15345
320.430	13296
320.519	10857
320.608	7710
320.697	8152
320.786	6721
320.875	6564
320.964	9017
321.053	12850
321.142	17813
321.230	17548
321.319	19298
321.408	36671
321.497	17415
321.586	14923
321.675	24388
321.764	22085
321.852	16021
321.941	21314
322.030	12613
322.119	17184
322.207	37445
322.296	37130
322.385	19329
322.474	17182
322.562	42428
322.651	24245
322.740	16775
322.829	27547
322.917	35208
323.006	15294
323.095	12116
323.183	10882
323.272	15105
323.361	27587
323.449	76338
323.538	25808
323.626	60716
323.715	32123
323.804	16121
323.892	56973
323.981	26499
324.069	9510
324.158	34758
324.246	26942
324.335	9528
324.424	11862
324.512	5037
324.601	5311
324.689	6678
324.778	11670
324.866	22590
324.954	6232
325.043	5814
325.131	15297
325.220	29074
325.308	31062
325.397	23161
325.485	11418
325.574	4814
325.662	4476
325.750	4224
325.839	4362
325.927	4093
326.015	5856
326.104	12492
326.192	15336
326.280	4991
326.369	4301
326.457	5958
326.545	9510
326.634	5045
326.722	2660
326.810	3714
326.898	3391
326.987	4985
327.075	10240
327.163	14033
327.251	5657
327.340	4853
327.428	4589
327.516	3989
327.604	4422
327.692	4999
327.781	7677
327.869	13414
327.957	6569
328.045	4905
328.133	4002
328.221	7076
328.309	4718
328.397	3193
328.485	4096
328.574	6067
328.662	20103
328.750	14241
328.838	7069
328.926	4332
329.014	3877
329.102	5899
329.190	20037
329.278	9978
329.366	1895
329.454	3581
329.542	4104
329.630	3671
329.718	3763
329.806	4743
329.893	5505
329.981	5631
330.069	4233
330.157	17668
330.245	53550
330.333	26016
330.421	4165
330.509	6436
330.597	23341
330.684	17198
330.772	9415
330.860	17190
330.948	22883
331.036	8195
331.123	2464
331.211	4828
331.299	6331
331.387	18567
331.475	29823
331.562	7677
331.650	3761
331.738	6286
331.825	10107
331.913	3449
332.001	2851
332.089	6964
332.176	15592
332.264	36496
332.352	23694
332.439	7703
332.527	5290
332.614	5710
332.702	7686
332.790	4228
332.877	15476
332.965	30817
333.052	5963
333.140	6548
333.228	13569
333.315	4794
333.403	5606
333.490	22797
333.578	14481
333.665	11110
333.753	6001
333.840	4163
333.928	5962
334.015	20522
334.103	28226
334.190	83134
334.278	20723
334.365	12018
334.452	7939
334.540	5541
334.627	7986
334.715	11311
334.802	18879
334.889	104362
334.977	87234
335.064	13521
335.151	6217
335.239	7488
335.326	9767
335.413	42031
335.501	51666
335.588	7753
335.675	5723
335.762	10405
335.850	17903
335.937	9790
336.024	26196
336.111	109163
336.199	47284
336.286	9643
336.373	5432
336.460	4473
336.547	4243
336.635	6617
336.722	5189
336.809	4897
336.896	7098
336.983	25461
337.070	62848
337.157	80553
337.245	66367
337.332	42015
337.419	6039
337.506	4957
337.593	6277
337.680	24862
337.767	69739
337.854	19292
337.941	23824
338.028	27691
338.115	8091
338.202	12136
338.289	20300
338.376	65060
338.463	19005
338.550	41412
338.637	40559
338.724	16575
338.811	24728
338.898	4963
338.984	3832
339.071	6222
339.158	4821
339.245	13066
339.332	7885
339.419	18431
339.506	15763
339.593	2430
339.679	2773
339.766	2978
339.853	5331
339.940	8607
340.027	3992
340.113	3685
340.200	4920
340.287	4978
340.374	4860
340.460	6971
340.547	2688
340.634	6179
340.720	21949
340.807	11667
340.894	2446
340.980	3221
341.067	2143
341.154	4379
341.240	4204
341.327	9819
341.414	2312
341.500	1554
341.587	3373
341.674	3158
341.760	7202
341.847	7223
341.933	2821
342.020	1839
342.106	2178
342.193	3281
342.279	5512
342.366	4364
342.452	5839
342.539	3734
342.625	8857
342.712	22288
342.798	9176
342.885	4539
342.971	1743
343.058	1790
343.144	2070
343.230	1767
343.317	1992
343.403	1287
343.490	1373
343.576	1645
343.662	1527
343.749	2611
343.835	2616
343.921	6906
344.008	37434
344.094	88607
344.180	17904
344.267	6701
344.353	28525
344.439	33937
344.525	11344
344.612	3660
344.698	3197
344.784	2117
344.870	1418
344.957	1783
345.043	3688
345.129	2641
345.215	6293
345.301	2552
345.387	1505
345.474	2940
345.560	1941
345.646	4489
345.732	3324
345.818	2480
345.904	2508
345.990	3244
346.076	4071
346.162	10898
346.249	3957
346.335	2266
346.421	2588
346.507	10308
346.593	37697
346.679	8550
346.765	3977
346.851	2535
346.937	2250
347.023	3174
347.108	2619
347.194	1883
347.280	2341
347.366	2566
347.452	10468
347.538	44431
347.624	32625
347.710	30170
347.796	4658
347.882	3033
347.967	3630
348.053	6729
348.139	3910
348.225	2402
348.311	1681
348.397	2210
348.482	3228
348.568	4301
348.654	1854
348.740	4077
348.825	2859
348.911	5600
348.997	20241
349.083	43578
349.168	7140
349.254	3126
349.340	1522
349.425	2561
349.511	3258
349.597	3779
349.682	7614
349.768	26035
349.854	12149
349.939	3820
350.025	1982
350.110	1445
350.196	1645
350.282	725
350.367	2631
350.453	8249
350.538	6721
350.624	4022
350.709	4551
350.795	1629
350.880	887
350.966	3374
351.051	6309
351.137	6262
351.222	1921
351.308	7660
351.393	21593
351.479	4256
351.564	896
351.649	2252
351.735	2045
351.820	1741
351.906	1634
351.991	3071
352.076	14308
352.162	19564
352.247	3859
352.332	2747
352.418	3453
352.503	6440
352.588	30585
352.673	24351
352.759	5270
352.844	2236
352.929	2535
353.014	3816
353.100	2918
353.185	7558
353.270	7830
353.355	8230
353.441	3053
353.526	4470
353.611	7860
353.696	7492
353.781	4815
353.866	2275
353.952	3212
354.037	6741
354.122	15275
354.207	14082
354.292	5592
354.377	2768
354.462	2741
354.547	3365
354.632	3671
354.717	7594
354.802	7601
354.887	3581
354.972	1999
355.057	2454
355.142	811
355.227	2831
355.312	4406
355.397	9059
355.482	23847
355.567	12388
355.652	9346
355.737	8786
355.822	29303
355.907	22529
355.991	4299
356.076	1865
356.161	1836
356.246	1278
356.331	2156
356.416	5168
356.501	47090
356.585	48634
356.670	4553
356.755	5263
356.840	5946
356.924	32420
357.009	111819
357.094	41841
357.179	8769
357.263	6065
357.348	6895
357.433	7237
357.517	5254
357.602	3824
357.687	2526
357.771	4418
357.856	4690
357.941	5253
358.025	22790
358.110	100610
358.195	47420
358.279	6693
358.364	4713
358.448	18403
358.533	54244
358.617	37538
358.702	37909
358.787	13970
358.871	6791
358.956	5972
359.040	2676
359.125	2067
359.209	1323
359.294	3215
359.378	3528
359.462	6002
359.547	4674
359.631	4579
359.716	1111
359.800	3732
359.885	7109
359.969	3319
360.053	2738
360.138	2146
360.222	3374
360.306	7608
360.391	6522
360.475	6880
360.559	13583
360.644	19507
360.728	14282
360.812	25404
360.896	71945
360.981	34885
361.065	20016
361.149	4476
361.233	4126
361.318	3930
361.402	5832
361.486	4126
361.570	2206
361.654	3415
361.739	8969
361.823	43791
361.907	70191
361.991	11232
362.075	6536
362.159	15131
362.243	12289
362.327	13281
362.411	20040
362.495	10654
362.580	5273
362.664	4268
362.748	2417
362.832	4750
362.916	7709
363.000	30596
363.084	76104
363.168	87897
363.252	20575
363.336	8975
363.420	12779
363.503	53222
363.587	63352
363.671	9372
363.755	6955
363.839	10388
363.923	3708
364.007	9049
364.091	12116
364.175	21828
364.258	86548
364.342	62454
364.426	71295
364.510	39057
364.594	17674
364.677	17096
364.761	59606
364.845	44602
364.929	13035
365.013	10287
365.096	9120
365.180	11216
365.264	21261
365.347	84784
365.431	40690
365.515	11052
365.598	3090
365.682	5027
365.766	12173
365.849	16577
365.933	5869
366.017	10071
366.100	8402
366.184	3901
366.267	4378
366.351	2732
366.435	1719
366.518	2090
366.602	2248
366.685	2543
366.769	3068
366.852	10578
366.936	14993
367.019	6610
367.103	6993
367.186	20117
367.270	4385
367.353	1834
367.436	2505
367.520	2234
367.603	3238
367.687	4222
367.770	7685
367.853	6175
367.937	17818
368.020	31487
368.104	6948
368.187	7547
368.270	10023
368.353	8779
368.437	15889
368.520	47503
368.603	24569
368.687	22435
368.770	40097
368.853	10957
368.936	13928
369.020	17017
369.103	3984
369.186	2828
369.269	2767
369.352	7252
369.436	10639
369.519	6830
369.602	2120
369.685	4982
369.768	3539
369.851	4267
369.934	2676
370.018	3686
370.101	7383
370.184	8576
370.267	6615
370.350	10667
370.433	15857
370.516	34323
370.599	44929
370.682	13435
370.765	22170
370.848	26811
370.931	50960
371.014	25185
371.097	4519
371.180	3879
371.263	1548
371.346	1092
371.429	2855
371.511	2796
371.594	5882
371.677	12400
371.760	17679
371.843	8200
371.926	32559
372.009	80035
372.091	26632
372.174	18465
372.257	47186
372.340	19583
372.423	20037
372.505	29663
372.588	10322
372.671	15141
372.754	46228
372.836	24864
372.919	26675
373.002	56350
373.085	14114
373.167	8428
373.250	18849
373.332	44499
373.415	56667
373.498	112558
373.580	44414
373.663	56783
373.746	78180
373.828	17345
373.911	9903
373.993	12105
374.076	51056
374.159	52096
374.241	16633
374.324	39886
374.406	27458
374.489	31925
374.571	93126
374.654	41911
374.736	19155
374.819	60225
374.901	82959
374.983	86346
375.066	14718
375.148	8424
375.231	39564
375.313	80526
375.395	32856
375.478	6625
375.560	3885
375.643	5740
375.725	18615
375.807	74574
375.890	74762
375.972	41168
376.054	21213
376.136	38971
376.219	16063
376.301	23657
376.383	63775
376.465	25676
376.548	13311
376.630	19106
376.712	53285
376.794	26298
376.877	3618
376.959	1846
377.041	4263
377.123	13849
377.205	17781
377.287	2850
377.369	1940
377.452	2265
377.534	1777
377.616	2782
377.698	1973
377.780	1600
377.862	1878
377.944	3230
378.026	1266
378.108	1953
378.190	1795
378.272	2840
378.354	1497
378.436	710
378.518	6150
378.600	26226
378.682	18285
378.764	26250
378.846	23070
378.928	8372
379.010	8558
379.091	4622
379.173	2500
379.255	1747
379.337	3120
379.419	12899
379.501	39891
379.583	17614
379.664	4463
379.746	9186
379.828	27207
379.910	35864
379.991	31520
380.073	5943
380.155	3585
380.237	3190
380.318	1911
380.400	3088
380.482	6386
380.564	10137
380.645	10099
380.727	9740
380.809	4543
380.890	3893
380.972	2161
381.053	2346
381.135	3975
381.217	9128
381.298	28133
381.380	15071
381.461	11899
381.543	52504
381.624	65630
381.706	13288
381.787	7651
381.869	8041
381.951	22198
382.032	83347
382.113	57601
382.195	12944
382.276	8827
382.358	17715
382.439	46716
382.521	53555
382.602	81519
382.684	38627
382.765	67454
382.846	66662
382.928	64951
383.009	36642
383.090	26926
383.172	92665
383.253	142866
383.334	60642
383.416	74278
383.497	39004
383.578	13294
383.659	26310
383.741	86247
383.822	214003
383.903	115997
383.984	49177
384.066	91303
384.147	57289
384.228	11667
384.309	7897
384.390	6705
384.471	5094
384.553	5260
384.634	9480
384.715	8339
384.796	4285
384.877	5405
384.958	23969
385.039	28727
385.120	10283
385.201	5822
385.282	9381
385.363	11447
385.444	7589
385.525	11890
385.606	39226
385.687	36154
385.768	11729
385.849	13247
385.930	38367
386.011	67791
386.092	19691
386.173	6011
386.254	6388
386.335	6710
386.416	5438
386.496	18032
386.577	31094
386.658	16090
386.739	10245
386.820	12021
386.901	10385
386.981	8402
387.062	4817
387.143	6801
387.224	27054
387.304	29694
387.385	13034
387.466	10140
387.547	15156
387.627	7542
387.708	12664
387.789	47727
387.869	60225
387.950	17697
388.031	4576
388.111	5618
388.192	23214
388.273	33625
388.353	17139
388.434	5943
388.514	10412
388.595	41808
388.676	56934
388.756	27792
388.837	25533
388.917	15325
388.998	3215
389.078	3872
389.159	3206
389.239	2221
389.320	5847
389.400	4183
389.480	14129
389.561	31714
389.641	15892
389.722	6218
389.802	8354
389.883	14078
389.963	36934
390.043	29292
390.124	12820
390.204	11128
390.284	31164
390.365	22780
390.445	38910
390.525	75619
390.605	55304
390.686	16578
390.766	7522
390.846	4282
390.927	2886
391.007	2695
391.087	5692
391.167	5902
391.247	5649
391.328	11090
391.408	17676
391.488	12594
391.568	2607
391.648	3773
391.728	6673
391.808	6375
391.888	6879
391.969	16167
392.049	27379
392.129	16791
392.209	16523
392.289	34960
392.369	24319
392.449	29261
392.529	17916
392.609	10727
392.689	13435
392.769	33662
392.849	32411
392.929	29475
393.009	62107
393.089	47571
393.169	49091
393.248	137500
393.328	418322
393.408	459914
393.488	156094
393.568	45683
393.648	21353
393.728	14539
393.807	10505
393.887	9411
393.967	8421
394.047	8588
394.127	9795
394.206	15717
394.286	52353
394.366	222709
394.446	258117
394.525	61919
394.605	15125
394.685	14857
394.764	38932
394.844	63279
394.924	43785
395.003	10342
395.083	7630
395.163	6094
395.242	6733
395.322	5436
395.402	3454
395.481	7878
395.561	24753
395.640	62587
395.720	52249
395.799	67706
395.879	53663
395.958	24991
396.038	78708
396.117	293343
396.197	344021
396.276	113431
396.356	40651
396.435	32489
396.515	20398
396.594	21487
396.673	39847
396.753	138459
396.832	380898
396.912	305974
396.991	80290
397.070	22685
397.150	12341
397.229	9978
397.308	13306
397.388	22300
397.467	11540
397.546	4958
397.625	2151
397.705	6407
397.784	4815
397.863	2433
397.942	3147
398.022	4720
398.101	20975
398.180	62631
398.259	37848
398.338	9655
398.417	4921
398.497	3674
398.576	4898
398.655	966
398.734	2374
398.813	3784
398.892	18632
398.971	62355
399.050	32590
399.129	2742
399.208	1823
399.287	2597
399.366	1330
399.445	1668
399.524	2480
399.603	1027
399.682	5285
399.761	16672
399.840	62199
399.919	52885
399.998	7449
400.077	891
400.156	381
400.235	4651
400.313	3794
400.392	2916
400.471	14185
400.550	23341
400.629	6359
400.708	3910
400.786	5969
400.865	18473
400.944	19807
401.023	8100
401.102	1745
401.180	944
401.259	2594
401.338	3454
401.416	4688
401.495	3279
401.574	4895
401.652	2583
401.731	5716
401.810	3783
401.888	1389
401.967	839
402.046	2966
402.124	4818
402.203	5691
402.281	3468
402.360	6744
402.438	22834
402.517	16833
402.596	6091
402.674	5620
402.753	2416
402.831	2449
402.910	3372
402.988	13409
403.066	43670
403.145	27571
403.223	13256
403.302	33244
403.380	27334
403.459	24244
403.537	10983
403.615	5143
403.694	842
403.772	1772
403.850	1154
403.929	1361
404.007	633
404.085	5241
404.164	4974
404.242	884
404.320	1600
404.398	5255
404.477	14174
404.555	65039
404.633	60433
404.711	9688
404.789	2622
404.868	2020
404.946	396
405.024	-93
405.102	296
405.180	-215
405.258	-674
405.336	2128
405.415	1635
405.493	7644
405.571	5750
405.649	826
405.727	962
405.805	4026
405.883	3410
405.961	5592
406.039	6334
406.117	2004
406.195	2813
406.273	15148
406.351	57133
406.429	40643
406.507	10150
406.585	2488
406.663	1725
406.740	2934
406.818	1575
406.896	1674
406.974	2890
407.052	4091
407.130	33163
407.208	47247
407.285	9877
407.363	674
407.441	1131
407.519	825
407.596	2107
407.674	9605
407.752	36089
407.830	40491
407.907	15100
407.985	2947
408.063	924
408.141	801
408.218	6223
408.296	5376
408.373	1591
408.451	2313
408.529	762
408.606	-178
408.684	239
408.762	1
408.839	114
408.917	324
408.994	129
409.072	-184
409.149	867
409.227	3009
409.304	3586
409.382	3745
409.459	2559
409.537	5943
409.614	4592
409.692	3433
409.769	2742
409.846	5668
409.924	9317
410.001	4697
410.079	3237
410.156	3387
410.233	1741
410.311	1076
410.388	429
410.465	1782
410.543	1661
410.620	1522
410.697	487
410.775	2323
410.852	-172
410.929	2563
411.006	3335
411.083	1533
411.161	6145
411.238	9688
411.315	5228
411.392	1563
411.469	2908
411.547	3019
411.624	511
411.701	1060
411.778	1604
411.855	3765
411.932	1325
412.009	350
412.086	529
412.163	1776
412.240	2894
412.317	5048
412.394	3492
412.471	1371
412.548	-85
412.625	823
412.702	2639
412.779	6530
412.856	2751
412.933	922
413.010	718
413.087	1597
413.164	12089
413.241	18958
413.318	3379
413.395	2053
413.471	3700
413.548	1659
413.625	522
413.702	2123
413.779	2313
413.855	804
413.932	-875
414.009	-326
414.086	-85
414.162	548
414.239	2078
414.316	13938
414.393	27933
414.469	9844
414.546	859
414.623	-408
414.699	101
414.776	1203
414.853	424
414.929	1069
415.006	1011
415.082	3385
415.159	1389
415.236	839
415.312	590
415.389	3328
415.465	3111
415.542	1647
415.618	-515
415.695	2066
415.771	856
415.848	942
415.924	1573
416.000	1978
416.077	1122
416.153	-769
416.230	-1448
416.306	-1014
416.383	252
416.459	611
416.535	-593
416.612	383
416.688	95
416.764	152
416.841	-343
416.917	463
416.993	320
417.069	1998
417.146	2055
417.222	2544
417.298	542
417.374	-142
417.451	1470
417.527	854
417.603	78
417.679	529
417.755	-87
417.831	-681
417.908	-661
417.984	-107
418.060	-1240
418.136	3128
418.212	4436
418.288	1308
418.364	1041
418.440	106
418.516	2639
418.592	6585
418.668	8617
418.744	7598
418.820	6345
418.896	1979
418.972	-1223
419.048	-52
419.124	3895
419.200	1705
419.276	-89
419.352	-1036
419.428	2
419.504	92
419.579	1045
419.655	223
419.731	312
419.807	4412
419.883	8954
419.959	6583
420.034	1838
420.110	4081
420.186	16800
420.262	14581
420.337	2786
420.413	2030
420.489	169
420.565	1371
420.640	-324
420.716	772
420.792	-1207
420.867	1377
420.943	40
421.019	2046
421.094	1550
421.170	1122
421.245	-318
421.321	1030
421.397	1211
421.472	5600
421.548	16946
421.623	11950
421.699	2683
421.774	2856
421.850	1560
421.925	4760
422.001	4004
422.076	3307
422.152	4057
422.227	6778
422.302	8931
422.378	14098
422.453	27207
422.529	67048
422.604	174701
422.679	263254
422.755	196872
422.830	78609
422.905	29057
422.981	15099
423.056	8652
423.131	7771
423.207	5643
423.282	4410
423.357	6802
423.432	5289
423.508	4997
423.583	8788
423.658	7145
423.733	3472
423.808	4630
423.883	4021
423.959	2107
424.034	2534
424.109	2622
424.184	956
424.259	-506
424.334	782
424.409	-267
424.484	741
424.559	1092
424.634	580
424.709	1110
424.784	2729
424.859	1827
424.934	2963
425.009	12218
425.084	21123
425.159	7844
425.234	1111
425.309	227
425.384	50
425.459	-97
425.534	1459
425.609	1950
425.683	2169
425.758	324
425.833	2418
425.908	2499
425.983	7657
426.058	22162
426.132	10900
426.207	3965
426.282	8028
426.357	8002
426.431	2006
426.506	1816
426.581	2300
426.655	1524
426.730	869
426.805	346
426.879	1794
426.954	1931
427.029	4171
427.103	21395
427.178	52633
427.253	25921
427.327	4739
427.402	4676
427.476	11769
427.551	4337
427.625	3590
427.700	3851
427.774	1338
427.849	4327
427.923	751
427.998	1301
428.072	2842
428.147	6929
428.221	25085
428.296	69387
428.370	39872
428.444	6161
428.519	10337
428.593	21545
428.667	20454
428.742	23044
428.816	21627
428.890	52345
428.965	77455
429.039	28746
429.113	26789
429.188	9241
429.262	2115
429.336	4059
429.410	11222
429.485	10754
429.559	18339
429.633	15132
429.707	3588
429.781	12305
429.855	62399
429.930	92732
430.004	59484
430.078	88961
430.152	75915
430.226	84856
430.300	89094
430.374	14756
430.448	5905
430.522	24348
430.596	73470
430.670	46490
430.744	68111
430.818	97493
430.892	21570
430.966	2445
431.040	2028
431.114	316
431.188	1209
431.262	1045
431.336	1973
431.410	9233
431.484	26430
431.557	15753
431.631	1692
431.705	2235
431.779	11830
431.853	60031
431.927	46480
432.000	5202
432.074	2012
432.148	3509
432.222	4285
432.295	1116
432.369	736
432.443	3866
432.516	24569
432.590	58023
432.664	26638
432.737	2503
432.811	1
432.885	-632
432.958	-280
433.032	-45
433.106	-312
433.179	-595
433.253	82
433.326	-390
433.400	-1000
433.473	-26
433.547	-534
433.620	-25
433.694	1786
433.767	2870
433.841	1464
433.914	-315
433.988	158
434.061	-60
434.134	334
434.208	-314
434.281	-425
434.355	-733
434.428	333
434.501	-101
434.575	750
434.648	989
434.721	-247
434.795	-668
434.868	-272
434.941	-511
435.014	-1074
435.088	-763
435.161	213
435.234	1428
435.307	2149
435.381	455
435.454	2088
435.527	2324
435.600	3135
435.673	1599
435.746	738
435.819	859
435.892	450
435.966	-258
436.039	930
436.112	1995
436.185	336
436.258	-175
436.331	-1221
436.404	-703
436.477	-276
436.550	-607
436.623	237
436.696	-1028
436.769	-439
436.842	707
436.915	1699
436.987	2695
437.060	939
437.133	-716
437.206	-549
437.279	990
437.352	193
437.425	-99
437.498	568
437.570	2417
437.643	2046
437.716	76
437.789	109
437.861	2406
437.934	11521
438.007	4976
438.080	380
438.152	521
438.225	3835
438.298	27401
438.370	80871
438.443	40847
438.516	10564
438.588	1949
438.661	657
438.734	-694
438.806	2127
438.879	1848
438.951	1894
439.024	5031
439.096	2049
439.169	-31
439.241	-356
439.314	319
439.386	4745
439.459	7887
439.531	12048
439.604	3912
439.676	743
439.749	-323
439.821	-164
439.893	-436
439.966	1243
440.038	1993
440.110	2526
440.183	749
440.255	75
440.327	1941
440.400	16201
440.472	57256
440.544	42837
440.617	5995
440.689	4028
440.761	5556
440.833	9974
440.905	6147
440.978	895
441.050	-124
441.122	846
441.194	-996
441.266	291
441.338	-170
441.411	1593
441.483	14896
441.555	27735
441.627	7594
441.699	7985
441.771	9483
441.843	3725
441.915	-354
441.987	489
442.059	0
442.131	2935
442.203	6361
442.275	7297
442.347	6172
442.419	7214
442.491	31266
442.563	82096
442.635	46221
442.706	30766
442.778	26418
442.850	4342
442.922	1427
442.994	3202
443.066	7034
443.137	6144
443.209	3090
443.281	4754
443.353	12223
443.425	47200
443.496	143852
443.568	148781
443.640	57300
443.711	12542
443.783	4309
443.855	3032
443.926	2158
443.998	2348
444.070	6372
444.141	5499
444.213	4854
444.285	4793
444.356	6847
444.428	10190
444.499	3242
444.571	317
444.642	1321
444.714	1150
444.785	3645
444.857	9317
444.928	29940
445.000	23011
445.071	20185
445.143	27289
445.214	12131
445.285	17485
445.357	55337
445.428	113959
445.500	230833
445.571	170194
445.642	86905
445.714	42494
445.785	49917
445.856	18700
445.928	6217
445.999	5105
446.070	4996
446.141	3703
446.213	5370
446.284	5235
446.355	7571
446.426	5209
446.497	3641
446.569	9367
446.640	14063
446.711	6246
446.782	3019
446.853	7373
446.924	8385
446.995	3789
447.066	4013
447.138	12436
447.209	8441
447.280	660
447.351	710
447.422	454
447.493	4174
447.564	5625
447.635	3715
447.706	1495
447.777	-138
447.847	168
447.918	793
447.989	5800
448.060	9269
448.131	22315
448.202	20963
448.273	9842
448.344	4393
448.414	1533
448.485	770
448.556	1527
448.627	365
448.698	1330
448.768	-183
448.839	2438
448.910	10985
448.981	12526
449.051	2557
449.122	1308
449.193	144
449.263	1330
449.334	786
449.405	1112
449.475	5957
449.546	7701
449.616	12264
449.687	14007
449.758	3566
449.828	1940
449.899	277
449.969	645
450.040	791
450.110	4117
450.181	7437
450.251	2673
450.322	2189
450.392	2876
450.463	1996
450.533	1104
450.604	966
450.674	2190
450.744	1927
450.815	1338
450.885	1459
450.955	1591
451.026	938
451.096	1958
451.166	4815
451.237	14771
451.307	40584
451.377	22023
451.447	3229
451.518	1188
451.588	1866
451.658	2647
451.728	7881
451.799	37613
451.869	52215
451.939	16458
452.009	2076
452.079	2064
452.149	2447
452.219	9813
452.289	43996
452.360	43623
452.430	7900
452.500	3977
452.570	4075
452.640	8452
452.710	26639
452.780	49374
452.850	26017
452.920	14255
452.990	6357
453.060	3919
453.129	5400
453.199	9769
453.269	37254
453.339	95524
453.409	153837
453.479	139358
453.549	209322
453.619	238548
453.688	122536
453.758	18454
453.828	5719
453.898	4217
453.968	4238
454.037	3012
454.087	2958
454.107	2927
454.168	1880
454.177	1711
454.247	818
454.249	876
454.316	1635
454.330	2374
454.386	4885
454.411	11936
454.456	23427
454.492	32873
454.525	41496
454.574	23270
454.595	15420
454.655	4379
454.665	2613
454.734	4804
454.736	5091
454.804	12752
454.817	18622
454.873	41711
454.898	47929
454.943	59441
454.979	43256
455.013	29074
455.060	16774
455.082	11347
455.141	9457
455.152	8850
455.221	28519
455.222	28982
455.291	59013
455.303	53570
455.360	30784
455.384	25419
455.430	15675
455.465	18110
455.499	19559
455.546	36029
455.569	43150
455.627	35862
455.638	34926
455.707	7034
455.708	7024
455.777	3182
455.789	3371
455.846	3996
455.869	3403
455.916	2328
455.950	3070
455.985	3581
456.031	3790
456.054	3988
456.112	3412
456.124	3337
456.193	2818
456.193	2788
456.262	4427
456.274	4948
456.332	7200
456.355	8453
456.401	10439
456.436	8645
456.470	7040
456.516	3895
456.540	2297
456.597	1222
456.609	1074
456.678	1344
456.678	1327
456.747	1078
456.759	1085
456.817	1288
456.840	1374
456.886	1441
456.920	1688
456.955	2113
457.001	2657
457.024	3052
457.082	4881
457.093	5196
457.162	8475
457.163	8515
457.232	14572
457.243	13679
457.301	9185
457.324	6811
457.370	2944
457.405	2431
457.439	2111
457.485	2463
457.508	2518
457.566	3167
457.577	3358
457.646	3918
457.647	3949
457.715	6197
457.727	6721
457.784	9727
457.808	11727
457.853	13551
457.889	16022
457.922	17649
457.969	13466
457.991	13065
458.050	14208
458.060	14366
458.129	23615
458.130	23891
458.198	25289
458.211	22719
458.267	14889
458.292	11222
458.336	7171
458.372	7018
458.405	8552
458.453	12085
458.474	14310
458.533	23098
458.543	23406
458.611	38602
458.614	38739
458.680	29969
458.694	24788
458.749	12807
458.775	9774
458.818	5703
458.855	4985
458.887	4398
458.936	4173
458.955	4023
459.016	4516
459.024	4619
459.093	4721
459.097	4752
459.162	4687
459.177	4647
459.230	4966
459.257	5487
459.299	6070
459.338	5866
459.368	5608
459.418	6520
459.437	6607
459.499	5235
459.505	5159
459.574	4459
459.579	4443
459.643	3936
459.659	3824
459.711	4095
459.740	4586
459.780	4907
459.820	5058
459.849	5384
459.900	6379
459.917	6337
459.981	6857
459.986	6934
460.054	4653
460.061	4638
460.123	5125
460.141	5075
460.191	4966
460.222	5607
460.260	5908
460.302	6043
460.328	6037
460.382	5654
460.397	5865
460.462	6128
460.465	6264
460.534	10674
460.543	11129
460.602	20963
460.623	25385
460.671	38549
460.703	50991
460.739	44160
460.783	32101
460.808	29859
460.864	11142
460.876	8899
460.944	6427
460.945	6388
461.013	5912
461.024	5746
461.081	5269
461.104	5250
461.150	5015
461.184	4890
461.218	5073
461.264	5096
461.286	5010
461.345	5086
461.355	5170
461.423	5710
461.425	5723
461.491	7800
461.505	8323
461.559	16573
461.585	20704
461.628	31861
461.665	44615
461.696	45838
461.745	56346
461.764	54464
461.825	25595
461.832	24860
461.901	9053
461.905	9005
461.969	6895
461.985	6642
462.037	7508
462.065	7628
462.105	9139
462.145	11328
462.173	15769
462.225	24243
462.241	26054
462.305	40215
462.310	39418
462.378	25715
462.385	22329
462.446	11912
462.465	9989
462.514	6691
462.545	6887
462.582	6753
462.625	6523
462.650	6517
462.705	6938
462.718	7567
462.785	10296
462.786	10379
462.854	15563
462.865	16732
462.922	18989
462.945	20380
462.990	17702
463.025	11872
463.058	10115
463.104	8020
463.126	6944
463.184	6279
463.194	6368
463.262	7104
463.264	7135
463.330	7401
463.344	7412
463.398	9003
463.424	9780
463.466	9361
463.504	9492
463.533	9916
463.583	9808
463.601	10228
463.663	11417
463.669	11814
463.737	16962
463.743	17510
463.805	28364
463.823	31464
463.873	47709
463.903	59337
463.940	58247
463.982	60474
464.008	53098
464.062	25451
464.076	23888
464.142	10179
464.144	9870
464.211	7503
464.221	7465
464.279	8403
464.301	8815
464.347	9793
464.381	10438
464.414	12234
464.461	15053
464.482	14888
464.540	15596
464.550	15165
464.617	9927
464.620	9696
464.685	9482
464.699	9763
464.753	11136
464.779	11927
464.820	12754
464.859	13364
464.888	13803
464.938	14867
464.956	15182
465.018	16831
465.023	16581
465.091	12372
465.098	11790
465.158	10586
465.177	10442
465.226	10433
465.257	10575
465.293	10961
465.336	11408
465.361	12875
465.416	16056
465.428	18149
465.495	29654
465.496	29833
465.563	50987
465.575	54923
465.631	59111
465.654	61495
465.698	39586
465.734	17721
465.765	15453
465.813	11658
465.833	10612
465.893	10330
465.900	10305
465.968	10305
465.972	10284
466.035	9260
466.052	8979
466.102	9539
466.131	9807
466.170	10227
466.210	10651
466.237	10672
466.290	10686
466.304	10818
466.369	11322
466.372	11399
466.439	13107
466.449	13336
466.506	15800
466.528	16677
466.573	27652
466.607	35911
466.641	50937
466.687	71878
466.708	74651
466.766	83109
466.775	76330
466.842	23964
466.845	21431
466.909	16024
466.925	15063
466.977	13745
467.004	13327
467.044	14240
467.083	15120
467.111	15714
467.163	16774
467.178	17203
467.242	18852
467.245	18784
467.312	16720
467.321	16420
467.379	17731
467.400	18159
467.446	20921
467.480	22855
467.559	18089
467.638	14743
467.717	15482
467.796	16739
467.875	17691
467.955	20185
468.034	41348
468.113	85010
468.192	104962
468.271	19006
468.350	15985
468.429	17360
468.508	17435
468.588	16471
468.667	14669
468.746	14510
468.825	14595
468.904	15423
468.983	21591
469.062	34062
469.141	35511
469.220	13534
469.299	13639
469.378	14941
469.456	16115
469.535	14785
469.614	15302
469.693	17794
469.772	26159
469.851	37474
469.930	18925
470.009	12749
470.088	13869
470.166	14723
470.245	14851
470.324	15047
470.403	14117
470.482	12196
470.560	12706
470.639	12301
470.718	15053
470.797	14156
470.875	19158
470.954	27240
471.033	25725
471.111	11695
471.190	11475
471.269	11955
471.347	12047
471.426	13214
471.505	15692
471.583	14951
471.662	13793
471.740	12771
471.819	12481
471.898	11903
471.976	12578
472.055	13229
472.133	16466
472.212	24536
472.290	22959
472.369	13049
472.447	12585
472.526	11023
472.604	12921
472.683	12996
472.761	12983
472.839	11482
472.918	12297
472.996	14421
473.075	17024
473.153	13910
473.231	12595
473.310	16633
473.388	14417
473.466	14098
473.545	14394
473.623	15377
473.701	14675
473.780	12199
473.858	10687
473.936	12787
474.014	12106
474.093	17202
474.171	27159
474.249	39089
474.327	17906
474.405	11006
474.484	11346
474.562	11090
474.640	11311
474.718	12979
474.796	12546
474.874	10784
474.952	10598
475.030	11050
475.108	10815
475.187	11968
475.265	13233
475.343	17265
475.421	17393
475.499	11428
475.577	12444
475.655	24367
475.733	51119
475.811	81716
475.889	73248
475.966	32954
476.044	14618
476.122	17882
476.200	19927
476.278	15791
476.356	14231
476.434	15654
476.512	17366
476.590	22632
476.667	17275
476.745	13733
476.823	14775
476.901	15431
476.979	16061
477.056	15591
477.134	15259
477.212	13658
477.290	13097
477.367	12353
477.445	13163
477.523	13231
477.601	13095
477.678	14544
477.756	19488
477.834	19675
477.911	12753
477.989	13364
478.066	13503
478.144	17152
478.222	16703
478.299	23674
478.377	17961
478.454	11496
478.532	11475
478.609	12205
478.687	13096
478.764	10851
478.842	12164
478.919	13190
478.997	12652
479.074	13659
479.152	17635
479.229	21985
479.307	12610
479.384	11174
479.461	11301
479.539	15243
479.616	17287
479.694	13097
479.771	16586
479.848	17648
479.926	24955
480.003	21168
480.080	11619
480.157	12074
480.235	11165
480.312	13113
480.389	18638
480.467	31611
480.544	33535
480.621	15733
480.698	15873
480.775	18814
480.853	19817
480.930	15320
481.007	17187
481.084	19188
481.161	19664
481.238	17622
481.315	13793
481.392	13497
481.470	14241
481.547	14574
481.624	14470
481.701	13919
481.778	15497
481.855	18730
481.932	30877
482.009	50549
482.086	24656
482.163	15329
482.240	19784
482.317	27968
482.393	19634
482.470	14792
482.547	15104
482.624	14034
482.701	15021
482.778	12994
482.855	11754
482.932	11626
483.009	13191
483.085	13936
483.162	16633
483.239	15730
483.316	11839
483.393	13303
483.469	13133
483.546	17043
483.623	17368
483.699	12151
483.776	13206
483.853	16105
483.930	32115
484.006	74163
484.083	105905
484.160	33747
484.236	41086
484.313	29957
484.389	26105
484.466	25031
484.543	23086
484.619	24478
484.696	28627
484.772	31443
484.849	33321
484.925	23446
485.002	23715
485.078	25775
485.155	25517
485.231	22003
485.308	23251
485.384	25293
485.461	38487
485.537	67144
485.614	66268
485.690	23346
485.766	21766
485.843	23203
485.919	27187
485.995	24941
486.072	19234
486.148	20446
486.224	19497
486.301	23052
486.377	27396
486.453	25040
486.530	24525
486.606	30034
486.682	35050
486.758	52733
486.835	57737
486.911	46563
486.987	80368
487.063	49741
487.139	47204
487.215	34702
487.292	22989
487.368	21722
487.444	25204
487.520	29330
487.596	28657
487.672	45132
487.748	93889
487.824	110120
487.900	35556
487.976	25463
488.052	28044
488.128	30070
488.204	24007
488.280	23669
488.356	36480
488.432	82277
488.508	104415
488.584	23488
488.660	17915
488.736	19335
488.812	18619
488.888	23009
488.964	29228
489.039	50791
489.115	67344
489.191	34920
489.267	21313
489.343	21541
489.418	17149
489.494	16742
489.570	15302
489.646	18157
489.722	18364
489.797	22513
489.873	45508
489.949	95130
490.024	52754
490.100	18031
490.176	16994
490.251	19651
490.327	21526
490.403	15997
490.478	16653
490.554	13091
490.629	14593
490.705	13829
490.781	16825
490.856	16435
490.932	17114
491.007	16338
491.083	17049
491.158	16910
491.234	33365
491.309	73691
491.385	53880
491.460	17832
491.536	18103
491.611	14117
491.686	17051
491.762	20022
491.837	35854
491.913	58290
491.988	81661
492.063	70074
492.139	42632
492.214	23488
492.289	12928
492.365	13213
492.440	16854
492.515	19161
492.590	17643
492.666	14650
492.741	25338
492.816	37793
492.891	15051
492.967	12109
493.042	11498
493.117	10184
493.192	11358
493.267	14520
493.342	21889
493.418	20526
493.493	10743
493.568	9914
493.643	12671
493.718	19687
493.793	29122
493.868	21266
493.943	12190
494.018	12914
494.093	12720
494.168	12016
494.243	10998
494.318	9861
494.393	11217
494.468	9795
494.543	10161
494.618	12204
494.693	11065
494.768	11740
494.842	11593
494.917	9433
494.992	10743
495.067	8935
495.142	9647
495.217	9610
495.292	9897
495.366	13469
495.441	17978
495.516	23104
495.591	31269
495.665	75033
495.740	131370
495.815	41271
495.890	20950
495.964	16852
496.039	20371
496.114	18278
496.188	19568
496.263	18980
496.338	18644
496.412	22920
496.487	24391
496.561	21445
496.636	20535
496.710	19451
496.785	22914
496.860	26134
496.934	17852
497.009	17917
497.083	16922
497.158	19320
497.232	25214
497.307	28024
497.381	22238
497.455	32155
497.530	38901
497.604	22533
497.679	27800
497.753	47047
497.827	49234
497.902	38824
497.976	55378
498.050	166409
498.125	490197
498.199	308876
498.273	46991
498.348	35535
498.422	29077
498.496	28020
498.570	25059
498.645	22704
498.719	23894
498.793	35063
498.867	59903
498.941	84613
499.016	243574
499.090	478782
499.164	91125
499.238	20416
499.312	20179
499.386	22489
499.460	22197
499.534	21521
499.609	30703
499.683	48150
499.757	46937
499.831	126747
499.905	380856
499.979	224435
500.053	57643
500.127	45210
500.201	24982
500.275	21108
500.349	21466
500.422	24417
500.496	35971
500.570	77816
500.644	224403
500.718	322174
500.792	45688
500.866	26037
500.940	35053
501.013	23901
501.087	26123
501.161	37783
501.235	63644
501.309	176014
501.382	382812
501.456	205089
501.530	75844
501.603	125405
501.677	32376
501.751	19645
501.825	29971
501.898	67568
501.972	164194
502.046	62622
502.119	30699
502.193	81907
502.266	165806
502.340	59952
502.413	92490
502.487	144727
502.561	72655
502.634	20088
502.708	17194
502.781	15197
502.855	14971
502.928	14398
503.002	15321
503.075	14000
503.149	16336
503.222	16000
503.295	17957
503.369	24946
503.442	43814
503.516	150985
503.589	290429
503.662	137390
503.736	62185
503.809	145322
503.882	94838
503.956	165196
504.029	98327
504.102	61654
504.175	63667
504.249	24207
504.322	25601
504.395	20165
504.468	15281
504.542	16845
504.615	12100
504.688	11042
504.761	12444
504.834	15914
504.907	14933
504.980	19507
505.053	14072
505.127	14335
505.200	23031
505.273	28083
505.346	14100
505.419	11524
505.492	13666
505.565	9314
505.638	10713
505.711	11547
505.784	9665
505.857	10113
505.930	12277
506.003	10885
506.076	14774
506.149	20291
506.221	22617
506.294	27056
506.367	79661
506.440	201925
506.513	60183
506.586	23452
506.659	12928
506.731	11669
506.804	15008
506.877	16592
506.950	14707
507.022	12244
507.095	18875
507.168	18235
507.241	11125
507.313	8548
507.386	10507
507.459	11639
507.531	8772
507.604	8469
507.677	9395
507.749	7509
507.822	12220
507.894	17579
507.967	18814
508.040	11891
508.112	12421
508.185	11688
508.257	9739
508.330	14535
508.402	10990
508.475	12699
508.547	13810
508.620	17875
508.692	26693
508.765	11263
508.837	10283
508.909	9436
508.982	10382
509.054	10799
509.127	9210
509.199	8957
509.271	9476
509.344	8616
509.416	8517
509.488	10339
509.560	8781
509.633	8694
509.705	10750
509.777	11599
509.849	13256
509.922	8469
509.994	8672
510.066	10529
510.138	9901
510.210	18074
510.283	15056
510.355	12408
510.427	12342
510.499	11422
510.571	10971
510.643	11205
510.715	16320
510.787	11212
510.859	13209
510.931	14755
511.003	15080
511.076	13932
511.148	10181
511.219	14080
511.291	28531
511.363	24017
511.435	10342
511.507	8558
511.579	10291
511.651	10632
511.723	9320
511.795	9215
511.867	11421
511.939	18822
512.010	41560
512.082	18987
512.154	9467
512.226	9826
512.298	15492
512.369	17192
512.441	14598
512.513	13278
512.585	10156
512.656	13736
512.728	12992
512.800	10447
512.871	10601
512.943	11001
513.015	8278
513.086	9614
513.158	10544
513.230	12265
513.301	15068
513.373	14619
513.444	9391
513.516	8961
513.588	8709
513.659	10853
513.731	11611
513.802	10943
513.874	22677
513.945	24822
514.016	9760
514.088	8849
514.159	10080
514.231	14007
514.302	15512
514.374	14288
514.445	19017
514.516	45826
514.588	21577
514.659	20442
514.730	38365
514.802	18454
514.873	10860
514.944	13504
515.016	11736
515.087	14836
515.158	27204
515.229	30421
515.301	12536
515.372	14385
515.443	9860
515.514	9382
515.585	7919
515.656	9515
515.728	9544
515.799	7372
515.870	9629
515.941	9299
516.012	9376
516.083	12493
516.154	12327
516.225	15344
516.296	13685
516.367	11016
516.438	12430
516.509	15548
516.580	24316
516.651	67625
516.722	155434
516.793	51294
516.864	24078
516.935	26248
517.006	29025
517.077	38625
517.148	74180
517.219	190582
517.289	224258
517.360	186088
517.431	44696
517.502	18504
517.573	19036
517.643	18563
517.714	18984
517.785	19035
517.856	18720
517.926	20844
517.997	21002
518.068	21488
518.138	29662
518.209	45552
518.280	144106
518.350	331173
518.421	80765
518.492	23277
518.562	23609
518.633	26018
518.703	23688
518.774	45010
518.845	91653
518.915	66455
518.986	27492
519.056	27231
519.127	40946
519.197	79582
519.268	206916
519.338	81568
519.408	26885
519.479	22871
519.549	16443
519.620	17039
519.690	13996
519.760	15559
519.831	14600
519.901	13496
519.971	14575
520.042	15436
520.112	18810
520.182	16732
520.253	16011
520.323	13246
520.393	13179
520.463	16590
520.534	15230
520.604	23791
520.674	17563
520.744	20519
520.814	24207
520.885	32337
520.955	91909
521.025	230362
521.095	48707
521.165	17079
521.235	16313
521.305	12743
521.375	12773
521.445	14101
521.515	13848
521.585	17385
521.655	13228
521.725	14106
521.795	14557
521.865	13527
521.935	27879
522.005	16840
522.075	12974
522.145	14747
522.215	19303
522.285	28990
522.355	43914
522.424	77761
522.494	46338
522.564	20306
522.634	34794
522.704	61589
522.774	19465
522.843	13383
522.913	12070
522.983	13857
523.053	11617
523.122	13417
523.192	17209
523.262	39621
523.331	24872
523.401	11966
523.471	9977
523.540	10940
523.610	9091
523.680	10699
523.749	12545
523.819	17449
523.888	14723
523.958	10693
524.027	12886
524.097	14597
524.166	10943
524.236	11428
524.305	14029
524.375	11094
524.444	10469
524.514	14341
524.583	13966
524.653	18432
524.722	18204
524.791	11079
524.861	12833
524.930	9268
524.999	11438
525.069	15779
525.138	15941
525.207	19437
525.277	12643
525.346	11719
525.415	11854
525.484	12523
525.554	16635
525.623	14911
525.692	12788
525.761	14285
525.830	14238
525.900	15842
525.969	24765
526.038	34295
526.107	69324
526.176	151376
526.245	94729
526.314	46770
526.383	92757
526.452	102979
526.522	196287
526.591	140307
526.660	39525
526.729	23910
526.797	35432
526.867	77757
526.935	244981
527.004	370219
527.073	132718
527.142	18366
527.211	13027
527.280	14823
527.349	12925
527.418	9061
527.487	10220
527.555	9186
527.624	8070
527.693	7590
527.762	11022
527.831	7957
527.899	10073
527.968	9497
528.037	9401
528.106	12141
528.174	18006
528.243	18210
528.312	28507
528.380	21867
528.449	10205
528.518	10462
528.586	7241
528.655	8908
528.723	8634
528.792	8042
528.861	9353
528.929	8393
528.998	9359
529.066	7424
529.135	8077
529.203	7387
529.272	7188
529.340	7802
529.409	9781
529.477	9106
529.545	14132
529.614	14823
529.682	17225
529.751	17308
529.819	18408
529.887	10000
529.956	8947
530.024	9292
530.092	7992
530.161	9690
530.229	11036
530.297	7516
530.365	8841
530.434	7546
530.502	6925
530.570	8426
530.638	6594
530.707	8587
530.775	10438
530.843	7574
530.911	8196
530.979	7847
531.047	7970
531.115	9223
531.183	8843
531.252	9283
531.320	9165
531.388	7796
531.456	8205
531.524	6525
531.592	8986
531.660	10204
531.728	7634
531.796	7643
531.864	8379
531.932	7939
532.000	7197
532.067	7976
532.135	9012
532.203	10503
532.271	10828
532.339	15831
532.407	28117
532.475	14414
532.542	12214
532.610	13420
532.678	19482
532.746	67634
532.814	97440
532.881	20146
532.949	9528
533.017	8879
533.084	8590
533.152	8774
533.220	8365
533.287	7990
533.355	8339
533.423	8760
533.490	7552
533.558	8090
533.625	9485
533.693	8529
533.761	10622
533.828	10164
533.896	8072
533.963	14919
534.031	15373
534.098	19734
534.166	10178
534.233	8471
534.300	9866
534.368	9161
534.435	10012
534.503	9204
534.570	9254
534.637	9647
534.705	11122
534.772	13853
534.840	24043
534.907	80966
534.974	65756
535.041	13888
535.109	14575
535.176	7756
535.243	8320
535.310	9300
535.378	6701
535.445	7762
535.512	8499
535.579	9107
535.646	7839
535.714	9299
535.781	9762
535.848	10858
535.915	11253
535.982	9579
536.049	9581
536.116	10912
536.183	9414
536.250	9630
536.317	9702
536.384	11631
536.451	13299
536.518	12094
536.585	10533
536.652	15387
536.719	16110
536.786	11170
536.853	11133
536.920	19515
536.987	23145
537.053	23069
537.120	70313
537.187	35999
537.254	10067
537.321	9214
537.388	10554
537.454	8848
537.521	8851
537.588	8640
537.654	11767
537.721	10494
537.788	10898
537.855	9016
537.921	9671
537.988	8909
538.055	10432
538.121	9255
538.188	10554
538.254	14384
538.321	19042
538.388	11746
538.454	10593
538.521	9733
538.587	9102
538.654	8943
538.720	9192
538.787	9270
538.853	12101
538.920	13896
538.986	14573
539.053	11915
539.119	11427
539.185	9606
539.252	12616
539.318	13364
539.385	13271
539.451	11416
539.517	12732
539.583	16201
539.650	31097
539.716	43531
539.782	13121
539.849	9361
539.915	11743
539.981	11012
540.047	11004
540.114	10851
540.180	11583
540.246	10297
540.312	14314
540.378	22571
540.444	20447
540.510	28575
540.576	46777
540.643	14512
540.709	9539
540.775	9584
540.841	10799
540.907	17421
540.973	20454
541.039	14253
541.105	14047
541.171	9790
541.237	9160
541.303	11827
541.369	13210
541.435	14334
541.500	18673
541.566	11387
541.632	9471
541.698	9284
541.764	10315
541.830	10053
541.896	9198
541.961	10900
542.027	9902
542.093	10202
542.159	10152
542.224	11280
542.290	15971
542.356	19587
542.421	18126
542.487	12119
542.553	11054
542.618	13157
542.684	10437
542.750	11097
542.815	14894
542.881	23555
542.947	49860
543.012	23780
543.078	9501
543.143	9996
543.209	12394
543.274	10907
543.340	14236
543.405	23728
543.471	23517
543.536	10781
543.602	11204
543.667	10265
543.732	11333
543.798	9214
543.863	10570
543.928	8883
543.994	9561
544.059	9944
544.124	9712
544.190	8994
544.255	10665
544.320	9685
544.386	9131
544.451	13765
544.516	13524
544.581	16347
544.646	37470
544.712	36639
544.777	15254
544.842	16659
544.907	17524
544.972	14818
545.037	15178
545.102	16639
545.168	16780
545.233	16399
545.298	17719
545.363	19725
545.428	19381
545.493	27965
545.558	37815
545.623	19532
545.688	16431
545.753	15480
545.818	15617
545.883	16531
545.947	15977
546.012	19177
546.077	19195
546.142	17396
546.207	16805
546.272	18858
546.337	18605
546.401	18595
546.466	16395
546.531	15790
546.596	18784
546.661	17068
546.725	18308
546.790	16996
546.855	19118
546.919	18743
546.984	20022
547.049	23092
547.113	27530
547.178	24320
547.243	27733
547.307	30961
547.372	35493
547.436	35279
547.501	29788
547.565	31116
547.630	31056
547.695	32988
547.759	39901
547.823	31709
547.888	29071
547.952	30388
548.017	32489
548.081	36530
548.146	45112
548.210	37239
548.274	32262
548.339	30066
548.403	29324
548.468	27723
548.532	29131
548.596	29273
548.660	29535
548.725	33258
548.789	38475
548.853	37179
548.917	34501
548.982	43388
549.046	35901
549.110	27173
549.174	28131
549.238	30680
549.303	29773
549.367	32066
549.431	29796
549.495	28708
549.559	30170
549.623	33777
549.687	38116
549.751	41649
549.815	42145
549.879	39982
549.943	38689
550.007	42936
550.071	41262
550.135	41222
550.199	36940
550.263	37795
550.327	40799
550.391	46440
550.455	39286
550.519	40839
550.582	43319
550.646	48574
550.710	47302
550.774	45242
550.838	46140
550.901	48098
550.965	50530
551.029	52378
551.093	59956
551.156	73990
551.220	115426
551.284	103539
551.347	73220
551.411	122506
551.475	93226
551.538	49550
551.602	45032
551.666	43540
551.729	40301
551.793	41145
551.856	39597
551.920	38245
551.983	38383
552.047	38219
552.110	39527
552.174	38520
552.237	39442
552.301	36483
552.364	35774
552.428	35399
552.491	36462
552.554	37141
552.618	36862
552.681	38266
552.745	36708
552.808	42785
552.871	43709
552.934	39905
552.998	38998
553.061	38163
553.124	34923
553.187	35014
553.251	36293
553.314	36393
553.377	36074
553.440	40607
553.503	44534
553.567	44576
553.630	37983
553.693	39095
553.756	38438
553.819	36850
553.882	36735
553.945	36868
554.008	36137
554.071	36077
554.134	36609
554.197	34424
554.260	33491
554.323	36728
554.386	35863
554.449	36037
554.512	35894
554.575	34617
554.638	35832
554.701	33993
554.764	33780
554.827	33287
554.889	30921
554.952	30305
555.015	30424
555.078	30974
555.141	32034
555.203	28986
555.266	30200
555.329	31531
555.391	28519
555.454	28929
555.517	29257
555.580	27450
555.642	26764
555.705	26538
555.768	26395
555.830	26307
555.893	24656
555.955	24359
556.018	24831
556.080	24232
556.143	24161
556.206	24768
556.268	26520
556.330	25466
556.393	24997
556.455	26156
556.518	37509
556.580	30697
556.643	22210
556.705	22176
556.767	21345
556.830	22878
556.892	23386
556.955	25450
557.017	21529
557.079	21004
557.142	21999
557.204	23304
557.266	29660
557.328	24603
557.391	19148
557.453	18923
557.515	19456
557.577	21698
557.639	20738
557.701	19492
557.764	18549
557.826	20259
557.888	22845
557.950	21157
558.012	23996
558.074	31250
558.136	63296
558.198	102611
558.260	34902
558.322	21796
558.384	22471
558.446	24167
558.508	28631
558.570	33116
558.632	48010
558.694	64079
558.756	93002
558.818	262276
558.880	424697
558.942	110963
559.003	109915
559.065	41469
559.127	26545
559.189	28624
559.251	36639
559.312	55673
559.374	131577
559.436	313848
559.498	97977
559.559	27866
559.621	28882
559.683	40879
559.744	72138
559.806	190812
559.868	182823
559.929	40398
559.991	36509
560.052	57831
560.114	114384
560.176	61989
560.237	77378
560.299	87378
560.360	25165
560.422	20757
560.483	20014
560.545	19600
560.606	19078
560.667	18077
560.729	19015
560.790	17540
560.852	18160
560.913	18942
560.974	17856
561.036	17447
561.097	17126
561.158	18087
561.220	18820
561.281	16905
561.342	18077
561.403	20801
561.465	22852
561.526	36439
561.587	34577
561.648	18077
561.709	16800
561.771	16992
561.832	16632
561.893	17146
561.954	16525
562.015	16386
562.076	16691
562.137	16321
562.198	15647
562.259	16842
562.320	17674
562.381	18060
562.442	21784
562.503	18378
562.564	17429
562.625	15728
562.686	17452
562.747	17638
562.808	18085
562.869	20281
562.930	24510
562.991	22640
563.051	20729
563.112	18972
563.173	18483
563.234	16441
563.294	17177
563.355	18325
563.416	18275
563.477	17871
563.537	19741
563.598	19636
563.659	19263
563.720	18488
563.780	19270
563.841	18365
563.901	17753
563.962	18251
564.023	18212
564.083	19070
564.144	19755
564.204	19590
564.265	22446
564.325	28394
564.386	53640
564.446	34045
564.507	17411
564.567	17369
564.628	16679
564.688	17697
564.749	18704
564.809	24001
564.869	25046
564.930	17810
564.990	16902
565.050	15912
565.111	17028
565.171	15919
565.231	16525
565.292	16190
565.352	16107
565.412	16912
565.472	18600
565.532	16887
565.593	16062
565.653	16034
565.713	17074
565.773	16728
565.833	18577
565.893	19840
565.953	16442
566.013	18961
566.074	21817
566.134	31989
566.194	48607
566.254	37333
566.314	25047
566.374	18223
566.434	17974
566.494	17384
566.554	17103
566.614	17901
566.673	17690
566.733	18420
566.793	19718
566.853	19501
566.913	19524
566.973	20831
567.033	21641
567.092	19617
567.152	20389
567.212	20529
567.272	22578
567.331	23203
567.391	22587
567.451	25708
567.511	37596
567.570	31417
567.630	19128
567.690	18027
567.749	19147
567.809	19552
567.868	22730
567.928	22852
567.988	26412
568.047	25004
568.107	27757
568.166	33500
568.226	48436
568.285	56200
568.345	41956
568.404	34772
568.464	31050
568.523	30827
568.582	32107
568.642	37425
568.701	46660
568.761	67215
568.820	97133
568.879	79393
568.939	64816
568.998	42072
569.057	32898
569.116	29707
569.176	25345
569.235	22502
569.294	22050
569.353	19849
569.413	22491
569.472	20427
569.531	19556
569.590	18072
569.649	17300
569.708	17407
569.767	19556
569.827	22018
569.886	18071
569.945	17222
570.004	17347
570.063	18671
570.122	19252
570.181	21536
570.240	26005
570.299	22532
570.358	19989
570.417	16950
570.475	16177
570.534	18121
570.593	16777
570.652	18807
570.711	18189
570.770	18322
570.829	20001
570.887	16216
570.946	17561
571.005	16070
571.064	17464
571.122	19607
571.181	22848
571.240	17953
571.299	17519
571.357	21241
571.416	21194
571.475	28216
571.533	24054
571.592	19347
571.650	20165
571.709	16598
571.768	16449
571.826	15925
571.885	16465
571.943	16109
572.002	18290
572.060	18104
572.119	14802
572.177	14772
572.236	14765
572.294	14352
572.352	15160
572.411	14719
572.469	14370
572.528	15352
572.586	14994
572.644	17642
572.703	20115
572.761	17380
572.819	16551
572.877	14146
572.936	13985
572.994	14001
573.052	14558
573.110	14599
573.169	15179
573.227	13245
573.285	14947
573.343	14410
573.401	16015
573.459	14605
573.517	14081
573.576	14159
573.634	14912
573.692	15567
573.750	15832
573.808	15965
573.866	19079
573.924	27019
573.982	22221
574.040	15793
574.098	15519
574.155	13758
574.213	13933
574.271	13999
574.329	14770
574.387	13373
574.445	13490
574.503	12720
574.560	12112
574.618	12606
574.676	12398
574.734	13161
574.792	13003
574.849	12051
574.907	12067
574.965	12107
575.022	11519
575.080	12918
575.138	12730
575.195	13656
575.253	13954
575.311	13291
575.368	13362
575.426	12618
575.483	13488
575.541	13479
575.598	13110
575.656	14685
575.713	14057
575.771	13305
575.828	12541
575.886	14967
575.943	15522
576.001	16280
576.058	16283
576.115	17898
576.173	21224
576.230	22943
576.287	21536
576.345	18128
576.402	16299
576.459	17328
576.517	18346
576.574	21424
576.631	21732
576.688	17153
576.746	15539
576.803	16088
576.860	15858
576.917	16314
576.974	15878
577.031	15572
577.089	16008
577.146	16489
577.203	17341
577.260	18300
577.317	20434
577.374	25311
577.431	20310
577.488	16459
577.545	14618
577.602	14883
577.659	14028
577.716	15043
577.773	14718
577.830	14236
577.886	15012
577.943	13812
578.000	15575
578.057	16577
578.114	14943
578.171	14444
578.227	14918
578.284	14585
578.341	16770
578.398	17122
578.454	18867
578.511	22863
578.568	24711
578.625	18443
578.681	15682
578.738	14454
578.794	15097
578.851	13868
578.908	14599
578.964	15858
579.021	15879
579.077	14525
579.134	14903
579.190	12753
579.247	13975
579.303	13654
579.360	11833
579.416	13216
579.473	13559
579.529	13073
579.586	13644
579.642	14121
579.698	15742
579.755	14978
579.811	14561
579.867	13991
579.924	13659
579.980	14174
580.036	14800
580.093	14763
580.149	14667
580.205	15682
580.261	16017
580.317	17443
580.374	18781
580.430	23477
580.486	19826
580.542	17360
580.598	16140
580.619	15964
580.654	15674
580.692	15318
580.710	15166
580.765	14845
580.767	14849
580.823	15811
580.838	15421
580.879	14439
580.911	14377
580.935	14359
580.984	14495
580.991	14527
581.047	15643
581.057	15754
581.103	16324
581.130	16297
581.159	16283
581.203	16805
581.215	16962
581.270	17292
581.276	17153
581.326	15982
581.349	16321
581.382	16852
581.422	16385
581.438	16192
581.494	17624
581.494	17606
581.550	17003
581.567	16997
581.606	16965
581.640	16274
581.661	15849
581.713	16843
581.717	16942
581.773	15873
581.786	16094
581.829	16748
581.859	16370
581.885	16099
581.932	16482
581.940	16557
581.996	16304
582.004	16278
582.052	16078
582.077	16058
582.107	16162
582.150	16662
582.163	16797
582.219	16884
582.223	16842
582.274	16585
582.296	17321
582.330	18372
582.368	18400
582.386	18414
582.441	15576
582.441	15575
582.497	15527
582.514	15519
582.552	15603
582.587	15854
582.608	16011
582.659	16027
582.663	16025
582.719	16484
582.732	16382
582.774	16321
582.805	16410
582.830	16362
582.877	15792
582.885	15686
582.941	15852
582.950	15772
582.996	15420
583.023	15792
583.052	16470
583.095	16434
583.107	16336
583.162	17390
583.168	17419
583.218	17560
583.240	17124
583.273	16433
583.313	15355
583.328	15084
583.384	17109
583.385	17090
583.439	16305
583.458	16402
583.494	16378
583.531	15796
583.549	15556
583.603	15801
583.605	15817
583.660	15866
583.676	16223
583.715	17031
583.748	17509
583.770	17873
583.820	18178
583.825	18178
583.881	17060
583.893	17036
583.936	17019
583.965	16799
583.991	16654
584.038	17320
584.046	17435
584.101	16954
584.110	17039
584.156	17303
584.183	16976
584.211	16745
584.255	16178
584.266	15927
584.321	15807
584.328	15877
584.376	17131
584.400	17222
584.431	17056
584.472	16738
584.486	16595
584.541	16341
584.545	16340
584.596	16459
584.617	16503
584.651	17311
584.689	19302
584.706	19664
584.761	18165
584.762	18157
584.816	18003
584.834	18391
584.871	19155
584.906	18922
584.926	18750
584.978	18781
584.980	18801
585.035	20250
585.051	20405
585.090	20386
585.123	20891
585.145	21362
585.195	21471
585.200	21552
585.254	22854
585.267	23384
585.309	24372
585.340	25390
585.364	26343
585.412	27821
585.419	28067
585.473	31806
585.484	33062
585.528	39955
585.556	45563
585.583	54999
585.628	75855
585.637	83480
585.692	159744
585.700	169235
585.747	199520
585.772	167858
585.801	103045
585.845	44582
585.856	38204
585.910	27703
585.917	26664
585.965	25328
585.989	24560
586.019	24032
586.061	23451
586.074	23374
586.128	24208
586.133	24268
586.183	25550
586.205	26420
586.237	27347
586.277	27640
586.292	27706
586.346	27734
586.349	27788
586.401	28640
586.421	29354
586.455	32277
586.493	36546
586.509	40879
586.564	58628
586.565	59353
586.618	99196
586.637	98619
586.672	69367
586.709	43623
586.727	36878
586.781	29672
586.781	29672
586.835	26842
586.853	26381
586.889	26007
586.925	25655
586.944	25547
586.996	25992
586.998	26031
587.052	27441
587.068	27791
587.106	28296
587.140	27969
587.161	27845
587.212	29133
587.215	29209
587.269	29922
587.284	29969
587.323	29637
587.356	29648
587.377	30005
587.427	30727
587.431	30734
587.485	30987
587.499	30990
587.539	32025
587.571	33094
587.593	33404
587.643	34265
587.648	34519
587.702	36575
587.715	37383
587.755	38932
587.786	39403
587.810	39550
587.858	39694
587.864	39904
587.917	43063
587.930	43812
587.971	47591
588.001	50330
588.025	50729
588.073	50017
588.079	50161
588.133	52697
588.145	53498
588.187	57491
588.217	59945
588.241	63075
588.288	70570
588.295	71581
588.348	79874
588.360	81919
588.402	91296
588.431	98342
588.456	104621
588.503	118364
588.510	120849
588.564	144354
588.575	150101
588.617	177748
588.646	200231
588.671	226208
588.718	284185
588.725	298681
588.778	426395
588.789	456882
588.832	649465
588.861	794032
588.886	922010
588.932	1116343
588.939	1115893
588.993	1035155
589.004	1025220
589.047	934447
589.075	821115
589.100	668299
589.147	415343
589.154	397794
589.207	293293
589.218	274694
589.261	257075
589.290	251790
589.314	263497
589.361	294705
589.368	307539
589.421	428839
589.433	459293
589.475	667978
589.504	821072
589.528	906154
589.576	1002518
589.582	984523
589.635	792759
589.647	740449
589.689	477446
589.718	313448
589.742	259284
589.790	169213
589.795	165956
589.849	142659
589.861	138790
589.902	137177
589.932	130769
589.955	113312
590.004	78146
590.009	76955
590.062	67654
590.075	65372
590.115	60495
590.146	57022
590.168	55746
590.218	52915
590.222	52904
590.275	52659
590.289	52661
590.328	51660
590.360	50251
590.381	48671
590.431	44991
590.435	44942
590.488	44252
590.503	43960
590.541	43429
590.574	42996
590.594	42701
590.645	41776
590.647	41742
590.700	40078
590.716	39542
590.753	39036
590.787	38480
590.806	38374
590.859	38231
590.859	38233
590.912	36302
590.930	35824
590.965	36026
591.001	35945
591.018	35964
591.071	35983
591.072	35954
591.124	35407
591.143	35201
591.177	35708
591.214	36140
591.230	36307
591.283	36936
591.285	36928
591.336	37506
591.356	37666
591.389	37601
591.427	37373
591.442	36942
591.495	35243
591.498	35097
591.547	35420
591.569	35505
591.600	35307
591.640	34920
591.653	35212
591.706	36460
591.711	36578
591.759	40623
591.782	42738
591.811	45810
591.853	49785
591.864	48056
591.917	38704
591.924	37359
591.969	37114
591.995	36998
592.022	37548
592.066	38321
592.075	39824
592.127	48963
592.137	50665
592.180	57276
592.208	61052
592.233	53813
592.279	39773
592.285	39385
592.338	36088
592.350	35295
592.390	34424
592.421	33767
592.443	34103
592.491	34698
592.495	34757
592.548	35158
592.562	35235
592.600	35214
592.633	35138
592.653	34700
592.704	33292
592.705	33506
592.775	34761
592.846	35245
592.916	35089
592.987	36393
593.058	36097
593.128	34500
593.199	32945
593.270	32987
593.341	33341
593.411	33934
593.482	33311
593.553	34188
593.623	32944
593.694	36226
593.764	41333
593.835	35233
593.906	33222
593.976	35487
594.047	39384
594.117	49624
594.188	50844
594.258	34382
594.329	32969
594.399	33673
594.470	33252
594.540	32515
594.611	33281
594.681	33254
594.751	33871
594.822	37251
594.892	38546
594.963	39778
595.033	38799
595.103	40350
595.174	46739
595.244	74980
595.314	95536
595.384	44498
595.455	39333
595.525	40463
595.595	40484
595.665	42027
595.736	39972
595.806	39943
595.876	38310
595.946	38930
596.016	36921
596.087	40217
596.157	39673
596.227	40291
596.297	41239
596.367	43943
596.437	51361
596.507	73242
596.577	95483
596.647	49257
596.717	44040
596.787	44404
596.857	43273
596.927	44090
596.997	42796
597.067	42606
597.137	44615
597.207	44279
597.277	44446
597.347	44720
597.417	43022
597.487	42409
597.557	44565
597.626	45462
597.696	52010
597.766	65195
597.836	91353
597.906	52991
597.975	42655
598.045	40974
598.115	41349
598.185	42735
598.254	46903
598.324	47810
598.394	47337
598.464	47921
598.533	46135
598.603	42756
598.672	43954
598.742	45110
598.812	45257
598.881	44256
598.951	44230
599.020	42334
599.090	42996
599.159	44345
599.229	42268
599.299	42115
599.368	42754
599.437	42262
599.507	42123
599.576	44772
599.646	41295
599.715	41601
599.785	42002
599.854	48118
599.924	53077
599.993	47573
600.062	41818
600.132	41114
600.201	42744
600.270	47530
600.340	47002
600.409	44301
600.478	46267
600.547	45036
600.617	44343
600.686	40438
600.755	37811
600.824	38232
600.894	37674
600.963	36399
601.032	34877
601.101	35757
601.170	34962
601.239	35461
601.308	37403
601.378	36224
601.447	34861
601.516	33540
601.585	35207
601.654	37676
601.723	35638
601.792	36155
601.861	35497
601.930	36606
601.999	36082
602.068	34797
602.137	38261
602.206	37846
602.275	35316
602.343	38740
602.412	38065
602.481	35597
602.550	34874
602.619	36352
602.688	36592
602.756	36237
602.825	34777
602.894	35801
602.963	36415
603.032	37330
603.100	35568
603.169	36192
603.238	36815
603.307	36347
603.375	35172
603.444	37241
603.513	37152
603.581	36491
603.650	36786
603.719	37223
603.787	37294
603.856	38960
603.924	39334
603.993	40226
604.061	39217
604.130	41500
604.198	40988
604.267	41758
604.335	42228
604.404	41496
604.472	41137
604.541	41854
604.609	41528
604.678	41100
604.746	41578
604.815	43196
604.883	43317
604.951	43353
605.020	44442
605.088	45620
605.156	47112
605.225	45176
605.293	45446
605.361	46795
605.429	46630
605.498	47879
605.566	48044
605.634	50249
605.702	50965
605.771	51974
605.839	52119
605.907	51241
605.975	48926
606.043	48349
606.111	49087
606.180	48494
606.248	48291
606.316	49355
606.384	52946
606.452	61968
606.520	56175
606.588	53216
606.656	48986
606.724	49387
606.792	46457
606.860	43840
606.928	39979
606.996	40642
607.064	38770
607.132	40086
607.200	42099
607.267	42315
607.335	42011
607.403	43561
607.471	42009
607.539	41827
607.607	41741
607.674	38339
607.742	40363
607.810	39373
607.878	38419
607.946	38070
608.013	38967
608.081	42069
608.149	41385
608.216	41405
608.284	42324
608.352	43057
608.419	47149
608.487	68184
608.555	49845
608.622	42150
608.690	42850
608.757	45936
608.825	47540
608.893	47477
608.960	51403
609.028	57801
609.095	74131
609.163	49659
609.230	43081
609.298	40981
609.365	37315
609.432	40522
609.500	43681
609.567	47463
609.635	53836
609.702	54703
609.769	55440
609.837	53647
609.904	44321
609.971	41507
610.039	48143
610.106	66260
610.173	127519
610.241	296190
610.308	163007
610.375	57440
610.442	43830
610.509	40880
610.577	41051
610.644	39341
610.711	41265
610.778	42257
610.845	42991
610.912	45212
610.980	46277
611.047	47909
611.114	46927
611.181	45063
611.248	43640
611.315	47234
611.382	46247
611.449	47490
611.516	48831
611.583	48466
611.650	49679
611.717	51222
611.784	52070
611.851	55202
611.918	62487
611.984	73242
612.051	117404
612.118	253296
612.185	621530
612.252	376081
612.319	87071
612.386	65092
612.452	59417
612.519	64607
612.586	85540
612.653	66693
612.719	56326
612.786	52242
612.853	49033
612.919	48677
612.986	49032
613.053	45950
613.120	43620
613.186	42390
613.253	44183
613.319	42802
613.386	43286
613.453	44413
613.519	46341
613.586	49534
613.652	54803
613.719	50772
613.785	49006
613.852	45637
613.918	44001
613.985	43907
614.051	46781
614.118	51965
614.184	49484
614.250	43607
614.317	42803
614.383	42908
614.449	43045
614.516	45360
614.582	47990
614.648	43863
614.715	42828
614.781	43657
614.847	45349
614.914	47211
614.980	45462
615.046	43547
615.112	42205
615.179	42534
615.245	44431
615.311	47641
615.377	53610
615.443	55860
615.509	50289
615.575	49765
615.642	49428
615.708	53359
615.774	55749
615.840	63223
615.906	74149
615.972	96068
616.038	160967
616.104	332621
616.170	768811
616.236	627652
616.302	145053
616.368	98938
616.434	72854
616.500	67443
616.565	73325
616.631	91053
616.697	73487
616.763	77517
616.829	116761
616.895	206032
616.961	194607
617.026	84554
617.092	58221
617.158	54635
617.224	51163
617.289	50616
617.355	49537
617.421	50502
617.487	51447
617.552	46465
617.618	45662
617.684	46470
617.749	47873
617.815	43598
617.880	42757
617.946	43719
618.012	43562
618.077	42994
618.143	42449
618.208	43639
618.274	46141
618.339	47486
618.405	41463
618.470	43234
618.536	45854
618.601	51607
618.667	46644
618.732	42378
618.798	40659
618.863	40268
618.928	40894
618.994	44155
619.059	46259
619.124	49756
619.190	44073
619.255	41155
619.320	42850
619.386	41991
619.451	38535
619.516	40270
619.581	40677
619.647	40422
619.712	39862
619.777	39800
619.842	40991
619.907	41416
619.972	41073
620.038	41063
620.103	39679
620.168	38903
620.233	39997
620.298	39229
620.363	39529
620.428	40291
620.493	40484
620.558	41113
620.623	40277
620.688	40777
620.753	39973
620.818	40627
620.883	40629
620.948	41125
621.013	39563
621.078	41212
621.143	43007
621.207	46082
621.272	44558
621.337	47135
621.402	51720
621.467	70155
621.532	71478
621.596	53959
621.661	48725
621.726	45785
621.791	46179
621.855	47623
621.920	49174
621.985	57279
622.049	67017
622.114	61872
622.179	53051
622.243	54187
622.308	53867
622.373	55957
622.437	52443
622.502	50376
622.566	49775
622.631	51134
622.695	51449
622.760	50331
622.824	48619
622.889	49290
622.953	51556
623.018	59284
623.082	57005
623.147	51482
623.211	48485
623.276	50213
623.340	45580
623.404	45527
623.469	46051
623.533	45383
623.597	44453
623.662	45053
623.726	44010
623.790	41443
623.854	43253
623.919	44416
623.983	42685
624.047	44930
624.111	42762
624.176	45065
624.240	46070
624.304	49306
624.368	43328
624.432	44098
624.496	44992
624.560	45001
624.625	46170
624.689	44265
624.753	43439
624.817	43437
624.881	42247
624.945	40182
625.009	40241
625.073	41017
625.137	43442
625.201	46939
625.265	44641
625.329	41207
625.393	42519
625.456	43156
625.520	45859
625.584	51167
625.648	64209
625.712	106645
625.776	248874
625.839	273809
625.903	98079
625.967	55868
626.031	98559
626.095	157350
626.158	55829
626.222	36694
626.286	35227
626.349	33014
626.413	30647
626.477	35663
626.540	32345
626.604	33765
626.668	33679
626.731	33194
626.795	36359
626.858	35802
626.922	32927
626.986	33285
627.049	29964
627.113	31905
627.176	30026
627.240	32025
627.303	31207
627.366	32095
627.430	31941
627.493	31128
627.557	33496
627.620	32898
627.684	33250
627.747	33118
627.810	30602
627.874	31031
627.937	28552
628.000	32621
628.064	30889
628.127	26412
628.190	29145
628.253	29700
628.317	28022
628.380	27407
628.443	27293
628.506	27175
628.569	26532
628.632	25250
628.696	26797
628.759	26240
628.822	23983
628.885	24946
628.948	23808
629.011	25786
629.074	25437
629.137	22893
629.200	23913
629.263	27896
629.326	23029
629.389	23134
629.452	24773
629.515	26575
629.578	24899
629.641	26518
629.704	25485
629.767	24141
629.830	22324
629.892	22862
629.955	22056
630.018	24548
630.081	23497
630.144	26839
630.207	22430
630.269	27390
630.332	31427
630.395	24832
630.458	20822
630.520	21424
630.583	21550
630.646	22140
630.708	20691
630.771	21948
630.834	22036
630.896	20811
630.959	20182
631.021	20468
631.084	21357
631.146	27643
631.209	31279
631.272	22522
631.334	20238
631.397	21145
631.459	19274
631.522	20546
631.584	22071
631.646	23114
631.709	23283
631.771	29449
631.834	23615
631.896	21500
631.958	17833
632.021	20661
632.083	18344
632.145	22355
632.208	18407
632.270	19961
632.332	19155
632.395	18879
632.457	21427
632.519	20108
632.581	19462
632.643	17900
632.706	19450
632.768	17235
632.830	19391
632.892	18265
632.954	19407
633.016	19795
633.078	16536
633.141	18981
633.203	18480
633.265	19020
633.327	17795
633.389	17869
633.451	20259
633.513	22155
633.575	25747
633.637	20630
633.698	19581
633.760	18557
633.822	17979
633.884	18080
633.946	18580
634.008	18468
634.070	18487
634.132	19586
634.193	21548
634.255	21552
634.317	19965
634.379	22311
634.441	20620
634.502	19349
634.564	18166
634.626	17047
634.687	16895
634.749	17602
634.811	16626
634.873	15577
634.934	16139
634.996	17166
635.057	15847
635.119	16117
635.181	16982
635.242	17912
635.304	15198
635.365	19390
635.427	16558
635.488	16661
635.550	16231
635.611	17030
635.673	15994
635.734	20252
635.796	18361
635.857	20771
635.918	18890
635.980	22552
636.041	20691
636.102	22397
636.164	21788
636.225	21459
636.286	18558
636.348	19299
636.409	16693
636.470	16281
636.531	17199
636.593	22718
636.654	20578
636.715	14735
636.776	14367
636.838	13904
636.899	16374
636.960	14747
637.021	13364
637.082	13736
637.143	14682
637.204	13998
637.265	12637
637.326	14370
637.387	13551
637.448	12826
637.509	14029
637.570	14027
637.631	12880
637.692	12722
637.753	11749
637.814	13400
637.875	12381
637.936	13974
637.997	13056
638.058	13921
638.119	15756
638.179	13099
638.240	12560
638.301	12517
638.362	12619
638.423	12989
638.483	13834
638.544	11133
638.605	13390
638.666	11583
638.726	14428
638.787	13130
638.848	11836
638.908	11983
638.969	11547
639.030	13072
639.090	10855
639.151	12355
639.211	12654
639.272	15062
639.332	19043
639.393	14185
639.453	11529
639.514	12882
639.574	12502
639.635	11764
639.695	13161
639.756	11308
639.816	11562
639.877	12277
639.937	17532
639.997	19948
640.058	11000
640.118	10295
640.178	11482
640.239	10494
640.299	10502
640.359	10093
640.420	11775
640.480	11587
640.540	11199
640.600	12076
640.661	12117
640.721	12390
640.781	14494
640.841	11498
640.901	12608
640.961	11930
641.021	12330
641.082	12319
641.142	13477
641.202	12613
641.262	9009
641.322	11287
641.382	9304
641.442	11878
641.502	11119
641.562	11695
641.622	10112
641.682	11106
641.742	11466
641.802	11340
641.861	12855
641.921	11552
641.981	11989
642.041	12662
642.101	14003
642.161	10956
642.221	9779
642.280	10231
642.340	9231
642.400	8930
642.460	11256
642.519	10306
642.579	9507
642.639	11349
642.698	7684
642.758	11890
642.818	10161
642.877	10776
642.937	10843
642.997	11412
643.056	13946
643.116	9125
643.175	11184
643.235	10653
643.294	10940
643.354	11710
643.414	11646
643.473	13076
643.532	13934
643.592	19427
643.651	29042
643.711	50182
643.770	95578
643.830	232704
643.889	464354
643.948	106154
644.008	22355
644.067	14918
644.126	12787
644.186	12319
644.245	10590
644.304	9404
644.363	11229
644.423	8675
644.482	10971
644.541	10620
644.600	8292
644.659	12787
644.719	13140
644.778	20133
644.837	30007
644.896	57520
644.955	120889
645.014	41743
645.073	13620
645.132	12009
645.191	11585
645.250	9851
645.309	11616
645.368	11073
645.427	13532
645.486	17533
645.545	27893
645.604	11160
645.663	9543
645.722	10408
645.781	10256
645.840	11666
645.898	13140
645.957	19561
646.016	26191
646.075	47804
646.134	89823
646.192	239325
646.251	329557
646.310	48789
646.369	16249
646.427	14335
646.486	10705
646.545	9386
646.603	10048
646.662	10045
646.721	9284
646.779	8852
646.838	8019
646.896	12063
646.955	12585
647.014	19298
647.072	30915
647.131	77602
647.189	35697
647.248	10228
647.306	8370
647.365	9515
647.423	6871
647.481	9093
647.540	6262
647.598	7605
647.657	7005
647.715	8947
647.773	6785
647.832	9050
647.890	6790
647.948	8681
648.007	8223
648.065	6757
648.123	6563
648.181	8494
648.240	7504
648.298	7216
648.356	7281
648.414	8638
648.472	7944
648.531	8802
648.589	7153
648.647	7671
648.705	7486
648.763	7868
648.821	7628
648.879	8279
648.937	8571
648.995	8844
649.053	11101
649.111	15298
649.169	23332
649.227	38385
649.285	76010
649.343	209094
649.401	93663
649.459	25368
649.516	17106
649.574	10138
649.632	13272
649.690	14271
649.748	14191
649.806	14284
649.863	22116
649.921	55510
649.979	34793
650.037	9672
650.094	6716
650.152	8536
650.210	6216
650.268	6879
650.325	6673
650.383	7826
650.440	5639
650.498	7083
650.556	7655
650.613	5635
650.671	6751
650.728	8483
650.786	8481
650.843	8200
650.901	5895
650.958	6964
651.016	6474
651.073	6091
651.131	5352
651.188	6448
651.246	6934
651.303	5413
651.360	6191
651.418	6166
651.475	6659
651.532	5032
651.590	6264
651.647	5747
651.704	6337
651.762	5939
651.819	6652
651.876	5975
651.933	5085
651.990	6849
652.048	5059
652.105	5886
652.162	5969
652.219	5728
652.276	5547
652.333	5713
652.390	3817
652.448	5131
652.505	5862
652.562	5950
652.619	4530
652.676	6177
652.733	6403
652.790	5094
652.847	3475
652.904	5661
652.961	4332
653.017	4972
653.074	6354
653.131	5941
653.188	4401
653.245	5898
653.302	5027
653.359	4734
653.415	5843
653.472	5014
653.529	5958
653.586	4647
653.642	4928
653.699	5241
653.756	3846
653.813	4426
653.869	5484
653.926	5374
653.983	4354
654.039	5297
654.096	4805
654.152	6711
654.209	5037
654.266	6910
654.322	4874
654.379	7560
654.435	7790
654.492	8443
654.548	11375
654.605	18878
654.661	8824
654.717	5930
654.774	7469
654.830	7303
654.887	7173
654.943	6428
655.000	7282
655.056	5769
655.112	6996
655.168	6053
655.225	7027
655.281	8956
655.337	13802
655.394	24920
655.450	16177
655.506	13456
655.562	25324
655.618	17738
655.675	5875
655.731	6096
655.787	5238
655.843	6277
655.899	4792
655.955	6636
656.011	4978
656.067	4600
656.123	5854
656.179	5864
656.235	6808
656.291	4307
656.347	6197
656.403	5960
656.459	6399
656.515	9147
656.571	8226
656.627	6444
656.683	5654
656.739	5589
656.795	4997
656.850	5892
656.906	7680
656.962	6217
657.018	5095
657.074	5893
657.129	6383
657.185	7343
657.241	10374
657.297	7791
657.352	6019
657.408	4811
657.464	7103
657.519	6640
657.575	4316
657.630	5657
657.686	5457
657.742	5811
657.797	4477
657.853	4632
657.908	6880
657.964	4386
658.019	5852
658.075	6469
658.130	5466
658.186	3985
658.241	5136
658.297	5198
658.352	5389
658.407	5895
658.463	5002
658.518	5025
658.573	5127
658.629	3750
658.684	4687
658.739	5050
658.795	4116
658.850	4757
658.905	4232
658.960	4038
659.016	4775
659.071	5776
659.126	4940
659.181	5704
659.236	8263
659.291	7872
659.346	5681
659.401	6210
659.457	5258
659.512	5469
659.567	5473
659.622	5100
659.677	4789
659.732	5181
659.787	5783
659.842	8379
659.897	10539
659.952	6668
660.007	5445
660.061	5495
660.116	4531
660.171	4181
660.226	4267
660.281	5013
660.336	3471
660.391	5118
660.445	4346
660.500	5243
660.555	5492
660.610	4798
660.664	4163
660.719	4777
660.774	4626
660.828	5879
660.883	5113
660.938	5817
660.992	3966
661.047	5797
661.101	4753
661.156	5494
661.211	4497
661.265	4283
661.320	4454
661.374	4787
661.429	4569
661.483	5737
661.538	4807
661.592	4454
661.647	4640
661.701	5953
661.755	5891
661.810	5885
661.864	4407
661.919	4500
661.973	6105
662.027	4773
662.081	3935
662.136	5468
662.190	5808
662.244	7023
662.299	5531
662.353	4323
662.407	4671
662.461	5253
662.515	5695
662.569	5967
662.624	6767
662.678	4536
662.732	5629
662.786	5222
662.840	5920
662.894	6267
662.948	5556
663.002	5202
663.056	5403
663.110	4962
663.164	4317
663.218	5547
663.272	4986
663.326	5482
663.380	5530
663.434	6245
663.488	5034
663.542	5194
663.595	5733
663.649	6081
663.703	5071
663.757	6343
663.811	4691
663.864	4646
663.918	5263
663.972	5728
664.026	4933
664.079	5573
664.133	5647
664.187	5431
664.240	4261
664.294	4561
664.348	5492
664.401	5143
664.455	4937
664.508	4836
664.562	4882
664.615	5786
664.669	4091
664.722	4519
664.776	4491
664.829	6224
664.883	5818
664.936	5575
664.990	5925
665.043	6332
665.097	7899
665.150	8302
665.203	6798
665.257	6645
665.310	6618
665.363	7155
665.417	6639
665.470	5271
665.523	5758
665.576	6561
665.630	6123
665.683	6595
665.736	6170
665.789	7242
665.842	5228
665.895	7114
665.949	6450
666.002	4748
666.055	5392
666.108	7131
666.161	6728
666.214	6439
666.267	6413
666.320	7086
666.373	5975
666.426	6579
666.479	6493
666.532	8346
666.585	10021
666.638	10276
666.691	9856
666.744	10027
666.796	9829
666.849	8392
666.902	6752
666.955	6742
667.008	5360
667.060	5061
667.113	4307
667.166	5473
667.219	6571
667.271	5482
667.324	6045
667.377	6396
667.430	5549
667.482	6309
667.535	5793
667.587	6679
667.640	5638
667.693	7922
667.745	8459
667.798	9790
667.850	6453
667.903	6787
667.955	5716
668.008	6189
668.060	8232
668.113	7816
668.165	8517
668.218	7852
668.270	7540
668.322	7850
668.375	5799
668.427	7234
668.479	7227
668.532	7068
668.584	6522
668.636	6347
668.689	7354
668.741	7765
668.793	7118
668.845	6540
668.898	8189
668.950	6801
669.002	7976
669.054	6325
669.106	6663
669.158	8445
669.211	6514
669.263	6771
669.315	7649
669.367	7643
669.419	6537
669.471	8282
669.523	7186
669.575	8391
669.627	8578
669.679	6692
669.731	6153
669.783	7457
669.835	7137
669.886	6908
669.938	6712
669.990	6399
670.042	6099
670.094	6340
670.146	5293
670.197	5575
670.249	7351
670.301	6032
670.353	7994
670.404	7971
670.456	8269
670.508	11612
670.560	15337
670.611	23984
670.663	36218
670.715	85333
670.766	123641
670.818	31449
670.869	9281
670.921	7352
670.972	7280
671.024	6808
671.075	6526
671.127	6673
671.178	5930
671.230	6943
671.281	6577
671.333	6493
671.384	7640
671.436	9322
671.487	9402
671.538	10817
671.590	12386
671.641	17915
671.692	23951
671.744	39138
671.795	26687
671.846	12539
671.897	9838
671.949	9742
672.000	7279
672.051	7734
672.102	7902
672.153	7422
672.204	7703
672.256	7550
672.307	8079
672.358	7568
672.409	8261
672.460	7656
672.511	6070
672.562	7472
672.613	6786
672.664	6964
672.715	6953
672.766	6922
672.817	6851
672.868	7601
672.919	7013
672.970	6395
673.021	5995
673.071	6144
673.122	6379
673.173	6073
673.224	6377
673.275	7052
673.326	5744
673.376	6505
673.427	6090
673.478	6544
673.528	6084
673.579	5898
673.630	6145
673.680	7696
673.731	5347
673.782	5947
673.832	6134
673.883	7521
673.934	6334
673.984	5927
674.035	5978
674.085	6975
674.136	7447
674.186	8936
674.237	11143
674.287	15665
674.338	8398
674.388	6964
674.438	6148
674.489	6983
674.539	7021
674.589	6897
674.640	6468
674.690	7087
674.740	7354
674.791	8577
674.841	7878
674.891	7853
674.942	5357
674.992	6141
675.042	5064
675.092	5654
675.142	5820
675.193	6366
675.243	4877
675.293	6533
675.343	5907
675.393	6313
675.443	6871
675.493	5830
675.543	5586
675.593	6836
675.643	5486
675.693	6536
675.743	5796
675.793	5253
675.843	6256
675.893	6752
675.943	5744
675.993	5714
676.043	6635
676.093	5972
676.142	4554
676.192	6276
676.242	5242
676.292	5715
676.341	6612
676.391	7398
676.441	4392
676.491	5429
676.540	5191
676.590	5306
676.640	4932
676.689	5494
676.739	5345
676.789	4757
676.838	4271
676.888	5420
676.937	5055
676.987	5653
677.037	4620
677.086	4875
677.136	5026
677.185	5571
677.235	4521
677.284	5116
677.333	5285
677.383	5000
677.432	3777
677.482	4931
677.531	5248
677.580	5878
677.630	4646
677.679	3927
677.728	4582
677.778	5568
677.827	3994
677.876	4550
677.925	4534
677.975	5320
678.024	4767
678.073	4903
678.122	5823
678.171	6053
678.220	5304
678.269	7074
678.319	5783
678.368	6423
678.417	5633
678.466	6884
678.515	6592
678.564	6109
678.613	4763
678.662	4864
678.711	5312
678.760	5160
678.809	4791
678.857	5267
678.906	5064
678.955	5975
679.004	5411
679.053	5733
679.102	5526
679.151	5932
679.199	5340
679.248	4691
679.297	5614
679.346	5702
679.394	5095
679.443	4572
679.492	5446
679.540	5184
679.589	5432
679.638	4629
679.686	4394
679.735	4753
679.784	5050
679.832	5402
679.881	4798
679.929	4136
679.978	2969
680.026	4777
680.075	4713
680.123	4750
680.172	4614
680.220	4184
680.268	4882
680.317	3376
680.365	4795
680.414	4683
680.462	4469
680.510	4833
680.559	4079
680.607	4262
680.655	3963
680.703	5188
680.752	3429
680.800	3496
680.848	4114
680.896	3491
680.945	4114
680.993	3977
681.041	4538
681.089	4420
681.137	2920
681.185	4486
681.233	3816
681.258	4200
681.281	4479
681.329	3449
681.377	3890
681.380	4003
681.425	4460
681.473	5791
681.502	5701
681.521	5477
681.569	5698
681.617	4863
681.624	5082
681.665	5840
681.713	6093
681.745	6596
681.761	6711
681.809	6870
681.857	7416
681.867	7179
681.904	6020
681.952	6538
681.989	6336
682.000	6173
682.048	7276
682.096	6988
682.111	7275
682.143	7573
682.191	7085
682.233	8267
682.239	8365
682.286	7360
682.334	8103
682.354	8023
682.382	7734
682.430	8373
682.476	8336
682.477	8263
682.525	8074
682.572	8296
682.598	8538
682.620	8638
682.667	7832
682.715	9974
682.720	9930
682.763	8754
682.810	9114
682.841	9304
682.857	9288
682.905	8985
682.952	10110
682.963	10097
683.000	9837
683.047	9299
683.085	10943
683.095	11284
683.142	10154
683.190	10384
683.206	10247
683.237	9851
683.284	11134
683.328	10330
683.332	10196
683.379	10631
683.426	10070
683.449	10812
683.473	11477
683.521	11079
683.568	11550
683.571	11585
683.615	11182
683.662	11432
683.693	11889
683.709	12118
683.757	11605
683.804	12559
683.814	12631
683.851	12608
683.898	12167
683.936	12572
683.945	12609
683.992	13430
684.039	12996
684.057	13360
684.086	13806
684.133	13294
684.179	13897
684.180	13862
684.227	14057
684.274	13364
684.300	13840
684.321	14196
684.368	13144
684.415	14246
684.422	14251
684.462	13884
684.509	13755
684.543	13485
684.556	13375
684.603	14177
684.649	13892
684.665	14256
684.696	15076
684.743	14985
684.786	16066
684.790	16149
684.837	16359
684.883	18503
684.908	18791
684.930	18668
684.977	19676
685.023	19130
685.029	19071
685.070	17482
685.117	17037
685.150	17629
685.164	18271
685.210	19346
685.257	20106
685.272	20376
685.303	19982
685.350	19072
685.393	18913
685.396	18906
685.443	18953
685.490	19859
685.514	20062
685.536	20148
685.583	20051
685.629	20391
685.636	20335
685.675	19641
685.722	20133
685.757	19882
685.768	19885
685.815	21203
685.861	21352
685.878	21447
685.908	21830
685.954	22859
686.000	24960
686.000	25010
686.047	27498
686.093	33727
686.121	34856
686.139	33067
686.185	28965
686.232	26368
686.242	25828
686.278	24760
686.324	22380
686.363	20382
686.370	20288
686.416	20754
686.463	21758
686.484	21434
686.509	21163
686.555	21587
686.601	21986
686.606	22041
686.647	22217
686.693	21676
686.727	21681
686.739	21680
686.785	22006
686.831	22376
686.848	22460
686.877	22366
686.923	21290
686.969	21065
686.969	21064
687.015	21737
687.061	22463
687.090	23269
687.107	23403
687.153	22948
687.199	21941
687.211	21744
687.245	22103
687.291	24170
687.332	25184
687.336	25232
687.382	25601
687.428	25394
687.453	25512
687.474	24845
687.520	23570
687.565	22516
687.574	22204
687.611	22297
687.657	22403
687.695	22668
687.702	22786
687.748	23708
687.794	24710
687.816	24621
687.839	23887
687.885	23042
687.931	22586
687.937	22474
687.976	22630
688.022	22785
688.058	23787
688.067	24050
688.113	23781
688.158	23320
688.179	23856
688.204	24463
688.249	24225
688.295	25084
688.300	25058
688.340	25595
688.386	26938
688.421	26960
688.431	26657
688.477	26197
688.522	25175
688.542	24985
688.567	25193
688.613	24850
688.658	25002
688.663	24981
688.703	25072
688.749	25872
688.784	25564
688.794	25463
688.839	25599
688.884	25693
688.905	25546
688.930	25398
688.975	25180
689.020	25841
689.026	25772
689.065	25825
689.110	25978
689.146	26059
689.155	25930
689.201	25567
689.246	24682
689.267	24601
689.291	25165
689.336	25316
689.381	25889
689.388	25938
689.426	25926
689.471	26046
689.509	26030
689.516	25973
689.561	25449
689.606	25046
689.630	24940
689.651	25265
689.696	25098
689.741	25385
689.750	25325
689.785	24899
689.830	25019
689.871	24423
689.875	24393
689.920	24251
689.965	24043
689.992	23761
690.010	23839
690.054	24132
690.099	24334
690.112	24515
690.144	24751
690.189	24304
690.233	24192
690.233	24224
690.278	24539
690.323	24334
690.354	24167
690.367	24306
690.412	24864
690.457	25537
690.474	25557
690.501	25197
690.546	25026
690.590	24497
690.595	24425
690.635	24479
690.680	24649
690.716	24483
690.724	24562
690.769	25120
690.813	25925
690.836	25854
690.857	25802
690.902	25809
690.946	26763
690.957	26755
690.991	27872
691.035	29990
691.077	30993
691.080	31059
691.124	31589
691.168	33063
691.198	33408
691.213	33639
691.257	34790
691.301	34853
691.318	35285
691.346	33840
691.390	30403
691.434	27385
691.439	27023
691.478	27387
691.522	27746
691.559	27867
691.567	27939
691.611	28010
691.655	27918
691.680	28157
691.699	28424
691.743	28698
691.787	29084
691.800	29012
691.831	29589
691.875	30689
691.919	31732
691.921	31706
691.964	32844
692.008	34033
692.041	34598
692.052	34496
692.096	34129
692.139	33892
692.162	33566
692.183	33208
692.227	32664
692.271	32017
692.282	31816
692.315	32010
692.359	31711
692.402	31706
692.403	31767
692.447	31945
692.490	32163
692.523	32074
692.534	32343
692.578	33506
692.622	33922
692.643	34503
692.666	34041
692.709	32215
692.753	30874
692.763	30431
692.797	30146
692.840	29896
692.884	29376
692.884	29440
692.928	30325
692.971	30962
693.004	31706
693.015	31863
693.059	31768
693.102	31545
693.124	31445
693.146	31802
693.189	32843
693.233	33535
693.245	33661
693.276	34198
693.320	34620
693.363	35200
693.365	35153
693.407	34939
693.450	34551
693.485	33944
693.493	34150
693.537	35296
693.580	36012
693.605	36803
693.624	36664
693.667	35193
693.710	34043
693.725	33678
693.753	35229
693.797	37478
693.840	39385
693.845	39586
693.883	39085
693.926	38000
693.966	36959
693.970	36760
694.013	33778
694.056	31262
694.086	29308
694.099	29932
694.142	31757
694.185	33495
694.206	34318
694.229	34934
694.272	35799
694.315	36512
694.326	36641
694.358	36199
694.401	35666
694.444	34985
694.446	34886
694.487	34385
694.530	33446
694.566	32548
694.573	32420
694.616	31266
694.659	29983
694.686	29166
694.702	28936
694.745	28342
694.787	27175
694.806	26827
694.830	27508
694.873	28365
694.916	29340
694.926	29452
694.959	28929
695.002	28263
695.044	27730
695.046	27643
695.087	28689
695.130	29647
695.166	30311
695.172	30411
695.215	30719
695.258	30886
695.286	30985
695.301	31061
695.343	31056
695.386	31228
695.406	31140
695.428	30721
695.471	29552
695.514	28761
695.526	28406
695.556	28737
695.599	29339
695.641	29713
695.646	29692
695.684	29519
695.726	29116
695.766	28824
695.769	28942
695.811	29556
695.854	30222
695.886	30740
695.896	30617
695.938	29472
695.981	28471
696.005	27797
696.023	28252
696.065	29286
696.108	30329
696.125	30626
696.150	30844
696.192	31407
696.235	31520
696.245	31539
696.277	30975
696.319	30046
696.361	29091
696.365	28945
696.404	29055
696.446	29028
696.485	28913
696.488	29018
696.530	29377
696.572	29812
696.604	30125
696.614	30077
696.656	29520
696.698	28740
696.724	28282
696.740	28232
696.783	27962
696.825	27750
696.844	27511
696.867	27810
696.909	28254
696.951	28733
696.964	28807
696.992	28406
697.034	27702
697.076	26872
697.083	26688
697.118	27475
697.160	28349
697.202	29236
697.203	29183
697.244	28814
697.286	28387
697.323	27833
697.327	27878
697.369	27732
697.411	27564
697.442	27344
697.453	27742
697.494	29082
697.536	30526
697.562	31230
697.578	30965
697.620	30196
697.661	29326
697.682	28831
697.703	29131
697.744	29581
697.786	30109
697.801	30177
697.828	30252
697.869	30288
697.911	30342
697.921	30267
697.952	30113
697.994	29856
698.035	29508
698.040	29387
698.077	29001
698.118	28551
698.160	28059
698.160	27980
698.201	28529
698.243	28993
698.279	29360
698.284	29458
698.325	29608
698.367	29757
698.399	29782
698.408	29627
698.449	28569
698.491	27469
698.518	26679
698.532	26982
698.573	27665
698.614	28363
698.638	28668
698.656	28912
698.697	29317
698.738	29725
698.757	29838
698.779	30326
698.820	31071
698.862	31844
698.877	32041
698.903	32774
698.944	33805
698.985	34836
698.996	35029
699.026	34224
699.067	32977
699.116	31403
699.235	30361
699.354	27662
699.474	31263
699.593	41190
699.713	37648
699.832	29938
699.951	31362
700.070	28056
700.190	28742
700.309	31010
700.428	37747
700.547	30561
700.667	30296
700.786	38112
700.905	30524
701.024	34036
701.143	32447
701.262	22783
701.381	25109
701.500	25615
701.619	25425
701.738	23862
701.857	23601
701.976	22444
702.095	22796
702.214	25555
702.333	25790
702.452	24029
702.571	23060
702.690	23448
702.809	22770
702.928	21248
703.047	23871
703.165	21881
703.284	22474
703.403	23899
703.522	31901
703.640	31054
703.759	39973
703.878	70743
703.997	30021
704.115	23968
704.234	24106
704.353	21405
704.471	20612
704.590	19809
704.708	20032
704.827	19478
704.946	23968
705.064	30715
705.183	24215
705.301	34080
705.420	54727
705.538	46070
705.656	34795
705.775	32243
705.893	36792
706.012	40846
706.130	38830
706.249	38994
706.367	41280
706.485	46420
706.604	40775
706.722	39989
706.840	51955
706.958	48520
707.077	37160
707.195	34193
707.313	33469
707.431	32412
707.549	33181
707.668	32825
707.786	36213
707.904	31262
708.022	31396
708.140	30073
708.258	30481
708.376	31646
708.494	31548
708.612	35535
708.730	60385
708.848	55462
708.966	48180
709.084	42976
709.202	42351
709.320	45591
709.438	46493
709.556	45755
709.674	45091
709.791	44362
709.909	42675
710.027	42078
710.145	42012
710.263	44104
710.380	45187
710.498	42339
710.616	44529
710.733	44010
710.851	49281
710.969	49626
711.086	44105
711.204	41354
711.322	44749
711.439	45870
711.557	49413
711.674	42491
711.792	43789
711.909	38901
712.027	37807
712.144	38774
712.262	39620
712.379	49667
712.497	72042
712.614	71515
712.732	56230
712.849	51637
712.966	60137
713.084	68171
713.201	58533
713.318	55953
713.436	52634
713.553	55485
713.670	55991
713.787	65059
713.905	67941
714.022	52997
714.139	50715
714.256	55470
714.373	59711
714.490	70300
714.608	113974
714.725	374961
714.842	401403
714.959	63812
715.076	49826
715.193	45967
715.310	45749
715.427	43777
715.544	41300
715.661	42401
715.778	43350
715.895	50040
716.011	50027
716.128	43458
716.245	43052
716.362	43933
716.479	46690
716.596	40612
716.713	42492
716.829	39485
716.946	40840
717.063	38157
717.180	38096
717.296	37510
717.413	39373
717.530	36124
717.646	36547
717.763	37166
717.880	35583
717.996	34601
718.113	36461
718.229	34406
718.346	32721
718.462	34504
718.579	39354
718.695	51326
718.812	58584
718.928	68066
719.045	45284
719.161	31466
719.277	30841
719.394	30959
719.510	34632
719.626	33651
719.743	44523
719.859	40640
719.975	50460
720.092	117118
720.208	250267
720.324	55653
720.440	35171
720.557	39740
720.673	51067
720.789	91877
720.905	242602
721.021	76987
721.137	32998
721.253	34931
721.369	38128
721.486	45518
721.602	72858
721.718	33732
721.834	27015
721.950	29233
722.066	27610
722.181	26564
722.297	28798
722.413	25958
722.529	27233
722.645	26715
722.761	25529
722.877	26299
722.993	24505
723.108	28111
723.224	26046
723.340	27654
723.456	24488
723.571	26100
723.687	24207
723.803	23725
723.918	23221
724.034	24418
724.150	25783
724.265	33484
724.381	84967
724.497	119617
724.612	26522
724.728	22643
724.843	23917
724.959	31304
725.074	80031
725.190	101839
725.305	31415
725.421	26052
725.536	19234
725.651	20430
725.767	19803
725.882	20271
725.997	19409
726.113	20566
726.228	19157
726.343	19751
726.459	17509
726.574	23073
726.689	20126
726.804	20845
726.920	20509
727.035	20780
727.150	21884
727.265	19868
727.380	21640
727.495	17678
727.610	16014
727.725	17744
727.841	17713
727.956	18917
728.071	26439
728.186	19121
728.301	15373
728.416	16577
728.531	16315
728.645	14663
728.760	15298
728.875	16514
728.990	15777
729.105	16578
729.220	15837
729.335	15598
729.449	15116
729.564	13420
729.679	13221
729.794	14655
729.908	20218
730.023	17624
730.138	12482
730.253	14732
730.367	13117
730.482	13839
730.596	14505
730.711	14064
730.826	13366
730.940	13390
731.055	13386
731.169	12552
731.284	13221
731.398	13205
731.513	21006
731.627	17806
731.742	22809
731.856	26937
731.970	13788
732.085	14107
732.199	17187
732.313	22743
732.428	45926
732.542	119577
732.656	75071
732.771	18478
732.885	14939
732.999	15429
733.113	17581
733.227	16121
733.342	11685
733.456	11961
733.570	10994
733.684	12732
733.798	13925
733.912	11829
734.026	10684
734.140	12307
734.254	17564
734.368	41003
734.482	59280
734.596	11582
734.710	10680
734.824	10793
734.938	11637
735.052	11358
735.166	16118
735.280	12674
735.393	11514
735.507	12572
735.621	22197
735.735	58802
735.849	20386
735.962	10008
736.076	13929
736.190	15605
736.303	26364
736.417	40697
736.531	12490
736.644	13428
736.758	8919
736.872	9219
736.985	8651
737.099	8680
737.212	8521
737.326	9149
737.439	8773
737.553	8450
737.666	8403
737.780	7633
737.893	7506
738.007	7862
738.120	7567
738.233	7384
738.347	8236
738.460	8057
738.573	8939
738.687	8237
738.800	8770
738.913	9576
739.026	9127
739.140	8632
739.253	6642
739.366	7097
739.479	7639
739.592	6367
739.705	7654
739.818	8462
739.932	7425
740.045	7435
740.158	7800
740.271	9278
740.384	7756
740.497	6621
740.610	7788
740.723	7788
740.836	8156
740.949	7532
741.062	9671
741.174	10281
741.287	8529
741.400	7433
741.513	7280
741.626	7958
741.739	8586
741.851	6520
741.964	6351
742.077	7353
742.189	8041
742.302	7793
742.415	7466
742.527	6385
742.640	6342
742.753	5823
742.865	5781
742.978	5773
743.090	6230
743.203	7388
743.316	5819
743.428	5670
743.541	5851
743.653	5485
743.766	5777
743.878	8308
743.990	15979
744.103	13909
744.215	5645
744.327	5500
744.440	7035
744.552	11305
744.664	6309
744.777	4756
744.889	4539
745.001	5590
745.113	5051
745.226	4439
745.338	5642
745.450	5741
745.562	5395
745.674	5253
745.786	5054
745.898	5530
746.010	4521
746.122	3830
746.234	4951
746.347	4345
746.459	5896
746.570	4818
746.682	5681
746.794	4865
746.906	5634
747.018	5218
747.130	5993
747.242	5387
747.354	5846
747.466	7061
747.577	5035
747.689	5018
747.801	4338
747.913	3748
748.024	4434
748.136	4045
748.248	4145
748.359	3839
748.471	3936
748.583	4018
748.694	4527
748.806	6594
748.918	14520
749.029	6967
749.141	5656
749.252	5109
749.364	5862
749.475	13945
749.587	15694
749.698	5461
749.809	4754
749.921	4370
750.032	3672
750.144	3964
750.255	3849
750.366	3857
750.478	3738
750.589	4511
750.700	4207
750.811	4053
750.923	6267
751.034	12381
751.145	13472
751.256	3906
751.367	3518
751.479	3706
751.590	3370
751.701	3339
751.812	3041
751.923	4267
752.034	4411
752.145	3549
752.256	4131
752.367	3548
752.478	3449
752.589	3408
752.700	3621
752.811	3733
752.922	4246
753.032	3902
753.143	5026
753.254	3055
753.365	4084
753.476	3668
753.586	2695
753.697	2961
753.808	3163
753.919	3020
754.029	3406
754.140	3321
754.251	3521
754.361	3377
754.472	4156
754.582	3754
754.693	3644
754.804	3665
754.914	2704
755.025	3223
755.135	3175
755.246	2776
755.356	2762
755.466	3369
755.577	4199
755.687	3547
755.798	2954
755.908	2844
756.018	2708
756.129	2131
756.239	3585
756.349	3537
756.460	3843
756.570	3776
756.680	3411
756.790	3863
756.900	4539
757.011	2413
757.121	3565
757.231	2721
757.341	4268
757.451	3087
757.561	2424
757.671	2526
757.781	2513
757.891	3776
758.001	5303
758.111	3415
758.221	4171
758.331	4183
758.441	3909
758.551	5317
758.661	5527
758.771	4157
758.880	5612
758.990	5021
759.100	4794
759.210	3944
759.320	5327
759.429	4830
759.539	4252
759.649	4352
759.758	5183
759.868	5250
759.978	4621
760.087	5206
760.197	5930
760.307	5336
760.416	4715
760.526	4116
760.635	5125
760.745	4914
760.854	5088
760.964	5614
761.073	5914
761.182	5150
761.292	4945
761.401	8404
761.511	5787
761.620	3720
761.729	5514
761.839	6358
761.948	4624
762.057	5419
762.166	4643
762.276	3876
762.385	5005
762.494	4319
762.603	4760
762.712	4945
762.822	5451
762.931	4610
763.040	4939
763.149	5143
763.258	4764
763.367	4957
763.476	5024
763.585	4354
763.694	5031
763.803	6382
763.912	6227
764.021	5081
764.130	5598
764.238	5915
764.347	4736
764.456	4781
764.565	5743
764.674	4670
764.783	4964
764.891	4282
765.000	6248
765.109	5866
765.217	6154
765.326	8822
765.435	14464
765.543	8584
765.652	8014
765.761	10040
765.869	13583
765.978	20108
766.086	35314
766.195	67072
766.303	179181
766.412	497994
766.520	448482
766.629	114488
766.737	41257
766.846	24373
766.954	17390
767.062	14862
767.171	12543
767.279	11015
767.387	9116
767.496	8968
767.604	8230
767.712	8626
767.820	7532
767.928	8098
768.037	6464
768.145	7536
768.253	7577
768.361	7546
768.469	7618
768.577	6309
768.685	8145
768.793	7402
768.901	6994
769.009	7803
769.117	8415
769.225	9331
769.333	12672
769.441	16835
769.549	28718
769.657	62763
769.765	202242
769.873	431197
769.981	152929
770.088	32664
770.196	17390
770.304	13606
770.412	11312
770.519	10578
770.627	8703
770.735	8310
770.842	7972
770.950	6774
771.058	6881
771.165	7092
771.273	7381
771.380	6764
771.488	6605
771.595	7141
771.703	7665
771.810	7332
771.918	6943
772.025	6953
772.133	6869
772.240	6091
772.348	6628
772.455	7398
772.562	6591
772.670	5425
772.777	6474
772.884	5894
772.991	5017
773.099	6636
773.206	5418
773.313	6199
773.420	6423
773.528	5860
773.635	5745
773.742	5669
773.849	6059
773.956	4964
774.063	5807
774.170	5933
774.277	6252
774.384	5402
774.491	5009
774.598	6440
774.705	5925
774.812	7399
774.919	7766
775.026	6675
775.133	6166
775.239	5809
775.346	6586
775.453	5606
775.560	5598
775.667	6584
775.773	5767
775.880	7014
775.987	6200
776.093	5946
776.200	5921
776.307	6243
776.413	6298
776.520	6028
776.627	6412
776.733	7057
776.840	4866
776.946	6922
777.053	5721
777.159	6232
777.266	5272
777.372	6804
777.478	6363
777.585	5557
777.691	5145
777.798	5478
777.904	6327
778.010	8052
778.117	7755
778.223	5514
778.329	5856
778.435	4803
778.542	6235
778.648	5687
778.754	4840
778.860	5717
778.966	6737
779.072	6525
779.178	5960
779.284	4922
779.391	4252
779.497	4536
779.603	6528
779.708	4943
779.815	5907
779.920	7169
780.026	9011
780.132	4709
780.238	4694
780.344	5277
780.450	5749
780.556	4757
780.661	4598
780.767	5212
780.873	4437
780.979	5249
781.085	5595
781.190	4302
781.296	4026
781.402	4413
781.507	4599
781.613	4717
781.719	4395
781.824	4156
781.930	4232
782.035	4129
782.141	4099
782.246	4259
782.352	4768
782.457	3986
782.563	4507
782.668	4214
782.773	4486
782.879	5351
782.984	5349
783.090	6117
783.195	8710
783.300	6037
783.405	5439
783.511	5019
783.616	4943
783.721	5764
783.826	3917
783.932	5507
784.037	5622
784.142	4725
784.247	5711
784.352	4090
784.457	5163
784.562	4563
784.667	3673
784.772	4633
784.877	4864
784.982	4166
785.087	3988
785.192	5698
785.297	5095
785.402	3665
785.507	3201
785.611	4490
785.716	4998
785.821	4943
785.926	4082
786.031	4327
786.135	2734
786.240	4222
786.345	2838
786.450	4482
786.554	3438
786.659	3720
786.763	2730
786.868	4182
786.973	4813
787.077	2636
787.182	3301
787.286	3207
787.391	3709
787.495	2876
787.600	3309
787.704	2853
787.809	3083
787.913	2795
788.017	3667
788.122	2844
788.226	3038
788.330	2055
788.435	3075
788.539	3736
788.643	3121
788.747	2854
788.852	3606
788.956	2328
789.060	3084
789.164	3138
789.268	2761
789.372	2290
789.476	2889
789.580	2754
789.684	3091
789.788	3193
789.892	2478
789.996	3636
790.100	3013
790.204	4038
790.308	4368
790.412	3789
790.516	3925
790.620	3666
790.724	4177
790.828	2792
790.931	3762
791.035	4063
791.139	3146
791.242	2055
791.346	3464
791.450	2492
791.554	2935
791.657	1750
791.761	4071
791.864	3691
791.968	3413
792.072	3258
792.175	3336
792.279	3329
792.382	4236
792.486	3046
792.589	4612
792.693	5110
792.796	2505
792.899	3234
793.003	3994
793.106	943
793.209	3156
793.313	3870
793.416	1516
793.519	3989
793.623	5261
793.726	6476
793.829	4200
793.932	2046
794.035	2111
794.138	3718
794.242	4055
794.345	5825
794.448	5595
794.551	5002
794.654	6200
794.757	5436
794.860	8593
794.963	5994
795.066	1915
795.169	2854
795.272	1584
795.375	1908
795.477	1884
795.580	3072
795.683	1543
795.786	2593
795.889	1451
795.991	3840
796.094	6859
796.197	4815
796.300	4271
796.402	1352
796.505	1891
796.608	1780
796.710	2349
796.813	2895
796.915	1653
797.018	1891
797.120	2793
797.223	1518
797.326	2227
797.428	1915
797.530	2644
797.633	3431
797.735	6028
797.838	16214
797.940	13681
798.042	2383
798.145	1805
798.247	1665
798.349	734
798.452	3426
798.554	2067
798.656	617
798.758	2692
798.860	1925
798.962	1533
799.065	1560
799.167	1373
799.269	3570
799.371	3014
799.473	4399
799.575	5522
799.677	10380
799.779	5058
799.881	4004
799.983	3121
800.085	1842
800.187	2224
800.289	1457
800.390	2667
800.492	1196
800.594	2359
800.696	837
800.798	1098
800.899	927
801.001	1030
801.103	1074
801.205	1602
801.306	1874
801.408	1018
801.509	955
801.611	1278
801.713	1240
801.814	1260
801.916	1132
802.017	1203
802.119	1040
802.220	1311
802.322	2120
802.423	8580
802.525	4912
802.626	2631
802.727	1454
802.829	1988
802.930	-422
803.031	3592
803.133	1862
803.234	833
803.335	1304
803.436	305
803.538	1162
803.639	182
803.740	1629
803.841	594
803.942	880
804.043	1421
804.144	578
804.245	1713
804.346	118
804.447	1481
804.548	1819
804.649	3680
804.750	1311
804.851	819
804.952	640
805.053	722
805.154	-337
805.255	2190
805.355	920
805.456	297
805.557	-240
805.658	211
805.758	1519
805.859	518
805.960	878
806.061	1090
806.161	568
806.262	802
806.362	1158
806.463	1105
806.564	2457
806.664	2167
806.765	5730
806.865	5444
806.966	1908
807.066	500
807.166	1666
807.267	1423
807.367	-448
807.468	1482
807.568	370
807.668	650
807.769	2430
807.869	655
807.969	1096
808.069	1000
808.170	1265
808.270	903
808.370	1748
808.470	2406
808.570	344
808.670	801
808.770	713
808.870	1291
808.970	675
809.070	-215
809.170	-93
809.271	1586
809.370	518
809.470	1441
809.570	124
809.670	-26
809.770	683
809.870	1358
809.970	414
810.070	699
810.169	1288
810.269	-788
810.369	1602
810.469	619
810.568	-74
810.668	569
810.768	571
810.867	1027
810.967	213
811.066	411
811.166	564
811.265	1028
811.365	88
811.464	355
811.564	381
811.663	1354
811.763	-470
811.862	1054
811.962	916
812.061	558
812.160	298
812.260	892
812.359	480
812.458	218
812.557	1887
812.657	869
812.756	1170
812.855	1141
812.954	408
813.053	983
813.153	1150
813.252	620
813.351	469
813.450	-347
813.549	53
813.648	997
813.747	-151
813.846	858
813.945	-167
814.044	67
814.143	1018
814.242	1230
814.341	158
814.439	198
814.538	650
814.637	420
814.736	509
814.835	981
814.933	384
815.032	870
815.131	-29
815.229	1355
815.328	1577
815.427	1010
815.525	998
815.624	1937
815.722	721
815.821	986
815.919	66
816.018	1393
816.116	2684
816.215	1034
816.313	1376
816.412	1743
816.510	1781
816.609	2862
816.707	1828
816.805	1000
816.904	1399
817.002	2689
817.100	3334
817.198	2331
817.296	1836
817.395	3471
817.493	3985
817.591	3251
817.689	5535
817.787	7696
817.885	11703
817.983	21408
818.081	44821
818.179	103980
818.277	257302
818.375	239752
818.473	70643
818.571	26439
818.669	16589
818.767	14098
818.865	14307
818.963	16723
819.061	22663
819.158	40251
819.256	86840
819.354	197236
819.452	420883
819.549	301567
819.647	94298
819.745	37515
819.842	22422
819.940	15019
820.038	9820
820.135	8043
820.233	7587
820.330	4535
820.428	4192
820.525	5069
820.623	3661
820.720	3433
820.818	3209
820.915	3177
821.012	2696
821.110	742
821.207	2871
821.304	1528
821.402	2575
821.499	2507
821.596	3044
821.693	1757
821.791	2392
821.888	2842
821.985	5669
822.082	4599
822.179	2379
822.276	829
822.373	1156
822.470	1401
822.567	1487
822.664	62
822.761	1564
822.858	613
822.955	1564
823.052	904
823.149	1657
823.246	849
823.343	920
823.440	1220
823.536	1011
823.633	876
823.730	608
823.827	944
823.923	1081
824.020	1128
824.117	758
824.213	55
824.310	1465
824.407	426
824.503	873
824.600	1590
824.696	388
824.793	1348
824.889	157
824.986	948
825.082	908
825.179	1240
825.275	160
825.371	783
825.468	464
825.564	-275
825.660	504
825.757	1080
825.853	666
825.949	199
826.045	467
826.142	448
826.238	-132
826.334	1160
826.430	361
826.526	982
826.622	-12
826.718	569
826.814	84
826.910	937
827.006	-213
827.102	60
827.198	-594
827.294	155
827.390	724
827.486	767
827.582	-1602
827.678	-533
827.774	1011
827.869	82
827.965	1411
828.061	63
828.157	1283
828.252	848
828.348	-425
828.444	1559
828.539	-565
828.635	-172
828.731	380
828.826	-712
828.922	150
829.017	311
829.113	878
829.208	232
829.304	25
829.399	1178
829.495	-226
829.590	1567
829.685	-285
829.781	913
829.876	-54
829.971	-110
830.066	260
830.162	180
830.257	-473
830.352	31
830.447	1190
830.543	2008
830.638	771
830.733	1455
830.828	869
830.923	1027
831.018	576
831.113	1855
831.208	950
831.303	1316
831.398	932
831.493	-260
831.588	-18
831.683	310
831.778	235
831.873	191
831.967	2095
832.062	-177
832.157	-263
832.252	1530
832.346	195
832.441	1255
832.536	1338
832.631	4289
832.725	3924
832.820	-263
832.914	-263
833.009	386
833.104	819
833.198	2166
833.293	-107
833.387	1506
833.482	1169
833.576	-536
833.670	1410
833.765	148
833.859	107
833.954	1003
834.048	-63
834.142	728
834.237	-308
834.331	-35
834.425	682
834.519	-498
834.613	562
834.708	176
834.802	417
834.896	591
834.990	316
835.084	624
835.178	28
835.272	991
835.366	443
835.460	1069
835.554	447
835.648	239
835.742	-654
835.836	303
835.930	-1163
836.024	1281
836.117	2417
836.211	2249
836.305	6163
836.399	9266
836.493	1490
836.586	1002
836.680	-789
836.774	290
836.867	1099
836.961	489
837.055	-342
837.148	-175
837.242	907
837.335	-681
837.429	653
837.522	999
837.616	3268
837.709	10272
837.803	7987
837.896	1766
837.989	2856
838.083	5909
838.176	15302
838.269	15812
838.363	2378
838.456	219
838.549	1759
838.642	2247
838.735	6613
838.829	3200
838.922	589
839.015	6
839.108	42
839.201	902
839.294	764
839.387	1617
839.480	1304
839.573	4468
839.666	8079
839.759	1047
839.852	94
839.945	-336
840.038	4
840.131	138
840.223	20
840.316	506
840.409	87
840.502	-37
840.594	859
840.687	-669
840.780	174
840.873	525
840.965	2216
841.058	4623
841.150	12018
841.243	10005
841.336	2210
841.428	561
841.521	710
841.613	1688
841.706	2470
841.798	255
841.890	-174
841.983	-315
842.075	263
842.167	352
842.260	1088
842.352	4278
842.444	7507
842.537	15145
842.629	25461
842.721	5252
842.813	699
842.905	-832
842.997	1965
843.090	2421
843.182	6253
843.274	14399
843.366	33443
843.458	71529
843.550	46585
843.642	6324
843.734	3069
843.826	4573
843.918	3840
844.009	1659
844.101	798
844.193	680
844.285	793
844.377	329
844.469	1065
844.560	33
844.652	625
844.744	935
844.835	516
844.927	1773
845.019	4065
845.110	3252
845.202	697
845.293	384
845.385	-964
845.476	706
845.568	1032
845.659	1015
845.751	168
845.842	666
845.934	-568
846.025	168
846.116	303
846.208	798
846.299	-18
846.390	469
846.482	1125
846.573	2440
846.664	4770
846.755	5518
846.846	5733
846.937	690
847.029	446
847.120	182
847.211	-456
847.302	965
847.393	-1512
847.484	739
847.575	714
847.666	409
847.757	576
847.847	266
847.938	573
848.029	202
848.120	-245
848.211	576
848.302	-316
848.392	376
848.483	853
848.574	-124
848.664	-261
848.755	-289
848.846	231
848.936	-386
849.027	882
849.118	635
849.208	260
849.299	2129
849.389	2682
849.480	6767
849.570	12739
849.661	21233
849.751	37827
849.841	13774
849.932	1726
850.022	294
850.112	503
850.203	-521
850.293	-460
850.383	-237
850.474	-1029
850.564	26
850.654	73
850.744	-82
850.834	121
850.924	663
851.014	-211
851.104	790
851.194	358
851.284	663
851.374	2081
851.464	1033
851.554	1268
851.644	3231
851.734	6180
851.824	4401
851.914	469
852.004	983
852.094	-1187
852.183	151
852.273	960
852.363	940
852.452	376
852.542	496
852.632	304
852.721	1019
852.811	-211
852.901	214
852.990	33
853.080	857
853.169	581
853.259	246
853.348	483
853.438	875
853.527	2615
853.617	3666
853.706	7209
853.795	14607
853.885	34244
853.974	62043
854.063	109720
854.152	181004
854.242	74559
854.331	13665
854.420	4817
854.509	3722
854.598	3742
854.687	4109
854.777	4601
854.866	1196
854.955	1342
855.044	978
855.133	531
855.222	-113
855.311	222
855.400	780
855.488	-423
855.577	327
855.666	-28
855.755	998
855.844	-606
855.933	108
856.021	213
856.110	986
856.199	-174
856.288	561
856.376	-813
856.465	-117
856.554	79
856.642	366
856.731	-49
856.819	448
856.908	557
856.996	801
857.085	-741
857.173	329
857.262	144
857.350	359
857.438	60
857.527	-243
857.615	326
857.703	1271
857.792	-1033
857.880	-368
857.968	-705
858.056	-184
858.145	-170
858.233	-424
858.321	-241
858.409	661
858.497	-204
858.585	-257
858.673	-332
858.761	-659
858.849	-1111
858.937	-106
859.025	-719
859.113	146
859.201	-891
859.289	94
859.377	-1063
859.465	53
859.552	-211
859.640	-209
859.728	288
859.816	154
859.903	542
859.991	-101
860.079	366
860.166	-591
860.254	-567
860.342	-189
860.429	-658
860.517	-46
860.604	511
860.692	-415
860.779	-1042
860.867	344
860.954	64
861.042	449
861.129	11
861.216	-407
861.304	-157
861.391	-434
861.478	497
861.565	-188
861.653	1023
861.740	-485
861.827	323
861.914	-117
862.001	-214
862.089	79
862.176	386
862.263	-395
862.350	315
862.437	11
862.524	-1210
862.611	-787
862.698	962
862.785	63
862.871	283
862.958	-215
863.045	-365
863.132	103
863.219	-500
863.306	-303
863.392	-18
863.479	-253
863.566	-309
863.652	576
863.739	-233
863.826	448
863.912	-583
863.999	-294
864.086	-185
864.172	321
864.259	-1018
864.345	-23
864.432	-293
864.518	-350
864.604	-55
864.691	-845
864.777	432
864.863	325
864.950	-102
865.036	-936
865.122	163
865.209	988
865.295	229
865.381	1747
865.467	1252
865.553	2478
865.639	3140
865.726	7637
865.812	14901
865.898	31551
865.984	47847
866.070	87140
866.156	100480
866.242	28150
866.328	6232
866.414	1660
866.499	1464
866.585	850
866.671	1018
866.757	778
866.843	883
866.928	400
867.014	1134
867.100	1202
867.186	751
867.271	2540
867.357	4190
867.442	7459
867.528	2637
867.614	735
867.699	1037
867.785	695
867.870	58
867.956	975
868.041	1329
868.127	1941
868.212	3670
868.297	1248
868.383	608
868.468	1530
868.553	2506
868.639	2170
868.724	5667
868.809	6442
868.894	1812
868.979	445
869.065	353
869.150	1514
869.235	600
869.320	-750
869.405	-631
869.490	-819
869.575	310
869.660	18
869.745	-841
869.830	-428
869.915	-268
870.000	-163
870.085	-435
870.169	757
870.254	-219
870.339	-330
870.424	-22
870.509	218
870.593	-179
870.678	904
870.763	-596
870.847	-286
870.932	-617
871.016	-68
871.101	-229
871.186	-975
871.270	-265
871.355	213
871.439	-118
871.523	-347
871.608	-210
871.692	-608
871.777	-400
871.861	-94
871.945	-589
872.030	-697
872.114	-380
872.198	-995
872.282	-573
872.367	323
872.451	-1173
872.535	-286
872.619	-788
872.703	-241
872.787	213
872.871	98
872.955	-413
873.039	-572
873.123	-371
873.207	32
873.291	27
873.375	1056
873.459	-13
873.543	-40
873.627	-731
873.711	-570
873.794	-57
873.878	-61
873.962	-496
874.045	-182
874.129	-398
874.137	-391
874.213	-320
874.245	-365
874.296	-438
874.352	-921
874.380	-1159
874.460	-700
874.464	-682
874.547	-609
874.568	-487
874.631	-162
874.676	-346
874.714	-469
874.784	-406
874.798	-399
874.881	1107
874.892	924
874.965	-348
874.999	-109
875.048	197
875.107	-162
875.131	-282
875.215	-545
875.215	-545
875.298	-1337
875.323	-1059
875.381	-373
875.430	-47
875.465	199
875.538	73
875.548	46
875.631	-318
875.646	-389
875.714	-616
875.753	-209
875.798	206
875.861	-361
875.881	-545
875.964	-863
875.968	-828
876.047	-135
876.076	-158
876.130	-176
876.183	-177
876.213	-210
876.291	927
876.296	1005
876.379	-282
876.398	-260
876.462	-202
876.506	152
876.545	472
876.613	341
876.628	297
876.711	-440
876.721	-467
876.794	-432
876.828	-166
876.877	36
876.935	-210
876.960	-230
877.043	199
877.043	198
877.125	11
877.150	118
877.208	286
877.258	151
877.291	117
877.365	160
877.374	173
877.456	-112
877.472	-67
877.539	-100
877.579	268
877.622	734
877.687	906
877.704	949
877.787	36
877.794	72
877.869	478
877.901	380
877.952	93
878.008	-417
878.034	-499
878.115	-539
878.117	-548
878.199	88
878.222	-28
878.282	23
878.329	427
878.364	481
878.437	-356
878.447	-443
878.529	-176
878.544	-284
878.611	-528
878.651	-283
878.694	-100
878.758	-212
878.776	-279
878.858	-24
878.865	-44
878.941	-267
878.972	-224
879.023	-33
879.078	49
879.105	120
879.185	389
879.187	386
879.269	-297
879.292	-320
879.351	-59
879.399	-187
879.433	-478
879.506	-665
879.516	-619
879.598	-369
879.613	-321
879.680	-449
879.720	-367
879.762	-229
879.827	-294
879.844	-315
879.926	-574
879.933	-539
880.007	-74
880.040	-302
880.089	-760
880.147	-216
880.171	116
880.253	508
880.254	512
880.335	1057
880.360	927
880.417	918
880.467	2103
880.499	2945
880.574	3862
880.580	3848
880.662	1249
880.680	1009
880.744	306
880.787	-145
880.825	-341
880.893	-329
880.907	-333
880.989	-14
881.000	-42
881.070	-67
881.106	11
881.152	-12
881.213	-226
881.233	-271
881.315	-262
881.319	-253
881.396	20
881.426	41
881.478	-81
881.532	-155
881.559	-87
881.639	-375
881.641	-378
881.722	188
881.745	326
881.803	490
881.852	53
881.885	-190
881.958	89
881.966	108
882.047	162
882.064	183
882.129	660
882.171	935
882.210	869
882.277	965
882.291	1104
882.372	633
882.383	713
882.454	532
882.489	-2
882.535	-401
882.596	-179
882.616	-144
882.697	-304
882.702	-319
882.778	89
882.808	353
882.859	165
882.914	-78
882.940	190
883.020	428
883.021	425
883.102	57
883.127	-93
883.183	108
883.233	161
883.264	93
883.339	97
883.345	113
883.426	-107
883.445	26
883.507	209
883.551	-94
883.587	-238
883.657	-242
883.668	-237
883.749	-29
883.763	-75
883.830	-36
883.869	172
883.910	116
883.975	-178
883.991	-166
884.072	373
884.081	334
884.152	197
884.187	376
884.233	286
884.292	62
884.314	50
884.394	155
884.398	137
884.475	400
884.504	660
884.555	507
884.610	255
884.636	248
884.716	-124
884.716	-121
884.797	5
884.821	35
884.877	242
884.927	259
884.958	155
885.033	96
885.038	74
885.118	-472
885.139	-598
885.199	-201
885.244	263
885.279	174
885.350	-315
885.359	-251
885.439	265
885.456	334
885.520	241
885.561	412
885.600	198
885.667	-410
885.680	-320
885.760	418
885.773	510
885.840	384
885.878	203
885.920	122
885.984	152
886.000	226
886.080	588
886.089	604
886.160	279
886.195	253
886.240	270
886.300	113
886.320	218
886.400	768
886.406	794
886.480	168
886.511	-72
886.560	248
886.616	444
886.640	302
886.720	-30
886.722	-37
886.800	305
886.827	348
886.879	326
886.932	219
886.959	186
887.038	127
887.039	136
887.119	603
887.143	707
887.198	128
887.248	-423
887.278	-321
887.354	-106
887.358	-61
887.437	951
887.459	1187
887.517	672
887.564	219
887.596	261
887.669	427
887.676	400
887.755	-75
887.774	-173
887.835	164
887.880	426
887.914	145
887.985	-527
887.994	-445
888.073	360
888.090	510
888.153	549
888.195	607
888.232	891
888.300	1365
888.311	1267
888.391	520
888.405	373
888.470	360
888.510	365
888.549	164
888.615	-127
888.628	-20
888.708	504
888.720	593
888.787	376
888.825	216
888.866	223
888.930	266
888.945	244
889.024	102
889.035	83
889.103	-99
889.140	-208
889.182	-73
889.245	112
889.261	101
889.340	62
889.349	54
889.419	-355
889.454	-548
889.498	-75
889.559	579
889.577	605
889.656	706
889.664	716
889.735	1008
889.768	1144
889.814	896
889.873	563
889.978	687
890.083	681
890.187	455
890.292	736
890.397	500
890.501	-20
890.606	1204
890.710	-246
890.815	1091
890.919	656
891.024	263
891.128	845
891.233	1429
891.337	-191
891.442	527
891.546	-242
891.650	1053
891.755	743
891.859	1805
891.963	-122
892.068	691
892.172	617
892.276	325
892.380	814
892.484	568
892.589	-37
892.693	723
892.797	3
892.901	642
893.005	128
893.109	1081
893.213	1494
893.317	-5
893.421	372
893.525	651
893.629	60
893.733	516
893.837	109
893.941	580
894.045	116
894.148	755
894.252	669
894.356	-810
894.460	228
894.564	895
894.667	377
894.771	535
894.875	-30
894.978	295
895.082	121
895.186	55
895.289	949
895.393	1056
895.496	-358
895.600	301
895.703	-57
895.807	997
895.910	383
896.014	-202
896.117	-146
896.221	1038
896.324	214
896.427	436
896.531	315
896.634	672
896.737	263
896.840	806
896.944	973
897.047	313
897.150	519
897.253	-258
897.356	198
897.460	-79
897.563	576
897.666	587
897.769	481
897.872	130
897.975	115
898.078	-297
898.181	-732
898.284	139
898.387	357
898.490	111
898.593	-182
898.695	146
898.798	423
898.901	592
899.004	861
899.107	-69
899.209	883
899.312	114
899.415	257
899.518	217
899.620	-125
899.723	628
899.826	766
899.928	1327
900.031	-368
900.133	340
900.236	-244
900.338	106
900.441	-184
900.543	88
900.646	116
900.748	385
900.851	-57
900.953	89
901.055	318
901.158	-128
901.260	-183
901.362	250
901.465	-615
901.567	205
901.669	66
901.771	916
901.873	-447
901.976	-247
902.078	-21
902.180	672
902.282	826
902.384	118
902.486	147
902.588	1034
902.690	744
902.792	-182
902.894	382
902.996	471
903.098	221
903.200	191
903.302	267
903.404	-39
903.505	-2
903.607	408
903.709	-201
903.811	268
903.913	-656
904.014	-281
904.116	-380
904.218	141
904.319	121
904.421	-535
904.523	193
904.624	-145
904.726	17
904.827	30
904.929	-616
905.030	501
905.132	-358
905.233	-151
905.335	-421
905.436	-247
905.537	48
905.639	-2
905.740	201
905.841	489
905.943	70
906.044	-406
906.145	396
906.247	-12
906.348	-498
906.449	-431
906.550	-146
906.651	-615
906.752	750
906.854	-472
906.955	-674
907.056	-787
907.157	-67
907.258	32
907.359	26
907.460	-355
907.561	48
907.662	-109
907.762	-199
907.863	-971
907.964	-492
908.065	53
908.166	-862
908.267	-113
908.367	23
908.468	-318
908.569	736
908.670	317
908.770	216
908.871	-251
908.971	497
909.072	778
909.173	-545
909.273	-475
909.374	-399
909.474	-626
909.575	-339
909.675	-200
909.776	-278
909.876	-227
909.977	-380
910.077	99
910.177	589
910.278	-362
910.378	-1009
910.478	55
910.579	146
910.679	-186
910.779	-571
910.879	298
910.980	-598
911.080	25
911.180	-872
911.280	-198
911.380	-320
911.480	-302
911.580	-201
911.680	-291
911.780	-600
911.880	-299
911.980	98
912.080	-584
912.180	-794
912.280	-53
912.380	-838
912.480	-748
912.580	-526
912.679	-414
912.779	2
912.879	-143
912.979	-436
913.078	-98
913.178	-766
913.278	-86
913.377	-286
913.477	14
913.577	-231
913.676	-24
913.776	209
913.875	81
913.975	-390
914.074	-572
914.174	-519
914.273	114
914.373	695
914.472	-621
914.572	-270
914.671	-374
914.770	-499
914.870	-338
914.969	-1016
915.068	-599
915.167	-532
915.267	-814
915.366	-501
915.465	-184
915.564	-1072
915.663	-190
915.763	-183
915.862	-290
915.961	147
916.060	-506
916.159	-156
916.258	221
916.357	-830
916.456	-300
916.555	-127
916.654	-176
916.752	-332
916.851	-937
916.950	6
917.049	-886
917.148	504
917.247	130
917.345	-266
917.444	-1462
917.543	-448
917.642	356
917.740	-430
917.839	303
917.937	265
918.036	-30
918.135	219
918.233	49
918.332	-838
918.430	-548
918.529	-552
918.627	-540
918.726	-564
918.824	-400
918.923	-66
919.021	510
919.119	-600
919.218	288
919.316	195
919.414	-794
919.512	-80
919.611	-500
919.709	-948
919.807	-2
919.905	-412
920.003	181
920.102	-965
920.200	-812
920.298	-246
920.396	-988
920.494	-568
920.592	-625
920.690	-463
920.788	-160
920.886	-604
920.984	-272
921.082	186
921.180	-548
921.277	-746
921.375	-408
921.473	279
921.571	-216
921.669	264
921.766	-205
921.864	128
921.962	382
922.060	-80
922.157	313
922.255	299
922.352	452
922.450	157
922.548	663
922.645	-812
922.743	-391
922.840	1373
922.938	1094
923.035	1221
923.133	939
923.230	432
923.327	892
923.425	1518
923.522	1522
923.619	317
923.717	186
923.814	256
923.911	820
924.008	1204
924.106	-582
924.203	35
924.300	497
924.397	529
924.494	542
924.591	140
924.688	66
924.786	350
924.883	-102
924.979	54
925.077	772
925.173	942
925.270	608
925.367	1112
925.464	1045
925.561	1443
925.658	1474
925.755	711
925.852	888
925.948	654
926.045	1003
926.142	304
926.239	562
926.335	1069
926.432	761
926.529	-11
926.625	509
926.722	201
926.818	737
926.915	154
927.011	-28
927.108	54
927.204	528
927.301	16
927.397	942
927.494	932
927.590	583
927.687	547
927.783	356
927.879	484
927.976	209
928.072	66
928.168	602
928.264	160
928.361	374
928.457	-44
928.553	-7
928.649	237
928.745	866
928.841	212
928.937	350
929.033	405
929.129	961
929.225	83
929.321	356
929.417	720
929.513	424
929.609	366
929.705	267
929.801	-391
929.897	-392
929.993	179
930.089	302
930.184	266
930.280	802
930.376	-37
930.471	-106
930.567	360
930.663	259
930.758	-171
930.854	342
930.950	1
931.045	249
931.141	261
931.236	577
931.332	643
931.427	357
931.523	367
931.618	471
931.714	1176
931.809	1021
931.905	601
932.000	542
932.095	-30
932.191	671
932.286	994
932.381	189
932.476	-77
932.572	1032
932.667	328
932.762	-388
932.857	261
932.952	212
933.047	-398
933.142	-96
933.237	435
933.332	784
933.427	46
933.522	672
933.617	-64
933.712	248
933.807	-73
933.902	470
933.997	-168
934.092	-694
934.187	-327
934.282	-46
934.376	316
934.471	81
934.566	550
934.661	-220
934.755	-493
934.850	181
934.945	63
935.039	-288
935.134	458
935.228	563
935.323	815
935.417	-138
935.512	364
935.606	475
935.701	-192
935.795	-426
935.890	3
935.984	612
936.079	-116
936.173	-175
936.267	-391
936.362	-166
936.456	250
936.550	950
936.644	30
936.738	-352
936.833	0
936.927	679
937.021	-1037
937.115	-93
937.209	-745
937.303	776
937.397	-339
937.491	-30
937.585	761
937.679	878
937.773	606
937.867	-328
937.961	-586
938.055	226
938.149	286
938.243	-74
938.337	389
938.430	-166
938.524	1205
938.618	519
938.712	284
938.805	566
938.899	-362
938.993	259
939.086	611
939.180	-573
939.274	-168
939.367	637
939.461	410
939.554	445
939.648	-639
939.741	707
939.835	-166
939.928	497
940.022	-1312
940.115	172
940.208	528
940.302	632
940.395	169
940.488	-282
940.582	-139
940.675	318
940.768	4
940.861	539
940.954	-511
941.048	-631
941.141	-293
941.234	-835
941.327	651
941.420	902
941.513	543
941.606	-725
941.699	714
941.792	349
941.885	-79
941.978	-226
942.071	-331
942.164	-196
942.257	203
942.349	34
942.442	261
942.535	94
942.628	47
942.721	201
942.813	-820
942.906	432
942.999	-509
943.091	289
943.184	-802
943.277	232
943.369	82
943.462	241
943.554	-276
943.647	-92
943.739	1450
943.832	250
943.924	-2268
944.017	-134
944.109	-1350
944.201	709
944.294	-91
944.386	-135
944.478	-1179
944.571	-299
944.663	1099
944.755	198
944.847	-416
944.940	-91
945.032	-1160
945.124	-49
945.216	176
945.308	-255
945.400	-191
945.492	-631
945.584	-514
945.676	-200
945.768	-19
945.860	-550
945.952	-884
946.044	-298
946.136	356
946.228	-251
946.320	-7
946.412	-1413
946.503	118
946.595	-6
946.687	-364
946.779	-597
946.870	-23
946.962	-742
947.054	210
947.145	729
947.237	-543
947.329	69
947.420	-336
947.512	53
947.603	-783
947.695	181
947.786	-266
947.878	-920
947.969	748
948.061	-823
948.152	-850
948.243	-5
948.335	-159
948.426	-1303
948.517	29
948.609	-151
948.700	-1241
948.791	-883
948.882	9
948.973	-1136
949.065	-429
949.156	-630
949.247	-227
949.338	-129
949.429	-1027
949.520	-718
949.611	-596
949.702	129
949.793	-275
949.884	129
949.975	169
950.066	17
950.157	-1106
950.247	-815
950.338	-222
950.429	-579
950.520	-490
950.611	-576
950.701	-644
950.792	558
950.883	172
950.973	-307
951.064	-146
951.155	-801
951.245	-123
951.336	398
951.427	-1479
951.517	283
951.608	-251
951.698	-670
951.788	125
951.879	-59
951.969	-1110
952.060	-1098
952.150	-611
952.240	32
952.331	-1423
952.421	699
952.511	-937
952.602	-710
952.692	-611
952.782	54
952.872	-552
952.962	-449
953.052	-518
953.143	-1133
953.233	-70
953.323	-218
953.413	-1142
953.503	164
953.593	15
953.683	-797
953.773	-722
953.863	-604
953.953	474
954.042	-383
954.132	-70
954.222	470
954.312	-647
954.402	-364
954.492	-263
954.581	743
954.671	566
954.761	-989
954.850	866
954.940	-1228
955.030	-420
955.119	-719
955.209	-571
955.298	-1010
955.388	-465
955.477	462
955.567	-763
955.656	-575
955.746	-592
955.835	-763
955.925	-553
956.014	-1017
956.103	-282
956.193	-724
956.282	-470
956.371	-526
956.461	-647
956.550	-772
956.639	-412
956.728	-1176
956.817	-1039
956.906	-876
956.995	-49
957.085	-393
957.174	-655
957.263	-1010
957.352	-720
957.441	-615
957.530	-729
957.619	-172
957.708	-1048
957.796	-216
957.885	-372
957.974	-535
958.063	-97
958.152	-1519
958.241	-205
958.329	-694
958.418	-1031
958.507	-924
958.596	212
958.684	-651
958.773	-151
958.861	-114
958.950	-205
959.039	-936
959.127	-771
959.216	-485
959.304	-1041
959.393	-570
959.481	-499
959.570	-416
959.658	-485
959.746	-625
959.835	840
959.923	1657
960.011	727
960.100	-519
960.188	-984
960.276	37
960.365	-1140
960.453	-229
960.541	-1410
960.629	-390
960.717	-1215
960.805	-1746
960.893	-786
960.981	-1339
961.069	673
961.158	-436
961.245	-5
961.333	-291
961.421	-768
961.509	153
961.597	-661
961.685	-550
961.773	-428
961.861	-468
961.949	-638
962.036	-353
962.124	-173
962.212	-336
962.299	-2035
962.387	-889
962.475	-1123
962.562	-1546
962.650	-554
962.738	-724
962.825	-1020
962.913	-442
963.000	-1193
963.088	-988
963.175	-1206
963.263	-206
963.350	-1818
963.438	-880
963.525	-294
963.612	1342
963.700	3421
963.787	10133
963.874	4508
963.962	145
964.049	-303
964.136	-1244
964.223	-830
964.310	-548
964.398	-957
964.485	-347
964.572	237
964.659	423
964.746	534
964.833	26
964.920	-959
965.007	-1266
965.094	-566
965.181	-623
965.268	-676
965.355	-472
965.441	-874
965.528	-1628
965.615	-15
965.702	-403
965.789	-920
965.875	-38
965.962	-702
966.049	-546
966.136	-67
966.222	-567
966.309	-1311
966.395	-831
966.482	-951
966.569	-1330
966.655	-495
966.742	-881
966.828	-336
966.915	-1524
967.001	-406
967.087	-818
967.174	-466
967.260	276
967.347	869
967.433	1950
967.519	7267
967.605	1835
967.692	-1320
967.778	-863
967.864	-59
967.950	-1086
968.036	-441
968.123	-101
968.209	-1193
968.295	-1792
968.381	-678
968.467	-287
968.553	-1884
968.639	520
968.725	-1266
968.811	141
968.897	11
968.983	-652
969.069	-1658
969.154	-370
969.240	-187
969.326	-1236
969.412	-1289
969.497	-1606
969.583	-1466
969.669	-156
969.755	-124
969.840	-638
969.926	-356
970.012	-394
970.097	173
970.183	-1087
970.268	-213
970.354	704
970.439	28
970.525	4344
970.610	285
970.696	-523
970.781	-721
970.866	-1540
970.952	-601
971.037	-1655
971.122	-637
971.208	-584
971.293	-1101
971.378	-1451
971.463	-954
971.549	-423
971.634	-836
971.719	-960
971.804	-340
971.889	602
971.974	-887
972.059	-351
972.144	-1495
972.229	-799
972.314	-1237
972.399	-261
972.484	-1393
972.569	-539
972.654	-903
972.739	1669
972.824	1842
972.908	-902
972.993	-1259
973.078	-863
973.163	-1218
973.247	-354
973.332	-1764
973.417	-88
973.501	-1829
973.586	-372
973.671	-839
973.755	-134
973.840	-1237
973.924	-19
974.009	-849
974.093	-580
974.178	-310
974.262	1090
974.346	428
974.431	-338
974.515	-38
974.600	-968
974.684	-397
974.768	-951
974.852	-132
974.937	-2203
975.021	-314
975.105	-309
975.189	-1349
975.273	-466
975.358	-1877
975.442	-1356
975.526	-859
975.610	-1669
975.694	-1839
975.778	-52
975.862	-1139
975.946	-2523
976.030	-157
976.114	-1339
976.198	-448
976.281	-1374
976.365	-810
976.449	-1460
976.533	-1177
976.617	-1487
976.700	-1328
976.784	-906
976.868	-1013
976.951	837
977.035	-1388
977.119	-494
977.202	-1314
977.286	-1063
977.369	-1087
977.453	-870
977.536	-1397
977.620	-1331
977.703	-624
977.787	-1872
977.870	-735
977.953	-770
978.037	-1581
978.120	-133
978.203	-695
978.287	1522
978.370	377
978.453	-1287
978.536	-908
978.620	-81
978.703	166
978.786	-459
978.869	-1648
978.952	-2195
979.035	17
979.118	-1287
979.201	-1129
979.284	-728
979.367	-1680
979.450	-488
979.533	-1644
979.616	-675
979.699	-1698
979.782	-38
979.865	-663
979.948	-230
980.030	-1075
980.113	-745
980.196	-1692
980.279	-1404
980.361	-1508
980.444	-1014
980.526	-693
980.609	-1353
980.692	-1517
980.774	-201
980.857	-2178
980.939	-479
981.022	-1410
981.104	-1213
981.187	-1869
981.269	-815
981.352	-1140
981.434	-1187
981.516	-1294
981.599	196
981.681	-610
981.763	-1306
981.846	-1141
981.928	-1370
982.010	-1616
982.092	-1161
982.174	-601
982.256	-1128
982.339	-991
982.421	-1419
982.503	-1207
982.585	-2360
982.667	-1225
982.749	-668
982.831	-1577
982.913	-1103
982.995	28
983.077	-1399
983.158	-749
983.240	-2384
983.322	-741
983.404	-652
983.486	-1747
983.568	-430
983.649	-1649
983.731	-554
983.813	-1486
983.894	-868
983.976	-1509
984.058	-1480
984.139	-470
984.221	-1834
984.302	-993
984.384	-987
984.465	-1468
984.547	-841
984.628	-1451
984.710	-714
984.791	-604
984.872	-1014
984.954	-1692
985.035	-1738
985.116	-2374
985.198	-951
985.279	-593
985.360	-2361
985.441	-1243
985.522	-1219
985.604	-1754
985.685	-2807
985.766	-973
985.847	-744
985.928	-2348
986.009	-1653
986.090	-1585
986.171	-995
986.252	-1838
986.333	-572
986.414	-1868
986.495	-948
986.576	-1405
986.656	-1347
986.737	-780
986.818	-822
986.899	-2226
986.980	-1551
987.060	-669
987.141	-2071
987.222	-990
987.302	-1002
987.383	-619
987.464	-1700
987.544	-1348
987.625	-1656
987.705	-1499
987.786	-744
987.866	-715
987.947	-1521
988.027	-1645
988.108	-1477
988.188	-1275
988.268	-1268
988.349	-505
988.429	-1693
988.509	-330
988.589	-981
988.670	-2305
988.750	-647
988.830	-1563
988.910	-1003
988.990	-1679
989.070	-775
989.151	-698
989.231	-1326
989.311	-796
989.391	-1483
989.471	-1209
989.551	-1546
989.631	-2139
989.711	-906
989.791	-1443
989.870	-2368
989.950	-470
990.030	-1925
990.110	-1502
990.190	-1790
990.269	-1404
990.349	-2132
990.429	-1346
990.509	485
990.588	-1252
990.668	-784
990.747	-886
990.827	-1446
990.907	-875
990.986	-1399
991.066	-365
991.145	-1745
991.225	-359
991.304	-1486
991.383	-834
991.463	-1391
991.542	-1413
991.622	-2007
991.701	-1392
991.780	-2014
991.859	-1188
991.939	-1990
992.018	-2047
992.097	-660
992.176	-842
992.256	-491
992.335	-2608
992.414	-1324
992.493	-2181
992.572	-1598
992.651	329
992.730	-1265
992.809	-1245
992.888	-1524
992.967	-1494
993.046	-963
993.125	-2105
993.203	-1576
993.282	-1261
993.361	-1099
993.440	-1175
993.519	-2563
993.597	-807
993.676	-1832
993.755	-491
993.834	-1178
993.912	-2954
993.991	-688
994.069	-2112
994.148	-786
994.226	-2172
994.305	-1136
994.384	-1979
994.462	-474
994.540	-2311
994.619	-1717
994.697	-1469
994.776	-2090
994.854	-1191
994.932	-1812
995.011	-1580
995.089	-1932
995.167	-2047
995.245	-1082
995.324	-1690
995.402	-919
995.480	-2068
995.558	-1831
995.636	-2806
995.714	-1587
995.792	-720
995.870	-1680
995.948	-1616
996.026	-800
996.104	-2733
996.182	-1120
996.260	-2305
996.338	-1022
996.416	-2783
996.494	-1647
996.572	-318
996.649	-1249
996.727	-1620
996.805	-407
996.883	-1773
996.960	-1930
997.038	-644
997.116	-846
997.193	-2006
997.271	-1019
997.348	-1817
997.426	-715
997.504	-1769
997.581	-1674
997.658	-1171
997.736	-2554
997.813	-2585
997.891	-996
997.968	-1859
998.046	-1527
998.123	-1539
998.200	-554
998.277	-1862
998.355	-452
998.432	-1885
998.509	-1147
998.586	-816
998.663	-2106
998.741	-1205
998.818	-1565
998.895	-1906
998.972	-1137
999.049	-1109
999.126	-873
999.203	-1052
999.280	-1353
999.357	-1790
999.434	-1383
999.511	-1437
999.587	-1283
999.664	-2145
999.741	-1062
999.818	-203
999.895	-1927
999.971	-2833
1000.048	-1973
1000.125	-833
1000.202	-1531
1000.278	-2110
1000.355	-1249
1000.431	-1060
1000.508	-2063
1000.584	-1024
1000.661	-988
1000.738	-1908
1000.814	-1005
1000.890	-1559
1000.967	-1680
1001.043	-1415
1001.120	-2469
1001.196	-1790
1001.272	-2133
1001.349	-1352
1001.425	-919
1001.501	-1546
1001.577	-2116
1001.654	-1279
1001.730	-1676
1001.806	-1094
1001.882	-970
1001.958	-1753
1002.034	-1050
1002.110	-1113
1002.186	-1511
1002.262	-2513
1002.338	-1408
1002.414	-1503
1002.490	-781
1002.566	-1703
1002.642	-1630
1002.718	-734
1002.794	-1106
1002.870	-1722
1002.945	-1836
1003.021	-2053
1003.097	-1259
1003.173	-715
1003.248	-1864
1003.324	-904
1003.400	-1340
1003.475	-2158
1003.551	-1347
1003.626	-1487
1003.702	-1758
1003.777	-1711
1003.853	-1848
1003.928	-2827
1004.004	-1527
1004.079	-1854
1004.155	-1386
1004.230	-2629
1004.305	-695
1004.381	-1617
1004.456	-1053
1004.531	-1392
1004.607	-1740
1004.682	-1493
1004.757	-611
1004.832	-1827
1004.907	-1491
1004.982	-1349
1005.057	-1285
1005.133	-2058
1005.208	-1937
1005.283	-1639
1005.358	-1326
1005.433	-2136
1005.508	-1349
1005.583	-2141
1005.657	-1532
1005.732	-906
1005.807	-1757
1005.882	-1956
1005.957	-653
1006.032	-1495
1006.106	-1802
1006.181	-1063
1006.256	-437
1006.331	-2006
1006.405	-1817
1006.480	-1437
1006.554	-1238
1006.629	-1814
1006.704	-1542
1006.778	-1993
1006.853	-1096
1006.927	-1280
1007.002	-1992
1007.076	-953
1007.150	-1512
1007.225	-1491
1007.299	-980
1007.373	-2363
1007.448	-428
1007.522	-1114
1007.596	-953
1007.671	-1880
1007.745	-1584
1007.819	-1898
1007.893	-2146
1007.967	-1050
1008.041	-1670
1008.115	-868
1008.190	-1516
1008.264	-1315
1008.338	-2321
1008.412	-2189
1008.486	-1674
1008.560	-1766
1008.633	-1837
1008.707	-1509
1008.781	-902
1008.855	-2107
1008.929	-1461
1009.003	-1923
1009.076	-1971
1009.150	-1262
1009.224	-1552
1009.298	-1920
1009.371	-1696
1009.445	-885
1009.519	-1522
1009.592	-2032
1009.666	-1432
1009.739	-1466
1009.813	-1894
1009.886	-23
1009.960	-2079
1010.033	-693
1010.107	-1327
1010.180	-2575
1010.253	-1136
1010.327	-2079
1010.400	-888
1010.473	-2190
1010.547	-464
1010.620	-1783
1010.693	-1682
1010.766	-1779
1010.840	-1343
1010.913	-1447
1010.986	-2194
1011.059	-1295
1011.132	-2112
1011.205	-1478
1011.278	-1209
1011.351	-1872
1011.424	-1486
1011.497	-2409
1011.570	-1853
1011.643	-1407
1011.716	-2038
1011.789	-2180
1011.862	-859
1011.934	-322
1012.007	-2807
1012.080	-2068
1012.153	-1415
1012.225	-1329
1012.298	-1246
1012.371	-1817
1012.443	-1496
1012.516	-2045
1012.588	-1389
1012.661	-2256
1012.733	-2171
1012.806	-540
1012.879	-1770
1012.951	-1664
1013.023	-1780
1013.096	-1892
1013.168	-1601
1013.241	-1505
1013.313	-1695
1013.385	-2101
1013.458	-1092
1013.530	-1218
1013.602	-991
1013.674	-1389
1013.746	-2321
1013.819	-2304
1013.891	-1870
1013.963	-2522
1014.035	-1591
1014.107	-1103
1014.179	-798
1014.251	-1408
1014.323	-780
1014.395	-1347
1014.467	-1446
1014.539	-1321
1014.611	-2316
1014.683	-2090
1014.754	-1565
1014.826	-2443
1014.898	-1247
1014.970	-2046
1015.042	-1543
1015.113	-1475
1015.185	-1488
1015.257	-2277
1015.328	-1425
1015.400	-2611
1015.471	-1857
1015.543	-2009
1015.615	-1083
1015.686	-2467
1015.757	-1932
1015.829	-959
1015.901	-1427
1015.972	-1681
1016.043	-1948
1016.115	-1451
1016.186	-1417
1016.257	-1816
1016.328	-1184
1016.400	-847
1016.471	-1921
1016.542	-1205
1016.613	-1008
1016.685	-1906
1016.756	-1128
1016.827	-1864
1016.898	-1794
1016.969	-1171
1017.040	-1320
1017.111	-1332
1017.182	-1612
1017.253	-1318
1017.324	-1701
1017.395	-1482
1017.466	-1498
1017.537	-2035
1017.608	-1413
1017.678	-1172
1017.749	-1836
1017.820	-1742
1017.891	-2609
1017.961	-1512
1018.032	-1805
1018.103	-1589
1018.173	-1807
1018.244	-2171
1018.315	-1317
1018.385	-1460
1018.456	-2376
1018.526	-2595
1018.597	-1122
1018.667	-1438
1018.738	-2131
1018.808	-1586
1018.878	-2489
1018.949	-1146
1019.019	-1412
1019.089	-1366
1019.160	-2055
1019.230	-3076
1019.300	-1899
1019.371	-2375
1019.441	-1367
1019.511	-2008
1019.581	-1605
1019.651	-2098
1019.721	-1607
1019.791	-1858
1019.861	-1354
1019.931	-1045
1020.001	-2007
1020.071	-2148
1020.141	-1888
1020.211	-2078
1020.281	-2114
1020.351	-2018
1020.421	-2237
1020.491	-2297
1020.560	-2088
1020.630	-1681
1020.700	-1479
1020.770	-2850
1020.839	-1993
1020.909	-1878
1020.979	-1373
1021.048	-1601
1021.118	-1814
1021.187	-2199
1021.257	-1965
1021.326	-1853
1021.396	-2144
1021.465	-1632
1021.535	-1789
1021.604	-1308
1021.674	-1207
1021.743	-2061
1021.812	-2090
1021.882	-1638
1021.951	-2063
1022.020	-2219
1022.089	-1758
1022.159	-2062
1022.228	-1076
1022.297	-2126
1022.366	-1518
1022.435	-2019
1022.504	-1755
1022.573	-2004
1022.642	-1228
1022.711	-1664
1022.781	-1444
1022.849	-1803
1022.918	-1323
1022.987	-2181
1023.056	-1814
1023.125	-2608
1023.194	-1813
1023.263	-1574
1023.331	-1642
1023.400	-2723
1023.469	-2112
1023.538	-1875
1023.606	-1716
1023.675	-2371
1023.744	-2041
1023.812	-1470
1023.881	-1296
1023.949	-1731
1024.018	-1683
1024.086	-2854
1024.155	-1313
1024.223	-2599
1024.292	-1854
1024.360	-1571
1024.429	-1115
1024.497	-2829
1024.565	-1619
1024.634	-2475
1024.702	-1714
1024.770	-1222
1024.838	-2174
1024.907	-2546
1024.975	-2552
1025.043	-1769
1025.111	-1995
1025.179	-1879
1025.247	-2240
1025.315	-2328
1025.383	-1969
1025.451	-1688
1025.519	-1753
1025.587	-2060
1025.655	-1664
1025.723	-2262
1025.791	-1548
1025.859	-2438
1025.927	-1976
1025.995	-2735
1026.062	-1644
1026.130	-1090
1026.198	-2509
1026.266	-2411
1026.333	-2343
1026.401	-1930
1026.469	-1672
1026.536	-1501
1026.604	-1625
1026.671	-2103
1026.739	-1819
1026.806	-1741
1026.874	-1992
1026.941	-1966
1027.009	-1609
1027.076	-2697
1027.144	-1454
1027.211	-2705
1027.278	-2066
1027.345	-2054
1027.413	-1820
1027.480	-2517
1027.547	-2344
1027.614	-2926
1027.682	-2120
1027.749	-2665
1027.816	-2467
1027.883	-2035
1027.950	-1529
1028.017	-2378
1028.084	-1885
1028.151	-1927
1028.218	-2292
1028.285	-2208
1028.352	-2105
1028.419	-2653
1028.486	-1976
1028.553	-2187
1028.619	-2344
1028.686	-2134
1028.753	-2077
1028.820	-2814
1028.886	-2723
1028.953	-2633
1029.020	-2346
1029.086	-1536
1029.153	-2005
1029.220	-2105
1029.286	-1599
1029.353	-1203
1029.419	-2402
1029.486	-1575
1029.552	-1906
1029.619	-1608
1029.685	-1608
1029.751	-1971
1029.818	-1308
1029.884	-2679
1029.951	-842
1030.017	-2344
1030.083	-1409
1030.149	-2150
1030.216	-2268
1030.282	-1696
1030.348	-2347
1030.414	-2096
1030.480	-1922
1030.546	-1569
1030.612	-1520
1030.678	-2411
1030.744	-1859
1030.810	-2338
1030.876	-2047
1030.942	-2542
1031.008	-1713
1031.074	-2286
1031.140	-2233
1031.206	-1775
1031.272	-2558
1031.337	-2431
1031.403	-2139
1031.469	-2086
1031.534	-2414
1031.600	-1672
1031.666	-2140
1031.731	-2677
1031.797	-1805
1031.863	-2104
1031.928	-1356
1031.994	-2162
1032.059	-2576
1032.125	-2477
1032.190	-2686
1032.256	-2454
1032.321	-2024
1032.386	-2007
1032.452	-1889
1032.517	-2699
1032.582	-1673
1032.647	-2510
1032.713	-2390
1032.778	-2776
1032.843	-2204
1032.908	-1872
1032.974	-2685
1033.039	-2581
1033.104	-1802
1033.169	-1935
1033.234	-1307
1033.299	-1826
1033.364	-1761
1033.429	-2051
1033.494	-1942
1033.559	-2063
1033.624	-2414
1033.688	-1426
1033.753	-2627
1033.818	-2095
1033.883	-1631
1033.948	-2687
1034.013	-1974
1034.077	-1751
1034.142	-1767
1034.207	-2499
1034.271	-1130
1034.336	-1268
1034.400	-1939
1034.465	-2063
1034.530	-1984
1034.594	-2028
1034.658	-1646
1034.723	-2442
1034.787	-2136
1034.852	-2792
1034.916	-2056
1034.981	-2288
1035.045	-2605
1035.109	-2350
1035.173	-2308
1035.238	-2035
1035.302	-1731
1035.366	-1928
1035.430	-2007
1035.495	-1910
1035.559	-1494
1035.623	-2181
1035.687	-2559
1035.751	-2663
1035.815	-2674
1035.879	-2205
1035.943	-2068
1036.007	-2307
1036.071	-2081
1036.135	-2588
1036.198	-2216
1036.262	-2344
1036.326	-1572
1036.390	-2600
1036.454	-1887
1036.517	-2138
1036.581	-2456
1036.645	-2310
1036.709	-1729
1036.772	-2474
1036.836	-2416
1036.900	-2269
1036.963	-2200
1037.026	-1560
1037.090	-2483
1037.154	-2739
1037.217	-2073
1037.280	-2150
1037.344	-1859
1037.407	-2407
1037.471	-2816
1037.534	-2730
1037.597	-2355
1037.661	-2569
1037.724	-2586
1037.787	-2432
1037.850	-2353
1037.913	-2262
1037.977	-1710
1038.040	-1841
1038.103	-1987
1038.166	-2480
1038.229	-1894
1038.292	-2060
1038.355	-2684
1038.418	-2452
1038.481	-1782
1038.544	-1525
1038.607	-3057
1038.670	-1565
1038.732	-2766
1038.795	-2082
1038.858	-1696
1038.921	-1915
1038.984	-1732
1039.046	-3275
1039.109	-2212
1039.172	-1893
1039.234	-1470
1039.297	-2130
1039.360	-2452
1039.422	-2410
1039.485	-2377
1039.547	-2344
1039.610	-2405
1039.672	-1673
1039.734	-1990
1039.797	-2240
1039.859	-2468
1039.922	-2877
1039.984	-1965
1040.046	-1975
1040.109	-2077
1040.171	-2661
1040.233	-2065
1040.295	-2659
1040.358	-2672
1040.420	-2655
1040.482	-2797
1040.544	-2191
1040.606	-2495
1040.668	-2792
1040.730	-2033
1040.792	-2442
1040.854	-2437
1040.916	-2306
1040.978	-1535
1041.040	-1936
1041.102	-2370
1041.164	-2669
1041.225	-2401
1041.287	-2507
1041.349	-3203
1041.411	-3297
1041.472	-1482
1041.534	-2410
1041.596	-2416
1041.657	-1704
1041.719	-2601
1041.781	-2166
1041.842	-2604
1041.904	-2117
1041.965	-1946
1042.027	-2557
1042.088	-2592
1042.150	-2949
1042.211	-2207
1042.272	-2219
1042.334	-2751
1042.395	-2247
1042.456	-1948
1042.518	-2154
1042.579	-1911
1042.640	-2251
1042.701	-2194
1042.763	-1996
1042.824	-2361
1042.885	-2899
1042.946	-2405
1043.007	-2200
1043.068	-2313
1043.129	-1788
1043.190	-2290
1043.251	-2412
1043.312	-2148
1043.373	-1903
1043.434	-2311
1043.495	-2407
1043.556	-1974
1043.616	-2161
1043.677	-1498
1043.738	-2714
1043.799	-2245
1043.859	-1671
1043.920	-1746
1043.981	-2429
1044.041	-2572
1044.102	-2443
1044.162	-2286
1044.223	-2445
1044.284	-2735
1044.344	-2047
1044.405	-2190
1044.465	-2451
1044.525	-2662
1044.586	-1931
1044.646	-1950
1044.707	-3003
1044.767	-2155
1044.827	-2675
1044.887	-1633
1044.948	-1560
1045.008	-2489
1045.068	-2838
1045.128	-1788
1045.188	-2363
1045.249	-1854
1045.309	-1776
1045.369	-1009
1045.429	-2563
1045.489	-2389
1045.549	-2057
1045.609	-1924
1045.669	-2313
1045.729	-1901
1045.789	-1632
1045.848	-2641
1045.908	-2267
1045.968	-1807
1046.028	-2417
1046.088	-1916
1046.147	-1911
1046.207	-2626
1046.267	-1671
1046.326	-1594
1046.386	-1035
1046.446	-416
1046.505	-1852
1046.565	-1016
1046.624	-876
1046.684	-96
1046.743	-619
1046.803	-819
1046.862	-896
1046.922	0
