'Start Wavelength	183.907
'End Wavelength	1046.922
'Gate Delay	5.000
'Gate Width (ms)	1.050
'Laser Output Level	0.000
'X Position	0.000
'Y Position	0.000
'Z Position	0.000
'Grid Point Number	1.000
'Shot Number	100.000
183.907	646.000
183.977	637.000
184.047	506
184.116	1347
184.186	104
184.256	-173
184.325	582
184.395	235
184.465	306
184.534	300
184.604	-58
184.674	104
184.743	554
184.813	163
184.883	-275
184.952	597
185.022	-289
185.092	916
185.161	87
185.231	126
185.301	194
185.370	59
185.440	92
185.509	193
185.579	409
185.649	27
185.718	419
185.788	607
185.857	39
185.927	405
185.996	189
186.066	492
186.136	-309
186.205	330
186.275	516
186.344	113
186.414	65
186.483	-67
186.553	1478
186.622	1183
186.692	528
186.761	479
186.831	400
186.900	16
186.970	256
187.039	409
187.109	384
187.178	773
187.248	62
187.317	994
187.387	146
187.456	426
187.526	432
187.595	739
187.664	414
187.734	961
187.803	298
187.873	522
187.942	-243
188.012	953
188.081	511
188.150	370
188.220	887
188.289	709
188.358	349
188.428	860
188.497	-645
188.567	1123
188.636	-22
188.705	399
188.775	113
188.844	744
188.913	1275
188.983	790
189.052	-154
189.121	-85
189.191	954
189.260	615
189.329	747
189.399	1190
189.468	1018
189.537	701
189.606	983
189.676	885
189.745	740
189.814	1202
189.883	11
189.953	623
190.022	780
190.091	2504
190.161	1834
190.230	828
190.299	140
190.368	668
190.437	-252
190.507	535
190.576	314
190.645	388
190.714	146
190.783	463
190.853	1030
190.922	408
190.991	607
191.060	1474
191.129	-239
191.198	993
191.268	-35
191.337	531
191.406	594
191.475	647
191.544	320
191.613	1343
191.682	-339
191.752	654
191.821	276
191.890	1028
191.959	346
192.028	561
192.097	-32
192.166	1184
192.235	-991
192.304	1275
192.373	80
192.442	108
192.511	150
192.580	110
192.650	429
192.719	1146
192.788	923
192.857	1014
192.926	1027
192.995	1202
193.064	77
193.133	1093
193.202	754
193.271	1802
193.340	1175
193.409	1247
193.478	1890
193.547	1177
193.615	1766
193.684	2426
193.753	1398
193.822	1877
193.891	842
193.960	1841
194.029	785
194.098	1596
194.167	147
194.236	1464
194.305	513
194.374	889
194.443	1103
194.512	1379
194.580	1249
194.649	1340
194.718	1416
194.787	1499
194.856	-66
194.925	1191
194.994	844
195.062	2262
195.131	599
195.200	1976
195.269	1299
195.338	1345
195.407	356
195.475	601
195.544	1826
195.613	1598
195.682	896
195.751	2245
195.819	1603
195.888	1332
195.957	1831
196.026	2156
196.094	2028
196.163	2325
196.232	1573
196.301	1592
196.369	1302
196.438	1385
196.507	1869
196.576	1546
196.644	282
196.713	1022
196.782	15
196.850	1670
196.919	490
196.988	1388
197.056	751
197.125	1600
197.194	1025
197.262	1427
197.331	681
197.400	1526
197.468	910
197.537	1215
197.606	840
197.674	1886
197.743	2555
197.812	1412
197.880	2123
197.949	2114
198.017	2479
198.086	2074
198.155	953
198.223	1695
198.292	3489
198.360	1282
198.429	1050
198.497	749
198.566	1837
198.635	3358
198.703	1345
198.772	1894
198.840	3709
198.909	3163
198.977	1553
199.046	950
199.114	766
199.183	1404
199.251	690
199.320	1366
199.388	861
199.457	1147
199.525	1275
199.594	1749
199.662	853
199.731	1336
199.799	1319
199.867	1801
199.936	837
200.004	1956
200.073	1185
200.141	1540
200.210	978
200.278	1663
200.346	1463
200.415	1518
200.483	1237
200.552	1677
200.620	475
200.688	1355
200.757	1308
200.825	1166
200.893	721
200.962	1761
201.030	1265
201.098	1480
201.167	1588
201.235	667
201.303	1620
201.372	1364
201.440	799
201.508	1775
201.577	1798
201.645	1969
201.713	714
201.781	1228
201.850	891
201.918	2066
201.986	1284
202.055	1836
202.123	1553
202.191	1076
202.259	1081
202.327	1795
202.396	962
202.464	1345
202.532	1281
202.600	4299
202.669	3281
202.737	2024
202.805	1052
202.873	1560
202.941	1460
203.009	1029
203.078	606
203.146	1368
203.214	1069
203.282	1636
203.350	1516
203.418	1610
203.487	1910
203.555	611
203.623	883
203.691	1154
203.759	1131
203.827	490
203.895	1714
203.963	1810
204.031	1118
204.099	1131
204.168	1586
204.236	1551
204.304	1363
204.372	2119
204.440	1256
204.508	897
204.576	474
204.644	1266
204.712	780
204.780	1278
204.848	964
204.916	941
204.984	1596
205.052	2209
205.120	1439
205.188	1800
205.256	304
205.324	1887
205.392	1224
205.460	2167
205.528	1040
205.596	2237
205.664	910
205.732	1505
205.799	3342
205.867	6789
205.935	1695
206.003	2478
206.071	1125
206.139	1706
206.207	1941
206.275	2166
206.343	2052
206.411	737
206.478	1092
206.546	1179
206.614	936
206.682	1838
206.750	693
206.818	2136
206.885	1526
206.953	783
207.021	2113
207.089	1441
207.157	5
207.225	2031
207.292	1173
207.360	2151
207.428	1442
207.496	1726
207.563	1264
207.631	1521
207.699	1235
207.767	2387
207.834	1278
207.902	1696
207.970	930
208.038	1517
208.105	1137
208.173	1464
208.241	2268
208.309	2356
208.376	1682
208.444	4514
208.512	1513
208.579	875
208.647	1280
208.715	2522
208.782	1864
208.850	2118
208.918	1185
208.985	1881
209.053	1087
209.120	2265
209.188	779
209.256	2583
209.323	1049
209.391	2429
209.459	2535
209.526	2601
209.594	1573
209.661	1874
209.729	2205
209.796	2353
209.864	1540
209.932	1146
209.999	2777
210.067	2273
210.134	2202
210.202	2187
210.269	2493
210.337	3746
210.404	1655
210.472	1867
210.539	2029
210.607	2558
210.674	2510
210.742	1952
210.809	2034
210.877	3284
210.944	2386
211.012	1618
211.079	3410
211.146	2343
211.214	2128
211.281	2970
211.349	2362
211.416	3265
211.484	2446
211.551	1859
211.618	2030
211.686	2544
211.753	860
211.821	2420
211.888	2014
211.955	2402
212.023	2171
212.090	2281
212.157	2347
212.225	3891
212.292	4342
212.359	7216
212.427	15802
212.494	8762
212.561	3802
212.629	3417
212.696	2394
212.763	3440
212.831	1261
212.898	3231
212.965	2252
213.032	2987
213.100	3021
213.167	2702
213.234	3235
213.301	2806
213.369	2448
213.436	2426
213.503	1581
213.570	3619
213.638	3177
213.705	2462
213.772	1011
213.839	3379
213.906	4007
213.973	3134
214.041	2756
214.108	3175
214.175	2496
214.242	2784
214.309	2502
214.376	3541
214.444	1826
214.511	3180
214.578	2280
214.645	2586
214.712	2954
214.779	3745
214.846	2130
214.913	3723
214.980	2543
215.048	4523
215.115	3913
215.182	4323
215.249	3648
215.316	2818
215.383	2857
215.450	3363
215.517	3255
215.584	2724
215.651	2422
215.718	2862
215.785	3893
215.852	3841
215.919	4646
215.986	3984
216.053	2323
216.120	2728
216.187	3522
216.254	4457
216.321	2760
216.388	3627
216.455	3282
216.522	3421
216.589	4700
216.656	7034
216.722	6549
216.789	5181
216.856	4134
216.923	3681
216.990	3131
217.057	3991
217.124	4909
217.191	4653
217.258	4773
217.324	5089
217.391	5334
217.458	4465
217.525	3938
217.592	3264
217.659	2558
217.725	4160
217.792	3480
217.859	5477
217.926	2889
217.993	2499
218.059	2141
218.126	2498
218.193	1774
218.260	1981
218.327	1996
218.393	3616
218.460	2598
218.527	2187
218.594	2082
218.660	5808
218.727	5260
218.794	3256
218.860	3047
218.927	2016
218.994	2257
219.061	2638
219.127	3371
219.194	5376
219.261	2660
219.327	2753
219.394	2685
219.461	1117
219.527	1668
219.594	4053
219.661	1603
219.727	1456
219.794	2698
219.860	1890
219.927	2573
219.994	3133
220.060	5382
220.127	4480
220.193	3331
220.260	2348
220.326	4127
220.393	4778
220.460	7559
220.526	4845
220.593	2787
220.659	5143
220.726	3946
220.792	9302
220.859	8223
220.925	8613
220.992	11229
221.058	11384
221.125	12180
221.191	10074
221.258	3979
221.324	4179
221.391	2713
221.457	3503
221.524	2600
221.590	4381
221.657	10764
221.723	8058
221.789	7003
221.856	7637
221.922	3009
221.989	4252
222.055	3293
222.121	2654
222.188	5613
222.254	4067
222.321	3220
222.387	2245
222.453	2093
222.520	2705
222.586	1473
222.652	2393
222.719	3045
222.785	3023
222.851	2311
222.918	2722
222.984	2379
223.050	3420
223.116	1675
223.183	3780
223.249	822
223.315	1837
223.382	3023
223.448	2393
223.514	1988
223.580	2319
223.647	1807
223.713	1344
223.779	2080
223.845	2962
223.911	2874
223.978	2007
224.044	2858
224.110	2502
224.176	2784
224.242	2268
224.309	1906
224.375	2827
224.441	2106
224.507	2151
224.573	1653
224.639	3201
224.705	704
224.772	2650
224.838	1863
224.904	4101
224.970	3009
225.036	2092
225.102	2438
225.168	3680
225.234	2487
225.300	2915
225.366	1694
225.432	2533
225.499	1624
225.565	3120
225.631	2885
225.697	3358
225.763	3152
225.829	3773
225.895	3446
225.961	6315
226.027	5386
226.093	5399
226.159	5789
226.225	6161
226.291	10090
226.357	17093
226.423	12303
226.489	7789
226.554	5679
226.620	5039
226.686	6117
226.752	11415
226.818	10966
226.884	21442
226.950	19569
227.016	8720
227.082	6126
227.148	5960
227.214	6684
227.279	7470
227.345	5784
227.411	4649
227.477	4431
227.543	6219
227.609	7770
227.674	7069
227.740	5561
227.806	4432
227.872	3008
227.938	4459
228.003	8784
228.069	4378
228.135	3156
228.201	3328
228.267	2969
228.332	4789
228.398	4390
228.464	4378
228.530	1928
228.595	2921
228.661	1752
228.727	5450
228.792	5370
228.858	3377
228.924	2829
228.990	5137
229.055	4137
229.121	6626
229.187	3268
229.252	3842
229.318	2203
229.384	3662
229.449	4570
229.515	1556
229.581	939
229.646	3938
229.712	4091
229.777	7949
229.843	8648
229.909	6741
229.974	7135
230.040	5993
230.105	4746
230.171	5500
230.236	6309
230.302	9729
230.368	7453
230.433	4351
230.499	4594
230.564	6733
230.630	3845
230.695	3709
230.761	3133
230.826	1386
230.892	5386
230.957	3663
231.023	2577
231.088	4098
231.154	3131
231.219	3590
231.284	4552
231.350	5638
231.415	2994
231.481	3547
231.546	2113
231.612	3589
231.677	2320
231.742	1531
231.808	4497
231.873	2536
231.939	1421
232.004	5884
232.069	5650
232.135	3641
232.200	2882
232.265	3449
232.331	2543
232.396	2022
232.461	3095
232.527	2824
232.592	1838
232.657	3079
232.723	7082
232.788	6381
232.853	3454
232.918	3239
232.984	2265
233.049	2935
233.114	6767
233.179	7932
233.245	8744
233.310	13184
233.375	3616
233.440	4793
233.506	2976
233.571	3422
233.636	3406
233.701	4815
233.766	6942
233.832	11622
233.897	5260
233.962	5437
234.027	8416
234.092	6694
234.157	5192
234.222	5731
234.288	7411
234.353	22429
234.418	22636
234.483	14101
234.548	9340
234.613	7881
234.678	7391
234.743	6971
234.808	23738
234.873	16149
234.938	8162
235.004	5904
235.069	5137
235.134	5661
235.199	5822
235.264	5024
235.329	3021
235.394	4945
235.459	7458
235.524	7294
235.589	5417
235.654	4249
235.719	3677
235.784	4609
235.849	5209
235.913	13636
235.978	14953
236.043	18037
236.108	7488
236.173	6103
236.238	8707
236.303	4650
236.368	5033
236.433	7872
236.498	14768
236.563	8693
236.627	11046
236.692	29727
236.757	25370
236.822	14015
236.887	13620
236.952	9373
237.017	7876
237.081	9557
237.146	8505
237.211	15184
237.276	26630
237.341	47671
237.405	28978
237.470	15134
237.535	13506
237.600	8598
237.664	6246
237.729	6212
237.794	6792
237.859	11549
237.923	13520
237.988	8894
238.053	12364
238.118	13041
238.182	25545
238.247	26429
238.312	16525
238.376	11529
238.441	9299
238.506	9569
238.570	3758
238.635	5658
238.700	5017
238.764	5426
238.829	12754
238.893	17566
238.958	8131
239.023	6942
239.087	4370
239.152	7268
239.216	4162
239.281	4959
239.346	3784
239.410	5078
239.475	6325
239.539	28053
239.604	23379
239.668	8203
239.733	5066
239.797	6462
239.862	11952
239.926	23008
239.991	10249
240.055	6623
240.120	5526
240.184	6948
240.249	5010
240.313	5053
240.378	5345
240.442	18326
240.507	27864
240.571	11001
240.635	13608
240.700	18379
240.764	7534
240.829	6096
240.893	3352
240.957	5743
241.022	15077
241.086	29482
241.151	15055
241.215	6613
241.279	7993
241.344	17036
241.408	9187
241.472	6479
241.537	7926
241.601	6643
241.665	5027
241.730	5209
241.794	7273
241.858	6756
241.922	6327
241.987	6766
242.051	4148
242.115	4975
242.179	5419
242.244	5254
242.308	6967
242.372	7207
242.436	9751
242.501	7082
242.565	4910
242.629	5386
242.693	5071
242.757	4543
242.822	6150
242.886	7508
242.950	7498
243.014	6922
243.078	8156
243.142	9179
243.206	7026
243.271	9099
243.335	7828
243.399	9969
243.463	21308
243.527	56780
243.591	22193
243.655	12518
243.719	7082
243.783	8354
243.847	12199
243.911	16405
243.975	20841
244.040	17579
244.104	10395
244.168	6943
244.232	11016
244.296	16903
244.360	13725
244.424	10690
244.488	9618
244.552	9353
244.615	5962
244.679	7263
244.743	7321
244.807	8323
244.871	5883
244.935	6390
244.999	5168
245.063	6348
245.127	8226
245.191	11507
245.255	11501
245.319	10123
245.383	9237
245.446	8778
245.510	6460
245.574	8882
245.638	8397
245.702	6448
245.766	14410
245.829	11252
245.893	9503
245.957	7784
246.021	8856
246.085	10191
246.149	11600
246.212	20957
246.276	27994
246.340	16593
246.404	12805
246.467	11841
246.531	15246
246.595	12799
246.659	13765
246.722	12175
246.786	14778
246.850	13483
246.913	14577
246.977	8385
247.041	8595
247.104	11666
247.168	8536
247.232	17971
247.295	34797
247.359	20634
247.423	10748
247.486	17306
247.550	13532
247.614	12223
247.677	14573
247.741	10787
247.804	9274
247.868	11889
247.932	17519
247.995	36994
248.059	18568
248.122	10309
248.186	12315
248.249	21586
248.313	48154
248.376	52449
248.440	39260
248.503	18325
248.567	15635
248.630	19712
248.694	26709
248.757	32032
248.821	51823
248.884	42071
248.948	38454
249.011	48463
249.075	60067
249.138	57151
249.202	30781
249.265	21166
249.328	30152
249.392	19802
249.455	16233
249.519	12304
249.582	16299
249.645	22234
249.709	16171
249.772	12596
249.835	11400
249.899	17125
249.962	11938
250.025	11026
250.089	23666
250.152	35871
250.215	21487
250.279	17024
250.342	16864
250.405	14916
250.468	13034
250.532	17621
250.595	23220
250.658	55431
250.721	89553
250.785	39033
250.848	22489
250.911	14948
250.974	13347
251.038	17517
251.101	34531
251.164	24201
251.227	23344
251.290	19414
251.354	24780
251.417	74938
251.480	78867
251.543	53579
251.606	127129
251.669	104396
251.732	47799
251.795	47757
251.859	45574
251.922	87961
251.985	57876
252.048	27117
252.111	24390
252.174	22871
252.237	37234
252.300	64735
252.363	68216
252.426	111540
252.489	58899
252.552	42730
252.615	29025
252.678	27045
252.741	49063
252.804	59854
252.867	113307
252.930	84015
252.993	52259
253.056	32411
253.119	29168
253.182	22408
253.245	31012
253.308	28284
253.371	35025
253.434	33419
253.497	29363
253.559	41675
253.622	34189
253.685	50213
253.748	52345
253.811	24970
253.874	32658
253.937	33030
254.000	21137
254.062	30596
254.125	42609
254.188	42619
254.251	37282
254.314	20940
254.376	33557
254.439	40390
254.502	40747
254.565	32959
254.628	52837
254.690	45526
254.753	27425
254.816	21903
254.878	23253
254.941	31262
255.004	33748
255.067	19720
255.129	22430
255.192	11367
255.255	10447
255.317	15209
255.380	9705
255.443	8404
255.505	8881
255.568	9076
255.631	9316
255.693	11195
255.756	8380
255.819	8902
255.881	6943
255.944	7898
256.006	8205
256.069	8621
256.132	7632
256.194	12616
256.257	30941
256.319	24339
256.382	23207
256.444	12523
256.507	8704
256.569	8035
256.632	8031
256.694	15467
256.757	19836
256.819	48805
256.882	24508
256.944	14223
257.007	13234
257.069	17336
257.132	11638
257.194	10210
257.257	9186
257.319	10054
257.381	9829
257.444	16690
257.506	52174
257.569	73869
257.631	59830
257.693	30001
257.756	15119
257.818	17616
257.880	10105
257.943	10146
258.005	8870
258.067	10275
258.130	10277
258.192	13266
258.254	31487
258.317	20055
258.379	10807
258.441	21644
258.503	21499
258.566	28596
258.628	38958
258.690	12730
258.753	12425
258.815	26938
258.877	15290
258.939	10058
259.001	9032
259.064	8857
259.126	13080
259.188	19030
259.250	11874
259.312	16547
259.375	40404
259.437	28092
259.499	10281
259.561	10408
259.623	11288
259.685	12614
259.747	10661
259.809	27891
259.872	51398
259.934	72211
259.996	72202
260.058	25667
260.120	10517
260.182	8976
260.244	8656
260.306	7631
260.368	8854
260.430	9567
260.492	20202
260.554	40792
260.616	29985
260.678	37221
260.740	54334
260.802	17680
260.864	15132
260.926	13376
260.988	12954
261.050	12311
261.112	26661
261.174	61927
261.236	44784
261.298	17336
261.359	24831
261.421	38449
261.483	13916
261.545	12556
261.607	7951
261.669	9058
261.731	17184
261.793	42701
261.854	19823
261.916	15610
261.978	12354
262.040	16801
262.102	11092
262.164	20789
262.225	16037
262.287	8698
262.349	20038
262.411	18079
262.472	10207
262.534	17233
262.596	39957
262.658	15063
262.719	9152
262.781	12511
262.843	37284
262.904	17775
262.966	13924
263.028	14054
263.090	48164
263.151	122828
263.213	48749
263.275	33106
263.336	13755
263.398	10346
263.459	7842
263.521	8281
263.583	18624
263.644	15344
263.706	8367
263.767	6316
263.829	6721
263.891	5311
263.952	5572
264.014	5296
264.075	12197
264.137	32198
264.198	16825
264.260	7005
264.321	6785
264.383	15408
264.444	42663
264.506	16582
264.567	9847
264.629	15412
264.690	36071
264.752	15965
264.813	10882
264.875	7242
264.936	8342
264.998	7990
265.059	6538
265.120	6794
265.182	7991
265.243	24594
265.305	26648
265.366	9829
265.427	6686
265.489	7402
265.550	4741
265.611	9296
265.673	9691
265.734	9351
265.795	5554
265.857	5511
265.918	5449
265.979	9421
266.040	37573
266.102	35436
266.163	15438
266.224	18871
266.286	10467
266.347	6714
266.408	8260
266.469	11484
266.530	7591
266.592	6140
266.653	14118
266.714	25372
266.775	10050
266.836	6838
266.898	5732
266.959	14398
267.020	11045
267.081	7700
267.142	6008
267.203	5768
267.264	4246
267.326	8481
267.387	6520
267.448	5819
267.509	6741
267.570	7444
267.631	4865
267.692	5094
267.753	5399
267.814	4653
267.875	10137
267.936	23640
267.997	16990
268.058	16415
268.119	9454
268.180	10798
268.241	8086
268.302	6472
268.363	5979
268.424	8700
268.485	9590
268.546	7633
268.607	4814
268.668	4341
268.729	5752
268.790	6911
268.851	6904
268.912	18264
268.972	23352
269.033	15885
269.094	7139
269.155	5620
269.216	5805
269.277	8695
269.338	6831
269.398	6780
269.459	9682
269.520	13734
269.581	18517
269.642	24060
269.702	15349
269.763	10908
269.824	7604
269.885	9800
269.945	14018
270.006	8597
270.067	4263
270.128	5755
270.188	5121
270.249	6448
270.310	5861
270.370	6835
270.431	6703
270.492	5288
270.553	6872
270.613	17052
270.674	26913
270.734	13023
270.795	9073
270.856	12909
270.916	12313
270.977	7916
271.038	10563
271.098	11571
271.159	16440
271.219	17017
271.280	7954
271.340	6665
271.401	10111
271.462	28145
271.522	15682
271.583	9685
271.643	9702
271.704	8982
271.764	11113
271.825	19985
271.885	53655
271.946	71405
272.006	32223
272.066	36787
272.127	54315
272.187	21934
272.248	13510
272.308	12957
272.369	34578
272.429	24956
272.489	23588
272.550	28482
272.610	25039
272.671	21959
272.731	19826
272.791	35963
272.852	19431
272.912	16986
272.972	8853
273.033	9246
273.093	18226
273.153	19239
273.214	12233
273.274	11256
273.334	33674
273.394	60526
273.455	34384
273.515	28449
273.575	54391
273.635	27350
273.696	36842
273.756	58248
273.816	29307
273.876	17448
273.936	34515
273.997	65741
274.057	21288
274.117	15620
274.177	18706
274.237	64466
274.297	62322
274.358	56571
274.418	45446
274.478	38458
274.538	19169
274.598	15624
274.658	53057
274.718	72429
274.778	30570
274.838	17511
274.898	32159
274.958	99442
275.018	63947
275.078	43727
275.138	24555
275.198	13312
275.258	9419
275.318	15024
275.378	27432
275.438	29093
275.498	18781
275.558	39762
275.618	74676
275.678	40269
275.738	30258
275.798	29194
275.858	17880
275.918	9812
275.978	12105
276.038	12756
276.098	9068
276.157	16442
276.217	44246
276.277	23966
276.337	20540
276.397	12168
276.457	15107
276.517	11999
276.576	6922
276.636	8045
276.696	14874
276.756	30026
276.815	22943
276.875	13324
276.935	15469
276.995	15024
277.055	8250
277.114	7356
277.174	9875
277.234	30906
277.293	19311
277.353	12806
277.413	8520
277.472	10033
277.532	11062
277.592	10804
277.651	25224
277.711	44794
277.771	16205
277.830	51943
277.890	45048
277.950	31952
278.009	73011
278.069	32202
278.128	31302
278.188	47300
278.248	22787
278.307	47011
278.367	32744
278.426	14557
278.486	10367
278.545	8036
278.605	7987
278.664	8543
278.724	8958
278.783	21616
278.843	49494
278.902	18894
278.962	14807
279.021	17130
279.081	21045
279.140	22267
279.199	18130
279.259	15733
279.318	15062
279.378	18256
279.437	30414
279.496	91645
279.556	234169
279.615	200499
279.675	66876
279.734	37786
279.793	55916
279.853	79122
279.912	33546
279.971	21000
280.031	19116
280.090	28797
280.149	47397
280.208	42192
280.268	163723
280.327	173732
280.386	53931
280.445	38442
280.505	33206
280.564	19326
280.623	16957
280.682	20022
280.742	29395
280.801	13271
280.860	11379
280.919	10653
280.978	9309
281.037	10355
281.097	9013
281.156	9306
281.215	7396
281.274	10184
281.333	32566
281.392	26775
281.451	8811
281.510	7280
281.569	7102
281.628	6647
281.688	5823
281.747	9375
281.806	11098
281.865	7615
281.924	7361
281.983	7750
282.042	5591
282.101	6682
282.160	6147
282.219	5900
282.278	7668
282.337	20792
282.396	16144
282.454	8215
282.513	8967
282.572	31807
282.631	21902
282.690	9179
282.749	7989
282.808	11644
282.867	12253
282.926	12542
282.985	6599
283.043	5573
283.102	6147
283.161	8964
283.220	17188
283.279	34756
283.338	12884
283.396	9459
283.455	9093
283.514	10051
283.573	16372
283.631	14193
283.690	8158
283.749	8577
283.808	16135
283.866	21147
283.925	8669
283.984	9048
284.043	12046
284.101	14776
284.160	9912
284.219	16379
284.277	11575
284.336	14962
284.395	43355
284.453	36517
284.512	15059
284.570	22733
284.629	20078
284.688	16911
284.746	17465
284.805	21125
284.863	26687
284.922	33276
284.981	36127
285.039	47373
285.098	74080
285.156	137043
285.215	169256
285.273	163991
285.332	144803
285.390	95221
285.449	60574
285.507	42291
285.566	31637
285.624	25392
285.683	19726
285.741	17826
285.799	16767
285.858	16490
285.916	15183
285.975	11956
286.033	9872
286.091	9365
286.150	7702
286.208	8877
286.267	10604
286.325	12274
286.383	18996
286.442	15760
286.500	6843
286.558	6967
286.616	5972
286.675	12145
286.733	11015
286.791	10530
286.850	11464
286.908	14298
286.966	21255
287.024	11139
287.083	6093
287.141	6734
287.199	7205
287.257	13999
287.315	9742
287.374	10044
287.432	18408
287.490	14579
287.548	10525
287.606	8336
287.664	7797
287.723	12926
287.781	19899
287.839	9605
287.897	10732
287.955	13324
288.013	14686
288.071	27438
288.129	97019
288.187	250583
288.245	133781
288.303	46415
288.361	26285
288.419	22557
288.477	16104
288.535	11584
288.593	9638
288.651	9401
288.709	7559
288.767	8109
288.825	8271
288.883	7686
288.941	6698
288.999	7173
289.057	6403
289.115	7530
289.173	6884
289.231	8227
289.289	7911
289.346	5756
289.404	8605
289.462	16225
289.520	18773
289.578	9890
289.636	5686
289.694	5116
289.751	4903
289.809	5767
289.867	6181
289.925	9219
289.983	12059
290.040	6221
290.098	5232
290.156	9335
290.214	12359
290.271	7644
290.329	5071
290.387	4476
290.444	4495
290.502	4410
290.560	5287
290.617	7476
290.675	6168
290.733	6830
290.790	8121
290.848	5833
290.906	6141
290.963	7725
291.021	7407
291.078	5631
291.136	6269
291.194	18732
291.251	42708
291.309	15050
291.366	6571
291.424	6414
291.481	7662
291.539	6734
291.596	6226
291.654	4809
291.711	4953
291.769	7143
291.826	19487
291.884	14513
291.941	6942
291.999	8135
292.056	9351
292.114	11795
292.171	6161
292.228	7600
292.286	10260
292.343	21536
292.401	25188
292.458	15031
292.515	10327
292.573	14321
292.630	13625
292.687	13972
292.745	8744
292.802	12731
292.859	32558
292.917	45015
292.974	29979
293.031	12629
293.089	8206
293.146	6202
293.203	6117
293.260	6476
293.318	11692
293.375	18901
293.432	10604
293.489	7587
293.546	6639
293.604	10737
293.661	24830
293.718	59115
293.775	42021
293.832	23539
293.889	17652
293.947	20603
294.004	13393
294.061	14364
294.118	20212
294.175	38735
294.232	54264
294.289	24389
294.346	12397
294.403	11165
294.460	11734
294.517	11330
294.574	9986
294.631	8262
294.688	8912
294.745	20487
294.802	65584
294.859	83913
294.916	42085
294.973	27406
295.030	22974
295.087	18751
295.144	11805
295.201	10236
295.258	8298
295.315	10670
295.372	28957
295.429	47778
295.486	25920
295.542	16065
295.599	33190
295.656	61213
295.713	42715
295.770	44883
295.827	20945
295.883	12034
295.940	13160
295.997	25681
296.054	25370
296.111	13437
296.167	9168
296.224	7282
296.281	6407
296.338	8536
296.394	7261
296.451	9992
296.508	21577
296.564	41789
296.621	34631
296.678	53400
296.734	77098
296.791	36248
296.848	19246
296.904	19851
296.961	40988
297.018	53035
297.074	42584
297.131	19305
297.187	13865
297.244	17246
297.301	43010
297.357	70403
297.414	31245
297.470	15144
297.527	12474
297.583	10120
297.640	12005
297.696	9951
297.753	7405
297.809	7844
297.866	6219
297.922	7243
297.979	6505
298.035	8721
298.092	13606
298.148	28183
298.204	30370
298.261	17557
298.317	26619
298.374	63133
298.430	39526
298.486	26290
298.543	21433
298.599	16328
298.656	13891
298.712	23280
298.768	52013
298.824	36313
298.881	14631
298.937	10519
298.993	9923
299.050	15059
299.106	13692
299.162	13138
299.218	12293
299.275	8956
299.331	8301
299.387	15872
299.443	48125
299.500	53603
299.556	24488
299.612	14587
299.668	13365
299.724	13277
299.780	12412
299.837	10038
299.893	13551
299.949	44021
300.005	51725
300.061	49224
300.117	73171
300.173	40666
300.229	20258
300.285	26004
300.341	30227
300.397	16375
300.453	11546
300.510	10032
300.566	9675
300.622	10917
300.678	21839
300.734	45544
300.790	44648
300.845	51664
300.901	35516
300.957	47609
301.013	38407
301.069	17109
301.125	14492
301.181	17245
301.237	11467
301.293	9625
301.349	8300
301.405	7513
301.461	7662
301.516	9359
301.572	11407
301.628	23793
301.684	20410
301.740	23567
301.796	34236
301.851	25333
301.907	40671
301.963	39221
302.019	51733
302.074	115523
302.130	123934
302.186	66711
302.242	31019
302.297	22481
302.353	17709
302.409	30068
302.464	28162
302.520	25309
302.576	58581
302.631	67684
302.687	43847
302.743	21897
302.798	12642
302.854	10785
302.910	10513
302.965	15710
303.021	26341
303.076	26599
303.132	33434
303.187	39767
303.243	21004
303.299	12462
303.354	9717
303.410	9438
303.465	9008
303.521	8609
303.576	8996
303.632	10819
303.687	17487
303.743	45168
303.798	41987
303.853	20632
303.909	12922
303.964	11892
304.020	17870
304.075	28334
304.130	25500
304.186	47158
304.241	48682
304.297	39542
304.352	22376
304.358	21535
304.407	14725
304.449	14273
304.463	14128
304.518	16017
304.539	14941
304.573	13243
304.629	12580
304.630	12665
304.684	17086
304.720	30920
304.739	37783
304.794	54186
304.811	47668
304.850	32153
304.902	17747
304.905	16829
304.960	11669
304.992	10456
305.015	9557
305.071	9900
305.083	9265
305.126	6960
305.173	7151
305.181	7222
305.236	6169
305.264	7895
305.292	9599
305.347	12011
305.354	11922
305.402	11330
305.445	11012
305.457	10944
305.512	16286
305.535	16609
305.567	17018
305.622	14176
305.626	14463
305.678	21625
305.716	40989
305.733	47929
305.788	54118
305.807	48205
305.843	38438
305.897	45826
305.898	45876
305.953	46655
305.988	32801
306.008	25389
306.063	17005
306.078	15654
306.118	12591
306.168	10165
306.173	9942
306.228	7997
306.259	7627
306.283	7391
306.338	7188
306.349	7342
306.393	7882
306.440	8565
306.448	8812
306.503	9604
306.530	11086
306.558	14215
306.613	34147
306.620	36480
306.668	49942
306.711	55364
306.723	55046
306.778	41581
306.801	33382
306.833	24431
306.888	13887
306.892	13470
306.943	9804
306.982	8578
306.997	8286
307.052	8473
307.072	8830
307.107	10214
307.162	14573
307.163	14679
307.217	24341
307.253	29113
307.272	30229
307.327	30829
307.343	27668
307.381	21838
307.434	18126
307.436	18316
307.491	33789
307.524	49665
307.546	54319
307.600	46836
307.614	41077
307.655	24922
307.704	14314
307.710	14000
307.765	17490
307.795	23109
307.819	26935
307.874	43262
307.885	42135
307.929	30712
307.975	18557
307.984	17626
308.038	19121
308.065	20858
308.093	31955
308.148	65634
308.156	74225
308.202	112742
308.246	132887
308.257	131272
308.312	77908
308.336	60725
308.366	50001
308.421	35392
308.426	33877
308.475	21298
308.517	14569
308.530	13364
308.585	11917
308.607	11484
308.639	12481
308.694	15775
308.697	16197
308.748	30847
308.787	47724
308.803	48549
308.857	35635
308.877	29034
308.912	22704
308.967	19718
308.967	19729
309.021	25404
309.058	30538
309.076	36917
309.130	62418
309.148	71876
309.185	110491
309.238	178445
309.239	178774
309.293	191253
309.328	173657
309.348	152217
309.402	78060
309.418	59791
309.457	43265
309.508	29824
309.511	29484
309.566	30406
309.598	33081
309.620	39728
309.674	62599
309.688	68679
309.729	66014
309.778	51539
309.783	50358
309.837	36513
309.868	29901
309.892	36106
309.946	56198
309.959	62870
310.001	76484
310.049	85743
310.055	82792
310.109	47658
310.139	27430
310.163	21318
310.218	13354
310.229	12224
310.272	11071
310.319	10122
310.326	9850
310.381	9118
310.409	8727
310.435	8651
310.489	8042
310.499	8093
310.543	8795
310.589	9527
310.598	9449
310.652	9603
310.679	8988
310.706	7496
310.760	4986
310.769	4603
310.814	4634
310.859	4925
310.868	4960
310.923	5303
310.948	5700
310.977	6573
311.031	8083
311.038	8332
311.085	7592
311.128	6397
311.139	6341
311.193	6548
311.218	6517
311.247	6070
311.301	5433
311.308	5359
311.356	5648
311.398	6244
311.410	6084
311.464	5012
311.488	4593
311.518	5108
311.572	6122
311.578	6272
311.626	9654
311.668	12752
311.680	12403
311.734	10470
311.758	9697
311.788	9243
311.842	8393
311.847	8333
311.896	11712
311.937	14951
311.950	14519
312.004	12611
312.027	11733
312.058	10015
312.112	7114
312.117	6853
312.165	6427
312.207	6121
312.297	8891
312.386	6825
312.476	7997
312.566	19313
312.656	7557
312.745	5008
312.835	5509
312.925	6859
313.015	6366
313.104	6593
313.194	5238
313.284	5540
313.374	9766
313.463	7653
313.553	4722
313.643	3881
313.732	4219
313.822	3980
313.912	6208
314.001	7898
314.091	8117
314.180	10428
314.270	11415
314.360	12778
314.449	10188
314.539	4690
314.628	5470
314.718	8127
314.808	9688
314.897	4812
314.987	6152
315.076	10348
315.166	13197
315.255	10830
315.345	11685
315.434	11017
315.524	10354
315.613	12549
315.703	16702
315.792	21430
315.881	49819
315.971	21101
316.060	26837
316.150	35524
316.239	32281
316.328	8969
316.418	6280
316.507	7493
316.597	10418
316.686	8761
316.775	19436
316.865	29608
316.954	5943
317.043	4782
317.133	5441
317.222	5220
317.311	6063
317.400	5284
317.490	11328
317.579	12022
317.668	7335
317.757	14964
317.847	34234
317.936	92327
318.025	43871
318.114	22335
318.203	13598
318.293	14422
318.382	20756
318.471	21038
318.560	31295
318.649	46343
318.738	10939
318.828	12330
318.917	12216
319.006	18084
319.095	41967
319.184	69855
319.273	48157
319.362	27027
319.451	10260
319.540	11517
319.629	32127
319.718	41974
319.807	13762
319.896	38284
319.985	87805
320.074	33755
320.163	12741
320.252	21019
320.341	15491
320.430	13206
320.519	23093
320.608	10979
320.697	8117
320.786	9285
320.875	14569
320.964	20801
321.053	34789
321.142	51307
321.230	43835
321.319	40754
321.408	78121
321.497	27606
321.586	32402
321.675	39572
321.764	31511
321.852	22537
321.941	48661
322.030	26063
322.119	36351
322.207	85658
322.296	46130
322.385	21393
322.474	34262
322.562	99200
322.651	38973
322.740	42646
322.829	56702
322.917	49438
323.006	29668
323.095	24958
323.183	17822
323.272	24341
323.361	55478
323.449	109057
323.538	39344
323.626	91481
323.715	40551
323.804	27683
323.892	86855
323.981	41532
324.069	15204
324.158	50805
324.246	32505
324.335	19542
324.424	28968
324.512	9282
324.601	12018
324.689	14694
324.778	24650
324.866	33165
324.954	9056
325.043	11454
325.131	27196
325.220	41345
325.308	40830
325.397	35087
325.485	15691
325.574	7015
325.662	6202
325.750	9081
325.839	5854
325.927	6047
326.015	10861
326.104	20856
326.192	21101
326.280	6374
326.369	6591
326.457	14453
326.545	24748
326.634	8130
326.722	4034
326.810	5897
326.898	5442
326.987	7650
327.075	23863
327.163	21123
327.251	7018
327.340	4141
327.428	5828
327.516	4637
327.604	5683
327.692	6992
327.781	10915
327.869	16779
327.957	10570
328.045	10514
328.133	6082
328.221	9479
328.309	6883
328.397	6040
328.485	8428
328.574	15019
328.662	53147
328.750	25729
328.838	9264
328.926	4824
329.014	5194
329.102	11103
329.190	27320
329.278	15178
329.366	4043
329.454	4031
329.542	3572
329.630	3622
329.718	4750
329.806	7592
329.893	7012
329.981	3855
330.069	4055
330.157	10655
330.245	21189
330.333	10788
330.421	5063
330.509	17016
330.597	67673
330.684	35243
330.772	11821
330.860	17135
330.948	17801
331.036	7199
331.123	3524
331.211	4886
331.299	6368
331.387	20031
331.475	27686
331.562	7487
331.650	4745
331.738	7702
331.825	9600
331.913	4571
332.001	4581
332.089	9469
332.176	20200
332.264	50397
332.352	28580
332.439	9919
332.527	6821
332.614	7348
332.702	9407
332.790	6972
332.877	28390
332.965	39350
333.052	8751
333.140	14295
333.228	25135
333.315	6839
333.403	9422
333.490	29597
333.578	21146
333.665	28432
333.753	13093
333.840	5822
333.928	10557
334.015	28571
334.103	41333
334.190	91706
334.278	19329
334.365	11953
334.452	9268
334.540	7360
334.627	10436
334.715	11581
334.802	34822
334.889	153883
334.977	101167
335.064	11565
335.151	7595
335.239	7786
335.326	11445
335.413	50428
335.501	47513
335.588	7848
335.675	6488
335.762	9590
335.850	13365
335.937	9440
336.024	40891
336.111	131323
336.199	40372
336.286	7612
336.373	5324
336.460	3125
336.547	5307
336.635	7831
336.722	6774
336.809	5501
336.896	11546
336.983	37585
337.070	74322
337.157	85253
337.245	93712
337.332	48119
337.419	6209
337.506	4705
337.593	7210
337.680	30027
337.767	56957
337.854	22216
337.941	28395
338.028	36814
338.115	9312
338.202	12875
338.289	34147
338.376	90285
338.463	25085
338.550	42957
338.637	31269
338.724	25728
338.811	28433
338.898	6251
338.984	5265
339.071	5361
339.158	11013
339.245	29717
339.332	15228
339.419	28195
339.506	18617
339.593	3052
339.679	6070
339.766	4788
339.853	10290
339.940	22451
340.027	5570
340.113	7252
340.200	11943
340.287	7313
340.374	12454
340.460	19314
340.547	6912
340.634	16993
340.720	59722
340.807	25998
340.894	4949
340.980	6640
341.067	6368
341.154	7388
341.240	14107
341.327	29248
341.414	5684
341.500	4278
341.587	6003
341.674	6193
341.760	23260
341.847	24443
341.933	6704
342.020	1838
342.106	3212
342.193	8815
342.279	14552
342.366	11783
342.452	20811
342.539	10977
342.625	30874
342.712	61374
342.798	24340
342.885	9726
342.971	3450
343.058	2625
343.144	3967
343.230	4552
343.317	4212
343.403	3415
343.490	2609
343.576	3189
343.662	4634
343.749	6074
343.835	6931
343.921	15042
344.008	82883
344.094	138841
344.180	30822
344.267	17749
344.353	52688
344.439	50149
344.525	28491
344.612	8233
344.698	9437
344.784	6318
344.870	3634
344.957	5411
345.043	11765
345.129	9526
345.215	20457
345.301	8568
345.387	4939
345.474	3051
345.560	3553
345.646	6011
345.732	4936
345.818	5320
345.904	6297
345.990	8448
346.076	9952
346.162	13102
346.249	6885
346.335	3405
346.421	4346
346.507	22895
346.593	57030
346.679	12447
346.765	4655
346.851	5770
346.937	5559
347.023	4682
347.108	7736
347.194	5733
347.280	3801
347.366	6786
347.452	24125
347.538	74874
347.624	57671
347.710	45951
347.796	8144
347.882	4382
347.967	5294
348.053	6521
348.139	4847
348.225	4931
348.311	5186
348.397	3616
348.482	8123
348.568	8591
348.654	3538
348.740	3894
348.825	4888
348.911	11561
348.997	42048
349.083	61622
349.168	9803
349.254	3928
349.340	4602
349.425	3707
349.511	9565
349.597	8358
349.682	22050
349.768	49739
349.854	19423
349.939	4523
350.025	4391
350.110	3919
350.196	3225
350.282	1823
350.367	4200
350.453	12971
350.538	10490
350.624	8667
350.709	7371
350.795	4235
350.880	5416
350.966	6852
351.051	11586
351.137	6702
351.222	6794
351.308	22756
351.393	48435
351.479	8734
351.564	3553
351.649	5512
351.735	4151
351.820	3735
351.906	5092
351.991	7284
352.076	36136
352.162	44646
352.247	10067
352.332	7648
352.418	12037
352.503	18195
352.588	84186
352.673	63295
352.759	15331
352.844	7163
352.929	10773
353.014	13390
353.100	8750
353.185	18814
353.270	29759
353.355	23594
353.441	6809
353.526	9437
353.611	25895
353.696	26604
353.781	14556
353.866	5371
353.952	7999
354.037	25188
354.122	55659
354.207	47386
354.292	14473
354.377	6444
354.462	5110
354.547	9974
354.632	8566
354.717	13757
354.802	20194
354.887	6565
354.972	4253
355.057	4065
355.142	2825
355.227	7238
355.312	14901
355.397	37766
355.482	83803
355.567	34473
355.652	26909
355.737	26884
355.822	63061
355.907	41302
355.991	8632
356.076	5411
356.161	4893
356.246	3177
356.331	5970
356.416	16507
356.501	92910
356.585	78499
356.670	12616
356.755	10235
356.840	19752
356.924	90739
357.009	235900
357.094	81571
357.179	23856
357.263	15945
357.348	17727
357.433	16878
357.517	15173
357.602	10929
357.687	8474
357.771	11853
357.856	14650
357.941	14444
358.025	61067
358.110	197725
358.195	85685
358.279	16516
358.364	16189
358.448	62643
358.533	131119
358.617	94831
358.702	85159
358.787	32243
358.871	25265
358.956	17563
359.040	5281
359.125	3789
359.209	4662
359.294	7104
359.378	10976
359.462	17040
359.547	11442
359.631	7264
359.716	4303
359.800	5980
359.885	11112
359.969	6575
360.053	5907
360.138	4227
360.222	12772
360.306	24802
360.391	16043
360.475	23336
360.559	48634
360.644	56748
360.728	37020
360.812	58568
360.896	124090
360.981	66788
361.065	36527
361.149	11149
361.233	10881
361.318	8264
361.402	9796
361.486	8654
361.570	6827
361.654	10920
361.739	31986
361.823	101780
361.907	116203
361.991	19929
362.075	21429
362.159	47571
362.243	29456
362.327	21002
362.411	20686
362.495	14473
362.580	7474
362.664	4860
362.748	4684
362.832	4722
362.916	7091
363.000	31855
363.084	106569
363.168	139267
363.252	35927
363.336	16429
363.420	26681
363.503	70652
363.587	59384
363.671	14703
363.755	14001
363.839	20377
363.923	9147
364.007	24524
364.091	24699
364.175	30265
364.258	89187
364.342	49239
364.426	47762
364.510	27868
364.594	20903
364.677	32156
364.761	111605
364.845	69867
364.929	38945
365.013	32910
365.096	28746
365.180	30468
365.264	34638
365.347	88967
365.431	35247
365.515	13318
365.598	8641
365.682	8647
365.766	14736
365.849	13211
365.933	11978
366.017	13086
366.100	7257
366.184	4536
366.267	6143
366.351	5337
366.435	4806
366.518	3588
366.602	4109
366.685	5828
366.769	8439
366.852	15997
366.936	26137
367.019	16265
367.103	10726
367.186	15011
367.270	5971
367.353	2594
367.436	5838
367.520	4128
367.603	9566
367.687	16454
367.770	27431
367.853	14692
367.937	36300
368.020	48910
368.104	15827
368.187	22056
368.270	29726
368.353	24637
368.437	40018
368.520	71104
368.603	42867
368.687	50650
368.770	74785
368.853	20528
368.936	26375
369.020	19670
369.103	8580
369.186	4162
369.269	6291
369.352	20957
369.436	27744
369.519	14030
369.602	4971
369.685	8820
369.768	9294
369.851	6413
369.934	4857
370.018	10650
370.101	26086
370.184	17088
370.267	10560
370.350	18802
370.433	28930
370.516	57494
370.599	65635
370.682	31015
370.765	60603
370.848	63739
370.931	89338
371.014	33201
371.097	8067
371.180	6501
371.263	4348
371.346	1829
371.429	3820
371.511	6020
371.594	15454
371.677	22358
371.760	18065
371.843	19298
371.926	81271
372.009	142047
372.091	50688
372.174	41762
372.257	72816
372.340	28112
372.423	32829
372.505	29449
372.588	13707
372.671	41000
372.754	96339
372.836	42998
372.919	37106
373.002	54853
373.085	19493
373.167	21428
373.250	50091
373.332	81278
373.415	120713
373.498	210902
373.580	81835
373.663	110928
373.746	126243
373.828	35106
373.911	17614
373.993	23059
374.076	61335
374.159	48904
374.241	33771
374.324	87643
374.406	55063
374.489	71343
374.571	158154
374.654	61935
374.736	40978
374.819	108042
374.901	159593
374.983	143382
375.066	24986
375.148	14489
375.231	52893
375.313	81009
375.395	31449
375.478	7533
375.560	5759
375.643	12737
375.725	45842
375.807	143592
375.890	118309
375.972	60662
376.054	41288
376.136	56740
376.219	22733
376.301	48824
376.383	112905
376.465	45138
376.548	43585
376.630	47548
376.712	100552
376.794	39932
376.877	6368
376.959	4666
377.041	8331
377.123	15509
377.205	14406
377.287	3976
377.369	4916
377.452	5682
377.534	5475
377.616	5673
377.698	5844
377.780	3838
377.862	6186
377.944	6321
378.026	2377
378.108	3806
378.190	4463
378.272	3691
378.354	2325
378.436	3187
378.518	12604
378.600	35241
378.682	32668
378.764	61172
378.846	42669
378.928	16109
379.010	23290
379.091	11261
379.173	5343
379.255	5228
379.337	10337
379.419	36297
379.501	80190
379.583	27819
379.664	10607
379.746	31093
379.828	68639
379.910	80882
379.991	60246
380.073	11082
380.155	9559
380.237	6212
380.318	4357
380.400	6042
380.482	20081
380.564	30168
380.645	29362
380.727	25693
380.809	13618
380.890	9308
380.972	6624
381.053	6376
381.135	9390
381.217	25984
381.298	65604
381.380	30574
381.461	33026
381.543	112821
381.624	117322
381.706	22505
381.787	12609
381.869	15445
381.951	56823
382.032	164680
382.113	104733
382.195	25641
382.276	18129
382.358	42549
382.439	89802
382.521	103932
382.602	143128
382.684	76380
382.765	144399
382.846	152370
382.928	201654
383.009	103602
383.090	87038
383.172	286128
383.253	375774
383.334	140055
383.416	136240
383.497	66571
383.578	36882
383.659	75037
383.741	255778
383.822	529031
383.903	259270
383.984	116440
384.066	180455
384.147	105054
384.228	23971
384.309	21255
384.390	15353
384.471	10434
384.553	13833
384.634	20468
384.715	20216
384.796	7945
384.877	14138
384.958	56682
385.039	64190
385.120	23255
385.201	12210
385.282	14929
385.363	14625
385.444	10563
385.525	22253
385.606	64309
385.687	48137
385.768	15356
385.849	25564
385.930	87240
386.011	115547
386.092	31392
386.173	8895
386.254	7787
386.335	8210
386.416	11451
386.496	41116
386.577	59230
386.658	22090
386.739	15608
386.820	13315
386.901	8549
386.981	9084
387.062	6235
387.143	18412
387.224	61537
387.304	50956
387.385	20774
387.466	11524
387.547	12821
387.627	9581
387.708	27077
387.789	100439
387.869	101592
387.950	23939
388.031	4972
388.111	6600
388.192	22260
388.273	28811
388.353	14798
388.434	10037
388.514	24022
388.595	82533
388.676	102591
388.756	60578
388.837	66220
388.917	35827
388.998	5845
389.078	7589
389.159	6182
389.239	6495
389.320	13921
389.400	11923
389.480	25147
389.561	53312
389.641	23281
389.722	13330
389.802	23625
389.883	29066
389.963	62383
390.043	40485
390.124	15110
390.204	26215
390.284	73803
390.365	46169
390.445	50782
390.525	102076
390.605	86079
390.686	31498
390.766	10543
390.846	6357
390.927	3661
391.007	5258
391.087	7192
391.167	6437
391.247	5624
391.328	16455
391.408	18566
391.488	10099
391.568	4189
391.648	10959
391.728	15729
391.808	14626
391.888	17006
391.969	33400
392.049	47166
392.129	21527
392.209	26521
392.289	56225
392.369	31446
392.449	27544
392.529	16209
392.609	16996
392.689	21813
392.769	56015
392.849	43765
392.929	39232
393.009	77340
393.089	51955
393.169	45825
393.248	158557
393.328	494152
393.408	474665
393.488	126668
393.568	37499
393.648	19441
393.728	12577
393.807	8550
393.887	8155
393.967	6853
394.047	9441
394.127	11399
394.206	16641
394.286	59886
394.366	212586
394.446	195393
394.525	38364
394.605	10587
394.685	18223
394.764	45501
394.844	65912
394.924	37345
395.003	13603
395.083	10065
395.163	9140
395.242	8283
395.322	9043
395.402	4282
395.481	10403
395.561	33917
395.640	76060
395.720	56772
395.799	70557
395.879	42652
395.958	20880
396.038	82455
396.117	278107
396.197	267238
396.276	76988
396.356	29739
396.435	26418
396.515	17979
396.594	25375
396.673	50680
396.753	170900
396.832	446697
396.912	331247
396.991	85740
397.070	23632
397.150	13244
397.229	9028
397.308	10164
397.388	15374
397.467	7749
397.546	4942
397.625	5026
397.705	10488
397.784	10990
397.863	5109
397.942	2734
398.022	6055
398.101	27730
398.180	63310
398.259	28421
398.338	8964
398.417	7980
398.497	5031
398.576	6106
398.655	2607
398.734	3356
398.813	5589
398.892	26311
398.971	66112
399.050	25434
399.129	3532
399.208	2401
399.287	3816
399.366	2494
399.445	3221
399.524	2964
399.603	3861
399.682	13312
399.761	37763
399.840	77347
399.919	45450
399.998	5594
400.077	2330
400.156	2518
400.235	6498
400.313	3576
400.392	8833
400.471	40011
400.550	57133
400.629	14684
400.708	7224
400.786	7431
400.865	19413
400.944	19495
401.023	10430
401.102	1584
401.180	2746
401.259	2538
401.338	5325
401.416	8951
401.495	7767
401.574	5198
401.652	4876
401.731	8631
401.810	6943
401.888	3166
401.967	1042
402.046	2592
402.124	7645
402.203	9671
402.281	5005
402.360	8593
402.438	23493
402.517	12728
402.596	5805
402.674	4351
402.753	3093
402.831	3397
402.910	6641
402.988	28312
403.066	69767
403.145	35879
403.223	28039
403.302	59285
403.380	44917
403.459	43522
403.537	16757
403.615	6856
403.694	645
403.772	2071
403.850	1761
403.929	1699
404.007	3967
404.085	12194
404.164	13302
404.242	3261
404.320	5146
404.398	11246
404.477	39055
404.555	134560
404.633	100556
404.711	15413
404.789	5148
404.868	4544
404.946	3423
405.024	1414
405.102	1052
405.180	1939
405.258	1030
405.336	3689
405.415	3245
405.493	10158
405.571	9471
405.649	2550
405.727	2312
405.805	5875
405.883	5579
405.961	7320
406.039	6300
406.117	2408
406.195	9890
406.273	43870
406.351	120096
406.429	62554
406.507	10346
406.585	3990
406.663	6486
406.740	9722
406.818	7762
406.896	2946
406.974	4902
407.052	16581
407.130	78182
407.208	92708
407.285	17392
407.363	3023
407.441	4622
407.519	3370
407.596	6487
407.674	16504
407.752	37201
407.830	33649
407.907	14206
407.985	6486
408.063	2282
408.141	2188
408.218	7776
408.296	7526
408.373	6882
408.451	6926
408.529	6050
408.606	1996
408.684	980
408.762	1481
408.839	386
408.917	962
408.994	977
409.072	1453
409.149	1494
409.227	2880
409.304	3422
409.382	2304
409.459	2991
409.537	5480
409.614	4440
409.692	2993
409.769	3309
409.846	5924
409.924	7752
410.001	3424
410.079	3238
410.156	3116
410.233	2224
410.311	1830
410.388	1842
410.465	2675
410.543	1440
410.620	2350
410.697	4892
410.775	5929
410.852	1500
410.929	4723
411.006	6191
411.083	2898
411.161	5895
411.238	7498
411.315	4558
411.392	2412
411.469	4727
411.547	3582
411.624	751
411.701	1643
411.778	6278
411.855	14402
411.932	7024
412.009	3076
412.086	2290
412.163	3393
412.240	5082
412.317	5602
412.394	3107
412.471	1545
412.548	2024
412.625	2979
412.702	5522
412.779	8702
412.856	4272
412.933	897
413.010	2298
413.087	8253
413.164	37863
413.241	48090
413.318	11459
413.395	7024
413.471	10768
413.548	4237
413.625	3945
413.702	5676
413.779	3264
413.855	981
413.932	186
414.009	478
414.086	234
414.162	2439
414.239	8672
414.316	41370
414.393	73565
414.469	21138
414.546	2219
414.623	1089
414.699	3016
414.776	3903
414.853	2694
414.929	2408
415.006	3282
415.082	3681
415.159	3160
415.236	2134
415.312	3865
415.389	11282
415.465	14403
415.542	6068
415.618	3696
415.695	9140
415.771	6397
415.848	4583
415.924	4818
416.000	2470
416.077	2608
416.153	38
416.230	-29
416.306	850
416.383	2864
416.459	1074
416.535	299
416.612	522
416.688	1527
416.764	1039
416.841	1470
416.917	2456
416.993	1956
417.069	3838
417.146	5569
417.222	7151
417.298	5006
417.374	3217
417.451	3429
417.527	5855
417.603	6996
417.679	5837
417.755	3019
417.831	1146
417.908	1533
417.984	992
418.060	1896
418.136	11665
418.212	15601
418.288	4034
418.364	2375
418.440	2494
418.516	6736
418.592	9323
418.668	20451
418.744	30118
418.820	19811
418.896	3973
418.972	1206
419.048	3820
419.124	13874
419.200	8245
419.276	1337
419.352	84
419.428	998
419.504	2462
419.579	5558
419.655	3865
419.731	4682
419.807	21314
419.883	36053
419.959	20280
420.034	5270
420.110	14949
420.186	49296
420.262	31748
420.337	5365
420.413	4746
420.489	2164
420.565	1768
420.640	1770
420.716	2079
420.792	831
420.867	2583
420.943	1859
421.019	8188
421.094	4479
421.170	1365
421.245	-304
421.321	1491
421.397	2210
421.472	7684
421.548	18234
421.623	11764
421.699	4478
421.774	4546
421.850	3558
421.925	10268
422.001	7210
422.076	4190
422.152	5646
422.227	9979
422.302	9928
422.378	11327
422.453	22319
422.529	54635
422.604	153250
422.679	224549
422.755	140060
422.830	46580
422.905	17426
422.981	8874
423.056	5905
423.131	4528
423.207	3907
423.282	7706
423.357	18072
423.432	10508
423.508	12778
423.583	29428
423.658	18128
423.733	5364
423.808	7216
423.883	9297
423.959	6416
424.034	3397
424.109	2098
424.184	519
424.259	767
424.334	1814
424.409	51
424.484	2352
424.559	3487
424.634	1880
424.709	6121
424.784	6760
424.859	4169
424.934	10845
425.009	43624
425.084	57193
425.159	16824
425.234	1854
425.309	292
425.384	1674
425.459	2130
425.534	2487
425.609	2474
425.683	585
425.758	1707
425.833	2729
425.908	6708
425.983	28168
426.058	65662
426.132	23435
426.207	4403
426.282	7201
426.357	4967
426.431	1847
426.506	2399
426.581	2062
426.655	2320
426.730	1494
426.805	1777
426.879	2488
426.954	3767
427.029	12348
427.103	60668
427.178	107877
427.253	38742
427.327	3971
427.402	6058
427.476	9901
427.551	2819
427.625	2639
427.700	3289
427.774	1455
427.849	2735
427.923	251
427.998	546
428.072	1218
428.147	8876
428.221	31027
428.296	56789
428.370	21877
428.444	5719
428.519	9518
428.593	17003
428.667	14549
428.742	17524
428.816	16174
428.890	43066
428.965	49043
429.039	21613
429.113	18249
429.188	4902
429.262	1607
429.336	10420
429.410	29196
429.485	17340
429.559	15082
429.633	7703
429.707	2109
429.781	13433
429.855	58219
429.930	77117
430.004	55965
430.078	73730
430.152	50219
430.226	67074
430.300	55720
430.374	7432
430.448	6675
430.522	29311
430.596	65311
430.670	36475
430.744	87457
430.818	112453
430.892	21854
430.966	4713
431.040	2268
431.114	1627
431.188	764
431.262	1897
431.336	2867
431.410	10861
431.484	25648
431.557	13726
431.631	1876
431.705	2481
431.779	10994
431.853	42929
431.927	23630
432.000	2923
432.074	1599
432.148	3039
432.222	1701
432.295	1014
432.369	986
432.443	8424
432.516	49695
432.590	97034
432.664	30795
432.737	3779
432.811	1641
432.885	-95
432.958	1126
433.032	-119
433.106	-621
433.179	73
433.253	525
433.326	-61
433.400	-950
433.473	225
433.547	-343
433.620	1639
433.694	6330
433.767	5693
433.841	1268
433.914	131
433.988	-491
434.061	567
434.134	189
434.208	272
434.281	-325
434.355	780
434.428	683
434.501	150
434.575	537
434.648	1102
434.721	94
434.795	-521
434.868	-706
434.941	-616
435.014	-635
435.088	860
435.161	1814
435.234	5925
435.307	6245
435.381	1540
435.454	579
435.527	2595
435.600	1362
435.673	805
435.746	146
435.819	803
435.892	490
435.966	-375
436.039	523
436.112	853
436.185	-23
436.258	-223
436.331	-228
436.404	-278
436.477	-368
436.550	-788
436.623	-156
436.696	104
436.769	1612
436.842	1138
436.915	2115
436.987	3972
437.060	1342
437.133	32
437.206	40
437.279	634
437.352	-483
437.425	163
437.498	2823
437.570	7725
437.643	6698
437.716	561
437.789	-352
437.861	2182
437.934	5967
438.007	2705
438.080	-857
438.152	1440
438.225	8290
438.298	60332
438.370	125882
438.443	42304
438.516	7229
438.588	782
438.661	-252
438.734	747
438.806	3002
438.879	3472
438.951	1785
439.024	3167
439.096	779
439.169	1050
439.241	115
439.314	546
439.386	2883
439.459	6290
439.531	6542
439.604	1769
439.676	787
439.749	377
439.821	-365
439.893	573
439.966	1300
440.038	1088
440.110	1587
440.183	1110
440.255	1268
440.327	4474
440.400	29062
440.472	93564
440.544	46998
440.617	5013
440.689	3057
440.761	5353
440.833	7834
440.905	4453
440.978	459
441.050	457
441.122	754
441.194	396
441.266	-21
441.338	345
441.411	6998
441.483	39072
441.555	45755
441.627	8249
441.699	5638
441.771	4612
441.843	1004
441.915	-151
441.987	752
442.059	510
442.131	1398
442.203	3993
442.275	4941
442.347	2829
442.419	4191
442.491	20394
442.563	42326
442.635	21107
442.706	23373
442.778	14429
442.850	1458
442.922	385
442.994	1808
443.066	5195
443.137	2560
443.209	1251
443.281	2812
443.353	7805
443.425	28393
443.496	84133
443.568	69532
443.640	23130
443.711	3681
443.783	1535
443.855	891
443.926	959
443.998	2556
444.070	2843
444.141	2465
444.213	6534
444.285	8397
444.356	7041
444.428	4779
444.499	724
444.571	-837
444.642	1179
444.714	2155
444.785	6429
444.857	8261
444.928	13505
445.000	6180
445.071	11089
445.143	9359
445.214	4357
445.285	11232
445.357	28229
445.428	64969
445.500	127800
445.571	73977
445.642	35156
445.714	22324
445.785	19374
445.856	6292
445.928	8152
445.999	4413
446.070	2819
446.141	5826
446.213	7822
446.284	3385
446.355	3132
446.426	1856
446.497	2818
446.569	5711
446.640	9134
446.711	6472
446.782	1945
446.853	5239
446.924	4784
446.995	2620
447.066	2948
447.138	5036
447.209	2361
447.280	6
447.351	237
447.422	554
447.493	2810
447.564	4319
447.635	7317
447.706	2052
447.777	-489
447.847	324
447.918	226
447.989	3190
448.060	5183
448.131	10283
448.202	9666
448.273	6706
448.344	2136
448.414	831
448.485	1396
448.556	1323
448.627	-237
448.698	1146
448.768	-627
448.839	1516
448.910	5213
448.981	4073
449.051	1756
449.122	-180
449.193	893
449.263	202
449.334	298
449.405	3401
449.475	9542
449.546	5645
449.616	5131
449.687	2251
449.758	1818
449.828	107
449.899	487
449.969	-525
450.040	1090
450.110	2645
450.181	3094
450.251	456
450.322	100
450.392	655
450.463	909
450.533	160
450.604	730
450.674	-103
450.744	430
450.815	176
450.885	404
450.955	-432
451.026	-8
451.096	751
451.166	1930
451.237	8035
451.307	13065
451.377	2626
451.447	368
451.518	513
451.588	823
451.658	168
451.728	4287
451.799	18976
451.869	13655
451.939	1715
452.009	797
452.079	30
452.149	1213
452.219	6234
452.289	19654
452.360	8046
452.430	1367
452.500	1830
452.570	2396
452.640	3903
452.710	14992
452.780	16801
452.850	16100
452.920	14902
452.990	3093
453.060	2450
453.129	5043
453.199	4912
453.269	25566
453.339	36729
453.409	47947
453.479	66078
453.549	87835
453.619	84553
453.688	21322
453.758	2617
453.828	1228
453.898	699
453.968	607
454.037	770
454.087	329
454.107	113
454.168	-49
454.177	-112
454.247	59
454.249	113
454.316	478
454.330	1085
454.386	3010
454.411	5977
454.456	10260
454.492	10775
454.525	11259
454.574	5337
454.595	2812
454.655	1479
454.665	1290
454.734	3006
454.736	3272
454.804	8582
454.817	11341
454.873	20533
454.898	19316
454.943	16700
454.979	11481
455.013	7255
455.060	4710
455.082	3899
455.141	5737
455.152	5803
455.221	17416
455.222	17683
455.291	21587
455.303	19909
455.360	12741
455.384	14874
455.430	17322
455.465	15911
455.499	14418
455.546	18057
455.569	18782
455.627	10012
455.638	8648
455.707	2337
455.708	2376
455.777	2536
455.789	2663
455.846	3059
455.869	2730
455.916	1966
455.950	2172
455.985	2237
456.031	2432
456.054	2449
456.112	2493
456.124	2573
456.193	2473
456.193	2426
456.262	3292
456.274	3795
456.332	5657
456.355	5870
456.401	5663
456.436	4610
456.470	3746
456.516	2473
456.540	1747
456.597	1744
456.609	1771
456.678	2778
456.678	2750
456.747	2171
456.759	2111
456.817	1993
456.840	2086
456.886	1969
456.920	2390
456.955	3147
457.001	3585
457.024	3867
457.082	5304
457.093	5434
457.162	8012
457.163	8061
457.232	8376
457.243	7679
457.301	4080
457.324	3502
457.370	2976
457.405	3163
457.439	3378
457.485	3406
457.508	3432
457.566	4695
457.577	4939
457.646	5508
457.647	5544
457.715	7085
457.727	7550
457.784	10138
457.808	11988
457.853	13544
457.889	14666
457.922	14267
457.969	10802
457.991	11222
458.050	14597
458.060	15109
458.129	22830
458.130	23063
458.198	18022
458.211	15861
458.267	9711
458.292	7800
458.336	7231
458.372	7566
458.405	10101
458.453	14663
458.474	17275
458.533	26365
458.543	26705
458.611	33685
458.614	33787
458.680	18458
458.694	14446
458.749	8637
458.775	7379
458.818	6249
458.855	5897
458.887	5622
458.936	5258
458.955	5263
459.016	5941
459.024	6071
459.093	7500
459.097	7556
459.162	8173
459.177	8534
459.230	10215
459.257	11137
459.299	10351
459.338	9112
459.368	8990
459.418	8918
459.437	8466
459.499	7552
459.505	7572
459.574	7363
459.579	7397
459.643	6948
459.659	6731
459.711	6961
459.740	7628
459.780	8360
459.820	8806
459.849	8820
459.900	8591
459.917	8451
459.981	8392
459.986	8355
460.054	7424
460.061	7396
460.123	9245
460.141	10027
460.191	13048
460.222	14709
460.260	15684
460.302	17220
460.328	14994
460.382	9218
460.397	9286
460.462	9647
460.465	9904
460.534	17347
460.543	18195
460.602	38611
460.623	46618
460.671	70047
460.703	88483
460.739	70492
460.783	42967
460.808	34401
460.864	10842
460.876	9878
460.944	9320
460.945	9305
461.013	10252
461.024	10368
461.081	11499
461.104	12204
461.150	11140
461.184	9976
461.218	9771
461.264	9183
461.286	9093
461.345	9522
461.355	9477
461.423	9146
461.425	9138
461.491	10726
461.505	11077
461.559	19406
461.585	23402
461.628	32916
461.665	42482
461.696	44398
461.745	48566
461.764	42190
461.825	13707
461.832	13249
461.901	12678
461.905	12753
461.969	10760
461.985	10061
462.037	10402
462.065	10711
462.105	12364
462.145	14281
462.173	18625
462.225	26761
462.241	28793
462.305	39025
462.310	37982
462.378	18468
462.385	16142
462.446	12773
462.465	12247
462.514	12333
462.545	12268
462.582	11402
462.625	10697
462.650	10753
462.705	10694
462.718	11199
462.785	13830
462.786	13917
462.854	18705
462.865	19597
462.922	22686
462.945	23675
462.990	18255
463.025	13667
463.058	12684
463.104	11345
463.126	11431
463.184	12453
463.194	12686
463.262	13522
463.264	13560
463.330	13112
463.344	12937
463.398	13672
463.424	14097
463.466	14275
463.504	14379
463.533	14653
463.583	14914
463.601	15674
463.663	18335
463.669	18801
463.737	24299
463.743	24783
463.805	35023
463.823	37926
463.873	50352
463.903	58457
463.940	58316
463.982	57863
464.008	46427
464.062	19544
464.076	18363
464.142	13636
464.144	13621
464.211	13355
464.221	13348
464.279	15177
464.301	15813
464.347	16690
464.381	17336
464.414	18410
464.461	20021
464.482	20529
464.540	21720
464.550	21318
464.617	17859
464.620	17722
464.685	21783
464.699	22650
464.753	23226
464.779	23487
464.820	23041
464.859	22473
464.888	22420
464.938	22354
464.956	22579
465.018	23316
465.023	22976
465.091	17642
465.098	17103
465.158	17978
465.177	18160
465.226	18591
465.257	18942
465.293	21035
465.336	23305
465.361	26105
465.416	32408
465.428	33819
465.495	41336
465.496	41516
465.563	58601
465.575	61629
465.631	68751
465.654	71584
465.698	44709
465.734	21607
465.765	19794
465.813	17336
465.833	17280
465.893	17613
465.900	17702
465.968	18001
465.972	17993
466.035	17833
466.052	17722
466.102	18452
466.131	18849
466.170	18778
466.210	18653
466.237	19141
466.290	19986
466.304	20008
466.369	19721
466.372	19816
466.439	21630
466.449	21833
466.506	24768
466.528	25846
466.573	38406
466.607	47715
466.641	64887
466.687	88609
466.708	94876
466.766	112003
466.775	103814
466.842	39981
466.845	36877
466.909	28547
466.925	26584
466.977	24703
467.004	23634
467.044	25115
467.083	26517
467.111	28079
467.163	30837
467.178	31493
467.242	33909
467.245	33920
467.312	32647
467.321	32409
467.379	30523
467.400	29741
467.446	33291
467.480	35738
467.559	30305
467.638	27189
467.717	29221
467.796	35333
467.875	40677
467.955	32864
468.034	51136
468.113	93996
468.192	124299
468.271	32266
468.350	28293
468.429	28831
468.508	27527
468.588	25180
468.667	24971
468.746	25853
468.825	26522
468.904	25238
468.983	33417
469.062	48232
469.141	54188
469.220	25055
469.299	25803
469.378	26881
469.456	28528
469.535	26023
469.614	27693
469.693	29952
469.772	36852
469.851	50848
469.930	33340
470.009	27441
470.088	28644
470.166	34153
470.245	45974
470.324	51312
470.403	38007
470.482	30465
470.560	29267
470.639	32142
470.718	39431
470.797	29033
470.875	34937
470.954	44453
471.033	44304
471.111	22390
471.190	22156
471.269	20827
471.347	20951
471.426	25093
471.505	28024
471.583	25834
471.662	25101
471.740	22764
471.819	22323
471.898	22230
471.976	23092
472.055	23531
472.133	26955
472.212	35816
472.290	35322
472.369	23270
472.447	22873
472.526	21895
472.604	24330
472.683	27257
472.761	28782
472.839	27118
472.918	23842
472.996	23980
473.075	27032
473.153	26472
473.231	23432
473.310	30152
473.388	28133
473.466	26357
473.545	33090
473.623	47474
473.701	42347
473.780	24617
473.858	23168
473.936	25967
474.014	23884
474.093	29424
474.171	39978
474.249	50782
474.327	31213
474.405	20811
474.484	23274
474.562	24583
474.640	23244
474.718	24251
474.796	24295
474.874	21575
474.952	20611
475.030	20535
475.108	21934
475.187	24408
475.265	29737
475.343	43886
475.421	45095
475.499	22698
475.577	23243
475.655	33433
475.733	57958
475.811	96541
475.889	83828
475.966	50329
476.044	26936
476.122	35936
476.200	45813
476.278	32459
476.356	25322
476.434	26874
476.512	34443
476.590	44184
476.667	35549
476.745	24789
476.823	26484
476.901	24552
476.979	26563
477.056	24723
477.134	26540
477.212	26286
477.290	24900
477.367	21879
477.445	22797
477.523	23217
477.601	23134
477.678	23692
477.756	28354
477.834	29613
477.911	22859
477.989	23930
478.066	24601
478.144	28420
478.222	36123
478.299	58179
478.377	44742
478.454	21533
478.532	22021
478.609	26002
478.687	27269
478.764	22688
478.842	25881
478.919	29720
478.997	25356
479.074	21626
479.152	25754
479.229	31738
479.307	21596
479.384	19716
479.461	20220
479.539	22388
479.616	26236
479.694	23177
479.771	25599
479.848	26912
479.926	34414
480.003	34933
480.080	22043
480.157	20703
480.235	21867
480.312	22171
480.389	26935
480.467	39240
480.544	45542
480.621	25166
480.698	25315
480.775	29168
480.853	29317
480.930	25337
481.007	27107
481.084	30291
481.161	30849
481.238	26909
481.315	22571
481.392	23194
481.470	22608
481.547	22489
481.624	21948
481.701	23257
481.778	23740
481.855	27254
481.932	39751
482.009	59157
482.086	38523
482.163	25990
482.240	42894
482.317	71054
482.393	45658
482.470	24663
482.547	24750
482.624	22081
482.701	24132
482.778	22621
482.855	20333
482.932	20875
483.009	21149
483.085	23074
483.162	26824
483.239	25553
483.316	21485
483.393	21628
483.469	22806
483.546	26341
483.623	27017
483.699	21694
483.776	23934
483.853	26832
483.930	40864
484.006	85716
484.083	127435
484.160	58552
484.236	71549
484.313	54482
484.389	45972
484.466	42530
484.543	39451
484.619	41152
484.696	44447
484.772	47426
484.849	49344
484.925	40493
485.002	39362
485.078	41705
485.155	42184
485.231	38599
485.308	38468
485.384	41703
485.461	53966
485.537	85756
485.614	93363
485.690	41687
485.766	40604
485.843	50483
485.919	80960
485.995	76018
486.072	36801
486.148	36100
486.224	36070
486.301	39791
486.377	44640
486.453	43526
486.530	40683
486.606	51209
486.682	56045
486.758	71814
486.835	82064
486.911	70444
486.987	123082
487.063	168452
487.139	220654
487.215	132113
487.292	48381
487.368	39764
487.444	44507
487.520	51725
487.596	47424
487.672	67053
487.748	140459
487.824	174233
487.900	61113
487.976	41737
488.052	44849
488.128	52869
488.204	45167
488.280	38772
488.356	51198
488.432	99766
488.508	138698
488.584	51704
488.660	40073
488.736	41511
488.812	45857
488.888	59624
488.964	99664
489.039	243937
489.115	335833
489.191	149985
489.267	43049
489.343	38051
489.418	31331
489.494	31746
489.570	30481
489.646	32573
489.722	32421
489.797	35185
489.873	57807
489.949	110202
490.024	82508
490.100	31992
490.176	35161
490.251	52549
490.327	69240
490.403	32552
490.478	29362
490.554	26364
490.629	27920
490.705	28315
490.781	33014
490.856	33542
490.932	40187
491.007	41869
491.083	34715
491.158	33656
491.234	46041
491.309	88377
491.385	81570
491.460	32969
491.536	36445
491.611	33370
491.686	41108
491.762	66846
491.837	156534
491.913	242098
491.988	339671
492.063	365352
492.139	76844
492.214	44871
492.289	28067
492.365	30712
492.440	37585
492.515	35527
492.590	32245
492.666	28924
492.741	41628
492.816	54750
492.891	31973
492.967	25623
493.042	25653
493.117	25289
493.192	27439
493.267	42299
493.342	81454
493.418	81576
493.493	27661
493.568	23711
493.643	26240
493.718	36831
493.793	60725
493.868	69389
493.943	43510
494.018	29641
494.093	25879
494.168	27131
494.243	23856
494.318	22868
494.393	23088
494.468	23084
494.543	26970
494.618	32640
494.693	26622
494.768	25997
494.842	26255
494.917	24609
494.992	26966
495.067	24480
495.142	24247
495.217	27188
495.292	28075
495.366	34047
495.441	42593
495.516	55402
495.591	103246
495.665	356173
495.740	691691
495.815	199244
495.890	43724
495.964	35240
496.039	37312
496.114	34839
496.188	38077
496.263	35913
496.338	33511
496.412	37576
496.487	42198
496.561	52228
496.636	49906
496.710	37382
496.785	41859
496.860	43925
496.934	34664
497.009	36477
497.083	32840
497.158	32616
497.232	42216
497.307	49765
497.381	39672
497.455	46671
497.530	55466
497.604	37750
497.679	40929
497.753	64604
497.827	73604
497.902	57618
497.976	69833
498.050	174392
498.125	530050
498.199	461468
498.273	108757
498.348	85415
498.422	68098
498.496	70054
498.570	60069
498.645	39285
498.719	38674
498.793	48173
498.867	75692
498.941	102582
499.016	254523
499.090	550948
499.164	164460
499.238	36465
499.312	39671
499.386	52987
499.460	40631
499.534	36604
499.609	45438
499.683	62705
499.757	58981
499.831	132404
499.905	407126
499.979	321542
500.053	79263
500.127	93976
500.201	74025
500.275	43698
500.349	39633
500.422	46481
500.496	82906
500.570	177547
500.644	291235
500.718	405305
500.792	86405
500.866	40545
500.940	50810
501.013	41014
501.087	48499
501.161	92170
501.235	102054
501.309	185367
501.382	422260
501.456	314945
501.530	102776
501.603	151544
501.677	56984
501.751	32269
501.825	43088
501.898	77358
501.972	185622
502.046	101033
502.119	45551
502.193	102969
502.266	196651
502.340	90010
502.413	102151
502.487	173525
502.561	100424
502.634	39726
502.708	38611
502.781	34363
502.855	28069
502.928	24787
503.002	25909
503.075	24984
503.149	26614
503.222	25905
503.295	27772
503.369	32946
503.442	49767
503.516	152817
503.589	328254
503.662	193442
503.736	73994
503.809	163296
503.882	129243
503.956	187838
504.029	156237
504.102	114193
504.175	112239
504.249	38662
504.322	37339
504.395	34246
504.468	26542
504.542	27803
504.615	21391
504.688	21950
504.761	22556
504.834	33155
504.907	48793
504.980	71217
505.053	36343
505.127	52596
505.200	46047
505.273	38570
505.346	24834
505.419	22471
505.492	22388
505.565	18357
505.638	19194
505.711	20417
505.784	19640
505.857	18868
505.930	22017
506.003	20516
506.076	23567
506.149	29447
506.221	33574
506.294	34441
506.367	87140
506.440	241933
506.513	112486
506.586	38176
506.659	25899
506.731	24734
506.804	35021
506.877	48048
506.950	27639
507.022	22573
507.095	30023
507.168	35914
507.241	25386
507.313	23366
507.386	29798
507.459	41451
507.531	25209
507.604	22083
507.677	20486
507.749	18625
507.822	32075
507.894	55307
507.967	48190
508.040	26128
508.112	23418
508.185	24457
508.257	29807
508.330	43391
508.402	23054
508.475	22784
508.547	24038
508.620	26097
508.692	39456
508.765	24704
508.837	19870
508.909	19564
508.982	22353
509.054	27912
509.127	21980
509.199	19000
509.271	18710
509.344	18045
509.416	18951
509.488	19640
509.560	20636
509.633	25260
509.705	29598
509.777	29376
509.849	42510
509.922	24058
509.994	19570
510.066	20492
510.138	21068
510.210	32936
510.283	27673
510.355	26451
510.427	24854
510.499	22705
510.571	22802
510.643	28727
510.715	55051
510.787	39212
510.859	26805
510.931	34864
511.003	54938
511.076	38447
511.148	20476
511.219	22562
511.291	38457
511.363	39777
511.435	20489
511.507	19143
511.579	19881
511.651	21237
511.723	20085
511.795	19941
511.867	21786
511.939	28364
512.010	54389
512.082	40097
512.154	24644
512.226	24218
512.298	35461
512.369	47907
512.441	37289
512.513	40124
512.585	29089
512.656	31691
512.728	35321
512.800	23887
512.871	23665
512.943	24336
513.015	21338
513.086	25809
513.158	29607
513.230	33321
513.301	54771
513.373	57301
513.444	28868
513.516	24264
513.588	25133
513.659	30690
513.731	39635
513.802	38274
513.874	94793
513.945	144044
514.016	38160
514.088	26000
514.159	32011
514.231	44925
514.302	44178
514.374	28593
514.445	31565
514.516	60740
514.588	40510
514.659	32467
514.730	57652
514.802	43042
514.873	28603
514.944	28031
515.016	30586
515.087	38602
515.158	47451
515.229	52855
515.301	25664
515.372	28432
515.443	21290
515.514	21526
515.585	20535
515.656	22346
515.728	21334
515.799	21996
515.870	24881
515.941	25807
516.012	26617
516.083	32835
516.154	42146
516.225	58833
516.296	47291
516.367	38531
516.438	44585
516.509	58292
516.580	100367
516.651	313718
516.722	859955
516.793	282174
516.864	82833
516.935	70752
517.006	76974
517.077	126645
517.148	318960
517.219	866716
517.289	957641
517.360	302170
517.431	96398
517.502	42370
517.573	41784
517.643	38459
517.714	41314
517.785	42759
517.856	43887
517.926	48892
517.997	53211
518.068	64014
518.138	88247
518.209	165152
518.280	603280
518.350	1370226
518.421	470784
518.492	76464
518.562	53657
518.633	49819
518.703	45157
518.774	66516
518.845	115113
518.915	94291
518.986	50988
519.056	63126
519.127	125019
519.197	178228
519.268	283853
519.338	141146
519.408	56883
519.479	83023
519.549	52419
519.620	35890
519.690	27706
519.760	29002
519.831	33873
519.901	31536
519.971	26585
520.042	29285
520.112	34276
520.182	44916
520.253	44840
520.323	27588
520.393	31407
520.463	36405
520.534	28723
520.604	42018
520.674	32571
520.744	35391
520.814	56094
520.885	56666
520.955	99350
521.025	275595
521.095	91530
521.165	29216
521.235	28046
521.305	24678
521.375	25658
521.445	32587
521.515	46148
521.585	56679
521.655	45551
521.725	39546
521.795	31120
521.865	23669
521.935	41088
522.005	32266
522.075	24496
522.145	27152
522.215	31637
522.285	41973
522.355	57841
522.424	102206
522.494	81490
522.564	57268
522.634	142273
522.704	328183
522.774	86854
522.843	31777
522.913	32675
522.983	43018
523.053	30035
523.122	34088
523.192	63067
523.262	212099
523.331	144018
523.401	29331
523.471	23527
523.540	26327
523.610	20328
523.680	19801
523.749	22258
523.819	28502
523.888	26838
523.958	20988
524.027	23586
524.097	25738
524.166	25948
524.236	30478
524.305	26835
524.375	23225
524.444	20469
524.514	24959
524.583	23791
524.653	30298
524.722	32576
524.791	22275
524.861	24657
524.930	21395
524.999	27875
525.069	37202
525.138	29000
525.207	33451
525.277	25348
525.346	25209
525.415	24636
525.484	26615
525.554	28693
525.623	27625
525.692	23985
525.761	24917
525.830	24818
525.900	26904
525.969	37066
526.038	47873
526.107	84447
526.176	182548
526.245	129112
526.314	79945
526.383	124138
526.452	131920
526.522	243631
526.591	229810
526.660	151508
526.729	62257
526.797	73417
526.867	197934
526.935	675014
527.004	674394
527.073	248219
527.142	36744
527.211	30605
527.280	39219
527.349	37764
527.418	21310
527.487	23184
527.555	21188
527.624	20674
527.693	18499
527.762	21836
527.831	19669
527.899	21413
527.968	21197
528.037	23039
528.106	33497
528.174	59545
528.243	41971
528.312	69232
528.380	78579
528.449	25760
528.518	20346
528.586	16946
528.655	18971
528.723	18234
528.792	20049
528.861	21183
528.929	18590
528.998	18740
529.066	16897
529.135	18299
529.203	17494
529.272	17985
529.340	18900
529.409	21031
529.477	19262
529.545	25203
529.614	26649
529.682	28673
529.751	31097
529.819	31186
529.887	22697
529.956	20134
530.024	21671
530.092	19422
530.161	29388
530.229	45297
530.297	23392
530.365	19463
530.434	18429
530.502	17492
530.570	18155
530.638	16976
530.707	22687
530.775	22813
530.843	19076
530.911	19264
530.979	18672
531.047	19574
531.115	20683
531.183	20244
531.252	19841
531.320	21214
531.388	18785
531.456	19812
531.524	18832
531.592	21384
531.660	23201
531.728	20763
531.796	20067
531.864	19572
531.932	20555
532.000	20817
532.067	22665
532.135	25254
532.203	28778
532.271	33173
532.339	64269
532.407	155808
532.475	68114
532.542	33539
532.610	38954
532.678	67121
532.746	264724
532.814	469210
532.881	102254
532.949	27734
533.017	23929
533.084	21876
533.152	21392
533.220	22450
533.287	27210
533.355	21440
533.423	20327
533.490	19685
533.558	20566
533.625	21780
533.693	22796
533.761	22999
533.828	24162
533.896	26955
533.963	56018
534.031	63855
534.098	87213
534.166	32124
534.233	21480
534.300	22085
534.368	22244
534.435	20533
534.503	20236
534.570	20883
534.637	20409
534.705	22088
534.772	25023
534.840	34559
534.907	100468
534.974	89902
535.041	26501
535.109	27190
535.176	19944
535.243	20432
535.310	23169
535.378	20048
535.445	18450
535.512	19018
535.579	18765
535.646	18257
535.714	20430
535.781	22005
535.848	21359
535.915	22144
535.982	21256
536.049	21590
536.116	22969
536.183	22635
536.250	23315
536.317	25857
536.384	32271
536.451	48594
536.518	47135
536.585	33777
536.652	43863
536.719	63462
536.786	45464
536.853	36689
536.920	57911
536.987	93208
537.053	94682
537.120	314764
537.187	179203
537.254	26893
537.321	23905
537.388	24621
537.454	21008
537.521	20668
537.588	20528
537.654	24200
537.721	24984
537.788	24335
537.855	21597
537.921	23584
537.988	23577
538.055	23031
538.121	25376
538.188	29378
538.254	52676
538.321	97069
538.388	47122
538.454	24721
538.521	22640
538.587	21678
538.654	21712
538.720	21758
538.787	23256
538.853	26605
538.920	31758
538.986	31106
539.053	26638
539.119	28341
539.185	27601
539.252	36136
539.318	54164
539.385	33995
539.451	29825
539.517	31581
539.583	44083
539.650	116896
539.716	216646
539.782	47808
539.849	26617
539.915	26764
539.981	30734
540.047	36897
540.114	30776
540.180	30685
540.246	32531
540.312	49060
540.378	98599
540.444	86989
540.510	119068
540.576	247392
540.643	56192
540.709	26439
540.775	25276
540.841	26123
540.907	34516
540.973	43324
541.039	49937
541.105	50858
541.171	28742
541.237	27246
541.303	29346
541.369	34625
541.435	49855
541.500	82229
541.566	45261
541.632	25636
541.698	23925
541.764	23679
541.830	22849
541.896	23489
541.961	24705
542.027	26064
542.093	25786
542.159	27138
542.224	31399
542.290	47358
542.356	86182
542.421	85191
542.487	36111
542.553	28025
542.618	30127
542.684	26742
542.750	28823
542.815	39788
542.881	76352
542.947	242300
543.012	117047
543.078	26258
543.143	24907
543.209	27027
543.274	30814
543.340	40567
543.405	107479
543.471	122316
543.536	29266
543.602	25548
543.667	23690
543.732	23723
543.798	22951
543.863	24153
543.928	22052
543.994	21518
544.059	23077
544.124	23006
544.190	23305
544.255	24420
544.320	26441
544.386	28720
544.451	42088
544.516	48173
544.581	57002
544.646	166793
544.712	183369
544.777	36529
544.842	31537
544.907	32585
544.972	29718
545.037	28652
545.102	30795
545.168	30934
545.233	33248
545.298	36392
545.363	41150
545.428	49976
545.493	102673
545.558	187343
545.623	57006
545.688	31118
545.753	30416
545.818	29300
545.883	30169
545.947	29663
546.012	34575
546.077	33726
546.142	34791
546.207	35280
546.272	47141
546.337	44951
546.401	34610
546.466	32358
546.531	31279
546.596	34635
546.661	34067
546.725	31704
546.790	30513
546.855	30665
546.919	30012
546.984	34186
547.049	37343
547.113	42106
547.178	37028
547.243	43443
547.307	47198
547.372	54762
547.436	54556
547.501	45804
547.565	49027
547.630	59730
547.695	54542
547.759	56723
547.823	47251
547.888	42284
547.952	43739
548.017	48020
548.081	55768
548.146	63336
548.210	53521
548.274	46911
548.339	44487
548.403	42166
548.468	40949
548.532	41761
548.596	43477
548.660	43131
548.725	49575
548.789	57763
548.853	55044
548.917	49117
548.982	60422
549.046	55553
549.110	40673
549.174	40387
549.238	43592
549.303	44271
549.367	46673
549.431	43582
549.495	42471
549.559	44892
549.623	49472
549.687	61104
549.751	76344
549.815	58814
549.879	56413
549.943	53817
550.007	58962
550.071	59513
550.135	71415
550.199	55539
550.263	51214
550.327	54943
550.391	65860
550.455	56308
550.519	56653
550.582	63712
550.646	87388
550.710	78719
550.774	60411
550.838	61985
550.901	62325
550.965	65960
551.029	67243
551.093	75528
551.156	88927
551.220	135909
551.284	135196
551.347	89528
551.411	143719
551.475	133883
551.538	66559
551.602	59692
551.666	57628
551.729	54189
551.793	52728
551.856	53453
551.920	53167
551.983	52995
552.047	52067
552.110	52333
552.174	52360
552.237	54316
552.301	51131
552.364	50372
552.428	50151
552.491	51922
552.554	54486
552.618	52411
552.681	56283
552.745	59694
552.808	85931
552.871	96356
552.934	65180
552.998	55770
553.061	55640
553.124	52359
553.187	52027
553.251	53528
553.314	53279
553.377	53578
553.440	61569
553.503	91257
553.567	91596
553.630	54670
553.693	53633
553.756	53057
553.819	50832
553.882	49980
553.945	50647
554.008	50357
554.071	49448
554.134	50205
554.197	48459
554.260	49742
554.323	52451
554.386	52846
554.449	51443
554.512	49438
554.575	49004
554.638	50491
554.701	48809
554.764	48006
554.827	46656
554.889	45761
554.952	43729
555.015	43308
555.078	44693
555.141	45302
555.203	43185
555.266	43996
555.329	45591
555.391	43534
555.454	46427
555.517	45031
555.580	40865
555.642	39183
555.705	39671
555.768	41600
555.830	41632
555.893	38494
555.955	39049
556.018	39185
556.080	39142
556.143	39451
556.206	39590
556.268	41491
556.330	42200
556.393	40809
556.455	41379
556.518	54930
556.580	52272
556.643	36828
556.705	37478
556.767	37040
556.830	39776
556.892	46435
556.955	68580
557.017	44839
557.079	37327
557.142	38600
557.204	49706
557.266	93134
557.328	63978
557.391	34284
557.453	32753
557.515	35361
557.577	46796
557.639	42990
557.701	31768
557.764	30260
557.826	32595
557.888	34115
557.950	33404
558.012	36020
558.074	43623
558.136	74901
558.198	124639
558.260	52070
558.322	37745
558.384	38604
558.446	41149
558.508	46169
558.570	61346
558.632	113202
558.694	144607
558.756	116057
558.818	299320
558.880	517104
558.942	143591
559.003	131214
559.065	60404
559.127	40321
559.189	43158
559.251	48678
559.312	66771
559.374	149264
559.436	362143
559.498	133820
559.559	42018
559.621	41664
559.683	52681
559.744	85198
559.806	215924
559.868	223571
559.929	56133
559.991	49274
560.052	68371
560.114	133756
560.176	80745
560.237	98698
560.299	118577
560.360	40619
560.422	32811
560.483	32523
560.545	33009
560.606	32125
560.667	30737
560.729	30149
560.790	30868
560.852	30836
560.913	30777
560.974	29708
561.036	30644
561.097	31795
561.158	29831
561.220	32323
561.281	32598
561.342	35549
561.403	42953
561.465	58630
561.526	136322
561.587	135824
561.648	40384
561.709	32681
561.771	32942
561.832	33213
561.893	32217
561.954	31533
562.015	32391
562.076	32503
562.137	31886
562.198	32120
562.259	32929
562.320	33903
562.381	39095
562.442	50699
562.503	38226
562.564	29910
562.625	30002
562.686	30457
562.747	31719
562.808	32375
562.869	31748
562.930	37724
562.991	37633
563.051	34006
563.112	32395
563.173	32470
563.234	30223
563.294	31784
563.355	31975
563.416	33545
563.477	30272
563.537	32880
563.598	34485
563.659	33504
563.720	32890
563.780	36603
563.841	34534
563.901	31428
563.962	30902
564.023	31524
564.083	32262
564.144	32084
564.204	32748
564.265	33468
564.325	38901
564.386	61175
564.446	50752
564.507	31102
564.567	30628
564.628	30654
564.688	32114
564.749	33185
564.809	36055
564.869	39786
564.930	32527
564.990	31487
565.050	31181
565.111	32247
565.171	30033
565.231	30477
565.292	30750
565.352	30597
565.412	31795
565.472	33323
565.532	35115
565.593	31173
565.653	30466
565.713	32368
565.773	34871
565.833	43652
565.893	48058
565.953	32879
566.013	31897
566.074	33230
566.134	41600
566.194	60097
566.254	58007
566.314	40083
566.374	31190
566.434	32141
566.494	31389
566.554	30053
566.614	32392
566.673	31387
566.733	32079
566.793	33870
566.853	33773
566.913	32323
566.973	33576
567.033	33138
567.092	32893
567.152	32461
567.212	32567
567.272	33441
567.331	34810
567.391	33799
567.451	36568
567.511	45933
567.570	42246
567.630	31354
567.690	31292
567.749	32115
567.809	32373
567.868	35814
567.928	36142
567.988	37717
568.047	36953
568.107	40597
568.166	46761
568.226	60893
568.285	70559
568.345	56202
568.404	46301
568.464	43426
568.523	42114
568.582	45555
568.642	49352
568.701	57711
568.761	79562
568.820	109146
568.879	91514
568.939	73835
568.998	53956
569.057	43914
569.116	38014
569.176	35843
569.235	32330
569.294	33173
569.353	31748
569.413	30534
569.472	31595
569.531	29777
569.590	28731
569.649	29178
569.708	27149
569.767	29566
569.827	32691
569.886	28725
569.945	27689
570.004	28616
570.063	29144
570.122	31937
570.181	32914
570.240	33956
570.299	33797
570.358	30891
570.417	28030
570.475	28834
570.534	30547
570.593	32366
570.652	30518
570.711	29961
570.770	29405
570.829	31076
570.887	33100
570.946	35830
571.005	27873
571.064	27696
571.122	30800
571.181	31621
571.240	27884
571.299	27372
571.357	29240
571.416	30365
571.475	32775
571.533	32149
571.592	27563
571.650	29190
571.709	26739
571.768	27678
571.826	27161
571.885	25945
571.943	25853
572.002	26809
572.060	27202
572.119	24735
572.177	24220
572.236	23226
572.294	24746
572.352	24731
572.411	24857
572.469	23459
572.528	23521
572.586	24173
572.644	25828
572.703	28556
572.761	25624
572.819	25078
572.877	23295
572.936	22652
572.994	23163
573.052	23454
573.110	26106
573.169	24157
573.227	22544
573.285	23221
573.343	23118
573.401	22641
573.459	22812
573.517	22749
573.576	22484
573.634	23390
573.692	24022
573.750	24586
573.808	22907
573.866	24251
573.924	30098
573.982	27564
574.040	23524
574.098	22565
574.155	21782
574.213	22297
574.271	22162
574.329	22256
574.387	21743
574.445	22099
574.503	21019
574.560	20308
574.618	21400
574.676	20478
574.734	20860
574.792	21324
574.849	21168
574.907	20387
574.965	19934
575.022	20613
575.080	20162
575.138	22510
575.195	22665
575.253	23162
575.311	25306
575.368	21232
575.426	20669
575.483	20632
575.541	20386
575.598	19969
575.656	21269
575.713	21328
575.771	20536
575.828	21388
575.886	20656
575.943	22628
576.001	22565
576.058	22145
576.115	23975
576.173	27988
576.230	31349
576.287	33522
576.345	26248
576.402	22665
576.459	22589
576.517	22869
576.574	26053
576.631	25918
576.688	23702
576.746	21385
576.803	22293
576.860	21123
576.917	23150
576.974	22249
577.031	22390
577.089	21392
577.146	22947
577.203	21053
577.260	23668
577.317	23872
577.374	26662
577.431	24938
577.488	23899
577.545	21288
577.602	21163
577.659	20943
577.716	20362
577.773	21634
577.830	20009
577.886	21136
577.943	20542
578.000	20211
578.057	21876
578.114	21516
578.171	19814
578.227	21251
578.284	20364
578.341	21665
578.398	20989
578.454	22030
578.511	26117
578.568	27604
578.625	24024
578.681	21671
578.738	19516
578.794	20749
578.851	21264
578.908	24019
578.964	26651
579.021	25168
579.077	23237
579.134	22031
579.190	21617
579.247	21247
579.303	22145
579.360	20737
579.416	21944
579.473	19744
579.529	20385
579.586	21216
579.642	21349
579.698	20663
579.755	21945
579.811	20900
579.867	21631
579.924	20037
579.980	20779
580.036	21998
580.093	21320
580.149	22254
580.205	22659
580.261	21315
580.317	23175
580.374	23809
580.430	27436
580.486	26119
580.542	22327
580.598	22653
580.619	22383
580.654	21946
580.692	22588
580.710	22957
580.765	22965
580.767	22997
580.823	22923
580.838	22812
580.879	22615
580.911	22214
580.935	21984
580.984	21417
580.991	21372
581.047	21308
581.057	21329
581.103	21591
581.130	21705
581.159	21866
581.203	21602
581.215	21561
581.270	22324
581.276	22243
581.326	21741
581.349	21738
581.382	21808
581.422	22375
581.438	22650
581.494	22072
581.494	22049
581.550	21957
581.567	22502
581.606	23729
581.640	22901
581.661	22430
581.713	21569
581.717	21523
581.773	20947
581.786	21156
581.829	21928
581.859	22349
581.885	22816
581.932	22220
581.940	22105
581.996	23088
582.004	23058
582.052	23036
582.077	22428
582.107	21757
582.150	22620
582.163	22878
582.219	22838
582.223	22751
582.274	22109
582.296	22149
582.330	22144
582.368	22107
582.386	22159
582.441	21429
582.441	21438
582.497	21124
582.514	21070
582.552	21200
582.587	21388
582.608	21467
582.659	21217
582.663	21203
582.719	22229
582.732	21858
582.774	20767
582.805	21342
582.830	21789
582.877	21639
582.885	21626
582.941	20834
582.950	20974
582.996	21567
583.023	21605
583.052	21883
583.095	21314
583.107	21112
583.162	21476
583.168	21442
583.218	21095
583.240	20970
583.273	20862
583.313	20547
583.328	20444
583.384	20520
583.385	20528
583.439	20490
583.458	20117
583.494	19496
583.531	19311
583.549	19270
583.603	20229
583.605	20253
583.660	19963
583.676	19873
583.715	19519
583.748	19820
583.770	20106
583.820	19918
583.825	19880
583.881	19264
583.893	19307
583.936	19668
583.965	19401
583.991	19077
584.038	19267
584.046	19250
584.101	18837
584.110	18825
584.156	19022
584.183	19289
584.211	19437
584.255	18449
584.266	18262
584.321	18316
584.328	18463
584.376	19197
584.400	19128
584.431	19147
584.472	18734
584.486	18514
584.541	19309
584.545	19291
584.596	18858
584.617	18815
584.651	18975
584.689	19969
584.706	20200
584.761	19439
584.762	19453
584.816	19527
584.834	19429
584.871	19416
584.906	19725
584.926	19656
584.978	19697
584.980	19698
585.035	19803
585.051	20315
585.090	21531
585.123	21448
585.145	21312
585.195	21570
585.200	21624
585.254	22722
585.267	23042
585.309	23457
585.340	24013
585.364	24416
585.412	25287
585.419	25434
585.473	27168
585.484	27977
585.528	31836
585.556	36025
585.583	42644
585.628	58163
585.637	63368
585.692	117964
585.700	125316
585.747	150342
585.772	122088
585.801	73679
585.845	34886
585.856	30338
585.910	25089
585.917	24561
585.965	22846
585.989	22604
586.019	22450
586.061	22038
586.074	21967
586.128	23079
586.133	23195
586.183	24489
586.205	24632
586.237	24207
586.277	23719
586.292	23441
586.346	23162
586.349	23169
586.401	22660
586.421	22776
586.455	23331
586.493	24948
586.509	26037
586.564	31085
586.565	31470
586.618	46533
586.637	44510
586.672	36332
586.709	28345
586.727	25267
586.781	25190
586.781	25141
586.835	23040
586.853	22896
586.889	22636
586.925	22000
586.944	21721
586.996	22198
586.998	22165
587.052	22622
587.068	22823
587.106	23331
587.140	23495
587.161	23284
587.212	24051
587.215	24039
587.269	24551
587.284	24614
587.323	24396
587.356	24202
587.377	24287
587.427	25673
587.431	25630
587.485	25439
587.499	25518
587.539	26024
587.571	26038
587.593	26016
587.643	27340
587.648	27393
587.702	27898
587.715	28422
587.755	29178
587.786	29040
587.810	28868
587.858	29278
587.864	29315
587.917	31579
587.930	32177
587.971	33744
588.001	35055
588.025	35651
588.073	36355
588.079	36447
588.133	39905
588.145	40537
588.187	41477
588.217	43436
588.241	45406
588.288	49882
588.295	50339
588.348	56307
588.360	57875
588.402	62949
588.431	67636
588.456	71122
588.503	80863
588.510	82055
588.564	95084
588.575	99511
588.617	116787
588.646	132437
588.671	146216
588.718	182339
588.725	188641
588.778	259071
588.789	278762
588.832	388892
588.861	478547
588.886	589789
588.932	764187
588.939	773664
588.993	796990
589.004	802173
589.047	611827
589.075	445713
589.100	355267
589.147	223446
589.154	211948
589.207	163633
589.218	158208
589.261	149062
589.290	150744
589.314	155042
589.361	176014
589.368	181192
589.421	246622
589.433	266927
589.475	398024
589.504	497022
589.528	588328
589.576	715861
589.582	695055
589.635	472868
589.647	417356
589.689	250059
589.718	156174
589.742	125237
589.790	86833
589.795	83677
589.849	67250
589.861	65242
589.902	60416
589.932	55589
589.955	50017
590.004	40603
590.009	39789
590.062	36245
590.075	35500
590.115	32708
590.146	31559
590.168	30732
590.218	29442
590.222	29134
590.275	27830
590.289	27580
590.328	27204
590.360	26947
590.381	26144
590.431	25332
590.435	25106
590.488	23746
590.503	23625
590.541	23687
590.574	23597
590.594	23144
590.645	22810
590.647	22646
590.700	21791
590.716	21617
590.753	21012
590.787	20852
590.806	20719
590.859	21004
590.859	20873
590.912	20328
590.930	20328
590.965	19882
591.001	19744
591.018	19722
591.071	20039
591.072	20171
591.124	20126
591.143	20298
591.177	19967
591.214	20010
591.230	20232
591.283	21378
591.285	21549
591.336	22007
591.356	22411
591.389	22170
591.427	21855
591.442	21066
591.495	18716
591.498	18675
591.547	18012
591.569	17966
591.600	17939
591.640	18059
591.653	18041
591.706	18671
591.711	18861
591.759	18831
591.782	19027
591.811	19352
591.853	20172
591.864	19769
591.917	18109
591.924	18018
591.969	17379
591.995	17295
592.022	17140
592.066	17124
592.075	17199
592.127	18665
592.137	19102
592.180	19835
592.208	20347
592.233	18960
592.279	16767
592.285	16581
592.338	16282
592.350	16362
592.390	15971
592.421	15910
592.443	15884
592.491	16245
592.495	16107
592.548	16030
592.562	16147
592.600	15745
592.633	15650
592.653	15393
592.704	15011
592.705	15112
592.775	16118
592.846	16723
592.916	17427
592.987	19785
593.058	17596
593.128	15188
593.199	15824
593.270	14585
593.341	14826
593.411	16386
593.482	16770
593.553	16683
593.623	16003
593.694	16159
593.764	16471
593.835	15932
593.906	15720
593.976	14904
594.047	16457
594.117	18712
594.188	18918
594.258	15824
594.329	15768
594.399	15793
594.470	15974
594.540	17125
594.611	16347
594.681	15743
594.751	16969
594.822	18051
594.892	17760
594.963	18766
595.033	17947
595.103	18195
595.174	19321
595.244	24035
595.314	26792
595.384	18893
595.455	17783
595.525	19347
595.595	18967
595.665	20028
595.736	18468
595.806	18711
595.876	18866
595.946	18573
596.016	18834
596.087	19081
596.157	19274
596.227	19737
596.297	20302
596.367	21704
596.437	22777
596.507	26237
596.577	28512
596.647	22743
596.717	22749
596.787	22584
596.857	21905
596.927	22830
596.997	22752
597.067	22049
597.137	23022
597.207	23521
597.277	23709
597.347	22992
597.417	23700
597.487	23605
597.557	23423
597.626	24095
597.696	25475
597.766	26271
597.836	28557
597.906	22682
597.975	21898
598.045	21255
598.115	21632
598.185	23052
598.254	25726
598.324	27976
598.394	27970
598.464	27775
598.533	26430
598.603	25454
598.672	25936
598.742	24295
598.812	24178
598.881	24276
598.951	24349
599.020	24132
599.090	24965
599.159	26161
599.229	23336
599.299	24138
599.368	25160
599.437	24497
599.507	23755
599.576	23020
599.646	22752
599.715	23066
599.785	22745
599.854	23734
599.924	23260
599.993	21985
600.062	22176
600.132	23422
600.201	23533
600.270	27345
600.340	27754
600.409	25934
600.478	25868
600.547	25688
600.617	25343
600.686	22090
600.755	22054
600.824	22249
600.894	21437
600.963	19245
601.032	19131
601.101	20146
601.170	18633
601.239	18791
601.308	21415
601.378	19932
601.447	18226
601.516	18314
601.585	21444
601.654	22204
601.723	20638
601.792	19733
601.861	20840
601.930	23265
601.999	25159
602.068	23508
602.137	24331
602.206	24790
602.275	22652
602.343	26286
602.412	26077
602.481	21721
602.550	20860
602.619	20901
602.688	23144
602.756	21682
602.825	21693
602.894	22127
602.963	21517
603.032	22589
603.100	21474
603.169	20968
603.238	21520
603.307	21489
603.375	21818
603.444	21775
603.513	22514
603.581	22328
603.650	23222
603.719	21287
603.787	22550
603.856	23451
603.924	23665
603.993	23809
604.061	23906
604.130	24912
604.198	26125
604.267	25858
604.335	25956
604.404	25505
604.472	26615
604.541	26632
604.609	26579
604.678	27559
604.746	27311
604.815	27329
604.883	28278
604.951	28777
605.020	28003
605.088	28718
605.156	28465
605.225	28731
605.293	29398
605.361	29251
605.429	29652
605.498	31651
605.566	32115
605.634	32409
605.702	32234
605.771	33188
605.839	33728
605.907	31912
605.975	32121
606.043	30870
606.111	30754
606.180	31858
606.248	31303
606.316	31014
606.384	31307
606.452	35254
606.520	39616
606.588	33864
606.656	30350
606.724	29854
606.792	29188
606.860	26302
606.928	24167
606.996	23803
607.064	23360
607.132	24591
607.200	25487
607.267	26065
607.335	25581
607.403	26340
607.471	25325
607.539	24734
607.607	26542
607.674	22753
607.742	24851
607.810	25682
607.878	23925
607.946	23349
608.013	24566
608.081	24927
608.149	25114
608.216	24396
608.284	27292
608.352	25434
608.419	25555
608.487	29763
608.555	25858
608.622	25248
608.690	27422
608.757	28637
608.825	29948
608.893	29483
608.960	29604
609.028	29751
609.095	31308
609.163	26570
609.230	24425
609.298	24114
609.365	23222
609.432	25380
609.500	27070
609.567	30144
609.635	34483
609.702	35100
609.769	33743
609.837	29312
609.904	24613
609.971	25397
610.039	30374
610.106	40789
610.173	79719
610.241	182173
610.308	95386
610.375	34117
610.442	25993
610.509	24589
610.577	26301
610.644	25432
610.711	25562
610.778	27442
610.845	26806
610.912	29247
610.980	30146
611.047	31076
611.114	30049
611.181	28738
611.248	27523
611.315	30249
611.382	30083
611.449	31456
611.516	32598
611.583	31782
611.650	31924
611.717	32333
611.784	32865
611.851	35312
611.918	40080
611.984	47219
612.051	70370
612.118	155913
612.185	390351
612.252	219903
612.319	51404
612.386	41657
612.452	38278
612.519	36790
612.586	39778
612.653	36446
612.719	35991
612.786	34002
612.853	32715
612.919	30825
612.986	32239
613.053	30327
613.120	28872
613.186	27665
613.253	29875
613.319	28280
613.386	28829
613.453	29448
613.519	33382
613.586	39025
613.652	51306
613.719	42623
613.785	38347
613.852	30072
613.918	29005
613.985	31340
614.051	33213
614.118	40082
614.184	38517
614.250	29120
614.317	29657
614.383	28868
614.449	29799
614.516	29778
614.582	30279
614.648	28436
614.715	28872
614.781	28292
614.847	29128
614.914	29217
614.980	27536
615.046	29448
615.112	28832
615.179	28809
615.245	29326
615.311	29632
615.377	31010
615.443	30403
615.509	29895
615.575	31355
615.642	31197
615.708	33443
615.774	34767
615.840	37327
615.906	43799
615.972	55663
616.038	88821
616.104	195175
616.170	480004
616.236	375517
616.302	78744
616.368	55727
616.434	41122
616.500	39938
616.565	44285
616.631	53021
616.697	43192
616.763	45320
616.829	69379
616.895	125597
616.961	111313
617.026	45647
617.092	32940
617.158	31300
617.224	30664
617.289	28854
617.355	28078
617.421	26580
617.487	28058
617.552	25230
617.618	24809
617.684	24224
617.749	27527
617.815	24767
617.880	24145
617.946	24326
618.012	26292
618.077	24619
618.143	25198
618.208	26445
618.274	25978
618.339	26641
618.405	23155
618.470	23582
618.536	23459
618.601	23853
618.667	22231
618.732	21554
618.798	21978
618.863	22210
618.928	20738
618.994	23610
619.059	26181
619.124	35804
619.190	25547
619.255	20906
619.320	21459
619.386	21623
619.451	20083
619.516	20910
619.581	20666
619.647	20683
619.712	20707
619.777	20873
619.842	20828
619.907	22014
619.972	21682
620.038	21992
620.103	19685
620.168	19621
620.233	20863
620.298	20245
620.363	20430
620.428	20548
620.493	21411
620.558	21248
620.623	21787
620.688	22153
620.753	21427
620.818	21456
620.883	21075
620.948	23243
621.013	21481
621.078	21102
621.143	20813
621.207	24239
621.272	22293
621.337	23371
621.402	23303
621.467	25900
621.532	24613
621.596	23755
621.661	21711
621.726	20894
621.791	21431
621.855	23921
621.920	24194
621.985	22738
622.049	24901
622.114	22946
622.179	22519
622.243	24483
622.308	23412
622.373	25372
622.437	24051
622.502	22995
622.566	22880
622.631	22150
622.695	25049
622.760	23544
622.824	23438
622.889	23719
622.953	27194
623.018	40024
623.082	37709
623.147	24279
623.211	25018
623.276	24862
623.340	22510
623.404	22379
623.469	23172
623.533	21704
623.597	21303
623.662	21492
623.726	20072
623.790	20033
623.854	18782
623.919	20159
623.983	19994
624.047	20339
624.111	20692
624.176	19912
624.240	21046
624.304	22956
624.368	20466
624.432	20440
624.496	21732
624.560	23983
624.625	26180
624.689	22165
624.753	20865
624.817	20825
624.881	19940
624.945	19340
625.009	19150
625.073	19792
625.137	21140
625.201	27868
625.265	27100
625.329	20913
625.393	20865
625.456	21115
625.520	21697
625.584	22742
625.648	24955
625.712	29210
625.776	49542
625.839	52310
625.903	26894
625.967	20255
626.031	27204
626.095	34511
626.158	20904
626.222	15151
626.286	16197
626.349	14689
626.413	13575
626.477	16952
626.540	14742
626.604	13838
626.668	15518
626.731	14233
626.795	14215
626.858	14277
626.922	13728
626.986	14425
627.049	12914
627.113	13953
627.176	14440
627.240	13167
627.303	13990
627.366	12683
627.430	14082
627.493	13163
627.557	12827
627.620	14261
627.684	13350
627.747	13847
627.810	10982
627.874	11693
627.937	10275
628.000	14029
628.064	12626
628.127	10163
628.190	11809
628.253	11539
628.317	10111
628.380	11206
628.443	9999
628.506	10337
628.569	11217
628.632	9819
628.696	10373
628.759	8841
628.822	9415
628.885	8735
628.948	9560
629.011	10887
629.074	10097
629.137	9476
629.200	8747
629.263	9993
629.326	8606
629.389	7779
629.452	9405
629.515	9276
629.578	8532
629.641	9443
629.704	10088
629.767	10593
629.830	8838
629.892	8680
629.955	8455
630.018	11792
630.081	11444
630.144	15440
630.207	10206
630.269	11864
630.332	8413
630.395	8858
630.458	8678
630.520	8158
630.583	8668
630.646	8562
630.708	7628
630.771	7024
630.834	9092
630.896	8396
630.959	7985
631.021	7816
631.084	7342
631.146	8357
631.209	9249
631.272	7536
631.334	8428
631.397	6886
631.459	7248
631.522	9171
631.584	9532
631.646	9698
631.709	10019
631.771	13338
631.834	10228
631.896	9597
631.958	7480
632.021	8112
632.083	7534
632.145	8044
632.208	7840
632.270	9124
632.332	6323
632.395	5832
632.457	8144
632.519	7524
632.581	7971
632.643	6196
632.706	7577
632.768	6157
632.830	7866
632.892	7139
632.954	6302
633.016	8070
633.078	6644
633.141	6942
633.203	7372
633.265	7826
633.327	7128
633.389	7806
633.451	8949
633.513	10792
633.575	9876
633.637	10742
633.698	9111
633.760	8994
633.822	8082
633.884	8487
633.946	7117
634.008	6880
634.070	7437
634.132	8832
634.193	8506
634.255	9956
634.317	9431
634.379	10058
634.441	8335
634.502	7828
634.564	7958
634.626	6912
634.687	7428
634.749	6702
634.811	6987
634.873	5786
634.934	6168
634.996	7443
635.057	5717
635.119	6560
635.181	6526
635.242	7940
635.304	4953
635.365	9582
635.427	6446
635.488	7261
635.550	5738
635.611	7307
635.673	4779
635.734	8294
635.796	6563
635.857	8783
635.918	6982
635.980	9299
636.041	8582
636.102	10172
636.164	9817
636.225	10638
636.286	6116
636.348	7838
636.409	7675
636.470	6324
636.531	6827
636.593	6461
636.654	6441
636.715	6178
636.776	5636
636.838	4676
636.899	5502
636.960	5139
637.021	5284
637.082	5316
637.143	6222
637.204	4686
637.265	5392
637.326	5864
637.387	5963
637.448	3974
637.509	6036
637.570	4852
637.631	6104
637.692	3725
637.753	3171
637.814	5766
637.875	4951
637.936	5788
637.997	4795
638.058	4737
638.119	5627
638.179	5215
638.240	5128
638.301	4813
638.362	4066
638.423	4680
638.483	6269
638.544	4234
638.605	5472
638.666	4140
638.726	5145
638.787	5062
638.848	4370
638.908	5307
638.969	5434
639.030	5279
639.090	4119
639.151	4338
639.211	6680
639.272	9217
639.332	16257
639.393	8340
639.453	4165
639.514	5368
639.574	5133
639.635	5122
639.695	5427
639.756	4932
639.816	6506
639.877	8040
639.937	16810
639.997	20995
640.058	5411
640.118	4426
640.178	5816
640.239	4574
640.299	4130
640.359	4201
640.420	4494
640.480	5828
640.540	5595
640.600	5216
640.661	6461
640.721	5402
640.781	9408
640.841	4149
640.901	5363
640.961	5069
641.021	5983
641.082	6915
641.142	11940
641.202	7589
641.262	2652
641.322	4931
641.382	3533
641.442	4282
641.502	4021
641.562	4401
641.622	4172
641.682	4409
641.742	5020
641.802	4510
641.861	6126
641.921	5952
641.981	6873
642.041	6757
642.101	8470
642.161	4290
642.221	3905
642.280	4673
642.340	3888
642.400	3034
642.460	4653
642.519	4166
642.579	2909
642.639	5067
642.698	1248
642.758	5998
642.818	4114
642.877	3606
642.937	3880
642.997	7082
643.056	10795
643.116	4232
643.175	5841
643.235	4428
643.294	4003
643.354	4915
643.414	6142
643.473	6811
643.532	6526
643.592	9651
643.651	16932
643.711	30185
643.770	58782
643.830	144740
643.889	307673
643.948	66500
644.008	12482
644.067	6997
644.126	5437
644.186	5308
644.245	5788
644.304	3316
644.363	6195
644.423	2664
644.482	4425
644.541	4987
644.600	2109
644.659	6970
644.719	5684
644.778	9046
644.837	14841
644.896	31239
644.955	70269
645.014	22321
645.073	6039
645.132	4280
645.191	4978
645.250	4272
645.309	4966
645.368	4640
645.427	7295
645.486	8480
645.545	13697
645.604	4953
645.663	3973
645.722	4362
645.781	4779
645.840	6472
645.898	6505
645.957	11003
646.016	14485
646.075	27671
646.134	53757
646.192	147611
646.251	217085
646.310	28226
646.369	7954
646.427	6921
646.486	4401
646.545	3655
646.603	4518
646.662	4892
646.721	4015
646.779	3480
646.838	3299
646.896	6042
646.955	5923
647.014	9435
647.072	16544
647.131	44659
647.189	21605
647.248	4030
647.306	3949
647.365	3712
647.423	1708
647.481	4690
647.540	1366
647.598	3195
647.657	3089
647.715	2914
647.773	1615
647.832	3279
647.890	1579
647.948	2067
648.007	2988
648.065	2084
648.123	2587
648.181	3943
648.240	3631
648.298	2682
648.356	2524
648.414	3594
648.472	4096
648.531	3556
648.589	3392
648.647	2273
648.705	2786
648.763	2501
648.821	3434
648.879	3021
648.937	4179
648.995	4030
649.053	4882
649.111	7966
649.169	12999
649.227	21592
649.285	45081
649.343	129629
649.401	62314
649.459	26473
649.516	16013
649.574	6161
649.632	9935
649.690	9723
649.748	6158
649.806	6792
649.863	13570
649.921	32505
649.979	19628
650.037	4797
650.094	1505
650.152	4091
650.210	2540
650.268	2564
650.325	1923
650.383	2087
650.440	1889
650.498	2822
650.556	2005
650.613	1258
650.671	1564
650.728	2472
650.786	2490
650.843	2679
650.901	532
650.958	2856
651.016	2013
651.073	2263
651.131	1363
651.188	1943
651.246	1846
651.303	1533
651.360	1448
651.418	1611
651.475	2283
651.532	1185
651.590	1682
651.647	1069
651.704	1419
651.762	1637
651.819	2836
651.876	1667
651.933	1872
651.990	1999
652.048	424
652.105	1011
652.162	1116
652.219	1232
652.276	2012
652.333	1909
652.390	949
652.448	1500
652.505	1825
652.562	1418
652.619	1545
652.676	2299
652.733	3024
652.790	1769
652.847	1055
652.904	1794
652.961	668
653.017	1321
653.074	2167
653.131	2142
653.188	401
653.245	1891
653.302	2005
653.359	1831
653.415	1935
653.472	1518
653.529	2409
653.586	825
653.642	1149
653.699	2506
653.756	448
653.813	1447
653.869	1205
653.926	756
653.983	1472
654.039	2800
654.096	1346
654.152	2502
654.209	647
654.266	2048
654.322	757
654.379	2690
654.435	2824
654.492	2796
654.548	4129
654.605	7130
654.661	3922
654.717	2429
654.774	2470
654.830	2222
654.887	1995
654.943	2161
655.000	1909
655.056	1630
655.112	1837
655.168	748
655.225	1863
655.281	2001
655.337	3048
655.394	4182
655.450	3139
655.506	3042
655.562	4203
655.618	4659
655.675	1384
655.731	2283
655.787	2169
655.843	3574
655.899	2100
655.955	3000
656.011	4086
656.067	3388
656.123	4196
656.179	4423
656.235	6573
656.291	4485
656.347	4408
656.403	3511
656.459	4833
656.515	2602
656.571	3520
656.627	2567
656.683	2110
656.739	2964
656.795	3019
656.850	2794
656.906	4226
656.962	3152
657.018	1698
657.074	2622
657.129	2731
657.185	3227
657.241	3682
657.297	2626
657.352	1842
657.408	2671
657.464	2549
657.519	1665
657.575	337
657.630	1718
657.686	1848
657.742	1092
657.797	1283
657.853	1676
657.908	1682
657.964	1668
658.019	2094
658.075	1904
658.130	2170
658.186	293
658.241	1358
658.297	1052
658.352	1253
658.407	2115
658.463	938
658.518	1963
658.573	955
658.629	205
658.684	1259
658.739	2323
658.795	1076
658.850	729
658.905	117
658.960	1167
659.016	713
659.071	1558
659.126	2294
659.181	2705
659.236	5370
659.291	6354
659.346	2618
659.401	2679
659.457	1692
659.512	1594
659.567	2474
659.622	1417
659.677	1616
659.732	460
659.787	1858
659.842	1039
659.897	2544
659.952	1688
660.007	1239
660.061	1628
660.116	1120
660.171	1903
660.226	892
660.281	2569
660.336	947
660.391	1720
660.445	900
660.500	1780
660.555	1593
660.610	759
660.664	1916
660.719	1838
660.774	1489
660.828	1867
660.883	1210
660.938	2460
660.992	723
661.047	2389
661.101	932
661.156	1274
661.211	928
661.265	1742
661.320	286
661.374	1332
661.429	1032
661.483	1993
661.538	676
661.592	1166
661.647	1657
661.701	1853
661.755	1583
661.810	1925
661.864	916
661.919	1483
661.973	2202
662.027	1007
662.081	1140
662.136	1319
662.190	1272
662.244	1489
662.299	1334
662.353	1723
662.407	1055
662.461	1604
662.515	1724
662.569	450
662.624	2682
662.678	1325
662.732	1148
662.786	358
662.840	2208
662.894	1979
662.948	959
663.002	1430
663.056	1693
663.110	982
663.164	1971
663.218	1415
663.272	1499
663.326	2257
663.380	2167
663.434	1987
663.488	577
663.542	1545
663.595	1522
663.649	1240
663.703	2351
663.757	2055
663.811	1026
663.864	1695
663.918	1712
663.972	1342
664.026	1783
664.079	1421
664.133	2179
664.187	1246
664.240	1662
664.294	1939
664.348	1643
664.401	1790
664.455	1255
664.508	1006
664.562	1310
664.615	1760
664.669	1604
664.722	1290
664.776	1067
664.829	1865
664.883	1156
664.936	1617
664.990	2642
665.043	1572
665.097	1339
665.150	2674
665.203	974
665.257	1385
665.310	1607
665.363	1747
665.417	1667
665.470	1796
665.523	1275
665.576	1866
665.630	1360
665.683	2135
665.736	2442
665.789	1811
665.842	1284
665.895	1828
665.949	1867
666.002	1639
666.055	1646
666.108	2280
666.161	1499
666.214	2820
666.267	2374
666.320	2104
666.373	1744
666.426	1772
666.479	927
666.532	1733
666.585	2014
666.638	2171
666.691	1836
666.744	2651
666.796	1774
666.849	1780
666.902	2606
666.955	1853
667.008	1309
667.060	1284
667.113	1390
667.166	1503
667.219	2122
667.271	1967
667.324	1698
667.377	1772
667.430	1570
667.482	1439
667.535	1418
667.587	2386
667.640	2167
667.693	2985
667.745	6120
667.798	7308
667.850	2431
667.903	1941
667.955	2003
668.008	1846
668.060	2047
668.113	2029
668.165	1905
668.218	2590
668.270	2197
668.322	1224
668.375	2046
668.427	2481
668.479	2071
668.532	2508
668.584	1909
668.636	2307
668.689	1550
668.741	1842
668.793	2076
668.845	1591
668.898	2420
668.950	2145
669.002	2162
669.054	1941
669.106	1749
669.158	2531
669.211	2426
669.263	2130
669.315	1373
669.367	2535
669.419	2076
669.471	2725
669.523	2958
669.575	3492
669.627	2545
669.679	2086
669.731	1828
669.783	2774
669.835	1706
669.886	2545
669.938	1617
669.990	2675
670.042	1182
670.094	2047
670.146	1479
670.197	2227
670.249	2042
670.301	3093
670.353	3587
670.404	3455
670.456	3656
670.508	6339
670.560	8044
670.611	12528
670.663	21189
670.715	53730
670.766	94392
670.818	31650
670.869	5820
670.921	3941
670.972	3474
671.024	2843
671.075	2795
671.127	2423
671.178	1285
671.230	2812
671.281	2392
671.333	2221
671.384	2287
671.436	3060
671.487	3114
671.538	3927
671.590	4647
671.641	7156
671.692	11655
671.744	22972
671.795	14278
671.846	5294
671.897	3204
671.949	2385
672.000	2808
672.051	2009
672.102	2646
672.153	2531
672.204	1902
672.256	2571
672.307	3418
672.358	2989
672.409	2305
672.460	2244
672.511	1215
672.562	2392
672.613	2351
672.664	2042
672.715	1565
672.766	2872
672.817	1942
672.868	2091
672.919	2124
672.970	1893
673.021	1506
673.071	933
673.122	2650
673.173	2443
673.224	2021
673.275	2075
673.326	2453
673.376	1835
673.427	2341
673.478	2547
673.528	2220
673.579	2468
673.630	1110
673.680	2299
673.731	1747
673.782	2451
673.832	2383
673.883	2195
673.934	1682
673.984	1682
674.035	2238
674.085	2625
674.136	2105
674.186	1799
674.237	2335
674.287	3913
674.338	3070
674.388	2185
674.438	1450
674.489	1688
674.539	2786
674.589	2102
674.640	2455
674.690	1801
674.740	2047
674.791	2841
674.841	2509
674.891	1857
674.942	2558
674.992	2282
675.042	1947
675.092	1615
675.142	1685
675.193	1567
675.243	1951
675.293	2419
675.343	1966
675.393	1550
675.443	2383
675.493	2298
675.543	1905
675.593	2830
675.643	2281
675.693	2236
675.743	2647
675.793	2275
675.843	1859
675.893	2024
675.943	2140
675.993	1672
676.043	2113
676.093	1805
676.142	2102
676.192	1751
676.242	1781
676.292	1040
676.341	1210
676.391	1272
676.441	2073
676.491	1385
676.540	1782
676.590	1610
676.640	2183
676.689	1335
676.739	825
676.789	2453
676.838	2209
676.888	1128
676.937	1325
676.987	1303
677.037	1451
677.086	1469
677.136	1585
677.185	2247
677.235	1684
677.284	1772
677.333	1846
677.383	1474
677.432	1015
677.482	1639
677.531	1843
677.580	2301
677.630	1780
677.679	1543
677.728	2348
677.778	2231
677.827	1167
677.876	1542
677.925	1716
677.975	807
678.024	1708
678.073	2192
678.122	3273
678.171	1328
678.220	1416
678.269	2910
678.319	2637
678.368	1861
678.417	1251
678.466	1728
678.515	2041
678.564	2307
678.613	1523
678.662	1592
678.711	1767
678.760	1048
678.809	1625
678.857	1383
678.906	1944
678.955	736
679.004	1529
679.053	1562
679.102	1250
679.151	2586
679.199	1410
679.248	2002
679.297	956
679.346	2255
679.394	1403
679.443	1387
679.492	557
679.540	1657
679.589	2226
679.638	1448
679.686	1323
679.735	1605
679.784	1200
679.832	2081
679.881	1469
679.929	1174
679.978	710
680.026	1419
680.075	1426
680.123	1504
680.172	1086
680.220	799
680.268	1486
680.317	1190
680.365	1004
680.414	1063
680.462	1301
680.510	1771
680.559	502
680.607	1036
680.655	1347
680.703	1095
680.752	1618
680.800	697
680.848	492
680.896	1188
680.945	1078
680.993	1208
681.041	1343
681.089	1112
681.137	880
681.185	522
681.233	819
681.258	867
681.281	890
681.329	1369
681.377	1104
681.380	1158
681.425	1695
681.473	1969
681.502	1974
681.521	1935
681.569	1572
681.617	918
681.624	1000
681.665	1360
681.713	1878
681.745	1468
681.761	1239
681.809	1865
681.857	2058
681.867	1983
681.904	1635
681.952	1987
681.989	1947
682.000	1902
682.048	1872
682.096	1157
682.111	1439
682.143	1977
682.191	1764
682.233	3178
682.239	3373
682.286	1982
682.334	1706
682.354	1821
682.382	1910
682.430	2301
682.476	2614
682.477	2600
682.525	1914
682.572	1927
682.598	2105
682.620	2251
682.667	2678
682.715	2695
682.720	2637
682.763	1890
682.810	2937
682.841	2930
682.857	2889
682.905	3160
682.952	2735
682.963	2953
683.000	3611
683.047	2673
683.085	3039
683.095	3123
683.142	3468
683.190	2566
683.206	2689
683.237	2873
683.284	3299
683.328	3170
683.332	3138
683.379	3503
683.426	2633
683.449	2801
683.473	3023
683.521	2592
683.568	3608
683.571	3608
683.615	3203
683.662	3382
683.693	2959
683.709	2710
683.757	3590
683.804	3622
683.814	3573
683.851	3396
683.898	4380
683.936	4451
683.945	4456
683.992	4321
684.039	3910
684.057	3940
684.086	3908
684.133	4195
684.179	4394
684.180	4386
684.227	4984
684.274	4111
684.300	4396
684.321	4581
684.368	4289
684.415	4487
684.422	4419
684.462	3941
684.509	4663
684.543	4536
684.556	4484
684.603	4263
684.649	4235
684.665	4422
684.696	4793
684.743	4737
684.786	4361
684.790	4320
684.837	3772
684.883	5358
684.908	5312
684.930	5262
684.977	5117
685.023	5291
685.029	5283
685.070	5069
685.117	4824
685.150	5210
685.164	5365
685.210	4895
685.257	5834
685.272	5909
685.303	5979
685.350	5430
685.393	5380
685.396	5374
685.443	5396
685.490	6315
685.514	6111
685.536	5880
685.583	6216
685.629	5552
685.636	5647
685.675	6097
685.722	6104
685.757	5824
685.768	5753
685.815	6208
685.861	5942
685.878	6046
685.908	6111
685.954	5761
686.000	6009
686.000	6010
686.047	5988
686.093	6155
686.121	6375
686.139	6481
686.185	6525
686.232	6287
686.242	6290
686.278	6135
686.324	6377
686.363	5599
686.370	5502
686.416	6169
686.463	6232
686.484	6374
686.509	6447
686.555	5920
686.601	5794
686.606	5830
686.647	6186
686.693	6027
686.727	6220
686.739	6291
686.785	6904
686.831	6576
686.848	6507
686.877	6305
686.923	6167
686.969	5963
686.969	5961
687.015	6095
687.061	6258
687.090	6490
687.107	6565
687.153	6697
687.199	6300
687.211	6123
687.245	5785
687.291	6266
687.332	6729
687.336	6778
687.382	6791
687.428	6582
687.453	6968
687.474	7128
687.520	6565
687.565	6811
687.574	6634
687.611	6289
687.657	6777
687.695	7154
687.702	7211
687.748	7553
687.794	7924
687.816	7783
687.839	7480
687.885	7397
687.931	6886
687.937	6882
687.976	7057
688.022	7070
688.058	7322
688.067	7385
688.113	7432
688.158	6998
688.179	7360
688.204	7719
688.249	7072
688.295	7188
688.300	7205
688.340	7624
688.386	7978
688.421	7732
688.431	7616
688.477	8197
688.522	7649
688.542	7661
688.567	7770
688.613	8035
688.658	7508
688.663	7570
688.703	7936
688.749	7626
688.784	7524
688.794	7562
688.839	7650
688.884	7889
688.905	8202
688.930	8417
688.975	7903
689.020	7336
689.026	7430
689.065	8347
689.110	7773
689.146	7640
689.155	7599
689.201	8110
689.246	7659
689.267	7748
689.291	7833
689.336	7582
689.381	7641
689.388	7631
689.426	7731
689.471	7708
689.509	7610
689.516	7597
689.561	8076
689.606	7686
689.630	7838
689.651	8010
689.696	8049
689.741	8378
689.750	8405
689.785	8530
689.830	8405
689.871	8363
689.875	8349
689.920	8151
689.965	7904
689.992	7760
690.010	7811
690.054	8080
690.099	8407
690.112	8425
690.144	8388
690.189	8262
690.233	8010
690.233	8021
690.278	8310
690.323	8351
690.354	8683
690.367	8759
690.412	8230
690.457	8362
690.474	8529
690.501	8900
690.546	8778
690.590	8313
690.595	8304
690.635	8280
690.680	7920
690.716	7934
690.724	7996
690.769	8158
690.813	8798
690.836	8902
690.857	8997
690.902	8642
690.946	8503
690.957	8624
690.991	9893
691.035	11209
691.077	12509
691.080	12515
691.124	11920
691.168	11291
691.198	11008
691.213	10934
691.257	10730
691.301	10018
691.318	9829
691.346	9572
691.390	9251
691.434	8600
691.439	8582
691.478	8938
691.522	9027
691.559	9078
691.567	9144
691.611	9529
691.655	9631
691.680	9598
691.699	9458
691.743	9666
691.787	9632
691.800	9505
691.831	9383
691.875	9679
691.919	9842
691.921	9822
691.964	9720
692.008	9838
692.041	9710
692.052	9686
692.096	9655
692.139	9886
692.162	9893
692.183	9897
692.227	9786
692.271	9207
692.282	9293
692.315	9993
692.359	10026
692.402	10803
692.403	10826
692.447	9943
692.490	10166
692.523	10087
692.534	10098
692.578	10273
692.622	9887
692.643	9877
692.666	9981
692.709	9903
692.753	10025
692.763	9982
692.797	9869
692.840	10055
692.884	9899
692.884	9920
692.928	10072
692.971	10387
693.004	10157
693.015	10080
693.059	10281
693.102	10657
693.124	10661
693.146	10725
693.189	10554
693.233	10529
693.245	10530
693.276	10565
693.320	10785
693.363	10536
693.365	10524
693.407	10773
693.450	10567
693.485	10620
693.493	10742
693.537	10889
693.580	11346
693.605	11607
693.624	11902
693.667	12020
693.710	12721
693.725	12883
693.753	14075
693.797	15786
693.840	17844
693.845	18022
693.883	17171
693.926	15820
693.966	14937
693.970	14815
694.013	13219
694.056	11718
694.086	10463
694.099	10519
694.142	10396
694.185	10757
694.206	10911
694.229	11146
694.272	11160
694.315	11664
694.326	11649
694.358	11736
694.401	12065
694.444	12486
694.446	12472
694.487	12270
694.530	11969
694.566	11533
694.573	11442
694.616	10873
694.659	10377
694.686	10088
694.702	10307
694.745	10820
694.787	11272
694.806	11379
694.830	11429
694.873	11495
694.916	11848
694.926	11830
694.959	11683
695.002	11644
695.044	11482
695.046	11446
695.087	11512
695.130	11782
695.166	11892
695.172	11926
695.215	11720
695.258	11799
695.286	11716
695.301	11630
695.343	11471
695.386	11147
695.406	10955
695.428	11008
695.471	11041
695.514	11276
695.526	11211
695.556	11085
695.599	11468
695.641	11164
695.646	11154
695.684	11229
695.726	11232
695.766	10964
695.769	10983
695.811	11008
695.854	10991
695.886	11055
695.896	11060
695.938	10717
695.981	10618
696.005	10393
696.023	10583
696.065	11145
696.108	11838
696.125	11991
696.150	12070
696.192	12274
696.235	12499
696.245	12506
696.277	12181
696.319	11611
696.361	11221
696.365	11157
696.404	11584
696.446	11859
696.485	12257
696.488	12300
696.530	12387
696.572	12365
696.604	12385
696.614	12340
696.656	12048
696.698	11759
696.724	11468
696.740	11556
696.783	11788
696.825	12065
696.844	12148
696.867	12241
696.909	12185
696.951	12384
696.964	12376
696.992	12313
697.034	12267
697.076	12014
697.083	11972
697.118	11986
697.160	11874
697.202	11759
697.203	11726
697.244	12118
697.286	12422
697.323	12676
697.327	12711
697.369	12671
697.411	12748
697.442	12700
697.453	12760
697.494	12842
697.536	12994
697.562	13066
697.578	13108
697.620	13046
697.661	13027
697.682	12972
697.703	13102
697.744	13354
697.786	13631
697.801	13650
697.828	13703
697.869	13752
697.911	13853
697.921	13832
697.952	13541
697.994	13119
698.035	12734
698.040	12654
698.077	12634
698.118	12486
698.160	12393
698.160	12359
698.201	12173
698.243	11961
698.279	11748
698.284	11810
698.325	12101
698.367	12345
698.399	12519
698.408	12603
698.449	12827
698.491	13049
698.518	13160
698.532	13162
698.573	13057
698.614	12951
698.638	12859
698.656	12963
698.697	13119
698.738	13267
698.757	13301
698.779	13236
698.820	13050
698.862	12851
698.877	12745
698.903	13178
698.944	13813
698.985	14446
698.996	14584
699.026	14245
699.067	13723
699.116	13065
699.235	13320
699.354	13419
699.474	12931
699.593	13796
699.713	13583
699.832	13724
699.951	14682
700.070	14482
700.190	13325
700.309	14408
700.428	12648
700.547	13072
700.667	12266
700.786	13011
700.905	12837
701.024	12987
701.143	11843
701.262	12264
701.381	12251
701.500	13027
701.619	14188
701.738	12444
701.857	12030
701.976	11738
702.095	11222
702.214	12880
702.333	13282
702.452	13063
702.571	12010
702.690	11923
702.809	11947
702.928	11310
703.047	11640
703.165	11639
703.284	11858
703.403	11319
703.522	12159
703.640	11707
703.759	12592
703.878	13631
703.997	11406
704.115	11234
704.234	10808
704.353	10587
704.471	11393
704.590	11366
704.708	10774
704.827	9960
704.946	11318
705.064	9555
705.183	11066
705.301	12057
705.420	14974
705.538	14576
705.656	12981
705.775	11952
705.893	14238
706.012	16811
706.130	12388
706.249	13043
706.367	12667
706.485	13402
706.604	13067
706.722	13480
706.840	14555
706.958	15393
707.077	13791
707.195	11502
707.313	12517
707.431	11455
707.549	11934
707.668	11253
707.786	11392
707.904	10503
708.022	11047
708.140	10822
708.258	10530
708.376	12180
708.494	10868
708.612	12320
708.730	15412
708.848	14801
708.966	14300
709.084	14010
709.202	12658
709.320	13115
709.438	12453
709.556	12346
709.674	11661
709.791	12051
709.909	12622
710.027	12076
710.145	12398
710.263	13100
710.380	11811
710.498	13175
710.616	12758
710.733	11970
710.851	12231
710.969	12999
711.086	12180
711.204	12582
711.322	12148
711.439	11105
711.557	11948
711.674	11862
711.792	12075
711.909	11137
712.027	12127
712.144	11632
712.262	11758
712.379	12458
712.497	16454
712.614	16121
712.732	13801
712.849	13456
712.966	14029
713.084	16247
713.201	14690
713.318	15073
713.436	13212
713.553	13433
713.670	14188
713.787	13821
713.905	14695
714.022	12981
714.139	13522
714.256	14716
714.373	15600
714.490	22477
714.608	43337
714.725	167011
714.842	169631
714.959	19007
715.076	13904
715.193	13023
715.310	12647
715.427	12350
715.544	12238
715.661	12434
715.778	12288
715.895	12596
716.011	12393
716.128	12977
716.245	12637
716.362	13591
716.479	13754
716.596	12791
716.713	11399
716.829	11327
716.946	11861
717.063	10423
717.180	10895
717.296	10305
717.413	11426
717.530	10824
717.646	11063
717.763	11074
717.880	9930
717.996	10262
718.113	11199
718.229	11129
718.346	9992
718.462	11072
718.579	12955
718.695	20321
718.812	14095
718.928	12464
719.045	10497
719.161	10180
719.277	9910
719.394	10125
719.510	9932
719.626	10722
719.743	12586
719.859	13532
719.975	17205
720.092	49001
720.208	106648
720.324	18282
720.440	10616
720.557	11793
720.673	16779
720.789	17495
720.905	23662
721.021	12475
721.137	9822
721.253	9933
721.369	9007
721.486	10717
721.602	11936
721.718	9923
721.834	8714
721.950	9286
722.066	8352
722.181	8840
722.297	8601
722.413	9138
722.529	9211
722.645	8865
722.761	8152
722.877	8233
722.993	7657
723.108	9113
723.224	8451
723.340	8185
723.456	8349
723.571	8634
723.687	7335
723.803	8467
723.918	8320
724.034	7871
724.150	8549
724.265	8212
724.381	11843
724.497	12802
724.612	7831
724.728	7588
724.843	8031
724.959	8202
725.074	11349
725.190	12472
725.305	8800
725.421	7842
725.536	7102
725.651	7247
725.767	7534
725.882	8484
725.997	7492
726.113	7733
726.228	6840
726.343	7874
726.459	7182
726.574	6818
726.689	5926
726.804	7004
726.920	7620
727.035	6147
727.150	7433
727.265	6969
727.380	7179
727.495	7349
727.610	6571
727.725	6045
727.841	6952
727.956	8631
728.071	8700
728.186	6555
728.301	6254
728.416	7544
728.531	6759
728.645	6201
728.760	7134
728.875	7900
728.990	6571
729.105	7026
729.220	7128
729.335	7306
729.449	5812
729.564	6627
729.679	6867
729.794	6659
729.908	5902
730.023	6710
730.138	6344
730.253	6470
730.367	6783
730.482	5782
730.596	5907
730.711	6927
730.826	7707
730.940	7228
731.055	7456
731.169	7033
731.284	5480
731.398	5629
731.513	7818
731.627	5984
731.742	6522
731.856	7021
731.970	6834
732.085	6763
732.199	7973
732.313	9739
732.428	19231
732.542	56385
732.656	33931
732.771	8354
732.885	7365
732.999	8058
733.113	6737
733.227	6886
733.342	6375
733.456	5773
733.570	6585
733.684	6424
733.798	6084
733.912	5015
734.026	5575
734.140	5820
734.254	6031
734.368	7643
734.482	9570
734.596	4913
734.710	6294
734.824	5745
734.938	5312
735.052	5528
735.166	6362
735.280	6419
735.393	5176
735.507	6205
735.621	6781
735.735	8643
735.849	6341
735.962	4982
736.076	6123
736.190	5281
736.303	6845
736.417	7220
736.531	4569
736.644	5994
736.758	4804
736.872	5020
736.985	6122
737.099	5422
737.212	5161
737.326	5009
737.439	5635
737.553	5464
737.666	5233
737.780	5123
737.893	5064
738.007	4675
738.120	4610
738.233	5151
738.347	5322
738.460	5409
738.573	5102
738.687	5144
738.800	6143
738.913	7283
739.026	5602
739.140	5759
739.253	4540
739.366	4449
739.479	4532
739.592	4462
739.705	4829
739.818	5149
739.932	4893
740.045	5369
740.158	5352
740.271	4102
740.384	3970
740.497	3998
740.610	4843
740.723	4475
740.836	5639
740.949	4837
741.062	7807
741.174	6284
741.287	4220
741.400	4265
741.513	5138
741.626	5804
741.739	5319
741.851	5017
741.964	4573
742.077	4836
742.189	5472
742.302	6981
742.415	5541
742.527	5272
742.640	5055
742.753	4821
742.865	4239
742.978	3872
743.090	4895
743.203	4473
743.316	3929
743.428	4116
743.541	4760
743.653	4081
743.766	4383
743.878	5240
743.990	5694
744.103	7298
744.215	8752
744.327	4803
744.440	6131
744.552	8845
744.664	4625
744.777	4528
744.889	4033
745.001	4842
745.113	3102
745.226	3594
745.338	4245
745.450	4219
745.562	3300
745.674	4104
745.786	4315
745.898	4265
746.010	3531
746.122	4190
746.234	4689
746.347	4082
746.459	3901
746.570	4463
746.682	7126
746.794	10489
746.906	5075
747.018	4103
747.130	4464
747.242	4465
747.354	2968
747.466	4469
747.577	3722
747.689	4503
747.801	3755
747.913	3897
748.024	3796
748.136	3665
748.248	4182
748.359	3691
748.471	3943
748.583	2207
748.694	4034
748.806	4217
748.918	4397
749.029	3790
749.141	5026
749.252	4416
749.364	5568
749.475	8575
749.587	4857
749.698	3756
749.809	3927
749.921	3529
750.032	3881
750.144	3297
750.255	3916
750.366	4287
750.478	4023
750.589	3462
750.700	3587
750.811	4523
750.923	5996
751.034	11191
751.145	9039
751.256	3454
751.367	4200
751.479	3496
751.590	2591
751.701	3187
751.812	3192
751.923	3427
752.034	3625
752.145	3526
752.256	2934
752.367	3162
752.478	2451
752.589	3576
752.700	3635
752.811	3694
752.922	3756
753.032	3844
753.143	4264
753.254	2796
753.365	3528
753.476	2878
753.586	3300
753.697	2814
753.808	3603
753.919	3239
754.029	3801
754.140	3359
754.251	3652
754.361	3070
754.472	3800
754.582	3106
754.693	2947
754.804	3101
754.914	2651
755.025	2804
755.135	2859
755.246	2687
755.356	3020
755.466	3995
755.577	2996
755.687	3310
755.798	3046
755.908	3726
756.018	3516
756.129	2980
756.239	2569
756.349	3849
756.460	2495
756.570	4394
756.680	4165
756.790	3725
756.900	4373
757.011	2600
757.121	2599
757.231	3341
757.341	2475
757.451	3467
757.561	2566
757.671	3174
757.781	2442
757.891	2716
758.001	2635
758.111	2914
758.221	3957
758.331	3664
758.441	4194
758.551	4772
758.661	4447
758.771	3647
758.880	3521
758.990	4231
759.100	2088
759.210	2574
759.320	3349
759.429	2583
759.539	3220
759.649	2964
759.758	4057
759.868	3192
759.978	3149
760.087	3379
760.197	3651
760.307	4144
760.416	3001
760.526	2542
760.635	3563
760.745	3367
760.854	3400
760.964	3981
761.073	2995
761.182	3669
761.292	3419
761.401	4430
761.511	2699
761.620	2949
761.729	2560
761.839	4191
761.948	3464
762.057	3833
762.166	3504
762.276	2382
762.385	4291
762.494	3788
762.603	4193
762.712	3353
762.822	3438
762.931	4211
763.040	2561
763.149	2766
763.258	3410
763.367	3534
763.476	3258
763.585	3081
763.694	3534
763.803	4211
763.912	3692
764.021	3924
764.130	4050
764.238	3722
764.347	4745
764.456	3147
764.565	3837
764.674	4332
764.783	4568
764.891	4364
765.000	5303
765.109	5450
765.217	4522
765.326	6714
765.435	6858
765.543	7830
765.652	8527
765.761	9969
765.869	13898
765.978	21189
766.086	34092
766.195	64027
766.303	150057
766.412	343050
766.520	296935
766.629	109930
766.737	44919
766.846	25773
766.954	16833
767.062	14367
767.171	10065
767.279	8999
767.387	7391
767.496	7768
767.604	6174
767.712	6081
767.820	5888
767.928	5422
768.037	3867
768.145	5923
768.253	5686
768.361	3412
768.469	4295
768.577	4439
768.685	5378
768.793	5624
768.901	5844
769.009	6077
769.117	6593
769.225	7728
769.333	9543
769.441	15268
769.549	25578
769.657	56018
769.765	162068
769.873	296331
769.981	129959
770.088	35920
770.196	17910
770.304	12984
770.412	9414
770.519	8463
770.627	6968
770.735	5989
770.842	4742
770.950	4915
771.058	5260
771.165	3753
771.273	4889
771.380	4659
771.488	4771
771.595	4260
771.703	4464
771.810	3875
771.918	3432
772.025	4431
772.133	3948
772.240	4883
772.348	4073
772.455	4590
772.562	3219
772.670	3723
772.777	3634
772.884	3293
772.991	4328
773.099	3865
773.206	4097
773.313	4207
773.420	4085
773.528	2811
773.635	3178
773.742	3149
773.849	4454
773.956	2821
774.063	3469
774.170	2746
774.277	4108
774.384	2855
774.491	3649
774.598	3181
774.705	3782
774.812	4576
774.919	4078
775.026	3272
775.133	3616
775.239	3800
775.346	3157
775.453	2851
775.560	2850
775.667	2795
775.773	2180
775.880	3560
775.987	2537
776.093	3436
776.200	2219
776.307	3343
776.413	3698
776.520	3180
776.627	3825
776.733	3606
776.840	2887
776.946	5883
777.053	9603
777.159	15639
777.266	8325
777.372	14360
777.478	10528
777.585	5074
777.691	2353
777.798	4089
777.904	3718
778.010	4880
778.117	4193
778.223	3780
778.329	2368
778.435	3032
778.542	3107
778.648	3012
778.754	3106
778.860	2821
778.966	3174
779.072	2366
779.178	2309
779.284	2762
779.391	2147
779.497	2224
779.603	4494
779.708	1877
779.815	5899
779.920	11355
780.026	21133
780.132	4439
780.238	2270
780.344	3803
780.450	2864
780.556	2550
780.661	2522
780.767	3109
780.873	2353
780.979	2504
781.085	2218
781.190	2908
781.296	2848
781.402	2276
781.507	2722
781.613	2572
781.719	1471
781.824	2873
781.930	3542
782.035	2520
782.141	2757
782.246	2671
782.352	2104
782.457	1956
782.563	2361
782.668	2460
782.773	2069
782.879	1790
782.984	2643
783.090	4727
783.195	4415
783.300	2786
783.405	2539
783.511	2659
783.616	2786
783.721	2452
783.826	3246
783.932	2704
784.037	2485
784.142	2731
784.247	1618
784.352	2845
784.457	1998
784.562	2843
784.667	2330
784.772	2455
784.877	2240
784.982	2722
785.087	2137
785.192	3487
785.297	1801
785.402	2228
785.507	1969
785.611	2335
785.716	2356
785.821	2642
785.926	2058
786.031	2525
786.135	1935
786.240	2730
786.345	1049
786.450	3127
786.554	1696
786.659	1502
786.763	571
786.868	2549
786.973	2919
787.077	2579
787.182	2149
787.286	2080
787.391	1866
787.495	2251
787.600	2961
787.704	1495
787.809	1982
787.913	1112
788.017	2106
788.122	1793
788.226	2335
788.330	1065
788.435	2313
788.539	1912
788.643	2114
788.747	2300
788.852	1864
788.956	2057
789.060	2362
789.164	2215
789.268	967
789.372	2284
789.476	1860
789.580	1489
789.684	1501
789.788	1490
789.892	1317
789.996	3195
790.100	1189
790.204	1653
790.308	2045
790.412	1611
790.516	2045
790.620	957
790.724	2468
790.828	1515
790.931	1293
791.035	3009
791.139	1656
791.242	435
791.346	2714
791.450	1453
791.554	1658
791.657	492
791.761	2291
791.864	2310
791.968	2451
792.072	2190
792.175	1694
792.279	2538
792.382	1655
792.486	2098
792.589	1640
792.693	1426
792.796	1510
792.899	2260
793.003	1989
793.106	310
793.209	1786
793.313	2661
793.416	685
793.519	2576
793.623	3901
793.726	4571
793.829	1675
793.932	2086
794.035	952
794.138	2560
794.242	2427
794.345	2075
794.448	2778
794.551	4479
794.654	7953
794.757	11610
794.860	3678
794.963	3023
795.066	1348
795.169	2290
795.272	761
795.375	2186
795.477	1066
795.580	1898
795.683	809
795.786	1842
795.889	106
795.991	2492
796.094	2983
796.197	-147
796.300	2957
796.402	779
796.505	1015
796.608	1159
796.710	1444
796.813	1292
796.915	1074
797.018	986
797.120	2469
797.223	524
797.326	2876
797.428	1328
797.530	848
797.633	822
797.735	2520
797.838	1965
797.940	2453
798.042	682
798.145	872
798.247	2191
798.349	235
798.452	1205
798.554	1181
798.656	-26
798.758	2268
798.860	798
798.962	477
799.065	743
799.167	317
799.269	1984
799.371	2459
799.473	2098
799.575	884
799.677	1753
799.779	3752
799.881	1798
799.983	1920
800.085	1603
800.187	1187
800.289	688
800.390	1177
800.492	1600
800.594	1991
800.696	1155
800.798	1862
800.899	819
801.001	1087
801.103	1117
801.205	1257
801.306	1487
801.408	435
801.509	1225
801.611	1096
801.713	1147
801.814	-70
801.916	1190
802.017	712
802.119	912
802.220	1477
802.322	-3
802.423	2169
802.525	-434
802.626	1462
802.727	1031
802.829	1933
802.930	-676
803.031	2294
803.133	666
803.234	1174
803.335	1561
803.436	-186
803.538	766
803.639	166
803.740	1736
803.841	1105
803.942	1314
804.043	1969
804.144	776
804.245	697
804.346	1080
804.447	971
804.548	2077
804.649	3249
804.750	861
804.851	237
804.952	10
805.053	1309
805.154	544
805.255	2505
805.355	1835
805.456	540
805.557	245
805.658	514
805.758	1574
805.859	259
805.960	948
806.061	23
806.161	418
806.262	987
806.362	2121
806.463	1593
806.564	945
806.664	1181
806.765	1376
806.865	809
806.966	820
807.066	1116
807.166	1075
807.267	1150
807.367	527
807.468	1521
807.568	-414
807.668	1222
807.769	2482
807.869	531
807.969	220
808.069	1282
808.170	1472
808.270	629
808.370	1565
808.470	1901
808.570	768
808.670	935
808.770	730
808.870	408
808.970	1309
809.070	170
809.170	515
809.271	1870
809.370	96
809.470	908
809.570	741
809.670	314
809.770	1228
809.870	1559
809.970	1197
810.070	1061
810.169	1472
810.269	-358
810.369	1531
810.469	1227
810.568	559
810.668	629
810.768	489
810.867	836
810.967	591
811.066	1278
811.166	-58
811.265	1376
811.365	921
811.464	683
811.564	712
811.663	1241
811.763	-1147
811.862	1592
811.962	1882
812.061	718
812.160	953
812.260	571
812.359	1027
812.458	231
812.557	1978
812.657	445
812.756	1107
812.855	620
812.954	252
813.053	1173
813.153	1022
813.252	-49
813.351	960
813.450	1063
813.549	471
813.648	367
813.747	4
813.846	244
813.945	792
814.044	532
814.143	845
814.242	989
814.341	-921
814.439	1147
814.538	319
814.637	140
814.736	-87
814.835	1382
814.933	372
815.032	1680
815.131	1015
815.229	424
815.328	1780
815.427	1187
815.525	2311
815.624	467
815.722	780
815.821	1449
815.919	893
816.018	515
816.116	2385
816.215	314
816.313	1913
816.412	895
816.510	1361
816.609	2200
816.707	1802
816.805	1245
816.904	1162
817.002	611
817.100	2068
817.198	1551
817.296	897
817.395	1226
817.493	2652
817.591	1228
817.689	2575
817.787	2233
817.885	3429
817.983	6008
818.081	12066
818.179	31671
818.277	84780
818.375	61697
818.473	12316
818.571	5408
818.669	4317
818.767	4351
818.865	2929
818.963	4486
819.061	6150
819.158	10279
819.256	25557
819.354	63841
819.452	146924
819.549	76454
819.647	15455
819.745	6055
819.842	4073
819.940	3379
820.038	2567
820.135	2021
820.233	2757
820.330	1718
820.428	1650
820.525	1631
820.623	845
820.720	1756
820.818	1718
820.915	2397
821.012	2011
821.110	455
821.207	1333
821.304	1506
821.402	1839
821.499	4387
821.596	5549
821.693	2507
821.791	2470
821.888	2969
821.985	5401
822.082	2300
822.179	3098
822.276	2130
822.373	1282
822.470	1103
822.567	1555
822.664	684
822.761	1797
822.858	-452
822.955	1339
823.052	1546
823.149	335
823.246	607
823.343	1556
823.440	1403
823.536	778
823.633	972
823.730	1661
823.827	928
823.923	1455
824.020	1818
824.117	1972
824.213	1744
824.310	1633
824.407	833
824.503	570
824.600	723
824.696	681
824.793	1410
824.889	338
824.986	815
825.082	1037
825.179	1179
825.275	883
825.371	1158
825.468	1970
825.564	398
825.660	1505
825.757	1288
825.853	1780
825.949	144
826.045	1009
826.142	251
826.238	492
826.334	1237
826.430	19
826.526	815
826.622	580
826.718	832
826.814	-114
826.910	912
827.006	293
827.102	210
827.198	1003
827.294	493
827.390	380
827.486	1063
827.582	-743
827.678	289
827.774	709
827.869	-854
827.965	1944
828.061	329
828.157	1341
828.252	645
828.348	18
828.444	1712
828.539	-52
828.635	1013
828.731	2039
828.826	95
828.922	897
829.017	738
829.113	909
829.208	806
829.304	471
829.399	1912
829.495	496
829.590	900
829.685	52
829.781	937
829.876	474
829.971	739
830.066	-163
830.162	632
830.257	359
830.352	763
830.447	785
830.543	1159
830.638	-107
830.733	1317
830.828	875
830.923	1301
831.018	678
831.113	577
831.208	162
831.303	395
831.398	593
831.493	673
831.588	1100
831.683	-433
831.778	904
831.873	341
831.967	966
832.062	-205
832.157	-464
832.252	924
832.346	1022
832.441	1710
832.536	2117
832.631	4872
832.725	3678
832.820	684
832.914	1144
833.009	822
833.104	1347
833.198	1376
833.293	731
833.387	1253
833.482	-428
833.576	361
833.670	459
833.765	504
833.859	353
833.954	1161
834.048	767
834.142	207
834.237	127
834.331	728
834.425	731
834.519	424
834.613	1395
834.708	568
834.802	284
834.896	-83
834.990	-68
835.084	1112
835.178	235
835.272	410
835.366	-185
835.460	1072
835.554	288
835.648	298
835.742	306
835.836	644
835.930	18
836.024	1182
836.117	1203
836.211	366
836.305	794
836.399	733
836.493	-216
836.586	919
836.680	-83
836.774	11
836.867	932
836.961	220
837.055	218
837.148	1244
837.242	614
837.335	138
837.429	1745
837.522	229
837.616	1508
837.709	1501
837.803	1416
837.896	580
837.989	526
838.083	1074
838.176	1897
838.269	632
838.363	622
838.456	46
838.549	1994
838.642	3039
838.735	6172
838.829	2381
838.922	227
839.015	1105
839.108	-1149
839.201	1014
839.294	230
839.387	712
839.480	389
839.573	679
839.666	1140
839.759	260
839.852	263
839.945	1236
840.038	-1115
840.131	360
840.223	621
840.316	684
840.409	648
840.502	-451
840.594	1358
840.687	41
840.780	206
840.873	443
840.965	132
841.058	853
841.150	1424
841.243	595
841.336	1619
841.428	-71
841.521	35
841.613	-149
841.706	628
841.798	373
841.890	396
841.983	-412
842.075	1075
842.167	247
842.260	661
842.352	1111
842.444	736
842.537	2136
842.629	2456
842.721	519
842.813	975
842.905	285
842.997	387
843.090	741
843.182	1477
843.274	1717
843.366	5686
843.458	7239
843.550	4428
843.642	712
843.734	-59
843.826	462
843.918	1077
844.009	1504
844.101	680
844.193	227
844.285	255
844.377	846
844.469	2571
844.560	2883
844.652	1277
844.744	783
844.835	921
844.927	1441
845.019	708
845.110	536
845.202	348
845.293	660
845.385	53
845.476	252
845.568	319
845.659	-12
845.751	898
845.842	526
845.934	131
846.025	773
846.116	-120
846.208	300
846.299	-455
846.390	1074
846.482	1196
846.573	1350
846.664	1433
846.755	1348
846.846	2274
846.937	-566
847.029	-123
847.120	-469
847.211	-627
847.302	2052
847.393	-1153
847.484	662
847.575	39
847.666	91
847.757	30
847.847	735
847.938	1163
848.029	-227
848.120	242
848.211	877
848.302	250
848.392	404
848.483	514
848.574	33
848.664	205
848.755	632
848.846	1080
848.936	-203
849.027	31
849.118	301
849.208	379
849.299	1413
849.389	1348
849.480	2799
849.570	4917
849.661	9016
849.751	15306
849.841	4366
849.932	634
850.022	-11
850.112	589
850.203	-58
850.293	665
850.383	-230
850.474	-605
850.564	-5
850.654	609
850.744	-400
850.834	483
850.924	284
851.014	715
851.104	749
851.194	226
851.284	206
851.374	1367
851.464	570
851.554	1246
851.644	682
851.734	1229
851.824	269
851.914	222
852.004	247
852.094	773
852.183	600
852.273	622
852.363	-29
852.452	-137
852.542	-54
852.632	211
852.721	769
852.811	-114
852.901	281
852.990	153
853.080	462
853.169	878
853.259	407
853.348	140
853.438	742
853.527	1810
853.617	1509
853.706	4023
853.795	6441
853.885	15772
853.974	29706
854.063	55244
854.152	81200
854.242	26399
854.331	3144
854.420	1473
854.509	844
854.598	298
854.687	1266
854.777	728
854.866	516
854.955	670
855.044	758
855.133	545
855.222	1100
855.311	222
855.400	246
855.488	183
855.577	277
855.666	381
855.755	1339
855.844	599
855.933	433
856.021	321
856.110	8
856.199	-417
856.288	90
856.376	15
856.465	237
856.554	560
856.642	681
856.731	1104
856.819	372
856.908	-136
856.996	122
857.085	319
857.173	590
857.262	-44
857.350	1061
857.438	385
857.527	493
857.615	499
857.703	194
857.792	-618
857.880	196
857.968	-10
858.056	-679
858.145	738
858.233	-205
858.321	-61
858.409	570
858.497	-204
858.585	334
858.673	993
858.761	110
858.849	-275
858.937	862
859.025	817
859.113	1296
859.201	118
859.289	976
859.377	367
859.465	601
859.552	-380
859.640	441
859.728	337
859.816	161
859.903	678
859.991	549
860.079	988
860.166	-533
860.254	-270
860.342	206
860.429	-619
860.517	-89
860.604	1143
860.692	-136
860.779	-365
860.867	-135
860.954	-13
861.042	565
861.129	598
861.216	481
861.304	-237
861.391	841
861.478	748
861.565	-220
861.653	772
861.740	-689
861.827	157
861.914	52
862.001	431
862.089	-361
862.176	-31
862.263	-28
862.350	406
862.437	115
862.524	127
862.611	583
862.698	1608
862.785	1040
862.871	829
862.958	416
863.045	-45
863.132	398
863.219	-362
863.306	19
863.392	371
863.479	21
863.566	513
863.652	229
863.739	-445
863.826	30
863.912	12
863.999	-288
864.086	-247
864.172	-103
864.259	-143
864.345	-32
864.432	-639
864.518	-315
864.604	-237
864.691	-69
864.777	-266
864.863	758
864.950	415
865.036	-531
865.122	758
865.209	2018
865.295	1343
865.381	1151
865.467	1502
865.553	2514
865.639	1906
865.726	3599
865.812	7747
865.898	14949
865.984	21607
866.070	44409
866.156	43041
866.242	9527
866.328	3430
866.414	554
866.499	1257
866.585	876
866.671	603
866.757	809
866.843	604
866.928	945
867.014	932
867.100	1305
867.186	1314
867.271	1481
867.357	1986
867.442	1833
867.528	987
867.614	1099
867.699	1449
867.785	1949
867.870	2450
867.956	2596
868.041	1756
868.127	1796
868.212	2395
868.297	2607
868.383	1598
868.468	2878
868.553	3483
868.639	3618
868.724	7578
868.809	6444
868.894	1097
868.979	503
869.065	1083
869.150	147
869.235	-11
869.320	373
869.405	136
869.490	785
869.575	490
869.660	350
869.745	1325
869.830	369
869.915	1155
870.000	1030
870.085	1079
870.169	1873
870.254	926
870.339	525
870.424	-330
870.509	540
870.593	-220
870.678	579
870.763	997
870.847	855
870.932	441
871.016	596
871.101	622
871.186	56
871.270	613
871.355	512
871.439	1025
871.523	74
871.608	590
871.692	513
871.777	1913
871.861	459
871.945	836
872.030	1130
872.114	344
872.198	842
872.282	349
872.367	594
872.451	115
872.535	153
872.619	339
872.703	183
872.787	-592
872.871	-177
872.955	-885
873.039	-521
873.123	51
873.207	678
873.291	169
873.375	-345
873.459	-482
873.543	352
873.627	-359
873.711	277
873.794	717
873.878	-793
873.962	-479
874.045	-26
874.129	285
874.137	206
874.213	-583
874.245	-258
874.296	268
874.352	212
874.380	184
874.460	696
874.464	716
874.547	508
874.568	438
874.631	243
874.676	336
874.714	397
874.784	928
874.798	1033
874.881	788
874.892	664
874.965	-105
874.999	345
875.048	891
875.107	55
875.131	-278
875.215	142
875.215	142
875.298	224
875.323	296
875.381	550
875.430	664
875.465	695
875.538	496
875.548	473
875.631	489
875.646	361
875.714	-334
875.753	-323
875.798	-260
875.861	126
875.881	247
875.964	497
875.968	517
876.047	921
876.076	878
876.130	718
876.183	1068
876.213	1306
876.291	1019
876.296	991
876.379	-112
876.398	-104
876.462	-22
876.506	108
876.545	224
876.613	308
876.628	317
876.711	505
876.721	523
876.794	691
876.828	433
876.877	129
876.935	263
876.960	335
877.043	1032
877.043	1031
877.125	737
877.150	849
877.208	1195
877.258	656
877.291	332
877.365	638
877.374	664
877.456	727
877.472	655
877.539	351
877.579	380
877.622	370
877.687	122
877.704	106
877.787	942
877.794	890
877.869	312
877.901	650
877.952	1071
878.008	558
878.034	399
878.115	517
878.117	521
878.199	386
878.222	406
878.282	612
878.329	1023
878.364	1066
878.437	881
878.447	903
878.529	525
878.544	547
878.611	694
878.651	813
878.694	977
878.758	1143
878.776	1177
878.858	495
878.865	553
878.941	1095
878.972	1020
879.023	1100
879.078	1248
879.105	1378
879.185	1685
879.187	1687
879.269	1579
879.292	1477
879.351	1133
879.399	687
879.433	462
879.506	904
879.516	969
879.598	820
879.613	863
879.680	1097
879.720	1424
879.762	1758
879.827	1020
879.844	821
879.926	1351
879.933	1338
880.007	1283
880.040	1257
880.089	1194
880.147	1541
880.171	1865
880.253	3215
880.254	3215
880.335	3765
880.360	4060
880.417	5508
880.467	8123
880.499	10249
880.574	12167
880.580	11787
880.662	4914
880.680	3721
880.744	2088
880.787	1597
880.825	1479
880.893	1216
880.907	1221
880.989	1307
881.000	1327
881.070	1598
881.106	1382
881.152	969
881.213	841
881.233	898
881.315	1370
881.319	1400
881.396	1750
881.426	1554
881.478	1153
881.532	1214
881.559	1382
881.639	1616
881.641	1616
881.722	1120
881.745	1154
881.803	1775
881.852	2104
881.885	1892
881.958	1247
881.966	1303
882.047	2345
882.064	2471
882.129	2500
882.171	2862
882.210	4097
882.277	5826
882.291	5672
882.372	3571
882.383	3377
882.454	2118
882.489	1553
882.535	1513
882.596	1376
882.616	1344
882.697	1551
882.702	1545
882.778	1943
882.808	2070
882.859	1814
882.914	1533
882.940	1565
883.020	1696
883.021	1703
883.102	1647
883.127	1815
883.183	2183
883.233	2025
883.264	1667
883.339	1009
883.345	1069
883.426	1868
883.445	2141
883.507	2322
883.551	2122
883.587	2161
883.657	2693
883.668	2778
883.749	2429
883.763	2495
883.830	1832
883.869	1360
883.910	1389
883.975	1313
883.991	1319
884.072	1242
884.081	1241
884.152	1572
884.187	1830
884.233	2187
884.292	2426
884.314	2327
884.394	1971
884.398	1931
884.475	1652
884.504	1604
884.555	1644
884.610	1775
884.636	1904
884.716	2431
884.716	2440
884.797	2162
884.821	2107
884.877	1966
884.927	1882
884.958	2021
885.033	2204
885.038	2176
885.118	1589
885.139	1420
885.199	1519
885.244	1720
885.279	1840
885.350	1628
885.359	1644
885.439	2320
885.456	2332
885.520	2188
885.561	2403
885.600	2410
885.667	2145
885.680	2121
885.760	1993
885.773	1918
885.840	2260
885.878	2586
885.920	2586
885.984	2346
886.000	2298
886.080	2296
886.089	2271
886.160	2235
886.195	2281
886.240	2428
886.300	2449
886.320	2405
886.400	2456
886.406	2441
886.480	3171
886.511	3404
886.560	3387
886.616	3488
886.640	3333
886.720	2527
886.722	2501
886.800	2430
886.827	2406
886.879	2304
886.932	2074
886.959	2332
887.038	3301
887.039	3309
887.119	2978
887.143	2805
887.198	2843
887.248	2835
887.278	2727
887.354	2667
887.358	2693
887.437	2738
887.459	2807
887.517	2964
887.564	3057
887.596	3051
887.669	2742
887.676	2769
887.755	3287
887.774	3368
887.835	3240
887.880	3139
887.914	3155
887.985	3070
887.994	3043
888.073	2774
888.090	2693
888.153	2812
888.195	2930
888.232	2903
888.300	2813
888.311	2851
888.391	3023
888.405	3038
888.470	3052
888.510	3035
888.549	3091
888.615	3243
888.628	3261
888.708	3250
888.720	3240
888.787	3592
888.825	3738
888.866	2943
888.930	1728
888.945	1896
889.024	2742
889.035	2846
889.103	3018
889.140	3104
889.182	3472
889.245	3975
889.261	3837
889.340	3110
889.349	3020
889.419	2998
889.454	2954
889.498	2825
889.559	2649
889.577	2735
889.656	3071
889.664	3099
889.735	2903
889.768	2793
889.814	2808
889.873	2816
889.978	2807
890.083	3365
890.187	2869
890.292	3529
890.397	2630
890.501	2232
890.606	2309
890.710	2924
890.815	3472
890.919	3058
891.024	2808
891.128	3260
891.233	2584
891.337	3302
891.442	2219
891.546	3197
891.650	2728
891.755	2571
891.859	4111
891.963	3305
892.068	3464
892.172	2989
892.276	3017
892.380	2751
892.484	3178
892.589	3020
892.693	3150
892.797	2259
892.901	3223
893.005	2444
893.109	3291
893.213	3153
893.317	3217
893.421	2916
893.525	2367
893.629	2766
893.733	3180
893.837	2387
893.941	3073
894.045	2694
894.148	3559
894.252	3173
894.356	2452
894.460	4530
894.564	3681
894.667	2771
894.771	2470
894.875	2743
894.978	2278
895.082	2341
895.186	2450
895.289	3110
895.393	2557
895.496	3762
895.600	2050
895.703	3069
895.807	2631
895.910	2981
896.014	2727
896.117	2666
896.221	3690
896.324	3072
896.427	2789
896.531	2360
896.634	2711
896.737	3171
896.840	2875
896.944	2941
897.047	2667
897.150	3112
897.253	2190
897.356	3591
897.460	2618
897.563	3386
897.666	2733
897.769	2830
897.872	1951
897.975	3534
898.078	2400
898.181	2897
898.284	2483
898.387	3335
898.490	3536
898.593	3215
898.695	2792
898.798	2950
898.901	2854
899.004	2790
899.107	2846
899.209	2762
899.312	2859
899.415	2385
899.518	1792
899.620	2280
899.723	3487
899.826	5032
899.928	6705
900.031	2918
900.133	2246
900.236	2763
900.338	2251
900.441	2628
900.543	2332
900.646	2663
900.748	2460
900.851	2650
900.953	2098
901.055	2638
901.158	2522
901.260	2918
901.362	2045
901.465	2124
901.567	2308
901.669	2029
901.771	2409
901.873	3259
901.976	2203
902.078	2706
902.180	1504
902.282	2007
902.384	2177
902.486	3746
902.588	3492
902.690	4866
902.792	3280
902.894	3716
902.996	1879
903.098	2354
903.200	2752
903.302	2318
903.404	1837
903.505	1896
903.607	2468
903.709	2198
903.811	1943
903.913	2358
904.014	2160
904.116	2463
904.218	1601
904.319	3269
904.421	2884
904.523	4312
904.624	2774
904.726	3146
904.827	3136
904.929	3299
905.030	2333
905.132	2522
905.233	2378
905.335	2162
905.436	1693
905.537	2825
905.639	3022
905.740	2444
905.841	2423
905.943	2851
906.044	3242
906.145	4174
906.247	1761
906.348	2544
906.449	2804
906.550	1949
906.651	3338
906.752	2837
906.854	2426
906.955	2136
907.056	2237
907.157	2563
907.258	2506
907.359	2148
907.460	2150
907.561	2267
907.662	2732
907.762	2195
907.863	2951
907.964	3477
908.065	2683
908.166	1979
908.267	3017
908.367	1961
908.468	2069
908.569	2520
908.670	3913
908.770	5436
908.871	4839
908.971	4853
909.072	4162
909.173	2604
909.273	2957
909.374	1983
909.474	2185
909.575	2981
909.675	2944
909.776	3127
909.876	2907
909.977	3795
910.077	2987
910.177	3019
910.278	2805
910.378	3306
910.478	1707
910.579	2928
910.679	2473
910.779	2965
910.879	2559
910.980	2453
911.080	2482
911.180	1576
911.280	2111
911.380	2793
911.480	3163
911.580	2331
911.680	2550
911.780	3076
911.880	3138
911.980	2938
912.080	2095
912.180	2195
912.280	2695
912.380	2996
912.480	2113
912.580	3727
912.679	2269
912.779	3257
912.879	2380
912.979	1990
913.078	2202
913.178	2356
913.278	2192
913.377	2255
913.477	2139
913.577	3347
913.676	2720
913.776	2532
913.875	2634
913.975	1815
914.074	1472
914.174	2890
914.273	2094
914.373	2151
914.472	2644
914.572	2417
914.671	2741
914.770	2576
914.870	1452
914.969	1736
915.068	3214
915.167	2217
915.267	1322
915.366	2422
915.465	2003
915.564	2725
915.663	2228
915.763	2843
915.862	2560
915.961	3059
916.060	1810
916.159	2423
916.258	2669
916.357	2876
916.456	2704
916.555	2349
916.654	2627
916.752	3141
916.851	1465
916.950	2958
917.049	2372
917.148	2853
917.247	2585
917.345	2663
917.444	2053
917.543	3026
917.642	2649
917.740	2683
917.839	2553
917.937	2792
918.036	3688
918.135	2741
918.233	2508
918.332	2801
918.430	1629
918.529	3098
918.627	3082
918.726	2344
918.824	3122
918.923	2699
919.021	2387
919.119	2919
919.218	1944
919.316	2594
919.414	2956
919.512	1797
919.611	2445
919.709	2737
919.807	2343
919.905	2946
920.003	3348
920.102	2581
920.200	1586
920.298	2516
920.396	2063
920.494	2633
920.592	2111
920.690	2072
920.788	3140
920.886	2899
920.984	2697
921.082	2977
921.180	4056
921.277	3053
921.375	3180
921.473	3745
921.571	2604
921.669	2681
921.766	2760
921.864	3365
921.962	2869
922.060	2751
922.157	3372
922.255	3612
922.352	3201
922.450	3662
922.548	2849
922.645	3333
922.743	3340
922.840	3965
922.938	4994
923.035	4836
923.133	4258
923.230	4765
923.327	5962
923.425	5054
923.522	4258
923.619	5019
923.717	4532
923.814	4191
923.911	3680
924.008	5021
924.106	4031
924.203	4761
924.300	4448
924.397	4063
924.494	5183
924.591	4854
924.688	4246
924.786	4746
924.883	4631
924.979	4076
925.077	4396
925.173	4974
925.270	4874
925.367	4431
925.464	4549
925.561	4632
925.658	5378
925.755	4979
925.852	5669
925.948	5519
926.045	5372
926.142	5723
926.239	6685
926.335	6339
926.432	6340
926.529	6880
926.625	6277
926.722	5456
926.818	4576
926.915	4709
927.011	4454
927.108	3872
927.204	4661
927.301	4045
927.397	4009
927.494	4603
927.590	5022
927.687	3488
927.783	3298
927.879	4512
927.976	4414
928.072	4589
928.168	3950
928.264	4090
928.361	4027
928.457	5381
928.553	4188
928.649	4791
928.745	3735
928.841	3722
928.937	4459
929.033	4154
929.129	3197
929.225	3396
929.321	3147
929.417	4095
929.513	4068
929.609	4110
929.705	3062
929.801	4213
929.897	4340
929.993	4180
930.089	3931
930.184	4243
930.280	4883
930.376	4510
930.471	2977
930.567	3103
930.663	3833
930.758	3360
930.854	3401
930.950	4114
931.045	3827
931.141	4463
931.236	4954
931.332	4589
931.427	3030
931.523	4038
931.618	3395
931.714	3109
931.809	3550
931.905	5507
932.000	2911
932.095	3308
932.191	4109
932.286	3987
932.381	3466
932.476	4087
932.572	3075
932.667	3732
932.762	3940
932.857	3603
932.952	3437
933.047	3497
933.142	3564
933.237	3192
933.332	3827
933.427	4152
933.522	3070
933.617	3256
933.712	3175
933.807	3721
933.902	3385
933.997	3534
934.092	3881
934.187	3260
934.282	4229
934.376	3708
934.471	4105
934.566	4158
934.661	2927
934.755	3354
934.850	4094
934.945	4048
935.039	3608
935.134	3433
935.228	3462
935.323	3935
935.417	3323
935.512	3028
935.606	2927
935.701	3755
935.795	3336
935.890	3549
935.984	3092
936.079	3453
936.173	3833
936.267	3391
936.362	2296
936.456	3205
936.550	3898
936.644	2757
936.738	2834
936.833	2829
936.927	3635
937.021	3355
937.115	3391
937.209	2951
937.303	4021
937.397	3039
937.491	3395
937.585	4134
937.679	3049
937.773	3022
937.867	3067
937.961	2704
938.055	3218
938.149	3067
938.243	3437
938.337	3349
938.430	3656
938.524	5408
938.618	6208
938.712	5401
938.805	3990
938.899	3937
938.993	3963
939.086	4277
939.180	6121
939.274	7974
939.367	5103
939.461	3204
939.554	2457
939.648	3035
939.741	3165
939.835	3363
939.928	3054
940.022	4231
940.115	2905
940.208	4938
940.302	2776
940.395	3901
940.488	2130
940.582	3453
940.675	2400
940.768	2911
940.861	3019
940.954	4325
941.048	2149
941.141	4175
941.234	3439
941.327	5007
941.420	3913
941.513	4041
941.606	3094
941.699	3422
941.792	3406
941.885	3672
941.978	2376
942.071	3084
942.164	2293
942.257	2648
942.349	3292
942.442	3410
942.535	2379
942.628	2765
942.721	2320
942.813	2689
942.906	2919
942.999	3359
943.091	2559
943.184	2420
943.277	2447
943.369	3244
943.462	2411
943.554	2952
943.647	3008
943.739	3557
943.832	2876
943.924	2310
944.017	2381
944.109	2112
944.201	3610
944.294	3364
944.386	2287
944.478	2391
944.571	2800
944.663	2611
944.755	1825
944.847	3112
944.940	3233
945.032	1987
945.124	2407
945.216	3269
945.308	2397
945.400	2359
945.492	3178
945.584	2759
945.676	2029
945.768	2588
945.860	3675
945.952	2606
946.044	3465
946.136	2512
946.228	1943
946.320	2143
946.412	1972
946.503	2501
946.595	3347
946.687	2696
946.779	2221
946.870	2082
946.962	2205
947.054	3154
947.145	3006
947.237	1904
947.329	2335
947.420	2048
947.512	2170
947.603	1848
947.695	2575
947.786	2276
947.878	1347
947.969	2381
948.061	1846
948.152	2177
948.243	2660
948.335	2582
948.426	1453
948.517	2624
948.609	2151
948.700	1900
948.791	2483
948.882	1619
948.973	2044
949.065	2517
949.156	2617
949.247	2213
949.338	2200
949.429	1908
949.520	2355
949.611	2017
949.702	2172
949.793	2656
949.884	2360
949.975	1590
950.066	1703
950.157	1878
950.247	2296
950.338	3162
950.429	2633
950.520	2376
950.611	1864
950.701	2989
950.792	2628
950.883	4036
950.973	2233
951.064	3070
951.155	2563
951.245	2987
951.336	2112
951.427	2347
951.517	2987
951.608	2809
951.698	1873
951.788	2105
951.879	2012
951.969	1756
952.060	1758
952.150	1484
952.240	2487
952.331	1575
952.421	3456
952.511	1248
952.602	1511
952.692	2000
952.782	2287
952.872	1420
952.962	2107
953.052	2508
953.143	1014
953.233	2174
953.323	2241
953.413	1720
953.503	2333
953.593	2359
953.683	1561
953.773	1580
953.863	1760
953.953	1531
954.042	1572
954.132	1580
954.222	2424
954.312	2477
954.402	2399
954.492	3133
954.581	5559
954.671	2994
954.761	1654
954.850	3563
954.940	1508
955.030	1833
955.119	2105
955.209	1285
955.298	838
955.388	1726
955.477	3256
955.567	652
955.656	1466
955.746	2129
955.835	1332
955.925	1850
956.014	907
956.103	1716
956.193	2402
956.282	2195
956.371	1864
956.461	1775
956.550	1203
956.639	2239
956.728	1182
956.817	2322
956.906	2407
956.995	2471
957.085	1319
957.174	2329
957.263	1874
957.352	1367
957.441	1296
957.530	1358
957.619	2177
957.708	1607
957.796	1515
957.885	1690
957.974	1331
958.063	2050
958.152	885
958.241	1592
958.329	1067
958.418	1021
958.507	995
958.596	3195
958.684	1596
958.773	2415
958.861	1841
958.950	1333
959.039	2396
959.127	1786
959.216	2026
959.304	1152
959.393	1574
959.481	1754
959.570	1889
959.658	1873
959.746	1998
959.835	3655
959.923	6795
960.011	3829
960.100	3056
960.188	1597
960.276	1124
960.365	1718
960.453	1254
960.541	426
960.629	2022
960.717	1386
960.805	1199
960.893	1737
960.981	878
961.069	2637
961.158	1426
961.245	2544
961.333	1431
961.421	1530
961.509	2110
961.597	1543
961.685	1381
961.773	1836
961.861	1125
961.949	1791
962.036	1720
962.124	2760
962.212	1376
962.299	1402
962.387	918
962.475	1942
962.562	733
962.650	1714
962.738	1228
962.825	1199
962.913	1827
963.000	1980
963.088	1726
963.175	2790
963.263	2213
963.350	2778
963.438	2163
963.525	2826
963.612	6482
963.700	13500
963.787	27193
963.874	11956
963.962	2807
964.049	2005
964.136	1920
964.223	1584
964.310	1741
964.398	2198
964.485	1178
964.572	3280
964.659	6011
964.746	4646
964.833	2486
964.920	1814
965.007	1532
965.094	1775
965.181	218
965.268	1938
965.355	1412
965.441	1395
965.528	457
965.615	1929
965.702	1178
965.789	910
965.875	1902
965.962	1816
966.049	1183
966.136	1435
966.222	2357
966.309	2286
966.395	1195
966.482	1107
966.569	1834
966.655	1794
966.742	1625
966.828	1657
966.915	1543
967.001	1823
967.087	1195
967.174	2528
967.260	3068
967.347	4689
967.433	10092
967.519	17919
967.605	6470
967.692	1575
967.778	1184
967.864	1950
967.950	1036
968.036	699
968.123	1552
968.209	755
968.295	65
968.381	2554
968.467	1545
968.553	627
968.639	3473
968.725	2097
968.811	4222
968.897	4076
968.983	1443
969.069	1063
969.154	1042
969.240	1440
969.326	-203
969.412	287
969.497	1098
969.583	647
969.669	2584
969.755	1100
969.840	836
969.926	1743
970.012	969
970.097	2891
970.183	799
970.268	2436
970.354	3225
970.439	6172
970.525	12084
970.610	4286
970.696	2714
970.781	935
970.866	-45
970.952	2375
971.037	783
971.122	1455
971.208	1045
971.293	1741
971.378	259
971.463	982
971.549	1580
971.634	1610
971.719	1362
971.804	2429
971.889	3472
971.974	1447
972.059	867
972.144	925
972.229	939
972.314	1555
972.399	1367
972.484	1525
972.569	2257
972.654	2555
972.739	6928
972.824	7291
972.908	2451
972.993	736
973.078	1403
973.163	1242
973.247	1261
973.332	277
973.417	2662
973.501	299
973.586	813
973.671	1583
973.755	1601
973.840	2035
973.924	1743
974.009	1375
974.093	1319
974.178	4086
974.262	5525
974.346	5022
974.431	1603
974.515	234
974.600	1168
974.684	1718
974.768	941
974.852	1680
974.937	-57
975.021	1149
975.105	134
975.189	274
975.273	1561
975.358	846
975.442	-317
975.526	1605
975.610	143
975.694	26
975.778	1399
975.862	554
975.946	-2001
976.030	2273
976.114	531
976.198	1593
976.281	474
976.365	1535
976.449	729
976.533	1017
976.617	1130
976.700	1240
976.784	1610
976.868	1636
976.951	3825
977.035	2169
977.119	837
977.202	916
977.286	636
977.369	1444
977.453	706
977.536	837
977.620	581
977.703	1105
977.787	-2
977.870	2194
977.953	2764
978.037	626
978.120	2886
978.203	4274
978.287	6995
978.370	3701
978.453	1400
978.536	1555
978.620	2408
978.703	4084
978.786	1082
978.869	-817
978.952	-248
979.035	1601
979.118	886
979.201	755
979.284	137
979.367	-541
979.450	844
979.533	-1195
979.616	674
979.699	11
979.782	1424
979.865	754
979.948	91
980.030	624
980.113	1148
980.196	-101
980.279	777
980.361	-388
980.444	290
980.526	1500
980.609	956
980.692	83
980.774	851
980.857	-471
980.939	1508
981.022	-661
981.104	721
981.187	-69
981.269	894
981.352	816
981.434	-86
981.516	275
981.599	866
981.681	702
981.763	1041
981.846	66
981.928	719
982.010	1290
982.092	-278
982.174	1132
982.256	-138
982.339	257
982.421	355
982.503	533
982.585	-214
982.667	1337
982.749	486
982.831	360
982.913	-431
982.995	2291
983.077	1050
983.158	1819
983.240	-500
983.322	1271
983.404	465
983.486	-180
983.568	147
983.649	312
983.731	852
983.813	201
983.894	341
983.976	-687
984.058	-251
984.139	1997
984.221	-1678
984.302	785
984.384	856
984.465	-614
984.547	544
984.628	106
984.710	1259
984.791	-99
984.872	-5
984.954	70
985.035	672
985.116	-73
985.198	-369
985.279	830
985.360	-115
985.441	249
985.522	905
985.604	-706
985.685	-1698
985.766	1153
985.847	1169
985.928	716
986.009	66
986.090	468
986.171	524
986.252	558
986.333	40
986.414	80
986.495	282
986.576	-123
986.656	244
986.737	659
986.818	-54
986.899	-6
986.980	58
987.060	1304
987.141	-561
987.222	60
987.302	698
987.383	1205
987.464	404
987.544	1040
987.625	110
987.705	658
987.786	332
987.866	521
987.947	211
988.027	566
988.108	-143
988.188	376
988.268	303
988.349	169
988.429	-769
988.509	947
988.589	-324
988.670	-1016
988.750	1082
988.830	538
988.910	1464
988.990	240
989.070	-49
989.151	56
989.231	-749
989.311	280
989.391	340
989.471	-478
989.551	-605
989.631	-347
989.711	502
989.791	-556
989.870	-317
989.950	317
990.030	-1162
990.110	-470
990.190	-406
990.269	-168
990.349	-368
990.429	-125
990.509	-256
990.588	-358
990.668	-155
990.747	-442
990.827	-280
990.907	898
990.986	-974
991.066	83
991.145	-467
991.225	681
991.304	-692
991.383	-59
991.463	297
991.542	107
991.622	325
991.701	-763
991.780	-225
991.859	315
991.939	-252
992.018	-276
992.097	457
992.176	221
992.256	163
992.335	-412
992.414	511
992.493	-798
992.572	-575
992.651	981
992.730	-185
992.809	-179
992.888	-454
992.967	-7
993.046	274
993.125	-862
993.203	331
993.282	-21
993.361	-251
993.440	-546
993.519	-1273
993.597	266
993.676	-910
993.755	599
993.834	-301
993.912	-1963
993.991	406
994.069	-523
994.148	39
994.226	-73
994.305	36
994.384	-38
994.462	404
994.540	-1308
994.619	-1066
994.697	376
994.776	-1356
994.854	544
994.932	-917
995.011	-75
995.089	-138
995.167	-629
995.245	57
995.324	-857
995.402	-637
995.480	-676
995.558	-590
995.636	-1473
995.714	-1044
995.792	-72
995.870	-755
995.948	13
996.026	-654
996.104	-1557
996.182	414
996.260	-994
996.338	-775
996.416	-1630
996.494	-689
996.572	330
996.649	-834
996.727	-1167
996.805	-855
996.883	-886
996.960	-425
997.038	-43
997.116	-817
997.193	-1203
997.271	-776
997.348	-964
997.426	-365
997.504	-404
997.581	-243
997.658	-113
997.736	-1629
997.813	-922
997.891	-136
997.968	-1474
998.046	-635
998.123	-1042
998.200	-774
998.277	-839
998.355	-851
998.432	-1710
998.509	-604
998.586	-644
998.663	-815
998.741	-430
998.818	-868
998.895	-486
998.972	26
999.049	-253
999.126	-457
999.203	-474
999.280	-992
999.357	-958
999.434	-668
999.511	-1257
999.587	-522
999.664	-1221
999.741	-268
999.818	-182
999.895	-495
999.971	-668
1000.048	-1110
1000.125	-140
1000.202	-1060
1000.278	-1219
1000.355	-276
1000.431	-1560
1000.508	-1093
1000.584	-405
1000.661	-143
1000.738	-1169
1000.814	-842
1000.890	-544
1000.967	-794
1001.043	-313
1001.120	-1141
1001.196	-445
1001.272	-1595
1001.349	283
1001.425	-358
1001.501	-598
1001.577	-1707
1001.654	-446
1001.730	-1089
1001.806	-755
1001.882	-1895
1001.958	-143
1002.034	-407
1002.110	-704
1002.186	-1525
1002.262	-1071
1002.338	-1406
1002.414	-600
1002.490	-172
1002.566	-819
1002.642	-1740
1002.718	29
1002.794	-184
1002.870	-937
1002.945	-865
1003.021	-302
1003.097	-1086
1003.173	-219
1003.248	-1319
1003.324	-722
1003.400	-648
1003.475	-770
1003.551	-364
1003.626	-300
1003.702	-455
1003.777	-563
1003.853	-673
1003.928	-930
1004.004	-911
1004.079	-699
1004.155	-588
1004.230	-1625
1004.305	-459
1004.381	-1325
1004.456	-858
1004.531	-601
1004.607	-895
1004.682	-414
1004.757	-1142
1004.832	-732
1004.907	-834
1004.982	-1386
1005.057	-464
1005.133	-735
1005.208	-1227
1005.283	-598
1005.358	-210
1005.433	-1309
1005.508	-750
1005.583	-977
1005.657	-885
1005.732	-620
1005.807	-1657
1005.882	-544
1005.957	-1029
1006.032	-23
1006.106	-1688
1006.181	-928
1006.256	-1251
1006.331	-858
1006.405	-1414
1006.480	-535
1006.554	-1051
1006.629	-932
1006.704	-1693
1006.778	-947
1006.853	-996
1006.927	-1102
1007.002	-1796
1007.076	-322
1007.150	-1053
1007.225	-983
1007.299	-1081
1007.373	-1584
1007.448	-231
1007.522	-379
1007.596	-874
1007.671	-1338
1007.745	-497
1007.819	-1795
1007.893	-1269
1007.967	-1024
1008.041	-2235
1008.115	-722
1008.190	-1432
1008.264	-698
1008.338	-1961
1008.412	-1096
1008.486	-1275
1008.560	-1241
1008.633	-2006
1008.707	-1580
1008.781	-846
1008.855	-1737
1008.929	-1046
1009.003	-1517
1009.076	-1255
1009.150	-930
1009.224	-1073
1009.298	-505
1009.371	-1867
1009.445	-729
1009.519	-1768
1009.592	-1847
1009.666	-2001
1009.739	-1107
1009.813	-2037
1009.886	-83
1009.960	-2146
1010.033	-1040
1010.107	-1068
1010.180	-1694
1010.253	-737
1010.327	-1559
1010.400	-1954
1010.473	-1509
1010.547	-231
1010.620	-1051
1010.693	-883
1010.766	-1000
1010.840	-1727
1010.913	-900
1010.986	-1574
1011.059	-742
1011.132	-734
1011.205	136
1011.278	-747
1011.351	-1521
1011.424	-1183
1011.497	-1600
1011.570	-1534
1011.643	-1513
1011.716	-1710
1011.789	-1288
1011.862	-814
1011.934	-475
1012.007	-1519
1012.080	-1442
1012.153	-1143
1012.225	-785
1012.298	-1511
1012.371	-1975
1012.443	-983
1012.516	-2233
1012.588	-1367
1012.661	-791
1012.733	-1631
1012.806	-606
1012.879	-1826
1012.951	-1589
1013.023	-1406
1013.096	-1331
1013.168	-1758
1013.241	-944
1013.313	-1711
1013.385	-1598
1013.458	-834
1013.530	-1373
1013.602	-1736
1013.674	-1120
1013.746	-1569
1013.819	-1566
1013.891	-1158
1013.963	-1692
1014.035	-1583
1014.107	-1140
1014.179	-979
1014.251	-1422
1014.323	-1583
1014.395	-983
1014.467	-1680
1014.539	-984
1014.611	-1955
1014.683	-1393
1014.754	-1468
1014.826	-2254
1014.898	-851
1014.970	-2166
1015.042	-165
1015.113	-684
1015.185	-1051
1015.257	-1758
1015.328	-1831
1015.400	-1220
1015.471	-1733
1015.543	-2173
1015.615	-932
1015.686	-1298
1015.757	-1640
1015.829	-1179
1015.901	-1452
1015.972	-1366
1016.043	-1625
1016.115	-617
1016.186	-1877
1016.257	-2015
1016.328	-1561
1016.400	-1401
1016.471	-2773
1016.542	-994
1016.613	-1426
1016.685	-1689
1016.756	-1036
1016.827	-2173
1016.898	-1930
1016.969	-915
1017.040	-1260
1017.111	-2384
1017.182	-2457
1017.253	-1369
1017.324	-2502
1017.395	-1391
1017.466	-1781
1017.537	-1812
1017.608	-1669
1017.678	-2049
1017.749	-2280
1017.820	-1924
1017.891	-2155
1017.961	-2374
1018.032	-1937
1018.103	-1565
1018.173	-1940
1018.244	-2722
1018.315	-1759
1018.385	-1219
1018.456	-1982
1018.526	-1933
1018.597	-1604
1018.667	-1704
1018.738	-2459
1018.808	-2137
1018.878	-1427
1018.949	-2058
1019.019	-1449
1019.089	-1444
1019.160	-361
1019.230	-1680
1019.300	-1331
1019.371	-1941
1019.441	-1421
1019.511	-2030
1019.581	-1808
1019.651	-1356
1019.721	-1803
1019.791	-2363
1019.861	-3113
1019.931	-1431
1020.001	-2537
1020.071	-1938
1020.141	-2204
1020.211	-1940
1020.281	-2489
1020.351	-2317
1020.421	-1632
1020.491	-1677
1020.560	-2827
1020.630	-1479
1020.700	-1906
1020.770	-1519
1020.839	-2398
1020.909	-1454
1020.979	-1616
1021.048	-1637
1021.118	-2644
1021.187	-1977
1021.257	-1840
1021.326	-1343
1021.396	-1828
1021.465	-1398
1021.535	-1995
1021.604	-1761
1021.674	-2054
1021.743	-2737
1021.812	-1656
1021.882	-1987
1021.951	-1727
1022.020	-1672
1022.089	-1751
1022.159	-1703
1022.228	-2124
1022.297	-1788
1022.366	-1996
1022.435	-1796
1022.504	-2092
1022.573	-2007
1022.642	-1961
1022.711	-2425
1022.781	-1428
1022.849	-1441
1022.918	-2104
1022.987	-2008
1023.056	-2057
1023.125	-2317
1023.194	-1987
1023.263	-1474
1023.331	-1246
1023.400	-2447
1023.469	-1421
1023.538	-2208
1023.606	-2173
1023.675	-2336
1023.744	-2623
1023.812	-1855
1023.881	-1810
1023.949	-2112
1024.018	-2437
1024.086	-2251
1024.155	-2160
1024.223	-2297
1024.292	-1712
1024.360	-1416
1024.429	-2026
1024.497	-2290
1024.565	-1897
1024.634	-1967
1024.702	-1980
1024.770	-1559
1024.838	-1996
1024.907	-1900
1024.975	-2348
1025.043	-1598
1025.111	-2127
1025.179	-1869
1025.247	-2464
1025.315	-1592
1025.383	-1589
1025.451	-1807
1025.519	-1497
1025.587	-2115
1025.655	-1777
1025.723	-2122
1025.791	-2674
1025.859	-1814
1025.927	-1380
1025.995	-2648
1026.062	-2160
1026.130	-1703
1026.198	-1541
1026.266	-2234
1026.333	-1414
1026.401	-1476
1026.469	-2008
1026.536	-1756
1026.604	-2472
1026.671	-2853
1026.739	-2501
1026.806	-2305
1026.874	-2295
1026.941	-2161
1027.009	-2236
1027.076	-2404
1027.144	-1543
1027.211	-2147
1027.278	-2722
1027.345	-1707
1027.413	-2357
1027.480	-2364
1027.547	-1843
1027.614	-1783
1027.682	-3344
1027.749	-1434
1027.816	-2082
1027.883	-1867
1027.950	-1911
1028.017	-2354
1028.084	-1927
1028.151	-2699
1028.218	-1652
1028.285	-2293
1028.352	-2579
1028.419	-2086
1028.486	-2336
1028.553	-1983
1028.619	-2291
1028.686	-1529
1028.753	-2535
1028.820	-2298
1028.886	-2783
1028.953	-1552
1029.020	-2599
1029.086	-1812
1029.153	-2523
1029.220	-1989
1029.286	-1410
1029.353	-2491
1029.419	-1892
1029.486	-1610
1029.552	-1733
1029.619	-2442
1029.685	-2451
1029.751	-1566
1029.818	-985
1029.884	-2102
1029.951	-1720
1030.017	-2728
1030.083	-1962
1030.149	-2011
1030.216	-2587
1030.282	-2267
1030.348	-2161
1030.414	-2849
1030.480	-1754
1030.546	-1523
1030.612	-1824
1030.678	-2554
1030.744	-2409
1030.810	-1466
1030.876	-1898
1030.942	-1598
1031.008	-1973
1031.074	-1778
1031.140	-1928
1031.206	-1613
1031.272	-2436
1031.337	-1879
1031.403	-2459
1031.469	-2477
1031.534	-1923
1031.600	-989
1031.666	-1430
1031.731	-2069
1031.797	-2097
1031.863	-1940
1031.928	-1918
1031.994	-1752
1032.059	-1774
1032.125	-2464
1032.190	-2185
1032.256	-2788
1032.321	-2825
1032.386	-1821
1032.452	-1818
1032.517	-1996
1032.582	-2109
1032.647	-2156
1032.713	-2109
1032.778	-1725
1032.843	-1541
1032.908	-1797
1032.974	-2087
1033.039	-2226
1033.104	-1920
1033.169	-1568
1033.234	-1595
1033.299	-772
1033.364	-962
1033.429	-1015
1033.494	-2025
1033.559	-2036
1033.624	-1848
1033.688	-1710
1033.753	-2222
1033.818	-1962
1033.883	-2971
1033.948	-2273
1034.013	-2837
1034.077	-1868
1034.142	-1236
1034.207	-1498
1034.271	-804
1034.336	-518
1034.400	-1483
1034.465	-531
1034.530	-1852
1034.594	-2071
1034.658	-2270
1034.723	-1572
1034.787	-1579
1034.852	-1890
1034.916	-1904
1034.981	-2594
1035.045	-1986
1035.109	-2077
1035.173	-1243
1035.238	-2550
1035.302	-1652
1035.366	-1565
1035.430	-1886
1035.495	-1965
1035.559	-2108
1035.623	-2911
1035.687	-2703
1035.751	-1514
1035.815	-2436
1035.879	-2317
1035.943	-2147
1036.007	-1888
1036.071	-1504
1036.135	-1718
1036.198	-2353
1036.262	-2040
1036.326	-1831
1036.390	-2141
1036.454	-1939
1036.517	-1443
1036.581	-1864
1036.645	-1918
1036.709	-1020
1036.772	-1544
1036.836	-2825
1036.900	-1529
1036.963	-1758
1037.026	-2245
1037.090	-2125
1037.154	-2614
1037.217	-1580
1037.280	-2418
1037.344	-1888
1037.407	-2040
1037.471	-2044
1037.534	-2653
1037.597	-2418
1037.661	-2572
1037.724	-1708
1037.787	-2354
1037.850	-2588
1037.913	-2508
1037.977	-2118
1038.040	-2343
1038.103	-2090
1038.166	-1796
1038.229	-1918
1038.292	-2271
1038.355	-2073
1038.418	-2380
1038.481	-2525
1038.544	-2292
1038.607	-2278
1038.670	-1337
1038.732	-2015
1038.795	-2088
1038.858	-2843
1038.921	-1589
1038.984	-1523
1039.046	-1914
1039.109	-2812
1039.172	-2288
1039.234	-1831
1039.297	-2402
1039.360	-2833
1039.422	-2017
1039.485	-2629
1039.547	-1792
1039.610	-1990
1039.672	-2127
1039.734	-2302
1039.797	-2638
1039.859	-2253
1039.922	-1587
1039.984	-1845
1040.046	-2650
1040.109	-2138
1040.171	-1996
1040.233	-1375
1040.295	-2918
1040.358	-2768
1040.420	-2377
1040.482	-2400
1040.544	-2455
1040.606	-1612
1040.668	-2776
1040.730	-2438
1040.792	-1964
1040.854	-3240
1040.916	-2609
1040.978	-2582
1041.040	-1778
1041.102	-2715
1041.164	-2640
1041.225	-1999
1041.287	-2113
1041.349	-2656
1041.411	-2659
1041.472	-2248
1041.534	-1951
1041.596	-2552
1041.657	-2072
1041.719	-2345
1041.781	-3094
1041.842	-2069
1041.904	-2159
1041.965	-2620
1042.027	-1838
1042.088	-1714
1042.150	-2536
1042.211	-2081
1042.272	-1899
1042.334	-2213
1042.395	-2104
1042.456	-2215
1042.518	-1506
1042.579	-2070
1042.640	-2488
1042.701	-1869
1042.763	-2108
1042.824	-3384
1042.885	-2657
1042.946	-2746
1043.007	-2592
1043.068	-2443
1043.129	-2240
1043.190	-2172
1043.251	-2348
1043.312	-2121
1043.373	-2007
1043.434	-2478
1043.495	-2862
1043.556	-2516
1043.616	-2173
1043.677	-2572
1043.738	-2233
1043.799	-1877
1043.859	-2869
1043.920	-2461
1043.981	-2441
1044.041	-1842
1044.102	-2946
1044.162	-2451
1044.223	-2266
1044.284	-2283
1044.344	-2838
1044.405	-2007
1044.465	-2624
1044.525	-2083
1044.586	-2269
1044.646	-2218
1044.707	-1519
1044.767	-2139
1044.827	-2547
1044.887	-2684
1044.948	-2191
1045.008	-2101
1045.068	-1561
1045.128	-1751
1045.188	-3293
1045.249	-1549
1045.309	-2584
1045.369	-2278
1045.429	-2073
1045.489	-1571
1045.549	-1728
1045.609	-2656
1045.669	-1675
1045.729	-2420
1045.789	-2517
1045.848	-2240
1045.908	-1778
1045.968	-1635
1046.028	-2038
1046.088	-2061
1046.147	-2033
1046.207	-2414
1046.267	-2158
1046.326	-2187
1046.386	-1253
1046.446	-1203
1046.505	-1086
1046.565	-875
1046.624	-929
1046.684	-1424
1046.743	-1394
1046.803	-676
1046.862	-1290
1046.922	0
