'Start Wavelength	183.907
'End Wavelength	1046.922
'Gate Delay	5.000
'Gate Width (ms)	1.050
'Laser Output Level	0.000
'X Position	0.000
'Y Position	0.000
'Z Position	0.000
'Grid Point Number	1.000
'Shot Number	100.000
183.907	35.000
183.977	-82.000
184.047	-47
184.116	61
184.186	403
184.256	289
184.325	-231
184.395	-213
184.465	719
184.534	31
184.604	-716
184.674	393
184.743	-530
184.813	1054
184.883	107
184.952	253
185.022	143
185.092	510
185.161	-189
185.231	310
185.301	-229
185.370	781
185.440	340
185.509	299
185.579	119
185.649	19
185.718	273
185.788	699
185.857	-788
185.927	-399
185.996	244
186.066	403
186.136	-79
186.205	679
186.275	-47
186.344	-479
186.414	414
186.483	-894
186.553	693
186.622	1132
186.692	274
186.761	-30
186.831	-51
186.900	227
186.970	-198
187.039	-237
187.109	1100
187.178	-152
187.248	-50
187.317	947
187.387	-231
187.456	97
187.526	957
187.595	738
187.664	-612
187.734	384
187.803	238
187.873	491
187.942	133
188.012	394
188.081	-348
188.150	-51
188.220	-228
188.289	566
188.358	135
188.428	580
188.497	-542
188.567	531
188.636	-553
188.705	239
188.775	-573
188.844	92
188.913	773
188.983	-134
189.052	-108
189.121	258
189.191	-661
189.260	902
189.329	-196
189.399	-80
189.468	539
189.537	-261
189.606	237
189.676	1067
189.745	104
189.814	239
189.883	1136
189.953	399
190.022	602
190.091	1465
190.161	359
190.230	1030
190.299	-566
190.368	-46
190.437	82
190.507	-58
190.576	762
190.645	102
190.714	141
190.783	-533
190.853	284
190.922	706
190.991	135
191.060	-106
191.129	-305
191.198	1085
191.268	73
191.337	-327
191.406	479
191.475	994
191.544	53
191.613	684
191.682	232
191.752	317
191.821	-787
191.890	-304
191.959	568
192.028	-37
192.097	468
192.166	-85
192.235	-943
192.304	1240
192.373	-448
192.442	188
192.511	312
192.580	811
192.650	-477
192.719	317
192.788	443
192.857	735
192.926	236
192.995	-180
193.064	-592
193.133	286
193.202	-12
193.271	1857
193.340	257
193.409	877
193.478	397
193.547	1153
193.615	-26
193.684	990
193.753	240
193.822	179
193.891	-465
193.960	648
194.029	-24
194.098	512
194.167	109
194.236	898
194.305	-262
194.374	315
194.443	-291
194.512	576
194.580	-161
194.649	-9
194.718	562
194.787	262
194.856	-563
194.925	1134
194.994	-416
195.062	1123
195.131	-245
195.200	228
195.269	857
195.338	1002
195.407	993
195.475	665
195.544	361
195.613	1110
195.682	155
195.751	905
195.819	388
195.888	767
195.957	1713
196.026	667
196.094	-254
196.163	1237
196.232	406
196.301	508
196.369	348
196.438	1259
196.507	194
196.576	-403
196.644	-5
196.713	557
196.782	316
196.850	344
196.919	229
196.988	797
197.056	473
197.125	910
197.194	186
197.262	701
197.331	284
197.400	597
197.468	-502
197.537	-170
197.606	265
197.674	677
197.743	755
197.812	827
197.880	1017
197.949	788
198.017	544
198.086	-158
198.155	206
198.223	414
198.292	687
198.360	530
198.429	332
198.497	-376
198.566	165
198.635	1270
198.703	523
198.772	575
198.840	1498
198.909	998
198.977	-65
199.046	519
199.114	284
199.183	316
199.251	693
199.320	173
199.388	172
199.457	270
199.525	607
199.594	652
199.662	208
199.731	927
199.799	49
199.867	615
199.936	116
200.004	1056
200.073	819
200.141	133
200.210	-347
200.278	599
200.346	-26
200.415	784
200.483	568
200.552	672
200.620	-246
200.688	654
200.757	-164
200.825	204
200.893	1140
200.962	1326
201.030	-314
201.098	989
201.167	-150
201.235	995
201.303	-87
201.372	494
201.440	349
201.508	856
201.577	676
201.645	180
201.713	-673
201.781	521
201.850	975
201.918	1224
201.986	465
202.055	1187
202.123	-158
202.191	583
202.259	486
202.327	669
202.396	-118
202.464	667
202.532	220
202.600	1976
202.669	1274
202.737	196
202.805	84
202.873	1165
202.941	1040
203.009	736
203.078	-114
203.146	430
203.214	95
203.282	464
203.350	173
203.418	-18
203.487	964
203.555	415
203.623	-562
203.691	1031
203.759	669
203.827	48
203.895	885
203.963	608
204.031	-181
204.099	631
204.168	397
204.236	377
204.304	296
204.372	638
204.440	474
204.508	621
204.576	-411
204.644	705
204.712	-577
204.780	595
204.848	663
204.916	-172
204.984	50
205.052	997
205.120	352
205.188	946
205.256	-108
205.324	891
205.392	416
205.460	872
205.528	-477
205.596	539
205.664	439
205.732	173
205.799	1195
205.867	1452
205.935	23
206.003	1666
206.071	197
206.139	386
206.207	108
206.275	1467
206.343	426
206.411	780
206.478	925
206.546	1753
206.614	-10
206.682	331
206.750	125
206.818	528
206.885	1028
206.953	-743
207.021	1216
207.089	1068
207.157	-35
207.225	675
207.292	632
207.360	1420
207.428	492
207.496	80
207.563	-101
207.631	1004
207.699	310
207.767	-31
207.834	102
207.902	37
207.970	150
208.038	1048
208.105	-216
208.173	569
208.241	292
208.309	1133
208.376	621
208.444	1055
208.512	332
208.579	-59
208.647	262
208.715	1334
208.782	272
208.850	-74
208.918	11
208.985	573
209.053	937
209.120	553
209.188	-150
209.256	793
209.323	780
209.391	1388
209.459	645
209.526	1321
209.594	-223
209.661	236
209.729	954
209.796	628
209.864	1484
209.932	-268
209.999	2247
210.067	627
210.134	1065
210.202	1257
210.269	1675
210.337	1161
210.404	879
210.472	706
210.539	855
210.607	677
210.674	1161
210.742	1721
210.809	467
210.877	1181
210.944	1186
211.012	-210
211.079	1363
211.146	1028
211.214	549
211.281	1708
211.349	1890
211.416	635
211.484	1455
211.551	1268
211.618	1119
211.686	1387
211.753	30
211.821	1241
211.888	94
211.955	902
212.023	322
212.090	939
212.157	1183
212.225	1057
212.292	1592
212.359	2155
212.427	4485
212.494	2254
212.561	1004
212.629	1023
212.696	481
212.763	1748
212.831	-164
212.898	1471
212.965	505
213.032	1353
213.100	868
213.167	669
213.234	824
213.301	1639
213.369	107
213.436	233
213.503	473
213.570	1104
213.638	677
213.705	446
213.772	599
213.839	1031
213.906	790
213.973	603
214.041	615
214.108	375
214.175	77
214.242	1033
214.309	1063
214.376	855
214.444	1243
214.511	502
214.578	615
214.645	1927
214.712	1833
214.779	1788
214.846	822
214.913	1554
214.980	1186
215.048	1608
215.115	2336
215.182	2648
215.249	1205
215.316	777
215.383	1380
215.450	1595
215.517	1410
215.584	1736
215.651	1002
215.718	1329
215.785	1378
215.852	1631
215.919	1584
215.986	1962
216.053	1402
216.120	707
216.187	1091
216.254	1548
216.321	1017
216.388	1216
216.455	2058
216.522	1727
216.589	1840
216.656	3139
216.722	1719
216.789	1864
216.856	1708
216.923	1739
216.990	1685
217.057	2033
217.124	1697
217.191	1564
217.258	1258
217.324	2262
217.391	2837
217.458	1379
217.525	633
217.592	1530
217.659	771
217.725	2451
217.792	1190
217.859	2606
217.926	1326
217.993	563
218.059	1532
218.126	1700
218.193	526
218.260	969
218.327	627
218.393	949
218.460	1421
218.527	724
218.594	464
218.660	1874
218.727	2091
218.794	1210
218.860	1321
218.927	506
218.994	631
219.061	1112
219.127	1302
219.194	1483
219.261	1240
219.327	1156
219.394	1979
219.461	510
219.527	1506
219.594	1971
219.661	1411
219.727	564
219.794	1529
219.860	1320
219.927	694
219.994	1636
220.060	2677
220.127	2520
220.193	1343
220.260	1323
220.326	1893
220.393	2800
220.460	2891
220.526	2322
220.593	1302
220.659	3103
220.726	1562
220.792	3825
220.859	2752
220.925	3325
220.992	4326
221.058	5211
221.125	4661
221.191	3065
221.258	1254
221.324	1654
221.391	712
221.457	972
221.524	955
221.590	2517
221.657	4113
221.723	2299
221.789	2559
221.856	2610
221.922	952
221.989	2374
222.055	890
222.121	949
222.188	3274
222.254	1834
222.321	1405
222.387	924
222.453	1317
222.520	1192
222.586	968
222.652	1814
222.719	995
222.785	1744
222.851	713
222.918	619
222.984	1403
223.050	1156
223.116	107
223.183	2137
223.249	780
223.315	1030
223.382	1233
223.448	1148
223.514	746
223.580	1120
223.647	-26
223.713	777
223.779	1138
223.845	1735
223.911	1355
223.978	528
224.044	1980
224.110	1082
224.176	1485
224.242	1029
224.309	475
224.375	1327
224.441	233
224.507	830
224.573	686
224.639	1749
224.705	548
224.772	1378
224.838	734
224.904	1383
224.970	1172
225.036	990
225.102	812
225.168	1712
225.234	1092
225.300	1150
225.366	844
225.432	1751
225.499	717
225.565	1908
225.631	1725
225.697	1066
225.763	1601
225.829	2077
225.895	2110
225.961	2450
226.027	2103
226.093	2225
226.159	2336
226.225	1975
226.291	4775
226.357	7798
226.423	5168
226.489	4375
226.554	2561
226.620	2621
226.686	3108
226.752	4159
226.818	4152
226.884	11048
226.950	9033
227.016	4473
227.082	2784
227.148	2626
227.214	2811
227.279	3379
227.345	2826
227.411	1720
227.477	1292
227.543	4648
227.609	3492
227.674	4785
227.740	1764
227.806	2223
227.872	1215
227.938	1903
228.003	4647
228.069	2160
228.135	933
228.201	913
228.267	1039
228.332	1611
228.398	1228
228.464	2492
228.530	332
228.595	1532
228.661	530
228.727	2308
228.792	2804
228.858	1488
228.924	597
228.990	3753
229.055	980
229.121	3234
229.187	1816
229.252	1068
229.318	1158
229.384	2266
229.449	1680
229.515	-228
229.581	542
229.646	2391
229.712	1485
229.777	2753
229.843	3261
229.909	2630
229.974	3479
230.040	2921
230.105	2624
230.171	2257
230.236	2670
230.302	4051
230.368	3611
230.433	1858
230.499	2312
230.564	4674
230.630	1757
230.695	2165
230.761	2538
230.826	865
230.892	3418
230.957	1827
231.023	1532
231.088	1946
231.154	1049
231.219	1336
231.284	1234
231.350	2742
231.415	1070
231.481	2297
231.546	1488
231.612	1769
231.677	951
231.742	470
231.808	2550
231.873	729
231.939	-781
232.004	3112
232.069	2089
232.135	614
232.200	732
232.265	1831
232.331	1277
232.396	712
232.461	401
232.527	1567
232.592	444
232.657	1871
232.723	1432
232.788	1562
232.853	1940
232.918	1396
232.984	522
233.049	1432
233.114	1180
233.179	1823
233.245	2731
233.310	3143
233.375	-193
233.440	1471
233.506	1496
233.571	1040
233.636	922
233.701	1963
233.766	1513
233.832	2963
233.897	2068
233.962	1527
234.027	3148
234.092	1861
234.157	1541
234.222	2225
234.288	1891
234.353	5261
234.418	5054
234.483	4545
234.548	2496
234.613	2516
234.678	2129
234.743	2168
234.808	6176
234.873	3711
234.938	3599
235.004	2088
235.069	1549
235.134	1010
235.199	2313
235.264	1758
235.329	-435
235.394	2309
235.459	2941
235.524	298
235.589	936
235.654	2194
235.719	-4
235.784	1863
235.849	1761
235.913	3237
235.978	3577
236.043	4319
236.108	1488
236.173	1519
236.238	2376
236.303	1255
236.368	735
236.433	1885
236.498	2386
236.563	2354
236.627	3411
236.692	13676
236.757	9941
236.822	4635
236.887	3061
236.952	3700
237.017	439
237.081	4242
237.146	2634
237.211	5728
237.276	12481
237.341	22424
237.405	9992
237.470	4987
237.535	3951
237.600	2699
237.664	2635
237.729	1774
237.794	1784
237.859	4656
237.923	2979
237.988	3010
238.053	3516
238.118	3391
238.182	6367
238.247	7203
238.312	2671
238.376	3738
238.441	1200
238.506	3678
238.570	442
238.635	3610
238.700	1681
238.764	1079
238.829	3060
238.893	3841
238.958	2649
239.023	2480
239.087	886
239.152	2310
239.216	1887
239.281	2024
239.346	1035
239.410	1583
239.475	1300
239.539	7109
239.604	4187
239.668	3402
239.733	1170
239.797	3338
239.862	5289
239.926	6264
239.991	2948
240.055	2439
240.120	1523
240.184	1748
240.249	1410
240.313	1651
240.378	1610
240.442	4807
240.507	6337
240.571	3008
240.635	2419
240.700	4503
240.764	2481
240.829	2323
240.893	96
240.957	1673
241.022	3846
241.086	7149
241.151	3663
241.215	1678
241.279	3303
241.344	3527
241.408	2862
241.472	1659
241.537	3241
241.601	2709
241.665	1767
241.730	2537
241.794	2978
241.858	2670
241.922	2134
241.987	2507
242.051	1524
242.115	2649
242.179	2415
242.244	1395
242.308	2449
242.372	2829
242.436	3567
242.501	2850
242.565	940
242.629	1975
242.693	2980
242.757	1677
242.822	2412
242.886	2299
242.950	2208
243.014	2012
243.078	2420
243.142	3069
243.206	1567
243.271	2950
243.335	2115
243.399	3048
243.463	5994
243.527	17756
243.591	7080
243.655	3188
243.719	1772
243.783	4375
243.847	4602
243.911	5278
243.975	6015
244.040	4681
244.104	4984
244.168	3358
244.232	3297
244.296	5004
244.360	5225
244.424	3129
244.488	3073
244.552	2492
244.615	539
244.679	3125
244.743	1922
244.807	2490
244.871	2332
244.935	2272
244.999	932
245.063	2363
245.127	2574
245.191	4130
245.255	2586
245.319	3471
245.383	1748
245.446	3428
245.510	964
245.574	3040
245.638	2824
245.702	1597
245.766	5313
245.829	4215
245.893	1873
245.957	2136
246.021	3012
246.085	2239
246.149	2632
246.212	7588
246.276	10227
246.340	6331
246.404	3300
246.467	4294
246.531	4146
246.595	4337
246.659	3175
246.722	3578
246.786	4418
246.850	4741
246.913	5729
246.977	2057
247.041	2150
247.104	3442
247.168	3517
247.232	7114
247.295	13486
247.359	7490
247.423	3239
247.486	7023
247.550	4278
247.614	4375
247.677	5126
247.741	3342
247.804	2916
247.868	3436
247.932	5611
247.995	13804
248.059	5395
248.122	2579
248.186	4189
248.249	6075
248.313	18967
248.376	22260
248.440	13333
248.503	5732
248.567	5734
248.630	6625
248.694	10044
248.757	13128
248.821	22271
248.884	15576
248.948	12004
249.011	17485
249.075	24093
249.138	23493
249.202	10131
249.265	5731
249.328	6697
249.392	5327
249.455	4921
249.519	3771
249.582	5431
249.645	7391
249.709	5048
249.772	3898
249.835	3930
249.899	4324
249.962	3552
250.025	3501
250.089	7494
250.152	12811
250.215	7924
250.279	4977
250.342	4040
250.405	4867
250.468	3871
250.532	5572
250.595	7040
250.658	16323
250.721	29108
250.785	12993
250.848	7558
250.911	4779
250.974	4308
251.038	6563
251.101	13191
251.164	7028
251.227	7431
251.290	6525
251.354	7338
251.417	23924
251.480	25038
251.543	17152
251.606	42589
251.669	34268
251.732	14911
251.795	17262
251.859	16526
251.922	29233
251.985	19379
252.048	10815
252.111	7174
252.174	6262
252.237	12173
252.300	24964
252.363	24055
252.426	39542
252.489	19920
252.552	13607
252.615	9028
252.678	9003
252.741	18254
252.804	19802
252.867	36977
252.930	27701
252.993	18081
253.056	11803
253.119	9523
253.182	7738
253.245	8370
253.308	8317
253.371	7589
253.434	9364
253.497	9739
253.559	14314
253.622	11172
253.685	13707
253.748	13583
253.811	6556
253.874	7104
253.937	7073
254.000	6034
254.062	9342
254.125	13845
254.188	16121
254.251	12742
254.314	6686
254.376	9163
254.439	11713
254.502	10980
254.565	9014
254.628	17477
254.690	12193
254.753	6487
254.816	6039
254.878	4954
254.941	9982
255.004	10758
255.067	5001
255.129	5247
255.192	3395
255.255	2605
255.317	4753
255.380	2718
255.443	2015
255.505	2856
255.568	2948
255.631	2932
255.693	3520
255.756	1946
255.819	3590
255.881	2506
255.944	2944
256.006	2156
256.069	2318
256.132	2117
256.194	3485
256.257	6119
256.319	5146
256.382	4319
256.444	3726
256.507	3507
256.569	2880
256.632	2024
256.694	3347
256.757	8319
256.819	20931
256.882	8223
256.944	5235
257.007	4417
257.069	5589
257.132	3708
257.194	3367
257.257	3322
257.319	2775
257.381	2320
257.444	6281
257.506	22305
257.569	27898
257.631	18885
257.693	10120
257.756	5148
257.818	3848
257.880	3807
257.943	3816
258.005	2360
258.067	3477
258.130	2897
258.192	3990
258.254	7198
258.317	4757
258.379	3290
258.441	7575
258.503	7457
258.566	7681
258.628	10397
258.690	3186
258.753	3721
258.815	6848
258.877	4134
258.939	3257
259.001	3614
259.064	2548
259.126	2306
259.188	3994
259.250	3613
259.312	4507
259.375	12408
259.437	7899
259.499	3901
259.561	2885
259.623	4273
259.685	4331
259.747	3138
259.809	7328
259.872	12134
259.934	19196
259.996	24882
260.058	10112
260.120	3612
260.182	2804
260.244	2788
260.306	1977
260.368	3150
260.430	3371
260.492	9517
260.554	17445
260.616	9283
260.678	11662
260.740	15124
260.802	4659
260.864	4018
260.926	2952
260.988	4160
261.050	3579
261.112	11753
261.174	23846
261.236	13137
261.298	5771
261.359	6756
261.421	10519
261.483	3672
261.545	4327
261.607	1784
261.669	3144
261.731	4250
261.793	11942
261.854	5450
261.916	4584
261.978	5466
262.040	7394
262.102	3785
262.164	4345
262.225	4194
262.287	3193
262.349	7889
262.411	7086
262.472	3313
262.534	3607
262.596	8272
262.658	4185
262.719	2828
262.781	4327
262.843	8563
262.904	5012
262.966	3681
263.028	4467
263.090	11995
263.151	35553
263.213	17896
263.275	13953
263.336	5222
263.398	3637
263.459	1613
263.521	2482
263.583	7342
263.644	5837
263.706	2588
263.767	2091
263.829	2150
263.891	2799
263.952	1872
264.014	2501
264.075	6023
264.137	18794
264.198	7452
264.260	2925
264.321	2644
264.383	7939
264.444	22781
264.506	8511
264.567	3891
264.629	8889
264.690	19269
264.752	8568
264.813	3786
264.875	3417
264.936	3943
264.998	3559
265.059	1806
265.120	3058
265.182	2725
265.243	10350
265.305	10281
265.366	2862
265.427	2124
265.489	3003
265.550	1689
265.611	2989
265.673	3008
265.734	3770
265.795	3386
265.857	1828
265.918	1408
265.979	3553
266.040	17080
266.102	13966
266.163	5561
266.224	7765
266.286	3303
266.347	2018
266.408	2119
266.469	3310
266.530	1636
266.592	2393
266.653	4607
266.714	8566
266.775	3606
266.836	2581
266.898	1455
266.959	6282
267.020	4939
267.081	3504
267.142	2025
267.203	2011
267.264	1548
267.326	3572
267.387	1754
267.448	1973
267.509	1778
267.570	2220
267.631	1823
267.692	750
267.753	1596
267.814	1288
267.875	4088
267.936	10825
267.997	8549
268.058	6851
268.119	2633
268.180	2951
268.241	1919
268.302	2627
268.363	1412
268.424	2614
268.485	3061
268.546	2457
268.607	774
268.668	1730
268.729	2175
268.790	1840
268.851	2042
268.912	7789
268.972	8334
269.033	5237
269.094	2246
269.155	2364
269.216	1828
269.277	1792
269.338	1491
269.398	2472
269.459	2886
269.520	4523
269.581	4894
269.642	6495
269.702	3765
269.763	3432
269.824	2364
269.885	3374
269.945	5496
270.006	2724
270.067	1850
270.128	1577
270.188	1508
270.249	1931
270.310	968
270.370	3130
270.431	1987
270.492	1871
270.553	2319
270.613	5143
270.674	10689
270.734	4215
270.795	2788
270.856	4137
270.916	3484
270.977	3070
271.038	3706
271.098	4041
271.159	5521
271.219	5486
271.280	1762
271.340	2469
271.401	2166
271.462	5656
271.522	3182
271.583	2894
271.643	2911
271.704	2867
271.764	2938
271.825	6408
271.885	21405
271.946	28991
272.006	10546
272.066	13143
272.127	21889
272.187	8689
272.248	3469
272.308	4619
272.369	14161
272.429	9230
272.489	8345
272.550	10129
272.610	9457
272.671	7123
272.731	5308
272.791	10117
272.852	5877
272.912	5559
272.972	2935
273.033	3330
273.093	4552
273.153	6746
273.214	4092
273.274	3370
273.334	15572
273.394	25645
273.455	11070
273.515	10296
273.575	22868
273.635	10049
273.696	10270
273.756	21266
273.816	9206
273.876	6903
273.936	9357
273.997	17435
274.057	5683
274.117	4345
274.177	6504
274.237	29434
274.297	25688
274.358	15056
274.418	17031
274.478	15356
274.538	5528
274.598	4219
274.658	11638
274.718	16626
274.778	7534
274.838	4363
274.898	7623
274.958	22120
275.018	21432
275.078	14781
275.138	6821
275.198	3842
275.258	3197
275.318	3820
275.378	7612
275.438	8639
275.498	5673
275.558	9344
275.618	21085
275.678	15835
275.738	12587
275.798	12085
275.858	8386
275.918	3881
275.978	4248
276.038	4347
276.098	3411
276.157	7254
276.217	18461
276.277	9271
276.337	6699
276.397	3923
276.457	4581
276.517	4053
276.576	2990
276.636	2730
276.696	4656
276.756	11019
276.815	8571
276.875	4003
276.935	4918
276.995	5111
277.055	1493
277.114	3071
277.174	4117
277.234	14687
277.293	7025
277.353	4238
277.413	3180
277.472	3975
277.532	3358
277.592	4031
277.651	8875
277.711	17497
277.771	5604
277.830	21413
277.890	17549
277.950	10578
278.009	29147
278.069	11386
278.128	10815
278.188	17524
278.248	7869
278.307	18451
278.367	11902
278.426	3804
278.486	3628
278.545	2741
278.605	2540
278.664	2900
278.724	2913
278.783	8073
278.843	21614
278.902	7294
278.962	3876
279.021	5666
279.081	3425
279.140	4967
279.199	3696
279.259	5237
279.318	3856
279.378	4994
279.437	8563
279.496	31648
279.556	68105
279.615	54937
279.675	16060
279.734	9024
279.793	15231
279.853	28522
279.912	10896
279.971	6083
280.031	6442
280.090	11372
280.149	20468
280.208	11888
280.268	50939
280.327	51721
280.386	14111
280.445	13214
280.505	12914
280.564	7109
280.623	5933
280.682	7611
280.742	13012
280.801	5325
280.860	3747
280.919	5057
280.978	4416
281.037	3928
281.097	1816
281.156	2697
281.215	2544
281.274	3599
281.333	14302
281.392	12143
281.451	3407
281.510	3325
281.569	2813
281.628	2274
281.688	1501
281.747	3634
281.806	3839
281.865	3233
281.924	2487
281.983	2590
282.042	2603
282.101	3505
282.160	2288
282.219	2582
282.278	2491
282.337	9580
282.396	7029
282.454	3386
282.513	4406
282.572	15104
282.631	9887
282.690	3192
282.749	2398
282.808	4766
282.867	3632
282.926	4604
282.985	2710
283.043	3168
283.102	2287
283.161	2243
283.220	8369
283.279	17108
283.338	5144
283.396	3767
283.455	3442
283.514	3462
283.573	6394
283.631	4823
283.690	3203
283.749	2614
283.808	5480
283.866	8186
283.925	3509
283.984	3493
284.043	4560
284.101	5522
284.160	3352
284.219	7137
284.277	4682
284.336	6309
284.395	20059
284.453	16982
284.512	6537
284.570	8858
284.629	7089
284.688	6511
284.746	6126
284.805	6927
284.863	8645
284.922	11492
284.981	11259
285.039	15885
285.098	27631
285.156	61638
285.215	101977
285.273	104234
285.332	70832
285.390	39350
285.449	23311
285.507	15964
285.566	11036
285.624	8948
285.683	7808
285.741	6071
285.799	4764
285.858	5720
285.916	5023
285.975	3899
286.033	3670
286.091	2581
286.150	2706
286.208	3669
286.267	4594
286.325	3613
286.383	7497
286.442	6206
286.500	2678
286.558	2496
286.616	1708
286.675	4340
286.733	3291
286.791	3609
286.850	3152
286.908	5898
286.966	9918
287.024	4632
287.083	2474
287.141	2201
287.199	2862
287.257	5332
287.315	3344
287.374	2975
287.432	10099
287.490	6960
287.548	3845
287.606	3206
287.664	2546
287.723	5195
287.781	8393
287.839	4020
287.897	3746
287.955	3763
288.013	3843
288.071	8518
288.129	35446
288.187	105164
288.245	49785
288.303	17059
288.361	9622
288.419	8924
288.477	5934
288.535	4421
288.593	3031
288.651	3094
288.709	2527
288.767	3183
288.825	2726
288.883	2884
288.941	3072
288.999	2845
289.057	2641
289.115	3449
289.173	2469
289.231	3309
289.289	3305
289.346	2625
289.404	2599
289.462	5874
289.520	6585
289.578	3458
289.636	2118
289.694	2444
289.751	1575
289.809	2614
289.867	2525
289.925	3281
289.983	4484
290.040	2119
290.098	2252
290.156	2956
290.214	3303
290.271	2152
290.329	2491
290.387	2040
290.444	2298
290.502	1793
290.560	3058
290.617	3409
290.675	3192
290.733	2816
290.790	2896
290.848	3806
290.906	2274
290.963	2268
291.021	2847
291.078	2799
291.136	2425
291.194	12275
291.251	27870
291.309	8719
291.366	3989
291.424	3431
291.481	3520
291.539	3557
291.596	3047
291.654	1730
291.711	2024
291.769	3515
291.826	5694
291.884	4574
291.941	3157
291.999	2609
292.056	2881
292.114	4209
292.171	2088
292.228	3343
292.286	3901
292.343	7892
292.401	9039
292.458	6255
292.515	4621
292.573	4889
292.630	4974
292.687	3836
292.745	2577
292.802	6097
292.859	18130
292.917	22325
292.974	12771
293.031	5689
293.089	4086
293.146	3703
293.203	2158
293.260	3380
293.318	4973
293.375	10921
293.432	5085
293.489	3735
293.546	3074
293.604	3811
293.661	10438
293.718	29667
293.775	20409
293.832	9851
293.889	6333
293.947	7032
294.004	4728
294.061	4808
294.118	9942
294.175	23929
294.232	35386
294.289	13926
294.346	6973
294.403	5875
294.460	4497
294.517	4335
294.574	4104
294.631	3722
294.688	4643
294.745	9401
294.802	36069
294.859	49157
294.916	19501
294.973	10450
295.030	8930
295.087	7318
295.144	5286
295.201	4140
295.258	3753
295.315	4466
295.372	12308
295.429	23146
295.486	11294
295.542	7401
295.599	22634
295.656	40348
295.713	26595
295.770	25673
295.827	11073
295.883	7084
295.940	5112
295.997	10426
296.054	10751
296.111	6373
296.167	4788
296.224	3610
296.281	3209
296.338	3100
296.394	3738
296.451	4825
296.508	11777
296.564	24779
296.621	18196
296.678	28142
296.734	43068
296.791	19424
296.848	9904
296.904	9689
296.961	19556
297.018	27866
297.074	23037
297.131	10914
297.187	6167
297.244	7980
297.301	23231
297.357	41352
297.414	16944
297.470	8494
297.527	6328
297.583	5941
297.640	5536
297.696	5149
297.753	4153
297.809	3568
297.866	2321
297.922	3390
297.979	3643
298.035	4385
298.092	5468
298.148	15470
298.204	14876
298.261	8383
298.317	15146
298.374	34803
298.430	19391
298.486	9880
298.543	7765
298.599	5754
298.656	5516
298.712	11690
298.768	21870
298.824	15550
298.881	6652
298.937	4612
298.993	5374
299.050	6499
299.106	5818
299.162	5120
299.218	4741
299.275	4911
299.331	3526
299.387	7032
299.443	27035
299.500	31828
299.556	15124
299.612	7960
299.668	6020
299.724	8171
299.780	8736
299.837	6378
299.893	7168
299.949	25458
300.005	29412
300.061	26555
300.117	43692
300.173	22915
300.229	9852
300.285	12356
300.341	14978
300.397	8431
300.453	4822
300.510	4684
300.566	4568
300.622	5520
300.678	15742
300.734	29505
300.790	26842
300.845	28752
300.901	19196
300.957	29018
301.013	21390
301.069	10523
301.125	7371
301.181	7783
301.237	6134
301.293	4460
301.349	3794
301.405	3338
301.461	3991
301.516	4451
301.572	5189
301.628	11320
301.684	9062
301.740	12231
301.796	17477
301.851	13109
301.907	21410
301.963	19462
302.019	28720
302.074	71523
302.130	73671
302.186	36367
302.242	16660
302.297	10566
302.353	9825
302.409	18368
302.464	14971
302.520	14196
302.576	29369
302.631	35887
302.687	22381
302.743	10484
302.798	7139
302.854	6070
302.910	5373
302.965	7677
303.021	11911
303.076	11608
303.132	15135
303.187	17510
303.243	10277
303.299	6736
303.354	5069
303.410	4524
303.465	4325
303.521	4810
303.576	4816
303.632	5433
303.687	8855
303.743	25060
303.798	22009
303.853	10657
303.909	6815
303.964	5896
304.020	9008
304.075	13054
304.130	12093
304.186	21867
304.241	23343
304.297	19436
304.352	11542
304.358	11123
304.407	7725
304.449	6859
304.463	6571
304.518	7334
304.539	7183
304.573	6926
304.629	6570
304.630	6625
304.684	9376
304.720	17305
304.739	21230
304.794	29205
304.811	25628
304.850	17048
304.902	9399
304.905	8917
304.960	7536
304.992	6301
305.015	5391
305.071	5654
305.083	5381
305.126	4340
305.173	3695
305.181	3618
305.236	3738
305.264	4429
305.292	5071
305.347	6007
305.354	6052
305.402	6404
305.445	6415
305.457	6393
305.512	7615
305.535	7664
305.567	7879
305.622	8347
305.626	8499
305.678	12321
305.716	22674
305.733	26379
305.788	30310
305.807	27280
305.843	22120
305.897	26052
305.898	26083
305.953	25900
305.988	19281
306.008	15721
306.063	10895
306.078	9917
306.118	7519
306.168	5801
306.173	5673
306.228	4761
306.259	4411
306.283	4200
306.338	4915
306.349	4952
306.393	4923
306.440	4380
306.448	4397
306.503	6510
306.530	7360
306.558	10800
306.613	26843
306.620	28614
306.668	33587
306.711	34017
306.723	33550
306.778	24372
306.801	19050
306.833	13824
306.888	8019
306.892	7852
306.943	6391
306.982	5467
306.997	5334
307.052	6343
307.072	6526
307.107	7848
307.162	12077
307.163	12138
307.217	20143
307.253	25252
307.272	25731
307.327	24563
307.343	22013
307.381	16826
307.434	11648
307.436	11894
307.491	25884
307.524	37599
307.546	39009
307.600	30929
307.614	26544
307.655	16447
307.704	9469
307.710	9393
307.765	12232
307.795	16629
307.819	20712
307.874	33374
307.885	33507
307.929	24006
307.975	12803
307.984	12099
308.038	11519
308.065	11948
308.093	18466
308.148	37965
308.156	43131
308.202	69691
308.246	84525
308.257	82669
308.312	46122
308.336	34586
308.366	29082
308.421	20835
308.426	20022
308.475	13410
308.517	9508
308.530	8745
308.585	7321
308.607	6936
308.639	7940
308.694	10822
308.697	11118
308.748	25663
308.787	39822
308.803	39276
308.857	28221
308.877	22888
308.912	18127
308.967	13734
308.967	13688
309.021	14674
309.058	15683
309.076	18699
309.130	30944
309.148	35713
309.185	61208
309.238	107348
309.239	107636
309.293	119122
309.328	107518
309.348	92361
309.402	42958
309.418	31347
309.457	22361
309.508	14173
309.511	13930
309.566	13414
309.598	14084
309.620	16511
309.674	25730
309.688	27880
309.729	26810
309.778	21948
309.783	21522
309.837	16000
309.868	13425
309.892	17046
309.946	28930
309.959	32742
310.001	43251
310.049	51597
310.055	50032
310.109	30900
310.139	19431
310.163	15356
310.218	9781
310.229	8869
310.272	8685
310.319	9343
310.326	9342
310.381	9170
310.409	9157
310.435	9468
310.489	9949
310.499	10091
310.543	11048
310.589	11931
310.598	12105
310.652	13451
310.679	13591
310.706	11548
310.760	7689
310.769	7059
310.814	6128
310.859	5537
310.868	5653
310.923	6161
310.948	6450
310.977	7430
311.031	9375
311.038	9642
311.085	9001
311.128	8002
311.139	8093
311.193	8793
311.218	9082
311.247	8250
311.301	6437
311.308	6225
311.356	8218
311.398	10135
311.410	9769
311.464	7710
311.488	6752
311.518	6567
311.572	6304
311.578	6281
311.626	8413
311.668	10257
311.680	11255
311.734	15634
311.758	17546
311.788	16408
311.842	14207
311.847	13950
311.896	18932
311.937	23338
311.950	22820
312.004	20244
312.027	19041
312.058	15371
312.112	8812
312.117	8155
312.165	8050
312.207	7964
312.297	18967
312.386	14277
312.476	9904
312.566	14758
312.656	8702
312.745	8046
312.835	9941
312.925	11215
313.015	11314
313.104	13604
313.194	7439
313.284	6094
313.374	8629
313.463	7314
313.553	7231
313.643	6183
313.732	6813
313.822	6560
313.912	9159
314.001	9430
314.091	13846
314.180	21461
314.270	12890
314.360	15974
314.449	10863
314.539	7061
314.628	8220
314.718	12220
314.808	16886
314.897	8053
314.987	6589
315.076	8747
315.166	13813
315.255	14330
315.345	12762
315.434	15021
315.524	13380
315.613	12960
315.703	12038
315.792	12091
315.881	20737
315.971	12465
316.060	25007
316.150	50210
316.239	49487
316.328	15596
316.418	7055
316.507	6643
316.597	8775
316.686	9293
316.775	20564
316.865	46289
316.954	8656
317.043	5871
317.133	6505
317.222	6393
317.311	7314
317.400	4424
317.490	8787
317.579	8640
317.668	6924
317.757	9387
317.847	16110
317.936	32253
318.025	19755
318.114	12043
318.203	10639
318.293	13705
318.382	22930
318.471	19824
318.560	33824
318.649	70368
318.738	15054
318.828	9490
318.917	11326
319.006	18049
319.095	51869
319.184	87303
319.273	41700
319.362	18829
319.451	8351
319.540	9032
319.629	16551
319.718	23606
319.807	13581
319.896	32635
319.985	101613
320.074	33209
320.163	17029
320.252	32528
320.341	27802
320.430	21115
320.519	18042
320.608	12484
320.697	12897
320.786	9840
320.875	11959
320.964	12975
321.053	18006
321.142	23715
321.230	25262
321.319	28338
321.408	59297
321.497	27058
321.586	22889
321.675	44497
321.764	39854
321.852	28060
321.941	32464
322.030	18770
322.119	28695
322.207	57065
322.296	67022
322.385	33690
322.474	25953
322.562	58026
322.651	38153
322.740	24434
322.829	48290
322.917	69182
323.006	26811
323.095	20026
323.183	22354
323.272	25538
323.361	42073
323.449	110610
323.538	42066
323.626	94952
323.715	50443
323.804	26315
323.892	91034
323.981	46780
324.069	16216
324.158	56565
324.246	45353
324.335	15167
324.424	18599
324.512	8444
324.601	10120
324.689	10201
324.778	20963
324.866	44693
324.954	12070
325.043	10170
325.131	28985
325.220	56667
325.308	60262
325.397	42924
325.485	23055
325.574	8121
325.662	7156
325.750	7255
325.839	7885
325.927	7005
326.015	11584
326.104	25173
326.192	34570
326.280	7773
326.369	8885
326.457	10049
326.545	15634
326.634	7870
326.722	6154
326.810	5661
326.898	7014
326.987	7215
327.075	16955
327.163	26787
327.251	13601
327.340	7639
327.428	8693
327.516	5145
327.604	7255
327.692	9840
327.781	15151
327.869	29481
327.957	14126
328.045	8048
328.133	6602
328.221	13589
328.309	8183
328.397	5673
328.485	7770
328.574	9287
328.662	27662
328.750	27231
328.838	16035
328.926	7043
329.014	5929
329.102	9927
329.190	35775
329.278	16394
329.366	5241
329.454	6068
329.542	7867
329.630	5679
329.718	6831
329.806	6754
329.893	10979
329.981	9363
330.069	5724
330.157	10995
330.245	27396
330.333	12917
330.421	5872
330.509	9378
330.597	32716
330.684	28315
330.772	16513
330.860	35315
330.948	43369
331.036	14284
331.123	5113
331.211	7679
331.299	11981
331.387	31379
331.475	54458
331.562	16440
331.650	7454
331.738	12365
331.825	21617
331.913	7264
332.001	6013
332.089	12646
332.176	32664
332.264	63223
332.352	46746
332.439	13864
332.527	12060
332.614	10913
332.702	16230
332.790	8213
332.877	27725
332.965	57515
333.052	10063
333.140	11718
333.228	24950
333.315	6394
333.403	10156
333.490	42923
333.578	27062
333.665	13179
333.753	9382
333.840	5724
333.928	10035
334.015	42407
334.103	43945
334.190	116528
334.278	32355
334.365	18962
334.452	11030
334.540	6317
334.627	14401
334.715	18595
334.802	28171
334.889	155711
334.977	123223
335.064	15315
335.151	9200
335.239	11171
335.326	15539
335.413	54003
335.501	68665
335.588	9835
335.675	8402
335.762	14616
335.850	30167
335.937	11235
336.024	34642
336.111	152703
336.199	64533
336.286	12117
336.373	7805
336.460	4454
336.547	6890
336.635	10315
336.722	8109
336.809	7426
336.896	9913
336.983	34466
337.070	86218
337.157	107532
337.245	97903
337.332	63001
337.419	11161
337.506	7642
337.593	11420
337.680	33503
337.767	100353
337.854	27987
337.941	40875
338.028	52764
338.115	15879
338.202	21417
338.289	31653
338.376	97951
338.463	30916
338.550	60320
338.637	57936
338.724	28654
338.811	47681
338.898	8917
338.984	7841
339.071	12793
339.158	8204
339.245	22105
339.332	15696
339.419	33541
339.506	31144
339.593	4618
339.679	5244
339.766	4457
339.853	9759
339.940	12903
340.027	6859
340.113	5656
340.200	8922
340.287	7706
340.374	8222
340.460	10753
340.547	6168
340.634	9102
340.720	30554
340.807	15951
340.894	5010
340.980	6052
341.067	5146
341.154	7094
341.240	7762
341.327	14429
341.414	5450
341.500	3736
341.587	6682
341.674	5509
341.760	11702
341.847	13107
341.933	5301
342.020	2485
342.106	3544
342.193	5081
342.279	8749
342.366	7049
342.452	10855
342.539	5970
342.625	13230
342.712	28943
342.798	13751
342.885	5858
342.971	3344
343.058	3394
343.144	3545
343.230	3185
343.317	4217
343.403	2238
343.490	4016
343.576	3303
343.662	3679
343.749	3461
343.835	5533
343.921	9279
344.008	44286
344.094	92720
344.180	21901
344.267	9365
344.353	36651
344.439	52369
344.525	18996
344.612	5606
344.698	6026
344.784	4226
344.870	3574
344.957	2759
345.043	7382
345.129	4777
345.215	11566
345.301	5801
345.387	4166
345.474	3832
345.560	5258
345.646	10313
345.732	7215
345.818	4402
345.904	5206
345.990	5479
346.076	10137
346.162	24845
346.249	7190
346.335	3468
346.421	4538
346.507	11577
346.593	40280
346.679	11656
346.765	8141
346.851	5045
346.937	4707
347.023	3427
347.108	5020
347.194	3361
347.280	4200
347.366	3542
347.452	12106
347.538	46141
347.624	39904
347.710	45540
347.796	11370
347.882	6120
347.967	6176
348.053	14203
348.139	8254
348.225	4573
348.311	4290
348.397	2579
348.482	5683
348.568	6868
348.654	4275
348.740	3349
348.825	4096
348.911	6924
348.997	24126
349.083	51678
349.168	13820
349.254	3604
349.340	4852
349.425	3083
349.511	6723
349.597	7920
349.682	11074
349.768	31606
349.854	15883
349.939	7465
350.025	5185
350.110	3201
350.196	3474
350.282	1865
350.367	3623
350.453	14738
350.538	15657
350.624	7874
350.709	9955
350.795	2793
350.880	2924
350.966	5242
351.051	13443
351.137	10510
351.222	4707
351.308	10501
351.393	28882
351.479	6678
351.564	2222
351.649	4365
351.735	4706
351.820	1837
351.906	3186
351.991	6626
352.076	20966
352.162	27218
352.247	6191
352.332	4272
352.418	6073
352.503	8711
352.588	42196
352.673	34176
352.759	8071
352.844	3167
352.929	5177
353.014	6110
353.100	6262
353.185	10892
353.270	12693
353.355	12083
353.441	4962
353.526	8271
353.611	13139
353.696	11265
353.781	7782
353.866	3908
353.952	4456
354.037	9600
354.122	23706
354.207	20772
354.292	8478
354.377	3858
354.462	3943
354.547	4965
354.632	7695
354.717	13045
354.802	14236
354.887	5005
354.972	3238
355.057	2425
355.142	2588
355.227	3687
355.312	7465
355.397	15272
355.482	35355
355.567	16685
355.652	13774
355.737	12681
355.822	34714
355.907	26720
355.991	5249
356.076	3284
356.161	4517
356.246	3212
356.331	4430
356.416	7993
356.501	50112
356.585	50224
356.670	7336
356.755	6472
356.840	8978
356.924	41429
357.009	125524
357.094	48773
357.179	13065
357.263	7530
357.348	11173
357.433	12276
357.517	8657
357.602	6282
357.687	5064
357.771	6690
357.856	7793
357.941	6380
358.025	27392
358.110	108613
358.195	53047
358.279	8872
358.364	7849
358.448	25882
358.533	67058
358.617	48748
358.702	49289
358.787	18343
358.871	12097
358.956	9719
359.040	2985
359.125	2282
359.209	3675
359.294	3319
359.378	5052
359.462	7891
359.547	8919
359.631	9069
359.716	3750
359.800	5956
359.885	14539
359.969	5552
360.053	4068
360.138	3528
360.222	6287
360.306	10517
360.391	9511
360.475	10029
360.559	20550
360.644	27163
360.728	20928
360.812	28548
360.896	75321
360.981	46297
361.065	32443
361.149	7374
361.233	7431
361.318	6170
361.402	8035
361.486	6563
361.570	3512
361.654	4599
361.739	12571
361.823	47542
361.907	71463
361.991	13725
362.075	9984
362.159	19879
362.243	15518
362.327	13708
362.411	17768
362.495	13182
362.580	7332
362.664	5442
362.748	3807
362.832	4875
362.916	6144
363.000	20081
363.084	61705
363.168	85375
363.252	23426
363.336	11304
363.420	17433
363.503	70760
363.587	84147
363.671	13912
363.755	10071
363.839	14934
363.923	5647
364.007	11510
364.091	18238
364.175	28086
364.258	104086
364.342	60522
364.426	46439
364.510	26472
364.594	20904
364.677	20963
364.761	62121
364.845	46470
364.929	18329
365.013	15819
365.096	13224
365.180	14863
365.264	30047
365.347	107534
365.431	58994
365.515	19331
365.598	5680
365.682	6451
365.766	21400
365.849	28485
365.933	10507
366.017	18043
366.100	17303
366.184	4536
366.267	7162
366.351	3024
366.435	3451
366.518	2950
366.602	3614
366.685	3926
366.769	5993
366.852	16138
366.936	25783
367.019	9498
367.103	13479
367.186	32228
367.270	8192
367.353	2136
367.436	3805
367.520	3181
367.603	5068
367.687	6557
367.770	13125
367.853	7303
367.937	21557
368.020	34747
368.104	8674
368.187	9815
368.270	14324
368.353	13552
368.437	26741
368.520	79861
368.603	42536
368.687	27872
368.770	49068
368.853	14035
368.936	20534
369.020	27205
369.103	7641
369.186	4407
369.269	4868
369.352	9821
369.436	18355
369.519	10204
369.602	4051
369.685	6205
369.768	7601
369.851	7344
369.934	4494
370.018	6960
370.101	11676
370.184	13160
370.267	11683
370.350	13333
370.433	23339
370.516	36151
370.599	43476
370.682	16561
370.765	32167
370.848	36093
370.931	59351
371.014	35191
371.097	7556
371.180	4570
371.263	3939
371.346	1740
371.429	4277
371.511	4528
371.594	9378
371.677	20203
371.760	31388
371.843	12391
371.926	40959
372.009	91388
372.091	36082
372.174	28037
372.257	52942
372.340	22940
372.423	34392
372.505	49672
372.588	17817
372.671	18987
372.754	53663
372.836	29578
372.919	35142
373.002	72305
373.085	19895
373.167	11046
373.250	25066
373.332	50359
373.415	64037
373.498	121374
373.580	53593
373.663	56825
373.746	76733
373.828	20890
373.911	14588
373.993	15296
374.076	65645
374.159	72400
374.241	25130
374.324	50744
374.406	35304
374.489	36791
374.571	101008
374.654	44625
374.736	23494
374.819	66852
374.901	91298
374.983	89960
375.066	18926
375.148	10154
375.231	51246
375.313	106050
375.395	48261
375.478	9714
375.560	6158
375.643	7329
375.725	25888
375.807	83797
375.890	97862
375.972	69472
376.054	34433
376.136	68989
376.219	29565
376.301	25989
376.383	67947
376.465	27807
376.548	19370
376.630	23210
376.712	59486
376.794	28924
376.877	4773
376.959	2546
377.041	7735
377.123	23124
377.205	30140
377.287	4520
377.369	3585
377.452	4164
377.534	3731
377.616	3531
377.698	4224
377.780	2528
377.862	4045
377.944	4439
378.026	2792
378.108	3486
378.190	3143
378.272	3728
378.354	3194
378.436	2113
378.518	12048
378.600	43772
378.682	29292
378.764	34244
378.846	29966
378.928	14119
379.010	14453
379.091	7555
379.173	3956
379.255	2728
379.337	6280
379.419	16744
379.501	47689
379.583	23475
379.664	8267
379.746	12841
379.828	37767
379.910	45623
379.991	39911
380.073	7648
380.155	6637
380.237	4432
380.318	3807
380.400	3180
380.482	10064
380.564	15434
380.645	15125
380.727	14185
380.809	8864
380.890	5331
380.972	4538
381.053	4805
381.135	6928
381.217	12100
381.298	38110
381.380	19973
381.461	18676
381.543	57176
381.624	71349
381.706	16162
381.787	13289
381.869	11553
381.951	26169
382.032	88613
382.113	65836
382.195	18141
382.276	14867
382.358	22603
382.439	50840
382.521	58033
382.602	85441
382.684	43802
382.765	80820
382.846	77503
382.928	69784
383.009	38086
383.090	27626
383.172	90175
383.253	139937
383.334	67620
383.416	82731
383.497	41642
383.578	15170
383.659	29162
383.741	83194
383.822	195170
383.903	109016
383.984	51650
384.066	99163
384.147	64701
384.228	15418
384.309	10060
384.390	8029
384.471	6256
384.553	9756
384.634	14808
384.715	12739
384.796	6066
384.877	8572
384.958	28469
385.039	38004
385.120	14814
385.201	8871
385.282	17315
385.363	23643
385.444	11549
385.525	13939
385.606	39840
385.687	38095
385.768	17046
385.849	23966
385.930	46531
386.011	76409
386.092	24013
386.173	9019
386.254	9904
386.335	10887
386.416	7949
386.496	25382
386.577	41694
386.658	28937
386.739	17876
386.820	23489
386.901	20134
386.981	14775
387.062	6669
387.143	9396
387.224	34912
387.304	39503
387.385	18869
387.466	15573
387.547	23087
387.627	10759
387.708	15270
387.789	56124
387.869	68071
387.950	20917
388.031	5321
388.111	11049
388.192	42182
388.273	66619
388.353	32361
388.434	10245
388.514	12726
388.595	47216
388.676	65231
388.756	37338
388.837	35324
388.917	22411
388.998	5503
389.078	5937
389.159	4265
389.239	3528
389.320	8514
389.400	6709
389.480	21305
389.561	43246
389.641	20064
389.722	9162
389.802	13819
389.883	19977
389.963	44383
390.043	44045
390.124	24528
390.204	15602
390.284	37715
390.365	29256
390.445	47782
390.525	70183
390.605	42074
390.686	19005
390.766	7993
390.846	5096
390.927	2142
391.007	4510
391.087	8233
391.167	9507
391.247	6995
391.328	19453
391.408	30867
391.488	22110
391.568	4541
391.648	7088
391.728	8359
391.808	7711
391.888	7405
391.969	20258
392.049	34502
392.129	24963
392.209	21730
392.289	38691
392.369	28104
392.449	43040
392.529	24418
392.609	12917
392.689	13839
392.769	35438
392.849	32443
392.929	34092
393.009	71649
393.089	43659
393.169	27848
393.248	78058
393.328	257668
393.408	284254
393.488	83787
393.568	24193
393.648	11433
393.728	8870
393.807	6195
393.887	6095
393.967	5190
394.047	6418
394.127	6935
394.206	10307
394.286	30017
394.366	131588
394.446	149911
394.525	31947
394.605	7748
394.685	15600
394.764	51479
394.844	81939
394.924	53586
395.003	11774
395.083	6471
395.163	6121
395.242	4045
395.322	5074
395.402	2539
395.481	8182
395.561	28102
395.640	78165
395.720	55126
395.799	78134
395.879	61906
395.958	16924
396.038	41381
396.117	172930
396.197	203388
396.276	76665
396.356	37322
396.435	38262
396.515	18896
396.594	14700
396.673	25060
396.753	83432
396.832	236892
396.912	198850
396.991	54043
397.070	15582
397.150	7430
397.229	7414
397.308	7312
397.388	13435
397.467	7282
397.546	5109
397.625	2099
397.705	6037
397.784	5739
397.863	3537
397.942	3030
398.022	4897
398.101	25794
398.180	82253
398.259	53631
398.338	14693
398.417	6108
398.497	6237
398.576	6944
398.655	3235
398.734	3093
398.813	4965
398.892	23806
398.971	81876
399.050	43428
399.129	4888
399.208	2472
399.287	3968
399.366	2412
399.445	3802
399.524	3382
399.603	2237
399.682	7309
399.761	22325
399.840	78651
399.919	69056
399.998	11770
400.077	2626
400.156	1937
400.235	7577
400.313	5719
400.392	7626
400.471	19552
400.550	31446
400.629	9763
400.708	7272
400.786	9989
400.865	31301
400.944	34814
401.023	14465
401.102	1882
401.180	3095
401.259	5182
401.338	8678
401.416	8591
401.495	7746
401.574	9224
401.652	6118
401.731	9213
401.810	9526
401.888	3503
401.967	2220
402.046	3293
402.124	8720
402.203	11425
402.281	7224
402.360	10163
402.438	36827
402.517	28243
402.596	11303
402.674	11368
402.753	6931
402.831	4161
402.910	5564
402.988	19305
403.066	60321
403.145	36306
403.223	19365
403.302	45926
403.380	38874
403.459	37357
403.537	17665
403.615	7679
403.694	2236
403.772	2351
403.850	2556
403.929	1653
404.007	1958
404.085	7269
404.164	9119
404.242	2977
404.320	4563
404.398	9091
404.477	18731
404.555	68636
404.633	64061
404.711	11950
404.789	5541
404.868	3380
404.946	2737
405.024	735
405.102	1531
405.180	428
405.258	788
405.336	2885
405.415	4202
405.493	13040
405.571	10776
405.649	2281
405.727	2744
405.805	8503
405.883	6775
405.961	7871
406.039	13855
406.117	3908
406.195	5151
406.273	17701
406.351	65319
406.429	49285
406.507	16858
406.585	6553
406.663	3414
406.740	3902
406.818	4170
406.896	3305
406.974	3896
407.052	5820
407.130	38477
407.208	54352
407.285	11852
407.363	1537
407.441	2609
407.519	1715
407.596	3079
407.674	7681
407.752	19763
407.830	34235
407.907	22359
407.985	5216
408.063	2724
408.141	1798
408.218	10632
408.296	11120
408.373	4832
408.451	2694
408.529	3638
408.606	1359
408.684	1261
408.762	594
408.839	1135
408.917	162
408.994	1667
409.072	356
409.149	398
409.227	2877
409.304	3657
409.382	1686
409.459	2553
409.537	3704
409.614	3495
409.692	1833
409.769	2932
409.846	3757
409.924	8171
410.001	3634
410.079	2829
410.156	2552
410.233	3015
410.311	1189
410.388	1936
410.465	1704
410.543	2419
410.620	1839
410.697	2884
410.775	2015
410.852	161
410.929	2886
411.006	4830
411.083	1656
411.161	5807
411.238	11433
411.315	9970
411.392	2082
411.469	3567
411.547	2896
411.624	853
411.701	1164
411.778	2877
411.855	5193
411.932	2852
412.009	1426
412.086	2069
412.163	4353
412.240	7535
412.317	8521
412.394	7519
412.471	1826
412.548	1321
412.625	1404
412.702	5850
412.779	10341
412.856	5618
412.933	1177
413.010	2355
413.087	4579
413.164	17831
413.241	25522
413.318	6376
413.395	3479
413.471	6092
413.548	2816
413.625	2811
413.702	5181
413.779	6261
413.855	771
413.932	1020
414.009	-546
414.086	943
414.162	1295
414.239	5885
414.316	20161
414.393	39429
414.469	13362
414.546	1373
414.623	779
414.699	1617
414.776	1783
414.853	1655
414.929	2111
415.006	3478
415.082	6456
415.159	5137
415.236	986
415.312	2455
415.389	4821
415.465	6162
415.542	2304
415.618	1500
415.695	3253
415.771	2777
415.848	2837
415.924	4620
416.000	4610
416.077	2241
416.153	99
416.230	417
416.306	-206
416.383	3326
416.459	1346
416.535	69
416.612	894
416.688	1312
416.764	-41
416.841	1185
416.917	1706
416.993	2048
417.069	2684
417.146	5179
417.222	3755
417.298	2210
417.374	1451
417.451	3146
417.527	1473
417.603	3170
417.679	1995
417.755	1801
417.831	-129
417.908	1388
417.984	829
418.060	468
418.136	4389
418.212	5994
418.288	2464
418.364	2575
418.440	1082
418.516	5044
418.592	12098
418.668	16926
418.744	12339
418.820	9048
418.896	3119
418.972	857
419.048	768
419.124	6058
419.200	3091
419.276	1462
419.352	-1325
419.428	827
419.504	417
419.579	1774
419.655	214
419.731	2288
419.807	7215
419.883	14706
419.959	8632
420.034	3973
420.110	6846
420.186	21721
420.262	18963
420.337	5111
420.413	3513
420.489	1413
420.565	1851
420.640	891
420.716	1432
420.792	794
420.867	1304
420.943	1463
421.019	3891
421.094	2801
421.170	1799
421.245	664
421.321	1839
421.397	1744
421.472	2585
421.548	8571
421.623	6472
421.699	2889
421.774	2790
421.850	2420
421.925	4636
422.001	4418
422.076	3482
422.152	4303
422.227	6660
422.302	8431
422.378	10743
422.453	21236
422.529	50775
422.604	134086
422.679	212037
422.755	150364
422.830	55142
422.905	22394
422.981	11362
423.056	7990
423.131	4379
423.207	3965
423.282	4114
423.357	8839
423.432	5201
423.508	6543
423.583	12357
423.658	9711
423.733	5024
423.808	6856
423.883	5434
423.959	3416
424.034	2032
424.109	1951
424.184	-160
424.259	804
424.334	661
424.409	1498
424.484	774
424.559	1476
424.634	1068
424.709	2677
424.784	2893
424.859	3060
424.934	5012
425.009	17565
425.084	28912
425.159	12850
425.234	1880
425.309	407
425.384	449
425.459	398
425.534	2257
425.609	4929
425.683	2362
425.758	1726
425.833	2686
425.908	4201
425.983	9868
426.058	30263
426.132	16466
426.207	6762
426.282	12352
426.357	14262
426.431	3263
426.506	3031
426.581	3873
426.655	3597
426.730	1062
426.805	881
426.879	1745
426.954	3062
427.029	6811
427.103	27141
427.178	59374
427.253	30413
427.327	5612
427.402	9642
427.476	18509
427.551	7678
427.625	4988
427.700	6306
427.774	3465
427.849	6951
427.923	2575
427.998	2689
428.072	3161
428.147	10796
428.221	24775
428.296	54507
428.370	27577
428.444	7731
428.519	16250
428.593	33187
428.667	28492
428.742	33281
428.816	27730
428.890	51975
428.965	65455
429.039	32579
429.113	39894
429.188	15065
429.262	1448
429.336	5434
429.410	16929
429.485	15002
429.559	25269
429.633	23271
429.707	4802
429.781	14300
429.855	66992
429.930	94731
430.004	74551
430.078	113211
430.152	84003
430.226	63567
430.300	59723
430.374	11492
430.448	6459
430.522	29324
430.596	85668
430.670	51200
430.744	56847
430.818	83837
430.892	20505
430.966	4463
431.040	1684
431.114	1507
431.188	1909
431.262	3341
431.336	2908
431.410	14068
431.484	37595
431.557	22158
431.631	2449
431.705	2354
431.779	9216
431.853	41665
431.927	31444
432.000	3944
432.074	1928
432.148	7566
432.222	6224
432.295	2318
432.369	1335
432.443	5558
432.516	29471
432.590	64695
432.664	28943
432.737	4345
432.811	404
432.885	586
432.958	581
433.032	382
433.106	30
433.179	331
433.253	-429
433.326	448
433.400	448
433.473	1219
433.547	-456
433.620	1153
433.694	1999
433.767	5831
433.841	2592
433.914	671
433.988	133
434.061	971
434.134	347
434.208	601
434.281	-837
434.355	961
434.428	643
434.501	1052
434.575	1124
434.648	2959
434.721	-156
434.795	-51
434.868	-845
434.941	415
435.014	-639
435.088	513
435.161	-184
435.234	2794
435.307	3216
435.381	2130
435.454	1111
435.527	2529
435.600	1246
435.673	1432
435.746	282
435.819	983
435.892	412
435.966	31
436.039	1094
436.112	2284
436.185	-225
436.258	547
436.331	-1116
436.404	-440
436.477	-328
436.550	-744
436.623	-288
436.696	493
436.769	359
436.842	1290
436.915	1923
436.987	4623
437.060	1725
437.133	688
437.206	26
437.279	2052
437.352	449
437.425	-42
437.498	920
437.570	4326
437.643	4067
437.716	1009
437.789	-522
437.861	3088
437.934	8362
438.007	4870
438.080	-463
438.152	1915
438.225	4036
438.298	30056
438.370	81061
438.443	39007
438.516	9090
438.588	2043
438.661	-221
438.734	752
438.806	1459
438.879	3766
438.951	2705
439.024	5423
439.096	846
439.169	1070
439.241	-201
439.314	1078
439.386	6514
439.459	11474
439.531	14263
439.604	4595
439.676	203
439.749	638
439.821	426
439.893	1180
439.966	336
440.038	2864
440.110	2244
440.183	867
440.255	-846
440.327	3261
440.400	18624
440.472	64378
440.544	43987
440.617	6037
440.689	4248
440.761	5938
440.833	8278
440.905	6979
440.978	-230
441.050	786
441.122	617
441.194	492
441.266	275
441.338	748
441.411	2599
441.483	19546
441.555	32096
441.627	10199
441.699	9338
441.771	11398
441.843	2850
441.915	764
441.987	1031
442.059	1019
442.131	2996
442.203	6626
442.275	7492
442.347	7204
442.419	5077
442.491	22904
442.563	59598
442.635	40309
442.706	34914
442.778	28837
442.850	3817
442.922	1162
442.994	4193
443.066	7654
443.137	4376
443.209	3137
443.281	3278
443.353	11399
443.425	36913
443.496	99581
443.568	105337
443.640	47424
443.711	11616
443.783	3812
443.855	2731
443.926	1999
443.998	3513
444.070	7681
444.141	5290
444.213	4975
444.285	5798
444.356	8870
444.428	8734
444.499	3585
444.571	502
444.642	1216
444.714	1392
444.785	4337
444.857	10460
444.928	32658
445.000	19272
445.071	20822
445.143	25168
445.214	9992
445.285	17841
445.357	55808
445.428	86081
445.500	166500
445.571	135671
445.642	68541
445.714	42827
445.785	48863
445.856	13273
445.928	6943
445.999	5361
446.070	4846
446.141	4622
446.213	7035
446.284	4349
446.355	8230
446.426	5182
446.497	4339
446.569	10045
446.640	13545
446.711	5874
446.782	3191
446.853	8511
446.924	7777
446.995	3209
447.066	4532
447.138	12801
447.209	7761
447.280	-213
447.351	407
447.422	450
447.493	5249
447.564	4758
447.635	4916
447.706	1801
447.777	99
447.847	561
447.918	1215
447.989	5727
448.060	9303
448.131	22759
448.202	17946
448.273	9161
448.344	6111
448.414	1324
448.485	1298
448.556	816
448.627	458
448.698	404
448.768	919
448.839	1857
448.910	10887
448.981	10311
449.051	2209
449.122	489
449.193	791
449.263	826
449.334	1076
449.405	1369
449.475	6807
449.546	7712
449.616	12935
449.687	10770
449.758	2666
449.828	978
449.899	1143
449.969	134
450.040	1146
450.110	4265
450.181	6527
450.251	842
450.322	1298
450.392	2139
450.463	1916
450.533	374
450.604	2231
450.674	984
450.744	1927
450.815	547
450.885	1500
450.955	1482
451.026	938
451.096	1738
451.166	4505
451.237	13709
451.307	37749
451.377	15245
451.447	1740
451.518	446
451.588	1691
451.658	1270
451.728	5954
451.799	33880
451.869	43628
451.939	9740
452.009	1683
452.079	-56
452.149	2485
452.219	7916
452.289	40762
452.360	32232
452.430	5469
452.500	2307
452.570	3730
452.640	6588
452.710	24182
452.780	41985
452.850	20788
452.920	15568
452.990	6922
453.060	2955
453.129	4605
453.199	8146
453.269	31051
453.339	71934
453.409	112867
453.479	107248
453.549	167080
453.619	191168
453.688	82900
453.758	10465
453.828	3157
453.898	3163
453.968	2966
454.037	1529
454.087	2446
454.107	2805
454.168	1110
454.177	843
454.247	1556
454.249	1565
454.316	1025
454.330	1767
454.386	4245
454.411	10285
454.456	19983
454.492	26769
454.525	32948
454.574	16125
454.595	8879
454.655	3706
454.665	2895
454.734	3669
454.736	3962
454.804	11315
454.817	16364
454.873	35661
454.898	39190
454.943	45522
454.979	31180
455.013	18712
455.060	10233
455.082	6664
455.141	7098
455.152	6901
455.221	25683
455.222	26113
455.291	48391
455.303	44794
455.360	29584
455.384	33702
455.430	40378
455.465	36327
455.499	32292
455.546	36055
455.569	37019
455.627	25709
455.638	23977
455.707	3272
455.708	3287
455.777	2189
455.789	2386
455.846	3237
455.869	3187
455.916	3058
455.950	3119
455.985	3056
456.031	3421
456.054	3536
456.112	2235
456.124	2060
456.193	2150
456.193	2118
456.262	3380
456.274	3967
456.332	6623
456.355	7369
456.401	7918
456.436	6202
456.470	4831
456.516	2714
456.540	1742
456.597	1962
456.609	1952
456.678	1255
456.678	1235
456.747	1432
456.759	1382
456.817	1070
456.840	1222
456.886	1515
456.920	1482
456.955	1559
457.001	2638
457.024	3327
457.082	4294
457.093	4421
457.162	8300
457.163	8344
457.232	10879
457.243	10031
457.301	6291
457.324	4784
457.370	2431
457.405	2516
457.439	2746
457.485	2871
457.508	2916
457.566	3660
457.577	3923
457.646	5296
457.647	5346
457.715	9776
457.727	10711
457.784	15755
457.808	18965
457.853	20960
457.889	22794
457.922	22846
457.969	19057
457.991	20649
458.050	23573
458.060	23997
458.129	36688
458.130	37115
458.198	30172
458.211	26730
458.267	18621
458.292	13611
458.336	9931
458.372	10566
458.405	14618
458.453	21364
458.474	25657
458.533	42048
458.543	42453
458.611	53785
458.614	54142
458.680	35866
458.694	28184
458.749	15138
458.775	11377
458.818	6979
458.855	5999
458.887	5367
458.936	5008
458.955	4925
459.016	4497
459.024	4468
459.093	5524
459.097	5549
459.162	5334
459.177	5490
459.230	6595
459.257	7217
459.299	7650
459.338	7654
459.368	7696
459.418	7955
459.437	7357
459.499	5757
459.505	5807
459.574	5116
459.579	5133
459.643	4865
459.659	4599
459.711	4299
459.740	4855
459.780	5621
459.820	6173
459.849	6368
459.900	7046
459.917	6968
459.981	6122
459.986	6085
460.054	5235
460.061	5101
460.123	5065
460.141	5630
460.191	7059
460.222	7406
460.260	7811
460.302	8830
460.328	8276
460.382	6321
460.397	6282
460.462	5818
460.465	5865
460.534	7876
460.543	8148
460.602	13924
460.623	16265
460.671	22778
460.703	29458
460.739	26202
460.783	19752
460.808	18695
460.864	9187
460.876	8004
460.944	6224
460.945	6190
461.013	6391
461.024	6173
461.081	5806
461.104	6240
461.150	6249
461.184	5889
461.218	6013
461.264	5830
461.286	5768
461.345	6196
461.355	6223
461.423	6711
461.425	6700
461.491	8211
461.505	8729
461.559	17607
461.585	21566
461.628	32275
461.665	44387
461.696	45162
461.745	51673
461.764	47882
461.825	18703
461.832	17938
461.901	8595
461.905	8580
461.969	8074
461.985	7970
462.037	8224
462.065	8266
462.105	10107
462.145	12037
462.173	16286
462.225	24932
462.241	27081
462.305	39028
462.310	37976
462.378	20914
462.385	17858
462.446	10080
462.465	8831
462.514	7345
462.545	7263
462.582	6908
462.625	7111
462.650	7628
462.705	8058
462.718	8524
462.785	11222
462.786	11302
462.854	15633
462.865	16639
462.922	19293
462.945	20380
462.990	16249
463.025	11017
463.058	9668
463.104	8033
463.126	7565
463.184	7550
463.194	7690
463.262	8666
463.264	8713
463.330	8720
463.344	8592
463.398	9689
463.424	10324
463.466	10533
463.504	10836
463.533	10910
463.583	10638
463.601	11090
463.663	12595
463.669	13068
463.737	18947
463.743	19495
463.805	30854
463.823	34118
463.873	49842
463.903	60214
463.940	57829
463.982	57536
464.008	48161
464.062	20464
464.076	18985
464.142	9863
464.144	9738
464.211	9448
464.221	9551
464.279	10188
464.301	10440
464.347	12077
464.381	13403
464.414	14309
464.461	15476
464.482	15615
464.540	16786
464.550	16295
464.617	11147
464.620	10952
464.685	11557
464.699	11803
464.753	11568
464.779	11598
464.820	12565
464.859	13155
464.888	13794
464.938	15024
464.956	15085
465.018	15566
465.023	15270
465.091	10853
465.098	10302
465.158	10360
465.177	10597
465.226	10697
465.257	10629
465.293	11771
465.336	13290
465.361	15059
465.416	18650
465.428	20570
465.495	31316
465.496	31504
465.563	52942
465.575	56810
465.631	60563
465.654	62583
465.698	38629
465.734	16191
465.765	14081
465.813	10884
465.833	10310
465.893	10390
465.900	10355
465.968	10025
465.972	9982
466.035	9922
466.052	9871
466.102	10215
466.131	10442
466.170	10260
466.210	9883
466.237	9976
466.290	10315
466.304	10523
466.369	11137
466.372	11204
466.439	12760
466.449	12938
466.506	15977
466.528	17125
466.573	28912
466.607	37697
466.641	53834
466.687	76261
466.708	79284
466.766	87864
466.775	80591
466.842	24531
466.845	21813
466.909	16285
466.925	15207
466.977	14463
467.004	14165
467.044	14321
467.083	14472
467.111	14762
467.163	15219
467.178	15422
467.242	16124
467.245	16195
467.312	17067
467.321	17154
467.379	18582
467.400	19041
467.446	21858
467.480	23825
467.559	17884
467.638	15257
467.717	15900
467.796	17935
467.875	21397
467.955	20656
468.034	42340
468.113	88724
468.192	111867
468.271	22045
468.350	17911
468.429	23487
468.508	22963
468.588	17827
468.667	17345
468.746	15443
468.825	15172
468.904	15560
468.983	23566
469.062	35754
469.141	37946
469.220	14116
469.299	15429
469.378	14456
469.456	15511
469.535	13783
469.614	15728
469.693	17968
469.772	27285
469.851	38317
469.930	20073
470.009	13855
470.088	14299
470.166	15834
470.245	22326
470.324	23004
470.403	17464
470.482	14114
470.560	14965
470.639	16635
470.718	17923
470.797	16048
470.875	22024
470.954	29328
471.033	28943
471.111	12886
471.190	12093
471.269	12094
471.347	13712
471.426	13843
471.505	16790
471.583	14227
471.662	13037
471.740	13048
471.819	13438
471.898	12049
471.976	13211
472.055	13391
472.133	16968
472.212	24870
472.290	24529
472.369	13597
472.447	13471
472.526	11721
472.604	13357
472.683	14703
472.761	15261
472.839	13828
472.918	13995
472.996	13621
473.075	19198
473.153	15780
473.231	14422
473.310	19159
473.388	15434
473.466	14682
473.545	17533
473.623	21660
473.701	18269
473.780	14113
473.858	12305
473.936	14575
474.014	13624
474.093	18819
474.171	29473
474.249	41784
474.327	21292
474.405	13050
474.484	11810
474.562	13143
474.640	13094
474.718	14882
474.796	13430
474.874	12137
474.952	10649
475.030	11251
475.108	13284
475.187	13506
475.265	17774
475.343	25130
475.421	24257
475.499	12970
475.577	15375
475.655	25760
475.733	53075
475.811	88960
475.889	78090
475.966	37976
476.044	17145
476.122	22891
476.200	27340
476.278	20155
476.356	15940
476.434	17810
476.512	22405
476.590	27811
476.667	21483
476.745	15371
476.823	16147
476.901	15723
476.979	18777
477.056	16862
477.134	16489
477.212	16050
477.290	15459
477.367	13953
477.445	14469
477.523	13825
477.601	15002
477.678	15861
477.756	21465
477.834	21323
477.911	16022
477.989	15244
478.066	16055
478.144	19472
478.222	22978
478.299	35733
478.377	25393
478.454	13934
478.532	14602
478.609	14382
478.687	15232
478.764	13389
478.842	14942
478.919	17115
478.997	16473
479.074	14178
479.152	19113
479.229	25208
479.307	14667
479.384	12014
479.461	13842
479.539	16419
479.616	19375
479.694	16193
479.771	19868
479.848	19568
479.926	27382
480.003	25082
480.080	15163
480.157	13894
480.235	13745
480.312	14831
480.389	21296
480.467	33769
480.544	37832
480.621	18933
480.698	20638
480.775	21326
480.853	22338
480.930	16685
481.007	19169
481.084	21577
481.161	21764
481.238	20444
481.315	16349
481.392	16485
481.470	16697
481.547	16631
481.624	15799
481.701	15626
481.778	18677
481.855	22550
481.932	34697
482.009	55440
482.086	29946
482.163	19464
482.240	29485
482.317	46803
482.393	26611
482.470	17558
482.547	18595
482.624	16041
482.701	18085
482.778	16617
482.855	13829
482.932	14005
483.009	16050
483.085	17279
483.162	20249
483.239	17792
483.316	16034
483.393	16923
483.469	16410
483.546	19715
483.623	20147
483.699	15681
483.776	16948
483.853	19363
483.930	35713
484.006	81111
484.083	115763
484.160	30067
484.236	31576
484.313	26526
484.389	24195
484.466	22360
484.543	22644
484.619	24188
484.696	27021
484.772	29664
484.849	31576
484.925	22160
485.002	22135
485.078	24652
485.155	25990
485.231	20531
485.308	21770
485.384	23803
485.461	38625
485.537	68670
485.614	70002
485.690	22673
485.766	21112
485.843	24832
485.919	35903
485.995	31759
486.072	19992
486.148	19200
486.224	21292
486.301	23177
486.377	30145
486.453	28158
486.530	23140
486.606	25389
486.682	31897
486.758	51296
486.835	58878
486.911	49250
486.987	89248
487.063	75409
487.139	80518
487.215	49024
487.292	24525
487.368	22812
487.444	28566
487.520	37526
487.596	35872
487.672	70993
487.748	168952
487.824	196255
487.900	50657
487.976	29803
488.052	32997
488.128	38576
488.204	27251
488.280	24598
488.356	38271
488.432	87432
488.508	116567
488.584	27509
488.660	19888
488.736	20017
488.812	20816
488.888	26784
488.964	43648
489.039	95398
489.115	122798
489.191	52419
489.267	22348
489.343	21417
489.418	17198
489.494	17081
489.570	16392
489.646	18179
489.722	19012
489.797	22885
489.873	48506
489.949	102645
490.024	60371
490.100	18565
490.176	18725
490.251	24738
490.327	28980
490.403	17432
490.478	16281
490.554	15000
490.629	14725
490.705	15774
490.781	17822
490.856	18719
490.932	19616
491.007	19033
491.083	18465
491.158	20267
491.234	34889
491.309	80293
491.385	61635
491.460	20105
491.536	21091
491.611	17165
491.686	20476
491.762	29915
491.837	64590
491.913	99039
491.988	145471
492.063	131795
492.139	48815
492.214	26620
492.289	14811
492.365	15509
492.440	19330
492.515	22444
492.590	20718
492.666	17077
492.741	28462
492.816	42043
492.891	17652
492.967	14308
493.042	13874
493.117	13190
493.192	16310
493.267	29196
493.342	66183
493.418	68042
493.493	14993
493.568	14261
493.643	15016
493.718	22851
493.793	37296
493.868	31695
493.943	18618
494.018	15106
494.093	16056
494.168	15179
494.243	13649
494.318	12707
494.393	12998
494.468	12879
494.543	12501
494.618	15544
494.693	13449
494.768	15454
494.842	14150
494.917	12344
494.992	13911
495.067	12164
495.142	12925
495.217	12950
495.292	14314
495.366	17442
495.441	24463
495.516	31169
495.591	50815
495.665	149510
495.740	262775
495.815	69061
495.890	25549
495.964	20893
496.039	23855
496.114	20936
496.188	21476
496.263	22252
496.338	23186
496.412	26617
496.487	27784
496.561	28181
496.636	26163
496.710	23572
496.785	27759
496.860	30683
496.934	22500
497.009	21891
497.083	20887
497.158	23011
497.232	28757
497.307	33631
497.381	24734
497.455	35136
497.530	42439
497.604	26240
497.679	31036
497.753	47521
497.827	53509
497.902	37665
497.976	57874
498.050	172003
498.125	504684
498.199	338493
498.273	53526
498.348	40380
498.422	33558
498.496	34708
498.570	30588
498.645	24592
498.719	27338
498.793	37201
498.867	65528
498.941	93330
499.016	253095
499.090	505457
499.164	106944
499.238	24900
499.312	24146
499.386	28948
499.460	26869
499.534	26237
499.609	34125
499.683	54368
499.757	52795
499.831	133261
499.905	398837
499.979	250444
500.053	64411
500.127	58226
500.201	35164
500.275	25884
500.349	26500
500.422	30679
500.496	49646
500.570	102704
500.644	247882
500.718	353225
500.792	55328
500.866	29573
500.940	40723
501.013	30268
501.087	32173
501.161	53501
501.235	77221
501.309	189269
501.382	413432
501.456	242598
501.530	85013
501.603	139011
501.677	39728
501.751	22911
501.825	33820
501.898	74577
501.972	178110
502.046	75765
502.119	35682
502.193	91918
502.266	185777
502.340	72001
502.413	102910
502.487	161831
502.561	85996
502.634	24710
502.708	22938
502.781	20268
502.855	18421
502.928	16488
503.002	18295
503.075	16617
503.149	19044
503.222	18739
503.295	21460
503.369	26942
503.442	49245
503.516	160387
503.589	321167
503.662	162309
503.736	70365
503.809	160052
503.882	112992
503.956	184625
504.029	131176
504.102	111228
504.175	108341
504.249	36146
504.322	32473
504.395	26864
504.468	19939
504.542	20412
504.615	15007
504.688	14260
504.761	15302
504.834	19944
504.907	24747
504.980	30958
505.053	20376
505.127	23959
505.200	28059
505.273	31462
505.346	18714
505.419	15213
505.492	15241
505.565	11388
505.638	13356
505.711	14220
505.784	13658
505.857	13018
505.930	16701
506.003	13001
506.076	16873
506.149	24171
506.221	26943
506.294	30049
506.367	86752
506.440	223281
506.513	76695
506.586	28428
506.659	16038
506.731	14306
506.804	20373
506.877	26194
506.950	17899
507.022	15750
507.095	22845
507.168	23708
507.241	14047
507.313	11387
507.386	14184
507.459	19164
507.531	12749
507.604	11205
507.677	13051
507.749	9548
507.822	16458
507.894	22298
507.967	20053
508.040	12826
508.112	14464
508.185	14432
508.257	14283
508.330	21385
508.402	14815
508.475	15166
508.547	16563
508.620	18751
508.692	30047
508.765	14695
508.837	11489
508.909	11398
508.982	12980
509.054	14239
509.127	11454
509.199	10549
509.271	9919
509.344	9617
509.416	10415
509.488	11645
509.560	12597
509.633	12776
509.705	14322
509.777	16189
509.849	19537
509.922	10095
509.994	9865
510.066	12397
510.138	9926
510.210	15574
510.283	14499
510.355	12866
510.427	11906
510.499	11843
510.571	11977
510.643	14112
510.715	23814
510.787	14501
510.859	15328
510.931	18945
511.003	22604
511.076	18674
511.148	12436
511.219	14065
511.291	29343
511.363	27724
511.435	11501
511.507	10085
511.579	11932
511.651	11912
511.723	10941
511.795	9905
511.867	11644
511.939	19642
512.010	44378
512.082	25560
512.154	12499
512.226	11744
512.298	16671
512.369	19216
512.441	15438
512.513	16247
512.585	12173
512.656	16362
512.728	16507
512.800	11033
512.871	12375
512.943	11646
513.015	8988
513.086	12256
513.158	13666
513.230	13835
513.301	21590
513.373	20883
513.444	12094
513.516	10363
513.588	11807
513.659	13524
513.731	16493
513.802	16730
513.874	38037
513.945	46961
514.016	13104
514.088	11934
514.159	13253
514.231	18784
514.302	18026
514.374	14382
514.445	20237
514.516	49063
514.588	25787
514.659	22751
514.730	42650
514.802	22135
514.873	12982
514.944	14301
515.016	15253
515.087	18173
515.158	32262
515.229	35684
515.301	12262
515.372	13639
515.443	10915
515.514	9826
515.585	9760
515.656	10657
515.728	11012
515.799	9900
515.870	12274
515.941	13371
516.012	11513
516.083	14431
516.154	17413
516.225	22702
516.296	18657
516.367	15600
516.438	19095
516.509	26261
516.580	47710
516.651	151243
516.722	354993
516.793	94027
516.864	37655
516.935	37351
517.006	42753
517.077	66942
517.148	155923
517.219	434608
517.289	424998
517.360	219786
517.431	59593
517.502	23765
517.573	24877
517.643	22541
517.714	23854
517.785	23295
517.856	24684
517.926	27167
517.997	29721
518.068	35130
518.138	49142
518.209	90162
518.280	318198
518.350	711025
518.421	151582
518.492	36020
518.562	32294
518.633	36073
518.703	39024
518.774	74171
518.845	155520
518.915	101947
518.986	39755
519.056	39021
519.127	64325
519.197	105468
519.268	232799
519.338	102264
519.408	35607
519.479	37455
519.549	23606
519.620	19704
519.690	16675
519.760	18805
519.831	19278
519.901	17893
519.971	16896
520.042	19016
520.112	24127
520.182	23041
520.253	21046
520.323	16237
520.393	17261
520.463	20219
520.534	18210
520.604	27279
520.674	20732
520.744	23369
520.814	31158
520.885	39107
520.955	99531
521.025	253018
521.095	61632
521.165	20177
521.235	19242
521.305	15969
521.375	15816
521.445	18400
521.515	21615
521.585	24644
521.655	19628
521.725	19839
521.795	18446
521.865	15432
521.935	31424
522.005	21539
522.075	14713
522.145	17286
522.215	22561
522.285	33259
522.355	49567
522.424	87731
522.494	59046
522.564	29720
522.634	63119
522.704	122818
522.774	30852
522.843	17999
522.913	17561
522.983	19760
523.053	16462
523.122	19152
523.192	30284
523.262	81768
523.331	46696
523.401	16036
523.471	14469
523.540	14673
523.610	12015
523.680	13440
523.749	15010
523.819	20508
523.888	17833
523.958	13836
524.027	16993
524.097	17577
524.166	15680
524.236	16246
524.305	17812
524.375	13684
524.444	13539
524.514	16852
524.583	18859
524.653	20645
524.722	22640
524.791	14258
524.861	15136
524.930	13822
524.999	17219
525.069	21427
525.138	20739
525.207	24801
525.277	16051
525.346	16409
525.415	16261
525.484	18036
525.554	22339
525.623	20548
525.692	17052
525.761	18045
525.830	19337
525.900	23370
525.969	38583
526.038	57948
526.107	124931
526.176	258010
526.245	147434
526.314	74579
526.383	165939
526.452	167634
526.522	323393
526.591	202211
526.660	67461
526.729	38690
526.797	55348
526.867	133612
526.935	419204
527.004	575333
527.073	179336
527.142	27969
527.211	20050
527.280	21702
527.349	19609
527.418	13626
527.487	15384
527.555	13403
527.624	12019
527.693	11345
527.762	15432
527.831	12890
527.899	14311
527.968	12940
528.037	12400
528.106	17880
528.174	29165
528.243	25193
528.312	40889
528.380	33981
528.449	14958
528.518	13543
528.586	9714
528.655	13597
528.723	12593
528.792	11860
528.861	13432
528.929	11954
528.998	13036
529.066	12120
529.135	12739
529.203	11959
529.272	13801
529.340	13969
529.409	15854
529.477	13840
529.545	19550
529.614	21231
529.682	24735
529.751	23935
529.819	25443
529.887	18436
529.956	15307
530.024	16982
530.092	13085
530.161	18107
530.229	21852
530.297	14294
530.365	15221
530.434	14433
530.502	13888
530.570	14028
530.638	12671
530.707	15503
530.775	16453
530.843	13116
530.911	14379
530.979	14805
531.047	15195
531.115	16345
531.183	14583
531.252	15265
531.320	15222
531.388	14571
531.456	15392
531.524	13965
531.592	16715
531.660	18050
531.728	15864
531.796	14153
531.864	14914
531.932	15013
532.000	14860
532.067	16291
532.135	17192
532.203	19103
532.271	20809
532.339	33437
532.407	59460
532.475	27988
532.542	21585
532.610	25476
532.678	39664
532.746	133658
532.814	192811
532.881	39658
532.949	17233
533.017	16841
533.084	16508
533.152	16152
533.220	16781
533.287	16004
533.355	16156
533.423	15335
533.490	14659
533.558	16269
533.625	17183
533.693	15711
533.761	16284
533.828	17933
533.896	17841
533.963	28471
534.031	30362
534.098	39808
534.166	20744
534.233	15603
534.300	16879
534.368	17116
534.435	15725
534.503	15854
534.570	16438
534.637	17263
534.705	20370
534.772	24592
534.840	43714
534.907	143424
534.974	98877
535.041	21577
535.109	22484
535.176	13854
535.243	15429
535.310	15328
535.378	14464
535.445	13867
535.512	13981
535.579	16117
535.646	13697
535.714	14927
535.781	15533
535.848	15512
535.915	17534
535.982	15359
536.049	15716
536.116	16544
536.183	15322
536.250	14754
536.317	16461
536.384	17996
536.451	24317
536.518	21587
536.585	17978
536.652	23269
536.719	29294
536.786	20730
536.853	20874
536.920	31030
536.987	41409
537.053	45559
537.120	138526
537.187	65962
537.254	17200
537.321	15087
537.388	15439
537.454	13620
537.521	14534
537.588	13160
537.654	16993
537.721	16724
537.788	16379
537.855	14230
537.921	15247
537.988	14544
538.055	14932
538.121	13996
538.188	17071
538.254	23832
538.321	35947
538.388	20300
538.454	16271
538.521	14305
538.587	14268
538.654	14093
538.720	13639
538.787	13393
538.853	16683
538.920	19880
538.986	20241
539.053	16795
539.119	17261
539.185	16278
539.252	20877
539.318	23327
539.385	19221
539.451	16217
539.517	18620
539.583	24313
539.650	57053
539.716	84566
539.782	21075
539.849	14323
539.915	16629
539.981	16262
540.047	18428
540.114	16452
540.180	18580
540.246	16863
540.312	23206
540.378	40175
540.444	35272
540.510	54088
540.576	94629
540.643	22889
540.709	14244
540.775	15848
540.841	15991
540.907	22430
540.973	26457
541.039	22574
541.105	22334
541.171	16220
541.237	15198
541.303	17132
541.369	19299
541.435	23769
541.500	32061
541.566	18007
541.632	14414
541.698	13809
541.764	15848
541.830	13505
541.896	14451
541.961	15054
542.027	15260
542.093	14999
542.159	15886
542.224	16703
542.290	23752
542.356	34614
542.421	30723
542.487	18089
542.553	16576
542.618	18005
542.684	16130
542.750	16582
542.815	22125
542.881	39925
542.947	100409
543.012	43362
543.078	14967
543.143	14696
543.209	16591
543.274	16523
543.340	21720
543.405	46536
543.471	44985
543.536	16944
543.602	15966
543.667	15153
543.732	15801
543.798	13308
543.863	15062
543.928	12925
543.994	13462
544.059	14678
544.124	14351
544.190	13662
544.255	14716
544.320	15671
544.386	15753
544.451	21975
544.516	23510
544.581	28531
544.646	71613
544.712	68982
544.777	20738
544.842	20841
544.907	23904
544.972	19932
545.037	21426
545.102	22010
545.168	22409
545.233	23356
545.298	25905
545.363	25892
545.428	29140
545.493	49594
545.558	71552
545.623	28026
545.688	22314
545.753	21660
545.818	21465
545.883	23131
545.947	21887
546.012	26054
546.077	25810
546.142	23936
546.207	22969
546.272	27564
546.337	26280
546.401	24040
546.466	23631
546.531	23988
546.596	26591
546.661	25388
546.725	26177
546.790	24173
546.855	26458
546.919	25951
546.984	29910
547.049	33028
547.113	37764
547.178	34966
547.243	40481
547.307	43819
547.372	50443
547.436	50563
547.501	44309
547.565	47175
547.630	48149
547.695	47946
547.759	53346
547.823	46483
547.888	43315
547.952	43270
548.017	46025
548.081	51507
548.146	60219
548.210	52140
548.274	47548
548.339	45634
548.403	42481
548.468	40750
548.532	41213
548.596	42158
548.660	43581
548.725	49017
548.789	55301
548.853	52688
548.917	48558
548.982	59442
549.046	50518
549.110	39461
549.174	40921
549.238	44052
549.303	45539
549.367	48160
549.431	44590
549.495	42778
549.559	44621
549.623	51525
549.687	58317
549.751	63579
549.815	64079
549.879	60818
549.943	58573
550.007	62599
550.071	60443
550.135	60490
550.199	54279
550.263	53201
550.327	57221
550.391	64547
550.455	59564
550.519	60525
550.582	65041
550.646	77476
550.710	72404
550.774	66753
550.838	68362
550.901	69821
550.965	73591
551.029	79081
551.093	87671
551.156	105230
551.220	156682
551.284	143533
551.347	99796
551.411	152948
551.475	128229
551.538	73385
551.602	65918
551.666	62748
551.729	59323
551.793	59906
551.856	58741
551.920	57818
551.983	57676
552.047	58102
552.110	57813
552.174	57462
552.237	58050
552.301	53953
552.364	53706
552.428	52363
552.491	54876
552.554	54349
552.618	56019
552.681	57702
552.745	58582
552.808	67716
552.871	68680
552.934	58809
552.998	56028
553.061	56171
553.124	53122
553.187	53290
553.251	55557
553.314	55101
553.377	56742
553.440	67465
553.503	99203
553.567	101732
553.630	57800
553.693	56324
553.756	57294
553.819	54609
553.882	53055
553.945	53129
554.008	53626
554.071	52190
554.134	53291
554.197	51103
554.260	48972
554.323	53689
554.386	53348
554.449	53189
554.512	53437
554.575	50166
554.638	53044
554.701	51535
554.764	49996
554.827	50254
554.889	46546
554.952	43808
555.015	44367
555.078	45589
555.141	47048
555.203	44745
555.266	46163
555.329	46455
555.391	42379
555.454	43683
555.517	42942
555.580	40591
555.642	39466
555.705	38714
555.768	39143
555.830	38295
555.893	35448
555.955	36820
556.018	36625
556.080	37128
556.143	37376
556.206	37070
556.268	38915
556.330	37408
556.393	36945
556.455	38087
556.518	50028
556.580	42794
556.643	32380
556.705	32209
556.767	32174
556.830	33360
556.892	35535
556.955	40970
557.017	33199
557.079	31042
557.142	31884
557.204	34773
557.266	49124
557.328	36733
557.391	28690
557.453	28148
557.515	30550
557.577	32159
557.639	30665
557.701	27428
557.764	27431
557.826	28540
557.888	31988
557.950	32207
558.012	35431
558.074	48615
558.136	100648
558.198	147022
558.260	44946
558.322	31126
558.384	31797
558.446	34637
558.508	39782
558.570	49102
558.632	74400
558.694	94517
558.756	130221
558.818	354238
558.880	514023
558.942	145877
559.003	160385
559.065	54944
559.127	37994
559.189	40633
559.251	53378
559.312	79286
559.374	191159
559.436	413005
559.498	115781
559.559	40311
559.621	42569
559.683	58784
559.744	103793
559.806	273079
559.868	234324
559.929	52287
559.991	52153
560.052	86329
560.114	170151
560.176	84180
560.237	121294
560.299	119902
560.360	32039
560.422	27351
560.483	27049
560.545	26600
560.606	25638
560.667	25086
560.729	24738
560.790	24507
560.852	25175
560.913	23962
560.974	22670
561.036	22423
561.097	23392
561.158	23598
561.220	24290
561.281	23498
561.342	25016
561.403	28589
561.465	33656
561.526	62103
561.587	55109
561.648	24779
561.709	23219
561.771	23763
561.832	23065
561.893	22661
561.954	22329
562.015	22719
562.076	22772
562.137	22465
562.198	22349
562.259	22206
562.320	23717
562.381	25380
562.442	30108
562.503	23424
562.564	21481
562.625	22068
562.686	22842
562.747	23967
562.808	23422
562.869	25023
562.930	31126
562.991	28609
563.051	26582
563.112	23914
563.173	22522
563.234	21850
563.294	22618
563.355	22740
563.416	23243
563.477	21854
563.537	23060
563.598	23938
563.659	22984
563.720	23717
563.780	24156
563.841	23569
563.901	23819
563.962	22014
564.023	23208
564.083	23452
564.144	25182
564.204	23345
564.265	25887
564.325	31911
564.386	56273
564.446	39610
564.507	22877
564.567	21786
564.628	22036
564.688	22828
564.749	23065
564.809	27552
564.869	29998
564.930	22023
564.990	20690
565.050	19845
565.111	20196
565.171	20885
565.231	20252
565.292	20456
565.352	20371
565.412	21723
565.472	21562
565.532	21537
565.593	20351
565.653	20333
565.713	21304
565.773	22333
565.833	24154
565.893	27175
565.953	21758
566.013	21543
566.074	25173
566.134	34064
566.194	50146
566.254	41566
566.314	27984
566.374	20515
566.434	22319
566.494	21617
566.554	21643
566.614	20388
566.673	21334
566.733	23065
566.793	23580
566.853	24324
566.913	22982
566.973	23395
567.033	24601
567.092	24848
567.152	24621
567.212	23199
567.272	25513
567.331	25651
567.391	24694
567.451	27240
567.511	37295
567.570	32949
567.630	22656
567.690	21263
567.749	21533
567.809	20859
567.868	23572
567.928	24497
567.988	27489
568.047	24412
568.107	26074
568.166	28442
568.226	35463
568.285	40801
568.345	34195
568.404	29950
568.464	28318
568.523	27288
568.582	29493
568.642	32094
568.701	36119
568.761	45065
568.820	58668
568.879	53911
568.939	50022
568.998	34744
569.057	29428
569.116	26095
569.176	23833
569.235	22662
569.294	22218
569.353	21508
569.413	22669
569.472	22375
569.531	21049
569.590	20841
569.649	20269
569.708	19703
569.767	21691
569.827	24933
569.886	21635
569.945	19900
570.004	20921
570.063	20258
570.122	21796
570.181	22750
570.240	26797
570.299	25590
570.358	24461
570.417	18841
570.475	19895
570.534	20086
570.593	20469
570.652	21123
570.711	21359
570.770	20199
570.829	22303
570.887	20126
570.946	21862
571.005	19406
571.064	19532
571.122	21898
571.181	24342
571.240	20097
571.299	18902
571.357	21491
571.416	23170
571.475	26743
571.533	25339
571.592	20948
571.650	23179
571.709	19042
571.768	20655
571.826	19555
571.885	18880
571.943	18182
572.002	19799
572.060	18248
572.119	17594
572.177	17777
572.236	15791
572.294	15759
572.352	16988
572.411	17322
572.469	16534
572.528	17241
572.586	18834
572.644	20189
572.703	23257
572.761	18765
572.819	18154
572.877	16794
572.936	15932
572.994	17011
573.052	16321
573.110	16940
573.169	15202
573.227	16209
573.285	16688
573.343	17026
573.401	16444
573.459	16498
573.517	16061
573.576	15531
573.634	16389
573.692	16969
573.750	16495
573.808	17771
573.866	20158
573.924	25481
573.982	22166
574.040	16703
574.098	17209
574.155	16149
574.213	15639
574.271	15595
574.329	15665
574.387	14334
574.445	14745
574.503	15134
574.560	14064
574.618	12746
574.676	14027
574.734	14554
574.792	14871
574.849	14245
574.907	13051
574.965	14356
575.022	12844
575.080	13438
575.138	15801
575.195	14708
575.253	15171
575.311	16097
575.368	14232
575.426	13555
575.483	14230
575.541	14708
575.598	15198
575.656	14753
575.713	15488
575.771	14225
575.828	13966
575.886	15727
575.943	16409
576.001	15934
576.058	17011
576.115	18008
576.173	22137
576.230	23787
576.287	22081
576.345	18541
576.402	17457
576.459	18218
576.517	18825
576.574	20760
576.631	21598
576.688	17558
576.746	17351
576.803	16496
576.860	16439
576.917	15767
576.974	16796
577.031	15859
577.089	16281
577.146	17739
577.203	16904
577.260	17610
577.317	19962
577.374	22245
577.431	19641
577.488	15940
577.545	15125
577.602	16148
577.659	16038
577.716	15667
577.773	16546
577.830	15203
577.886	14582
577.943	14869
578.000	14587
578.057	16650
578.114	15353
578.171	14772
578.227	14766
578.284	14486
578.341	16822
578.398	16139
578.454	19429
578.511	20401
578.568	22593
578.625	18389
578.681	15091
578.738	14188
578.794	16002
578.851	14759
578.908	15966
578.964	15902
579.021	15688
579.077	15085
579.134	15463
579.190	12899
579.247	14240
579.303	14482
579.360	14432
579.416	13981
579.473	14872
579.529	14247
579.586	15274
579.642	14445
579.698	14591
579.755	14709
579.811	14684
579.867	12934
579.924	13834
579.980	14137
580.036	15483
580.093	15342
580.149	16404
580.205	16658
580.261	15617
580.317	17285
580.374	18469
580.430	20687
580.486	19319
580.542	15839
580.598	16403
580.619	16089
580.654	15555
580.692	15498
580.710	15488
580.765	15394
580.767	15398
580.823	16261
580.838	16012
580.879	15387
580.911	15595
580.935	15761
580.984	14829
580.991	14715
581.047	15278
581.057	15473
581.103	16377
581.130	16853
581.159	17346
581.203	16678
581.215	16523
581.270	17459
581.276	17354
581.326	16411
581.349	16920
581.382	17668
581.422	17359
581.438	17226
581.494	18038
581.494	18021
581.550	16707
581.567	17019
581.606	17706
581.640	17558
581.661	17411
581.713	17152
581.717	17153
581.773	17385
581.786	17640
581.829	18404
581.859	17986
581.885	17676
581.932	17472
581.940	17434
581.996	17438
582.004	17476
582.052	17541
582.077	17240
582.107	17032
582.150	18035
582.163	18306
582.219	18338
582.223	18318
582.274	18235
582.296	18862
582.330	19703
582.368	19144
582.386	18910
582.441	17410
582.441	17407
582.497	17270
582.514	17448
582.552	18062
582.587	18638
582.608	18851
582.659	17711
582.663	17639
582.719	18478
582.732	18379
582.774	18100
582.805	18660
582.830	19028
582.877	18766
582.885	18731
582.941	18429
582.950	18466
582.996	18618
583.023	18959
583.052	19519
583.095	19333
583.107	19265
583.162	20865
583.168	20864
583.218	20416
583.240	19771
583.273	18892
583.313	18529
583.328	18483
583.384	19644
583.385	19652
583.439	19587
583.458	19429
583.494	18998
583.531	18024
583.549	17744
583.603	19080
583.605	19107
583.660	18504
583.676	18553
583.715	19025
583.748	19742
583.770	20279
583.820	20491
583.825	20478
583.881	19841
583.893	19783
583.936	19478
583.965	18859
583.991	18402
584.038	19705
584.046	19965
584.101	20110
584.110	20234
584.156	20744
584.183	20554
584.211	20148
584.255	19526
584.266	19426
584.321	19100
584.328	19112
584.376	19681
584.400	20165
584.431	20594
584.472	19906
584.486	19678
584.541	20768
584.545	20762
584.596	20842
584.617	20853
584.651	21549
584.689	23124
584.706	23436
584.761	23129
584.762	23123
584.816	23824
584.834	23656
584.871	23367
584.906	23704
584.926	23881
584.978	23592
584.980	23619
585.035	25643
585.051	25832
585.090	26120
585.123	26757
585.145	27154
585.195	28049
585.200	28190
585.254	29958
585.267	30485
585.309	32868
585.340	35183
585.364	36336
585.412	36641
585.419	36652
585.473	40820
585.484	42218
585.528	50423
585.556	57350
585.583	68004
585.628	94535
585.637	102775
585.692	193095
585.700	202456
585.747	232933
585.772	187357
585.801	110013
585.845	50933
585.856	44041
585.910	34770
585.917	33761
585.965	31121
585.989	30861
586.019	31132
586.061	30982
586.074	31005
586.128	31362
586.133	31441
586.183	33460
586.205	33880
586.237	34259
586.277	34677
586.292	34599
586.346	34286
586.349	34258
586.401	35412
586.421	36322
586.455	39178
586.493	42551
586.509	47634
586.564	67316
586.565	67893
586.618	106432
586.637	109841
586.672	80110
586.709	52644
586.727	46701
586.781	37195
586.781	37230
586.835	34033
586.853	33632
586.889	33623
586.925	32971
586.944	32856
586.996	33519
586.998	33599
587.052	34988
587.068	35290
587.106	35748
587.140	35582
587.161	35576
587.212	36213
587.215	36366
587.269	37964
587.284	38476
587.323	38507
587.356	38203
587.377	38251
587.427	38600
587.431	38723
587.485	39184
587.499	39472
587.539	40343
587.571	40352
587.593	40988
587.643	43187
587.648	43412
587.702	44436
587.715	44858
587.755	46756
587.786	47705
587.810	47550
587.858	46375
587.864	46632
587.917	50004
587.930	50690
587.971	54992
588.001	57922
588.025	57884
588.073	56548
588.079	56684
588.133	57748
588.145	58168
588.187	61903
588.217	64321
588.241	66862
588.288	71808
588.295	72824
588.348	80713
588.360	82568
588.402	89962
588.431	94981
588.456	99834
588.503	110571
588.510	112716
588.564	131988
588.575	136451
588.617	159988
588.646	178028
588.671	199670
588.718	248051
588.725	261174
588.778	373192
588.789	399254
588.832	593228
588.861	739418
588.886	901906
588.932	1194743
588.939	1203992
588.993	1180451
589.004	1167584
589.047	943711
589.075	768975
589.100	612603
589.147	358635
589.154	344854
589.207	257000
589.218	240871
589.261	228969
589.290	224514
589.314	235582
589.361	262901
589.368	275743
589.421	391356
589.433	419365
589.475	650055
589.504	824232
589.528	945156
589.576	1125455
589.582	1101263
589.635	804258
589.647	735212
589.689	455655
589.718	279743
589.742	235980
589.790	159905
589.795	158357
589.849	146192
589.861	144157
589.902	147794
589.932	146402
589.955	126570
590.004	85124
590.009	84212
590.062	75617
590.075	73209
590.115	69507
590.146	66625
590.168	65956
590.218	64439
590.222	64576
590.275	64540
590.289	64409
590.328	64547
590.360	64010
590.381	62421
590.431	58562
590.435	58749
590.488	59822
590.503	59956
590.541	59637
590.574	59062
590.594	58558
590.645	57051
590.647	57158
590.700	55979
590.716	55549
590.753	55264
590.787	54776
590.806	54853
590.859	54560
590.859	54683
590.912	53722
590.930	53314
590.965	53342
591.001	53118
591.018	53221
591.071	52927
591.072	52790
591.124	53664
591.143	53846
591.177	54955
591.214	55920
591.230	56488
591.283	57770
591.285	57669
591.336	57879
591.356	57714
591.389	57059
591.427	55812
591.442	55574
591.495	54363
591.498	54130
591.547	53978
591.569	53694
591.600	54068
591.640	54174
591.653	54599
591.706	55930
591.711	55914
591.759	62069
591.782	65113
591.811	69190
591.853	74346
591.864	72188
591.917	60054
591.924	58150
591.969	57437
591.995	56806
592.022	58883
592.066	61962
592.075	63804
592.127	73958
592.137	75691
592.180	86030
592.208	92022
592.233	82510
592.279	63733
592.285	63331
592.338	58550
592.350	57299
592.390	57200
592.421	56852
592.443	57422
592.491	58129
592.495	58368
592.548	59353
592.562	59450
592.600	59267
592.633	58805
592.653	58681
592.704	57605
592.705	57937
592.775	57954
592.846	58586
592.916	58945
592.987	60666
593.058	59526
593.128	57232
593.199	58035
593.270	55111
593.341	56209
593.411	56769
593.482	56171
593.553	57367
593.623	56096
593.694	60373
593.764	69193
593.835	59605
593.906	58152
593.976	58304
594.047	64006
594.117	78676
594.188	81740
594.258	57857
594.329	56649
594.399	58867
594.470	55887
594.540	56752
594.611	57233
594.681	56993
594.751	59382
594.822	60999
594.892	63522
594.963	66342
595.033	66567
595.103	68122
595.174	76538
595.244	115854
595.314	142217
595.384	72405
595.455	68198
595.525	68255
595.595	70444
595.665	70166
595.736	69367
595.806	70299
595.876	68266
595.946	68471
596.016	66881
596.087	68979
596.157	70193
596.227	69820
596.297	74045
596.367	76988
596.437	86634
596.507	116568
596.577	145339
596.647	83218
596.717	76751
596.787	77975
596.857	75678
596.927	77571
596.997	76959
597.067	76604
597.137	81596
597.207	80354
597.277	80543
597.347	79713
597.417	76285
597.487	77874
597.557	79431
597.626	81905
597.696	89421
597.766	108907
597.836	141043
597.906	88477
597.975	75519
598.045	73645
598.115	75646
598.185	77086
598.254	82600
598.324	85874
598.394	84403
598.464	84866
598.533	80959
598.603	78178
598.672	78608
598.742	80435
598.812	79868
598.881	80089
598.951	79096
599.020	78681
599.090	79327
599.159	81534
599.229	79152
599.299	76956
599.368	80369
599.437	76210
599.507	77479
599.576	79298
599.646	77344
599.715	77487
599.785	77236
599.854	84074
599.924	92230
599.993	84664
600.062	76870
600.132	75669
600.201	80343
600.270	87060
600.340	86315
600.409	83671
600.478	84344
600.547	85667
600.617	85451
600.686	75902
600.755	71388
600.824	70135
600.894	71228
600.963	69844
601.032	67462
601.101	68489
601.170	68111
601.239	67446
601.308	71689
601.378	68926
601.447	67458
601.516	65994
601.585	67713
601.654	71737
601.723	69898
601.792	70468
601.861	70561
601.930	74624
601.999	74659
602.068	70878
602.137	76711
602.206	74052
602.275	72254
602.343	78600
602.412	77609
602.481	72184
602.550	72044
602.619	73299
602.688	75670
602.756	73676
602.825	72973
602.894	74617
602.963	76065
603.032	76589
603.100	74228
603.169	75037
603.238	77071
603.307	74237
603.375	72991
603.444	76162
603.513	75992
603.581	76621
603.650	78294
603.719	74169
603.787	73969
603.856	76085
603.924	76364
603.993	78658
604.061	78707
604.130	80780
604.198	81267
604.267	82798
604.335	82295
604.404	82919
604.472	84102
604.541	84096
604.609	86250
604.678	85558
604.746	85959
604.815	87575
604.883	90185
604.951	89517
605.020	87758
605.088	91202
605.156	91667
605.225	89747
605.293	89967
605.361	89715
605.429	90346
605.498	92767
605.566	93997
605.634	97954
605.702	98986
605.771	101483
605.839	103172
605.907	98448
605.975	97031
606.043	95265
606.111	96528
606.180	96766
606.248	97280
606.316	99541
606.384	100342
606.452	110682
606.520	101504
606.588	94375
606.656	90763
606.724	89905
606.792	85670
606.860	79158
606.928	73714
606.996	72304
607.064	70765
607.132	71584
607.200	75776
607.267	77368
607.335	77731
607.403	80110
607.471	78161
607.539	75343
607.607	76749
607.674	69043
607.742	72630
607.810	71561
607.878	69035
607.946	69866
608.013	73804
608.081	73849
608.149	72094
608.216	75461
608.284	78262
608.352	76977
608.419	85584
608.487	110334
608.555	86016
608.622	74778
608.690	76373
608.757	82721
608.825	85740
608.893	84938
608.960	85350
609.028	95578
609.095	118742
609.163	86064
609.230	76860
609.298	71646
609.365	68073
609.432	73310
609.500	78312
609.567	87404
609.635	97717
609.702	101409
609.769	101606
609.837	93159
609.904	75626
609.971	71526
610.039	77472
610.106	95024
610.173	160536
610.241	332223
610.308	187385
610.375	85229
610.442	74226
610.509	70510
610.577	71451
610.644	72292
610.711	73049
610.778	75972
610.845	77766
610.912	83472
610.980	87885
611.047	94925
611.114	87292
611.181	80267
611.248	79697
611.315	83860
611.382	84820
611.449	87260
611.516	88148
611.583	88858
611.650	89401
611.717	89695
611.784	90932
611.851	93627
611.918	99852
611.984	113927
612.051	159561
612.118	297738
612.185	689512
612.252	412991
612.319	125189
612.386	108619
612.452	104762
612.519	110791
612.586	139799
612.653	112748
612.719	100161
612.786	96096
612.853	90082
612.919	88165
612.986	90125
613.053	85928
613.120	80936
613.186	78895
613.253	80929
613.319	79408
613.386	79492
613.453	80023
613.519	83549
613.586	89004
613.652	99706
613.719	91762
613.785	89442
613.852	84407
613.918	82104
613.985	85088
614.051	100327
614.118	138120
614.184	129951
614.250	82583
614.317	80789
614.383	80784
614.449	81232
614.516	82358
614.582	86074
614.648	81902
614.715	79250
614.781	78692
614.847	83832
614.914	86752
614.980	80996
615.046	78668
615.112	78550
615.179	79827
615.245	81703
615.311	81563
615.377	87141
615.443	89788
615.509	86969
615.575	87844
615.642	85670
615.708	90308
615.774	95502
615.840	105377
615.906	115000
615.972	133883
616.038	192783
616.104	371828
616.170	843731
616.236	678168
616.302	179573
616.368	140204
616.434	112515
616.500	109668
616.565	115771
616.631	130875
616.697	113448
616.763	117571
616.829	155637
616.895	247269
616.961	228959
617.026	120425
617.092	97441
617.158	95439
617.224	92111
617.289	89203
617.355	89467
617.421	93559
617.487	92581
617.552	84708
617.618	82345
617.684	82731
617.749	85578
617.815	79467
617.880	78560
617.946	79619
618.012	80478
618.077	80048
618.143	79357
618.208	79820
618.274	85225
618.339	88297
618.405	77531
618.470	79098
618.536	80747
618.601	92582
618.667	83805
618.732	77340
618.798	74553
618.863	74986
618.928	74679
618.994	79305
619.059	81871
619.124	89466
619.190	80589
619.255	76622
619.320	77708
619.386	75835
619.451	73030
619.516	72466
619.581	74077
619.647	74654
619.712	73614
619.777	72940
619.842	73780
619.907	74707
619.972	76717
620.038	77057
620.103	74398
620.168	72083
620.233	72850
620.298	73921
620.363	72776
620.428	74118
620.493	75790
620.558	74403
620.623	75207
620.688	74579
620.753	73463
620.818	74910
620.883	75363
620.948	75138
621.013	74465
621.078	76898
621.143	80455
621.207	81641
621.272	80655
621.337	82413
621.402	91858
621.467	115869
621.532	119436
621.596	92386
621.661	84482
621.726	82139
621.791	82846
621.855	84490
621.920	89618
621.985	99189
622.049	111278
622.114	105223
622.179	93351
622.243	97757
622.308	95457
622.373	96697
622.437	95168
622.502	88131
622.566	90768
622.631	90924
622.695	90516
622.760	91474
622.824	88134
622.889	90022
622.953	92226
623.018	102526
623.082	102664
623.147	90623
623.211	85713
623.276	89054
623.340	85338
623.404	82749
623.469	84259
623.533	83733
623.597	82261
623.662	82999
623.726	80177
623.790	76272
623.854	78406
623.919	78746
623.983	77362
624.047	80362
624.111	78208
624.176	79200
624.240	81399
624.304	83880
624.368	79727
624.432	78848
624.496	80469
624.560	83137
624.625	85580
624.689	79584
624.753	79246
624.817	78976
624.881	75172
624.945	73395
625.009	73071
625.073	73004
625.137	77219
625.201	81997
625.265	82218
625.329	75475
625.393	77411
625.456	76620
625.520	81453
625.584	89354
625.648	106920
625.712	160516
625.776	347298
625.839	371697
625.903	146032
625.967	91958
626.031	147711
626.095	227067
626.158	92264
626.222	65288
626.286	60935
626.349	60943
626.413	58950
626.477	62404
626.540	57593
626.604	58770
626.668	58867
626.731	57952
626.795	63571
626.858	62152
626.922	60051
626.986	57515
627.049	56483
627.113	58085
627.176	54989
627.240	56103
627.303	56055
627.366	56548
627.430	56055
627.493	56351
627.557	60617
627.620	58075
627.684	57437
627.747	59595
627.810	54985
627.874	53871
627.937	51647
628.000	57210
628.064	54324
628.127	48625
628.190	50108
628.253	50825
628.317	47870
628.380	47288
628.443	47846
628.506	48086
628.569	45549
628.632	44578
628.696	45665
628.759	43965
628.822	43505
628.885	42570
628.948	43896
629.011	44748
629.074	42973
629.137	41274
629.200	43645
629.263	45594
629.326	41081
629.389	41381
629.452	42494
629.515	45728
629.578	41657
629.641	44729
629.704	42900
629.767	43086
629.830	39846
629.892	39540
629.955	39326
630.018	42746
630.081	41510
630.144	45580
630.207	40432
630.269	46575
630.332	52314
630.395	43531
630.458	38026
630.520	38666
630.583	37126
630.646	36695
630.708	36094
630.771	37328
630.834	38177
630.896	36279
630.959	35131
631.021	36797
631.084	38099
631.146	43281
631.209	50516
631.272	36476
631.334	36119
631.397	35376
631.459	34411
631.522	35666
631.584	36183
631.646	36717
631.709	38615
631.771	46309
631.834	39386
631.896	35026
631.958	32010
632.021	33989
632.083	33887
632.145	35992
632.208	33765
632.270	34815
632.332	32798
632.395	32266
632.457	36863
632.519	33710
632.581	33584
632.643	31119
632.706	33861
632.768	30718
632.830	32984
632.892	31785
632.954	32646
633.016	34738
633.078	30968
633.141	30486
633.203	33138
633.265	32421
633.327	30768
633.389	30205
633.451	34858
633.513	37532
633.575	41979
633.637	36490
633.698	33749
633.760	31829
633.822	31467
633.884	30962
633.946	31527
634.008	32514
634.070	30986
634.132	33518
634.193	34630
634.255	33012
634.317	31995
634.379	33346
634.441	32084
634.502	31096
634.564	28885
634.626	28669
634.687	29499
634.749	29683
634.811	28754
634.873	26188
634.934	27173
634.996	28964
635.057	28228
635.119	27894
635.181	29106
635.242	29289
635.304	26751
635.365	29649
635.427	28115
635.488	28659
635.550	27789
635.611	27602
635.673	26832
635.734	31276
635.796	29741
635.857	31131
635.918	29438
635.980	32991
636.041	31580
636.102	33312
636.164	32036
636.225	31733
636.286	29193
636.348	30130
636.409	27843
636.470	27491
636.531	29383
636.593	35717
636.654	32906
636.715	25743
636.776	25421
636.838	24172
636.899	26829
636.960	25421
637.021	24856
637.082	25453
637.143	25840
637.204	23299
637.265	23821
637.326	23930
637.387	24138
637.448	22396
637.509	24232
637.570	23643
637.631	24466
637.692	21844
637.753	20749
637.814	23168
637.875	22084
637.936	23382
637.997	23672
638.058	23278
638.119	26131
638.179	24162
638.240	23441
638.301	22366
638.362	22031
638.423	24230
638.483	23750
638.544	20539
638.605	23083
638.666	20980
638.726	23096
638.787	22205
638.848	21481
638.908	21455
638.969	22105
639.030	23222
639.090	19923
639.151	20948
639.211	22365
639.272	25013
639.332	32191
639.393	24694
639.453	21842
639.514	22264
639.574	21140
639.635	19431
639.695	21634
639.756	20037
639.816	21243
639.877	22460
639.937	30458
639.997	32072
640.058	20970
640.118	19212
640.178	19898
640.239	18907
640.299	19119
640.359	19591
640.420	19563
640.480	19927
640.540	19968
640.600	20214
640.661	20390
640.721	20357
640.781	23746
640.841	19407
640.901	21199
640.961	20649
641.021	20035
641.082	21467
641.142	24667
641.202	21276
641.262	17290
641.322	19249
641.382	18999
641.442	20398
641.502	19017
641.562	20001
641.622	18544
641.682	20213
641.742	19531
641.802	20654
641.861	22144
641.921	19889
641.981	22004
642.041	21393
642.101	22983
642.161	17873
642.221	17859
642.280	17013
642.340	17963
642.400	16862
642.460	18675
642.519	19083
642.579	18804
642.639	19438
642.698	15958
642.758	19180
642.818	18827
642.877	17830
642.937	19415
642.997	20188
643.056	24391
643.116	18296
643.175	19964
643.235	17312
643.294	19105
643.354	18903
643.414	19409
643.473	22023
643.532	22283
643.592	26236
643.651	36607
643.711	57525
643.770	106161
643.830	247810
643.889	495941
643.948	111327
644.008	28838
644.067	21872
644.126	19924
644.186	18788
644.245	17928
644.304	15761
644.363	18634
644.423	14789
644.482	17405
644.541	17583
644.600	15320
644.659	19563
644.719	21400
644.778	27660
644.837	37075
644.896	63635
644.955	127795
645.014	45978
645.073	21438
645.132	20159
645.191	18247
645.250	16626
645.309	19031
645.368	18039
645.427	20354
645.486	24210
645.545	33765
645.604	18673
645.663	16437
645.722	16465
645.781	17299
645.840	17437
645.898	19780
645.957	26036
646.016	31194
646.075	52996
646.134	95811
646.192	247821
646.251	344830
646.310	53449
646.369	23048
646.427	20310
646.486	18148
646.545	17014
646.603	16483
646.662	16048
646.721	16459
646.779	14113
646.838	14825
646.896	16779
646.955	18114
647.014	25632
647.072	36589
647.131	83228
647.189	41248
647.248	14965
647.306	14866
647.365	15610
647.423	12352
647.481	15341
647.540	12365
647.598	13202
647.657	12474
647.715	13808
647.773	12882
647.832	13878
647.890	13862
647.948	14244
648.007	14822
648.065	12748
648.123	14022
648.181	16220
648.240	16110
648.298	14097
648.356	13905
648.414	15392
648.472	14505
648.531	14516
648.589	13865
648.647	13282
648.705	13412
648.763	14197
648.821	14710
648.879	14140
648.937	14872
648.995	15365
649.053	16767
649.111	21948
649.169	29283
649.227	43314
649.285	81537
649.343	216910
649.401	101671
649.459	39224
649.516	28633
649.574	22539
649.632	42336
649.690	45560
649.748	25583
649.806	25949
649.863	36310
649.921	61141
649.979	40207
650.037	15192
650.094	12433
650.152	13382
650.210	12710
650.268	12537
650.325	13262
650.383	12328
650.440	11075
650.498	13115
650.556	13104
650.613	11525
650.671	11934
650.728	12893
650.786	14980
650.843	13844
650.901	11205
650.958	11429
651.016	11399
651.073	10729
651.131	11075
651.188	11416
651.246	12835
651.303	11472
651.360	11243
651.418	11579
651.475	11861
651.532	9718
651.590	11269
651.647	11566
651.704	11905
651.762	11543
651.819	11579
651.876	11378
651.933	11654
651.990	11911
652.048	10650
652.105	11798
652.162	11213
652.219	9209
652.276	10582
652.333	11316
652.390	9677
652.448	10123
652.505	10543
652.562	10793
652.619	11158
652.676	14594
652.733	14374
652.790	10069
652.847	7839
652.904	9823
652.961	9826
653.017	8938
653.074	9526
653.131	10305
653.188	8854
653.245	9754
653.302	10409
653.359	9194
653.415	9635
653.472	9619
653.529	10033
653.586	9407
653.642	9209
653.699	9583
653.756	9406
653.813	8762
653.869	9596
653.926	8707
653.983	9578
654.039	9035
654.096	9354
654.152	11153
654.209	9722
654.266	11043
654.322	10404
654.379	13137
654.435	13745
654.492	14194
654.548	19407
654.605	30034
654.661	14866
654.717	11942
654.774	12982
654.830	11996
654.887	11055
654.943	11842
655.000	11382
655.056	11241
655.112	12398
655.168	11073
655.225	13003
655.281	15071
655.337	20708
655.394	37511
655.450	24540
655.506	21137
655.562	37780
655.618	26989
655.675	10785
655.731	11234
655.787	10661
655.843	11491
655.899	9615
655.955	11131
656.011	10573
656.067	8984
656.123	10992
656.179	10974
656.235	12463
656.291	9400
656.347	12439
656.403	11249
656.459	12449
656.515	14409
656.571	15078
656.627	11876
656.683	11888
656.739	11159
656.795	9076
656.850	11003
656.906	12653
656.962	11290
657.018	9595
657.074	9306
657.129	12000
657.185	12502
657.241	16395
657.297	12289
657.352	10248
657.408	9585
657.464	12614
657.519	11028
657.575	9860
657.630	11150
657.686	9710
657.742	10518
657.797	9278
657.853	10527
657.908	11222
657.964	9295
658.019	9855
658.075	11197
658.130	11567
658.186	8264
658.241	9013
658.297	9531
658.352	10833
658.407	10297
658.463	10196
658.518	10507
658.573	10189
658.629	7850
658.684	9032
658.739	9618
658.795	8414
658.850	9404
658.905	9295
658.960	9264
659.016	7643
659.071	9409
659.126	9791
659.181	10317
659.236	13433
659.291	13891
659.346	11547
659.401	11689
659.457	11633
659.512	12780
659.567	11772
659.622	9864
659.677	10476
659.732	10806
659.787	11701
659.842	13812
659.897	19138
659.952	11035
660.007	10085
660.061	11058
660.116	9488
660.171	8880
660.226	9558
660.281	9864
660.336	8252
660.391	9856
660.445	9043
660.500	9750
660.555	10093
660.610	9206
660.664	10313
660.719	9237
660.774	9914
660.828	9827
660.883	10111
660.938	10440
660.992	9566
661.047	10152
661.101	9355
661.156	9238
661.211	9054
661.265	8984
661.320	9566
661.374	9323
661.429	9235
661.483	10718
661.538	9325
661.592	10270
661.647	10660
661.701	10536
661.755	10792
661.810	10675
661.864	10432
661.919	9638
661.973	9791
662.027	9448
662.081	9271
662.136	11014
662.190	11460
662.244	11369
662.299	10378
662.353	9618
662.407	9915
662.461	10437
662.515	11847
662.569	10805
662.624	11966
662.678	12192
662.732	9941
662.786	10847
662.840	11041
662.894	11853
662.948	10471
663.002	10507
663.056	9939
663.110	9850
663.164	10149
663.218	9282
663.272	10550
663.326	10341
663.380	11025
663.434	11130
663.488	11755
663.542	11040
663.595	11017
663.649	10787
663.703	10494
663.757	10048
663.811	9322
663.864	10475
663.918	10169
663.972	9953
664.026	9898
664.079	10390
664.133	11585
664.187	9968
664.240	9295
664.294	10379
664.348	10617
664.401	10137
664.455	10949
664.508	10192
664.562	10942
664.615	10428
664.669	9515
664.722	10219
664.776	9618
664.829	9784
664.883	10217
664.936	10921
664.990	11726
665.043	12287
665.097	13560
665.150	14585
665.203	12646
665.257	11483
665.310	12737
665.363	12864
665.417	13130
665.470	12274
665.523	12096
665.576	11966
665.630	11721
665.683	11827
665.736	11816
665.789	12215
665.842	11236
665.895	12309
665.949	11525
666.002	11553
666.055	11771
666.108	12663
666.161	12909
666.214	12598
666.267	12582
666.320	13529
666.373	13078
666.426	12403
666.479	12781
666.532	14524
666.585	16786
666.638	17391
666.691	15485
666.744	16564
666.796	17124
666.849	14613
666.902	12909
666.955	11210
667.008	11360
667.060	9947
667.113	9943
667.166	10331
667.219	11025
667.271	11466
667.324	10833
667.377	11595
667.430	11200
667.482	12396
667.535	11393
667.587	11125
667.640	12421
667.693	14752
667.745	16138
667.798	17316
667.850	12714
667.903	13092
667.955	11130
668.008	11822
668.060	15276
668.113	15094
668.165	14776
668.218	14082
668.270	13574
668.322	13649
668.375	12413
668.427	13311
668.479	12789
668.532	13566
668.584	13243
668.636	11873
668.689	13465
668.741	12615
668.793	13204
668.845	12495
668.898	13346
668.950	11979
669.002	13693
669.054	12106
669.106	13083
669.158	14272
669.211	12503
669.263	13732
669.315	13853
669.367	13654
669.419	12955
669.471	13939
669.523	12936
669.575	14153
669.627	13497
669.679	12043
669.731	12167
669.783	12648
669.835	12486
669.886	11362
669.938	12318
669.990	11724
670.042	10252
670.094	11379
670.146	10869
670.197	11854
670.249	11563
670.301	11397
670.353	13024
670.404	12721
670.456	14364
670.508	15545
670.560	18566
670.611	22938
670.663	31871
670.715	64290
670.766	93883
670.818	30709
670.869	13789
670.921	11961
670.972	12766
671.024	11673
671.075	11073
671.127	11948
671.178	11677
671.230	12523
671.281	11660
671.333	11910
671.384	14837
671.436	15364
671.487	16185
671.538	16408
671.590	19038
671.641	24381
671.692	31316
671.744	48234
671.795	33119
671.846	18476
671.897	15864
671.949	15450
672.000	13878
672.051	14158
672.102	14206
672.153	13274
672.204	13477
672.256	13752
672.307	14069
672.358	14696
672.409	13659
672.460	13367
672.511	12511
672.562	12572
672.613	11746
672.664	13399
672.715	13353
672.766	12632
672.817	12559
672.868	12278
672.919	11517
672.970	12216
673.021	13111
673.071	12123
673.122	12231
673.173	11508
673.224	12281
673.275	11688
673.326	12552
673.376	12822
673.427	11948
673.478	11713
673.528	11952
673.579	11058
673.630	11914
673.680	12823
673.731	11062
673.782	10900
673.832	12124
673.883	13006
673.934	11685
673.984	11061
674.035	11744
674.085	11873
674.136	12362
674.186	14130
674.237	17350
674.287	25007
674.338	14577
674.388	12321
674.438	12003
674.489	12359
674.539	13487
674.589	13419
674.640	12609
674.690	12050
674.740	13616
674.791	14959
674.841	14087
674.891	13642
674.942	12500
674.992	11416
675.042	10412
675.092	11083
675.142	10725
675.193	11716
675.243	10518
675.293	12578
675.343	12366
675.393	12217
675.443	12242
675.493	10683
675.543	11257
675.593	11890
675.643	10985
675.693	11254
675.743	12733
675.793	9997
675.843	10444
675.893	11558
675.943	11518
675.993	10784
676.043	11300
676.093	11293
676.142	10439
676.192	11795
676.242	10508
676.292	10766
676.341	12158
676.391	11737
676.441	10193
676.491	10223
676.540	9733
676.590	9885
676.640	10123
676.689	10784
676.739	9639
676.789	9023
676.838	9260
676.888	9772
676.937	10475
676.987	9169
677.037	9748
677.086	9122
677.136	9627
677.185	8865
677.235	9412
677.284	9095
677.333	9194
677.383	9063
677.432	8354
677.482	8661
677.531	9872
677.580	9621
677.630	8453
677.679	8120
677.728	9223
677.778	8703
677.827	7997
677.876	9118
677.925	8031
677.975	9499
678.024	9435
678.073	8951
678.122	11507
678.171	11015
678.220	10089
678.269	11635
678.319	11755
678.368	10970
678.417	10828
678.466	10817
678.515	10888
678.564	12189
678.613	9850
678.662	10005
678.711	10525
678.760	10260
678.809	9985
678.857	10070
678.906	10296
678.955	10451
679.004	10319
679.053	9430
679.102	9288
679.151	11540
679.199	10255
679.248	8728
679.297	10835
679.346	10178
679.394	9465
679.443	9449
679.492	9654
679.540	9630
679.589	10447
679.638	9331
679.686	9002
679.735	9923
679.784	9107
679.832	10074
679.881	9059
679.929	9043
679.978	8063
680.026	8064
680.075	9754
680.123	8836
680.172	8312
680.220	7275
680.268	8418
680.317	8730
680.365	8692
680.414	7739
680.462	8910
680.510	9770
680.559	7617
680.607	7701
680.655	8871
680.703	8813
680.752	8893
680.800	7832
680.848	8313
680.896	6514
680.945	8023
680.993	7668
681.041	8010
681.089	7513
681.137	8018
681.185	7495
681.233	8911
681.258	8394
681.281	7863
681.329	7280
681.377	7877
681.380	7967
681.425	8808
681.473	9828
681.502	9530
681.521	9237
681.569	8853
681.617	8648
681.624	8684
681.665	8574
681.713	9034
681.745	9404
681.761	9524
681.809	9153
681.857	9330
681.867	9292
681.904	8962
681.952	9356
681.989	9460
682.000	9447
682.048	10595
682.096	8523
682.111	8830
682.143	9298
682.191	9199
682.233	9772
682.239	9818
682.286	10285
682.334	9402
682.354	9735
682.382	10082
682.430	10493
682.476	9165
682.477	9098
682.525	9792
682.572	9684
682.598	9397
682.620	9119
682.667	9795
682.715	10311
682.720	10354
682.763	10316
682.810	9343
682.841	10455
682.857	10940
682.905	10268
682.952	11057
682.963	10938
683.000	10441
683.047	11059
683.085	10653
683.095	10466
683.142	9592
683.190	10767
683.206	10543
683.237	10154
683.284	11031
683.328	11063
683.332	11022
683.379	10316
683.426	10706
683.449	10588
683.473	10508
683.521	10895
683.568	11233
683.571	11217
683.615	10406
683.662	11415
683.693	10859
683.709	10534
683.757	10708
683.804	11665
683.814	11649
683.851	11484
683.898	11539
683.936	11628
683.945	11631
683.992	11467
684.039	12156
684.057	12108
684.086	11923
684.133	11263
684.179	12079
684.180	12070
684.227	12281
684.274	11992
684.300	12358
684.321	12642
684.368	11544
684.415	13046
684.422	12933
684.462	12029
684.509	11667
684.543	11632
684.556	11624
684.603	12064
684.649	12099
684.665	12209
684.696	12454
684.743	12564
684.786	13061
684.790	13106
684.837	13632
684.883	14917
684.908	15549
684.930	15890
684.977	16387
685.023	15166
685.029	14996
685.070	13200
685.117	14170
685.150	14575
685.164	14895
685.210	16264
685.257	16076
685.272	16201
685.303	16077
685.350	15263
685.393	15552
685.396	15583
685.443	15815
685.490	16795
685.514	16975
685.536	16925
685.583	16502
685.629	16299
685.636	16158
685.675	15251
685.722	15686
685.757	16091
685.768	16238
685.815	16445
685.861	16763
685.878	16565
685.908	16403
685.954	17361
686.000	18379
686.000	18406
686.047	20435
686.093	24644
686.121	24833
686.139	23512
686.185	20655
686.232	18643
686.242	18263
686.278	17550
686.324	17284
686.363	15814
686.370	15665
686.416	15125
686.463	16649
686.484	16120
686.509	15539
686.555	14978
686.601	15683
686.606	15722
686.647	16091
686.693	15704
686.727	15811
686.739	15861
686.785	16217
686.831	16694
686.848	16627
686.877	16232
686.923	14888
686.969	14661
686.969	14660
687.015	15920
687.061	16069
687.090	16391
687.107	16518
687.153	16479
687.199	17113
687.211	16737
687.245	15887
687.291	16575
687.332	18214
687.336	18369
687.382	18595
687.428	18141
687.453	18113
687.474	17661
687.520	17162
687.565	16041
687.574	15904
687.611	16028
687.657	16382
687.695	16472
687.702	16528
687.748	17093
687.794	17360
687.816	17237
687.839	16733
687.885	16438
687.931	16005
687.937	15939
687.976	16194
688.022	15977
688.058	17177
688.067	17423
688.113	17050
688.158	16684
688.179	16714
688.204	16790
688.249	17184
688.295	17102
688.300	17195
688.340	18231
688.386	18223
688.421	18161
688.431	18046
688.477	17360
688.522	17890
688.542	17794
688.567	17722
688.613	17720
688.658	17341
688.663	17349
688.703	17657
688.749	18199
688.784	18351
688.794	18379
688.839	18118
688.884	17935
688.905	17552
688.930	17115
688.975	17651
689.020	18038
689.026	17998
689.065	18127
689.110	17786
689.146	18410
689.155	18439
689.201	17247
689.246	16890
689.267	16719
689.291	16958
689.336	17756
689.381	17855
689.388	17899
689.426	17810
689.471	17693
689.509	17555
689.516	17584
689.561	16811
689.606	17390
689.630	17507
689.651	17610
689.696	17116
689.741	17041
689.750	17153
689.785	17600
689.830	17561
689.871	17252
689.875	17238
689.920	17039
689.965	16819
689.992	16731
690.010	16791
690.054	17072
690.099	17526
690.112	17500
690.144	17356
690.189	17077
690.233	16625
690.233	16643
690.278	17205
690.323	17391
690.354	17337
690.367	17341
690.412	17580
690.457	17379
690.474	17586
690.501	17856
690.546	17165
690.590	17247
690.595	17183
690.635	16894
690.680	16870
690.716	17233
690.724	17429
690.769	17573
690.813	18434
690.836	18411
690.857	18340
690.902	18560
690.946	18766
690.957	18860
690.991	19935
691.035	21092
691.077	22102
691.080	22170
691.124	22591
691.168	23720
691.198	24045
691.213	24041
691.257	24364
691.301	24198
691.318	24074
691.346	22701
691.390	20849
691.434	18386
691.439	18190
691.478	18923
691.522	19710
691.559	19693
691.567	19698
691.611	19657
691.655	19757
691.680	19460
691.699	19145
691.743	19917
691.787	19280
691.800	19286
691.831	19963
691.875	20435
691.919	20976
691.921	20970
691.964	21993
692.008	22661
692.041	22875
692.052	22771
692.096	22448
692.139	22878
692.162	22406
692.183	21957
692.227	21609
692.271	21684
692.282	21558
692.315	21587
692.359	21331
692.402	21269
692.403	21305
692.447	21199
692.490	21290
692.523	21417
692.534	21664
692.578	22083
692.622	22494
692.643	22803
692.666	22463
692.709	21480
692.753	20169
692.763	19921
692.797	19907
692.840	20101
692.884	19910
692.884	19950
692.928	20599
692.971	21109
693.004	21150
693.015	21048
693.059	21111
693.102	20962
693.124	20741
693.146	20930
693.189	21604
693.233	22020
693.245	22148
693.276	22615
693.320	22899
693.363	23117
693.365	23098
693.407	23135
693.450	23016
693.485	22439
693.493	22596
693.537	23631
693.580	24736
693.605	25094
693.624	24887
693.667	24703
693.710	24102
693.725	24103
693.753	26216
693.797	28929
693.840	31891
693.845	32126
693.883	31351
693.926	30244
693.966	29666
693.970	29453
694.013	26537
694.056	23493
694.086	21529
694.099	21865
694.142	22729
694.185	23388
694.206	23785
694.229	24229
694.272	24812
694.315	25622
694.326	25656
694.358	25341
694.401	24982
694.444	24898
694.446	24832
694.487	24052
694.530	23155
694.566	22397
694.573	22303
694.616	21355
694.659	20303
694.686	19713
694.702	19706
694.745	19515
694.787	19595
694.806	19366
694.830	19353
694.873	19834
694.916	19766
694.926	19732
694.959	19713
695.002	19691
695.044	19737
695.046	19694
695.087	20175
695.130	20779
695.166	21037
695.172	21077
695.215	21099
695.258	21259
695.286	21249
695.301	21247
695.343	21007
695.386	20906
695.406	20775
695.428	20575
695.471	19838
695.514	19528
695.526	19359
695.556	19810
695.599	20492
695.641	20828
695.646	20857
695.684	20807
695.726	20593
695.766	20227
695.769	20276
695.811	20448
695.854	20544
695.886	20617
695.896	20487
695.938	19699
695.981	18938
696.005	18347
696.023	18654
696.065	19581
696.108	20547
696.125	20800
696.150	20931
696.192	21151
696.235	21233
696.245	21257
696.277	21157
696.319	20834
696.361	20548
696.365	20483
696.404	20260
696.446	19877
696.485	19432
696.488	19536
696.530	20321
696.572	21110
696.604	21701
696.614	21616
696.656	21003
696.698	20287
696.724	19812
696.740	19780
696.783	19686
696.825	19645
696.844	19494
696.867	19699
696.909	20209
696.951	20455
696.964	20508
696.992	20456
697.034	20315
697.076	20137
697.083	20074
697.118	20275
697.160	20519
697.202	20550
697.203	20505
697.244	20434
697.286	20172
697.323	19914
697.327	19922
697.369	19484
697.411	19168
697.442	18895
697.453	19132
697.494	19830
697.536	20538
697.562	20940
697.578	20970
697.620	20845
697.661	20742
697.682	20656
697.703	20902
697.744	21290
697.786	21722
697.801	21770
697.828	22041
697.869	22482
697.911	22920
697.921	22954
697.952	22429
697.994	21716
698.035	21016
698.040	20878
698.077	20619
698.118	20200
698.160	19840
698.160	19788
698.201	20091
698.243	20397
698.279	20637
698.284	20718
698.325	20978
698.367	21189
698.399	21302
698.408	21175
698.449	20345
698.491	19513
698.518	18905
698.532	19128
698.573	19670
698.614	20213
698.638	20467
698.656	20633
698.697	20897
698.738	21143
698.757	21219
698.779	21314
698.820	21368
698.862	21437
698.877	21402
698.903	22212
698.944	23424
698.985	24645
698.996	24921
699.026	24498
699.067	23821
699.116	22956
699.235	21942
699.354	20211
699.474	20871
699.593	28065
699.713	25007
699.832	21806
699.951	21331
700.070	20734
700.190	20087
700.309	21287
700.428	25319
700.547	21148
700.667	22323
700.786	26833
700.905	21251
701.024	23305
701.143	22186
701.262	17993
701.381	17983
701.500	19504
701.619	20931
701.738	17931
701.857	17539
701.976	17379
702.095	17656
702.214	20176
702.333	19459
702.452	17454
702.571	17287
702.690	16910
702.809	16972
702.928	15495
703.047	17602
703.165	16060
703.284	16399
703.403	17593
703.522	22486
703.640	20407
703.759	26984
703.878	45215
703.997	20203
704.115	17631
704.234	18311
704.353	15423
704.471	15606
704.590	14795
704.708	14426
704.827	14924
704.946	17051
705.064	20565
705.183	16938
705.301	22278
705.420	34895
705.538	29057
705.656	23769
705.775	21957
705.893	33633
706.012	40552
706.130	25371
706.249	25907
706.367	26452
706.485	29876
706.604	25857
706.722	26996
706.840	34699
706.958	31961
707.077	24520
707.195	22943
707.313	21946
707.431	21715
707.549	21675
707.668	22860
707.786	24775
707.904	20924
708.022	19985
708.140	20456
708.258	20388
708.376	21083
708.494	21395
708.612	23822
708.730	37841
708.848	35631
708.966	30765
709.084	28644
709.202	27407
709.320	29211
709.438	29504
709.556	29709
709.674	29625
709.791	29295
709.909	27482
710.027	28780
710.145	28329
710.263	29415
710.380	28233
710.498	27344
710.616	28598
710.733	28908
710.851	31105
710.969	31651
711.086	28552
711.204	26327
711.322	28927
711.439	29643
711.557	31836
711.674	27398
711.792	28585
711.909	26607
712.027	27627
712.144	25255
712.262	25503
712.379	32256
712.497	45190
712.614	43040
712.732	35449
712.849	32978
712.966	38162
713.084	44916
713.201	37144
713.318	35470
713.436	32862
713.553	34438
713.670	35297
713.787	41097
713.905	42465
714.022	33558
714.139	31910
714.256	35384
714.373	41699
714.490	53390
714.608	98404
714.725	361857
714.842	394047
714.959	48024
715.076	33218
715.193	30530
715.310	29732
715.427	28411
715.544	26889
715.661	28328
715.778	27915
715.895	31905
716.011	31975
716.128	29155
716.245	28168
716.362	30442
716.479	32642
716.596	26978
716.713	28004
716.829	25148
716.946	26534
717.063	23979
717.180	25103
717.296	24307
717.413	24852
717.530	23719
717.646	24308
717.763	24182
717.880	22857
717.996	23196
718.113	23372
718.229	23047
718.346	21685
718.462	23237
718.579	27266
718.695	41873
718.812	40236
718.928	43320
719.045	28584
719.161	22295
719.277	21387
719.394	20919
719.510	23047
719.626	23124
719.743	28966
719.859	29606
719.975	39270
720.092	111039
720.208	248848
720.324	43651
720.440	24105
720.557	27579
720.673	37521
720.789	61927
720.905	152116
721.021	47374
721.137	22598
721.253	23833
721.369	24464
721.486	28703
721.602	45698
721.718	21582
721.834	17904
721.950	18810
722.066	19277
722.181	18334
722.297	19544
722.413	17810
722.529	18421
722.645	18036
722.761	17867
722.877	17802
722.993	17595
723.108	19052
723.224	17763
723.340	18743
723.456	16660
723.571	18146
723.687	15846
723.803	16776
723.918	16369
724.034	17096
724.150	18504
724.265	22375
724.381	53974
724.497	73893
724.612	18272
724.728	15839
724.843	16483
724.959	21836
725.074	51584
725.190	63363
725.305	20364
725.421	17982
725.536	14188
725.651	14568
725.767	14278
725.882	13697
725.997	13931
726.113	13870
726.228	13130
726.343	13727
726.459	12218
726.574	16061
726.689	13925
726.804	13029
726.920	14801
727.035	14084
727.150	14798
727.265	13312
727.380	15089
727.495	13045
727.610	12062
727.725	12131
727.841	13345
727.956	19289
728.071	22016
728.186	13037
728.301	10871
728.416	13140
728.531	11750
728.645	9511
728.760	12348
728.875	12701
728.990	12885
729.105	11744
729.220	12291
729.335	12194
729.449	10495
729.564	9628
729.679	10120
729.794	10574
729.908	14298
730.023	12558
730.138	9223
730.253	9855
730.367	9465
730.482	9864
730.596	10710
730.711	10975
730.826	9951
730.940	9905
731.055	11124
731.169	8625
731.284	9841
731.398	10450
731.513	13995
731.627	13853
731.742	15551
731.856	18850
731.970	9296
732.085	12392
732.199	13699
732.313	19214
732.428	42363
732.542	126601
732.656	78378
732.771	16592
732.885	11498
732.999	11586
733.113	12674
733.227	11533
733.342	8824
733.456	9156
733.570	8642
733.684	10101
733.798	10337
733.912	8615
734.026	8323
734.140	9199
734.254	13176
734.368	27008
734.482	37134
734.596	9428
734.710	7738
734.824	8115
734.938	8340
735.052	8445
735.166	12203
735.280	10256
735.393	8592
735.507	9315
735.621	15653
735.735	38422
735.849	12799
735.962	8535
736.076	10268
736.190	11040
736.303	18404
736.417	26660
736.531	10111
736.644	10187
736.758	6016
736.872	7748
736.985	7380
737.099	7419
737.212	6751
737.326	7952
737.439	7205
737.553	6878
737.666	7337
737.780	5865
737.893	6548
738.007	6639
738.120	5944
738.233	7255
738.347	6293
738.460	6019
738.573	7173
738.687	7128
738.800	7052
738.913	9545
739.026	7696
739.140	7916
739.253	7309
739.366	6690
739.479	5898
739.592	5428
739.705	6476
739.818	7431
739.932	5905
740.045	5930
740.158	6968
740.271	7051
740.384	5333
740.497	6077
740.610	6554
740.723	6414
740.836	6457
740.949	7146
741.062	8915
741.174	8906
741.287	6458
741.400	6029
741.513	5505
741.626	7253
741.739	5863
741.851	5989
741.964	5563
742.077	6182
742.189	5903
742.302	6568
742.415	6878
742.527	5713
742.640	5544
742.753	6359
742.865	4556
742.978	5612
743.090	6028
743.203	6048
743.316	5401
743.428	4285
743.541	4848
743.653	4858
743.766	4867
743.878	6411
743.990	11752
744.103	10666
744.215	6253
744.327	6029
744.440	6785
744.552	12522
744.664	6207
744.777	4878
744.889	4671
745.001	5567
745.113	4635
745.226	3708
745.338	4964
745.450	4393
745.562	4334
745.674	3991
745.786	4378
745.898	4168
746.010	4889
746.122	4168
746.234	4179
746.347	4426
746.459	4795
746.570	4398
746.682	3977
746.794	5554
746.906	5236
747.018	5368
747.130	4625
747.242	4558
747.354	4574
747.466	5531
747.577	3548
747.689	4462
747.801	5448
747.913	4431
748.024	4317
748.136	3128
748.248	3810
748.359	4555
748.471	4193
748.583	4191
748.694	4034
748.806	5870
748.918	10138
749.029	5880
749.141	5572
749.252	5308
749.364	5645
749.475	14058
749.587	11654
749.698	4179
749.809	5015
749.921	3207
750.032	3431
750.144	3767
750.255	3476
750.366	3962
750.478	3424
750.589	3801
750.700	4328
750.811	4903
750.923	5974
751.034	14302
751.145	14084
751.256	3968
751.367	3540
751.479	4255
751.590	3441
751.701	3151
751.812	3138
751.923	4241
752.034	3739
752.145	2839
752.256	3792
752.367	2786
752.478	3009
752.589	2927
752.700	2948
752.811	3870
752.922	3944
753.032	4620
753.143	4531
753.254	3350
753.365	3890
753.476	3127
753.586	3364
753.697	3585
753.808	3405
753.919	3458
754.029	2782
754.140	2876
754.251	3284
754.361	3379
754.472	3293
754.582	3884
754.693	2910
754.804	3598
754.914	2523
755.025	3396
755.135	2707
755.246	3476
755.356	1984
755.466	3073
755.577	3162
755.687	2729
755.798	2299
755.908	3625
756.018	2915
756.129	3480
756.239	2949
756.349	3843
756.460	2804
756.570	3250
756.680	3357
756.790	3764
756.900	3858
757.011	3171
757.121	2702
757.231	2740
757.341	2694
757.451	2483
757.561	2778
757.671	1844
757.781	1981
757.891	3837
758.001	3581
758.111	4136
758.221	2613
758.331	5252
758.441	4307
758.551	6526
758.661	6633
758.771	4167
758.880	4329
758.990	4844
759.100	3761
759.210	4025
759.320	4121
759.429	4265
759.539	4729
759.649	3437
759.758	4140
759.868	4980
759.978	4065
760.087	4823
760.197	4995
760.307	4312
760.416	3996
760.526	4248
760.635	4529
760.745	4830
760.854	4500
760.964	5056
761.073	4668
761.182	4653
761.292	5262
761.401	6370
761.511	4351
761.620	4693
761.729	4030
761.839	4983
761.948	5265
762.057	4567
762.166	5208
762.276	3444
762.385	4309
762.494	3744
762.603	3714
762.712	4928
762.822	5060
762.931	4182
763.040	3834
763.149	4169
763.258	4563
763.367	4038
763.476	4881
763.585	4398
763.694	5143
763.803	5127
763.912	5735
764.021	5000
764.130	5057
764.238	5145
764.347	4401
764.456	4652
764.565	4440
764.674	5012
764.783	5003
764.891	4961
765.000	6645
765.109	6558
765.217	6053
765.326	8765
765.435	11331
765.543	9116
765.652	9028
765.761	11523
765.869	16107
765.978	24394
766.086	41664
766.195	79737
766.303	196726
766.412	438286
766.520	365935
766.629	132509
766.737	53006
766.846	29080
766.954	20260
767.062	16838
767.171	15076
767.279	11988
767.387	9654
767.496	9288
767.604	8265
767.712	7381
767.820	7244
767.928	7470
768.037	6344
768.145	7009
768.253	7368
768.361	5551
768.469	6338
768.577	6435
768.685	7529
768.793	6421
768.901	7021
769.009	7746
769.117	8141
769.225	8882
769.333	12262
769.441	19153
769.549	31699
769.657	71371
769.765	208117
769.873	364587
769.981	151168
770.088	40656
770.196	20847
770.304	14126
770.412	12898
770.519	9002
770.627	8455
770.735	8654
770.842	7454
770.950	7078
771.058	7085
771.165	5820
771.273	6613
771.380	6084
771.488	5641
771.595	5274
771.703	5983
771.810	7175
771.918	4664
772.025	5484
772.133	5423
772.240	5337
772.348	6176
772.455	5804
772.562	5231
772.670	4641
772.777	6093
772.884	4742
772.991	5258
773.099	5339
773.206	4595
773.313	5230
773.420	5122
773.528	4665
773.635	4038
773.742	5160
773.849	4036
773.956	4934
774.063	4868
774.170	4157
774.277	5401
774.384	4898
774.491	4983
774.598	4886
774.705	5713
774.812	6678
774.919	5549
775.026	5910
775.133	5758
775.239	5368
775.346	5218
775.453	5035
775.560	4950
775.667	4593
775.773	4278
775.880	5209
775.987	5431
776.093	4605
776.200	4624
776.307	4287
776.413	4627
776.520	4224
776.627	5212
776.733	5877
776.840	3497
776.946	6030
777.053	5810
777.159	6730
777.266	4312
777.372	7534
777.478	4991
777.585	6094
777.691	4265
777.798	4478
777.904	5765
778.010	7538
778.117	6414
778.223	5032
778.329	4581
778.435	4460
778.542	4900
778.648	4737
778.754	4065
778.860	3581
778.966	5066
779.072	5277
779.178	4314
779.284	4335
779.391	3812
779.497	2958
779.603	4731
779.708	3553
779.815	5118
779.920	7021
780.026	9804
780.132	5118
780.238	4086
780.344	3934
780.450	4355
780.556	3280
780.661	2708
780.767	4243
780.873	2837
780.979	4083
781.085	3746
781.190	4098
781.296	3290
781.402	3771
781.507	2720
781.613	2910
781.719	2976
781.824	3455
781.930	3931
782.035	4440
782.141	3783
782.246	3303
782.352	3380
782.457	3749
782.563	3146
782.668	3263
782.773	4664
782.879	3261
782.984	3961
783.090	5527
783.195	7176
783.300	5652
783.405	4350
783.511	4034
783.616	4024
783.721	3962
783.826	4103
783.932	4473
784.037	4336
784.142	3866
784.247	3350
784.352	4193
784.457	4845
784.562	3251
784.667	3637
784.772	3167
784.877	3426
784.982	3366
785.087	3262
785.192	4162
785.297	2687
785.402	3182
785.507	3454
785.611	3006
785.716	4130
785.821	4147
785.926	2887
786.031	2903
786.135	2616
786.240	3628
786.345	2145
786.450	3398
786.554	2640
786.659	3926
786.763	1972
786.868	3462
786.973	4607
787.077	2347
787.182	3742
787.286	3036
787.391	3880
787.495	3017
787.600	3112
787.704	2605
787.809	3141
787.913	2092
788.017	2787
788.122	2696
788.226	2506
788.330	2416
788.435	2284
788.539	2414
788.643	2511
788.747	1907
788.852	2837
788.956	2280
789.060	2833
789.164	2899
789.268	2270
789.372	3242
789.476	1863
789.580	2446
789.684	1714
789.788	3088
789.892	2359
789.996	3542
790.100	2785
790.204	3051
790.308	3331
790.412	3298
790.516	2921
790.620	3688
790.724	2925
790.828	3419
790.931	2456
791.035	3532
791.139	3156
791.242	1628
791.346	3219
791.450	2393
791.554	1915
791.657	1530
791.761	4011
791.864	3299
791.968	2353
792.072	2808
792.175	2434
792.279	2431
792.382	2774
792.486	2385
792.589	3258
792.693	3760
792.796	1843
792.899	2584
793.003	2924
793.106	723
793.209	2371
793.313	3244
793.416	1214
793.519	3815
793.623	4988
793.726	6440
793.829	2716
793.932	2626
794.035	529
794.138	4115
794.242	3750
794.345	4544
794.448	4814
794.551	5311
794.654	6539
794.757	5760
794.860	6132
794.963	4795
795.066	1691
795.169	2425
795.272	837
795.375	2129
795.477	1614
795.580	1995
795.683	892
795.786	2661
795.889	1169
795.991	3295
796.094	4566
796.197	3033
796.300	2568
796.402	1714
796.505	2233
796.608	1512
796.710	2480
796.813	1510
796.915	1432
797.018	2357
797.120	1586
797.223	1055
797.326	2978
797.428	1790
797.530	2001
797.633	2589
797.735	4854
797.838	9655
797.940	8918
798.042	1886
798.145	1661
798.247	1772
798.349	296
798.452	1539
798.554	1082
798.656	1497
798.758	2315
798.860	1715
798.962	707
799.065	1604
799.167	983
799.269	2898
799.371	3051
799.473	3112
799.575	4232
799.677	6871
799.779	4701
799.881	4056
799.983	3439
800.085	2345
800.187	2198
800.289	1451
800.390	1819
800.492	1297
800.594	2335
800.696	1179
800.798	1783
800.899	1386
801.001	1477
801.103	1126
801.205	1177
801.306	1424
801.408	869
801.509	1072
801.611	1594
801.713	1534
801.814	625
801.916	1235
802.017	446
802.119	579
802.220	2023
802.322	475
802.423	5881
802.525	4125
802.626	2587
802.727	1730
802.829	2805
802.930	-151
803.031	3163
803.133	1108
803.234	1591
803.335	1102
803.436	148
803.538	892
803.639	482
803.740	1326
803.841	351
803.942	1436
804.043	2338
804.144	844
804.245	891
804.346	633
804.447	1309
804.548	2158
804.649	4505
804.750	1425
804.851	619
804.952	1140
805.053	1285
805.154	367
805.255	1950
805.355	1382
805.456	427
805.557	8
805.658	-299
805.758	1208
805.859	485
805.960	503
806.061	448
806.161	119
806.262	1287
806.362	570
806.463	948
806.564	1276
806.664	2290
806.765	3284
806.865	3083
806.966	985
807.066	610
807.166	1508
807.267	1225
807.367	785
807.468	1355
807.568	112
807.668	1277
807.769	1853
807.869	826
807.969	1270
808.069	1742
808.170	1653
808.270	-955
808.370	2429
808.470	3007
808.570	1059
808.670	414
808.770	742
808.870	773
808.970	1137
809.070	882
809.170	68
809.271	861
809.370	1428
809.470	1121
809.570	226
809.670	132
809.770	1098
809.870	1741
809.970	717
810.070	1311
810.169	1228
810.269	-740
810.369	1472
810.469	198
810.568	466
810.668	681
810.768	-17
810.867	1110
810.967	-24
811.066	257
811.166	760
811.265	1125
811.365	-8
811.464	-13
811.564	1335
811.663	1362
811.763	-46
811.862	723
811.962	1450
812.061	250
812.160	132
812.260	676
812.359	560
812.458	-264
812.557	1298
812.657	1081
812.756	1621
812.855	1210
812.954	246
813.053	1299
813.153	972
813.252	-481
813.351	705
813.450	1010
813.549	266
813.648	710
813.747	117
813.846	1051
813.945	276
814.044	345
814.143	1439
814.242	991
814.341	-114
814.439	303
814.538	415
814.637	1153
814.736	769
814.835	1256
814.933	566
815.032	595
815.131	684
815.229	1011
815.328	2135
815.427	566
815.525	1737
815.624	1269
815.722	682
815.821	2564
815.919	1524
816.018	544
816.116	1587
816.215	843
816.313	759
816.412	880
816.510	1444
816.609	3149
816.707	1597
816.805	1640
816.904	461
817.002	2288
817.100	2402
817.198	2451
817.296	1083
817.395	2424
817.493	3663
817.591	1673
817.689	3969
817.787	3483
817.885	7633
817.983	12286
818.081	25514
818.179	62497
818.277	160582
818.375	147976
818.473	41572
818.571	14882
818.669	9620
818.767	9059
818.865	9180
818.963	9103
819.061	14329
819.158	24076
819.256	53599
819.354	122119
819.452	278458
819.549	194291
819.647	54175
819.745	20693
819.842	13498
819.940	8667
820.038	6175
820.135	5010
820.233	5074
820.330	3679
820.428	1963
820.525	2253
820.623	2722
820.720	2835
820.818	2681
820.915	2244
821.012	2285
821.110	256
821.207	2429
821.304	1567
821.402	1829
821.499	1515
821.596	3007
821.693	2377
821.791	2005
821.888	2828
821.985	6690
822.082	5909
822.179	2267
822.276	1821
822.373	1538
822.470	-239
822.567	1384
822.664	-298
822.761	1812
822.858	363
822.955	1277
823.052	737
823.149	759
823.246	1626
823.343	854
823.440	321
823.536	1214
823.633	699
823.730	763
823.827	995
823.923	1115
824.020	2316
824.117	726
824.213	-161
824.310	1150
824.407	1080
824.503	1378
824.600	713
824.696	400
824.793	1035
824.889	18
824.986	630
825.082	64
825.179	600
825.275	1123
825.371	936
825.468	1420
825.564	-259
825.660	1113
825.757	1142
825.853	1977
825.949	-106
826.045	1425
826.142	174
826.238	646
826.334	1567
826.430	-341
826.526	1057
826.622	446
826.718	732
826.814	157
826.910	1648
827.006	834
827.102	-673
827.198	1248
827.294	443
827.390	568
827.486	1423
827.582	-631
827.678	-691
827.774	1044
827.869	-621
827.965	923
828.061	-240
828.157	1142
828.252	202
828.348	53
828.444	1001
828.539	-52
828.635	354
828.731	1824
828.826	-316
828.922	441
829.017	611
829.113	1613
829.208	831
829.304	115
829.399	1820
829.495	98
829.590	1266
829.685	171
829.781	648
829.876	-188
829.971	-219
830.066	189
830.162	355
830.257	308
830.352	238
830.447	1794
830.543	1678
830.638	-381
830.733	2112
830.828	620
830.923	1159
831.018	1448
831.113	632
831.208	738
831.303	975
831.398	447
831.493	446
831.588	1082
831.683	270
831.778	686
831.873	559
831.967	655
832.062	421
832.157	-316
832.252	1150
832.346	680
832.441	1684
832.536	2368
832.631	5859
832.725	4868
832.820	-93
832.914	277
833.009	81
833.104	2083
833.198	2423
833.293	796
833.387	1806
833.482	1176
833.576	-197
833.670	1550
833.765	542
833.859	1099
833.954	970
834.048	614
834.142	318
834.237	102
834.331	700
834.425	110
834.519	-653
834.613	1021
834.708	214
834.802	547
834.896	-58
834.990	675
835.084	664
835.178	419
835.272	453
835.366	646
835.460	380
835.554	1138
835.648	270
835.742	1303
835.836	625
835.930	-87
836.024	683
836.117	1577
836.211	1492
836.305	3693
836.399	6355
836.493	497
836.586	1330
836.680	-118
836.774	-119
836.867	1275
836.961	-28
837.055	-468
837.148	322
837.242	298
837.335	-241
837.429	617
837.522	390
837.616	2568
837.709	6865
837.803	5252
837.896	1396
837.989	1634
838.083	4039
838.176	10367
838.269	10368
838.363	1333
838.456	357
838.549	2798
838.642	2716
838.735	7074
838.829	2749
838.922	992
839.015	733
839.108	398
839.201	824
839.294	1289
839.387	1352
839.480	634
839.573	3191
839.666	4952
839.759	829
839.852	-911
839.945	463
840.038	114
840.131	-298
840.223	290
840.316	1091
840.409	-121
840.502	-651
840.594	1135
840.687	-666
840.780	892
840.873	456
840.965	1337
841.058	2982
841.150	7856
841.243	5185
841.336	1361
841.428	169
841.521	761
841.613	793
841.706	1213
841.798	1102
841.890	729
841.983	-438
842.075	1708
842.167	970
842.260	1284
842.352	4114
842.444	4482
842.537	10010
842.629	15917
842.721	2912
842.813	902
842.905	-228
842.997	1338
843.090	1481
843.182	4227
843.274	7999
843.366	22296
843.458	44900
843.550	29793
843.642	4217
843.734	2325
843.826	2838
843.918	2971
844.009	348
844.101	-323
844.193	638
844.285	-43
844.377	-121
844.469	609
844.560	719
844.652	366
844.744	1437
844.835	411
844.927	942
845.019	3245
845.110	1482
845.202	1352
845.293	266
845.385	106
845.476	414
845.568	1675
845.659	700
845.751	778
845.842	94
845.934	-695
846.025	238
846.116	992
846.208	602
846.299	-308
846.390	-183
846.482	348
846.573	1761
846.664	2610
846.755	4177
846.846	4667
846.937	-361
847.029	115
847.120	616
847.211	251
847.302	962
847.393	-625
847.484	533
847.575	-1204
847.666	353
847.757	507
847.847	166
847.938	1492
848.029	793
848.120	-371
848.211	276
848.302	-115
848.392	-60
848.483	497
848.574	-584
848.664	-74
848.755	274
848.846	1301
848.936	-342
849.027	249
849.118	26
849.208	121
849.299	1122
849.389	2740
849.480	5351
849.570	12179
849.661	20867
849.751	37725
849.841	13953
849.932	1948
850.022	-535
850.112	846
850.203	479
850.293	-175
850.383	-242
850.474	156
850.564	102
850.654	519
850.744	964
850.834	300
850.924	-429
851.014	156
851.104	436
851.194	456
851.284	86
851.374	1585
851.464	659
851.554	1680
851.644	1714
851.734	4355
851.824	2619
851.914	606
852.004	315
852.094	-324
852.183	404
852.273	1111
852.363	953
852.452	914
852.542	166
852.632	-126
852.721	277
852.811	83
852.901	715
852.990	-675
853.080	491
853.169	102
853.259	533
853.348	716
853.438	1134
853.527	1759
853.617	2966
853.706	7341
853.795	12902
853.885	31677
853.974	58561
854.063	105184
854.152	177273
854.242	70393
854.331	11802
854.420	4971
854.509	3842
854.598	3370
854.687	3222
854.777	3032
854.866	1020
854.955	1385
855.044	95
855.133	418
855.222	309
855.311	238
855.400	-103
855.488	451
855.577	521
855.666	684
855.755	-24
855.844	1260
855.933	673
856.021	-167
856.110	623
856.199	-507
856.288	369
856.376	-505
856.465	-890
856.554	149
856.642	-66
856.731	581
856.819	925
856.908	820
856.996	-124
857.085	-439
857.173	75
857.262	-354
857.350	-284
857.438	155
857.527	1044
857.615	-508
857.703	364
857.792	-300
857.880	-248
857.968	-1052
858.056	-280
858.145	237
858.233	-149
858.321	-1193
858.409	-280
858.497	-45
858.585	-346
858.673	-58
858.761	-663
858.849	529
858.937	-74
859.025	317
859.113	70
859.201	-547
859.289	-140
859.377	-161
859.465	341
859.552	71
859.640	170
859.728	427
859.816	-7
859.903	565
859.991	11
860.079	-310
860.166	156
860.254	-866
860.342	-256
860.429	-389
860.517	-270
860.604	-105
860.692	41
860.779	-278
860.867	-43
860.954	839
861.042	704
861.129	182
861.216	608
861.304	-412
861.391	-147
861.478	344
861.565	-318
861.653	1139
861.740	493
861.827	-768
861.914	103
862.001	-492
862.089	-560
862.176	-620
862.263	-577
862.350	-166
862.437	-405
862.524	-960
862.611	-269
862.698	151
862.785	239
862.871	257
862.958	-319
863.045	590
863.132	-276
863.219	119
863.306	-1500
863.392	707
863.479	-35
863.566	831
863.652	1080
863.739	-381
863.826	15
863.912	184
863.999	-1047
864.086	356
864.172	-326
864.259	41
864.345	158
864.432	418
864.518	-4
864.604	-429
864.691	-222
864.777	911
864.863	-77
864.950	1510
865.036	136
865.122	1691
865.209	1101
865.295	1232
865.381	1341
865.467	2070
865.553	2706
865.639	3391
865.726	7493
865.812	13863
865.898	31217
865.984	45782
866.070	85209
866.156	100005
866.242	26067
866.328	5401
866.414	2616
866.499	2836
866.585	1189
866.671	1120
866.757	1201
866.843	1023
866.928	552
867.014	273
867.100	936
867.186	1551
867.271	2693
867.357	3286
867.442	4309
867.528	1987
867.614	444
867.699	1342
867.785	787
867.870	1030
867.956	773
868.041	2117
868.127	2020
868.212	1963
868.297	2030
868.383	1288
868.468	1711
868.553	3381
868.639	3102
868.724	7479
868.809	7593
868.894	1273
868.979	226
869.065	988
869.150	481
869.235	-29
869.320	-343
869.405	-485
869.490	-141
869.575	254
869.660	183
869.745	1039
869.830	-562
869.915	-223
870.000	-609
870.085	25
870.169	-182
870.254	-157
870.339	-49
870.424	-182
870.509	61
870.593	-79
870.678	-369
870.763	32
870.847	24
870.932	86
871.016	-23
871.101	-230
871.186	-322
871.270	323
871.355	-327
871.439	20
871.523	-685
871.608	-457
871.692	-337
871.777	539
871.861	1075
871.945	-58
872.030	-238
872.114	83
872.198	81
872.282	-565
872.367	-651
872.451	-169
872.535	484
872.619	0
872.703	-142
872.787	224
872.871	336
872.955	-449
873.039	-1333
873.123	469
873.207	496
873.291	643
873.375	7
873.459	571
873.543	-98
873.627	-323
873.711	77
873.794	-258
873.878	-314
873.962	-977
874.045	-26
874.129	-260
874.137	-294
874.213	-629
874.245	-262
874.296	329
874.352	-421
874.380	-790
874.460	-69
874.464	-41
874.547	322
874.568	89
874.631	-590
874.676	-328
874.714	-122
874.784	315
874.798	413
874.881	226
874.892	101
874.965	-846
874.999	-170
875.048	784
875.107	69
875.131	-213
875.215	394
875.215	395
875.298	541
875.323	512
875.381	485
875.430	222
875.465	60
875.538	-96
875.548	-132
875.631	-231
875.646	-219
875.714	-177
875.753	-372
875.798	-527
875.861	-432
875.881	-427
875.964	-145
875.968	-154
876.047	-199
876.076	188
876.130	832
876.183	315
876.213	54
876.291	771
876.296	819
876.379	-519
876.398	-358
876.462	180
876.506	362
876.545	468
876.613	182
876.628	150
876.711	267
876.721	244
876.794	34
876.828	-103
876.877	-312
876.935	-158
876.960	-99
877.043	-296
877.043	-294
877.125	477
877.150	449
877.208	346
877.258	393
877.291	467
877.365	560
877.374	558
877.456	84
877.472	229
877.539	891
877.579	613
877.622	298
877.687	185
877.704	169
877.787	3
877.794	30
877.869	216
877.901	419
877.952	779
878.008	53
878.034	-250
878.115	-338
878.117	-339
878.199	-338
878.222	-169
878.282	194
878.329	252
878.364	356
878.437	461
878.447	448
878.529	-504
878.544	-370
878.611	410
878.651	259
878.694	244
878.758	717
878.776	748
878.858	292
878.865	293
878.941	152
878.972	1
879.023	82
879.078	40
879.105	31
879.185	1159
879.187	1173
879.269	205
879.292	148
879.351	219
879.399	61
879.433	-8
879.506	482
879.516	542
879.598	-156
879.613	-109
879.680	-6
879.720	193
879.762	351
879.827	290
879.844	324
879.926	262
879.933	262
880.007	201
880.040	271
880.089	419
880.147	767
880.171	968
880.253	1727
880.254	1731
880.335	2487
880.360	2686
880.417	3291
880.467	5079
880.499	6506
880.574	8455
880.580	8446
880.662	2612
880.680	2127
880.744	935
880.787	612
880.825	362
880.893	-40
880.907	-34
880.989	-108
881.000	-107
881.070	49
881.106	276
881.152	440
881.213	441
881.233	347
881.315	-28
881.319	-49
881.396	243
881.426	347
881.478	340
881.532	372
881.559	381
881.639	320
881.641	319
881.722	278
881.745	299
881.803	650
881.852	552
881.885	351
881.958	726
881.966	779
882.047	861
882.064	895
882.129	948
882.171	786
882.210	1009
882.277	2325
882.291	2394
882.372	839
882.383	718
882.454	335
882.489	304
882.535	317
882.596	537
882.616	656
882.697	147
882.702	177
882.778	502
882.808	542
882.859	726
882.914	805
882.940	800
883.020	569
883.021	567
883.102	386
883.127	114
883.183	127
883.233	414
883.264	372
883.339	443
883.345	459
883.426	56
883.445	126
883.507	563
883.551	599
883.587	456
883.657	331
883.668	365
883.749	831
883.763	792
883.830	354
883.869	370
883.910	581
883.975	882
883.991	842
884.072	26
884.081	3
884.152	325
884.187	381
884.233	605
884.292	855
884.314	755
884.394	514
884.398	485
884.475	483
884.504	563
884.555	360
884.610	30
884.636	77
884.716	522
884.716	528
884.797	372
884.821	488
884.877	350
884.927	147
884.958	270
885.033	294
885.038	267
885.118	-21
885.139	-88
885.199	371
885.244	725
885.279	715
885.350	637
885.359	653
885.439	643
885.456	637
885.520	617
885.561	749
885.600	801
885.667	636
885.680	646
885.760	771
885.773	775
885.840	537
885.878	508
885.920	545
885.984	310
886.000	352
886.080	761
886.089	811
886.160	1077
886.195	1115
886.240	956
886.300	899
886.320	882
886.400	577
886.406	559
886.480	930
886.511	1123
886.560	1001
886.616	707
886.640	760
886.720	949
886.722	951
886.800	688
886.827	582
886.879	442
886.932	316
886.959	618
887.038	1297
887.039	1301
887.119	1153
887.143	1061
887.198	1000
887.248	1011
887.278	1182
887.354	1534
887.358	1509
887.437	782
887.459	589
887.517	629
887.564	711
887.596	902
887.669	1247
887.676	1196
887.755	523
887.774	344
887.835	500
887.880	655
887.914	721
887.985	797
887.994	815
888.073	951
888.090	968
888.153	883
888.195	846
888.232	743
888.300	514
888.311	555
888.391	816
888.405	858
888.470	552
888.510	336
888.549	512
888.615	923
888.628	976
888.708	1139
888.720	1167
888.787	1253
888.825	1281
888.866	1067
888.930	743
888.945	705
889.024	510
889.035	478
889.103	634
889.140	699
889.182	772
889.245	927
889.261	1060
889.340	1656
889.349	1718
889.419	1143
889.454	863
889.498	818
889.559	742
889.577	630
889.656	139
889.664	92
889.735	1017
889.768	1455
889.814	1217
889.873	894
889.978	1301
890.083	699
890.187	1334
890.292	1264
890.397	1101
890.501	904
890.606	47
890.710	2047
890.815	1564
890.919	375
891.024	668
891.128	989
891.233	751
891.337	835
891.442	1748
891.546	1493
891.650	1214
891.755	1003
891.859	1736
891.963	1882
892.068	585
892.172	778
892.276	3
892.380	818
892.484	1525
892.589	1034
892.693	1069
892.797	915
892.901	-334
893.005	1199
893.109	1095
893.213	993
893.317	1076
893.421	1040
893.525	375
893.629	546
893.733	212
893.837	1265
893.941	4
894.045	1250
894.148	-444
894.252	1083
894.356	1101
894.460	1097
894.564	560
894.667	1514
894.771	238
894.875	166
894.978	674
895.082	643
895.186	603
895.289	1429
895.393	93
895.496	1344
895.600	622
895.703	-114
895.807	823
895.910	1379
896.014	637
896.117	1001
896.221	1139
896.324	513
896.427	474
896.531	-262
896.634	856
896.737	1460
896.840	1300
896.944	1034
897.047	1588
897.150	1211
897.253	399
897.356	1364
897.460	134
897.563	730
897.666	253
897.769	712
897.872	68
897.975	404
898.078	518
898.181	-320
898.284	-372
898.387	999
898.490	1259
898.593	1449
898.695	518
898.798	142
898.901	256
899.004	1221
899.107	1077
899.209	409
899.312	1327
899.415	1830
899.518	1008
899.620	1273
899.723	1020
899.826	1004
899.928	1204
900.031	269
900.133	727
900.236	492
900.338	-327
900.441	575
900.543	291
900.646	1222
900.748	1026
900.851	1020
900.953	898
901.055	490
901.158	870
901.260	56
901.362	1000
901.465	540
901.567	773
901.669	582
901.771	126
901.873	225
901.976	119
902.078	1117
902.180	-74
902.282	600
902.384	372
902.486	1071
902.588	1211
902.690	1391
902.792	648
902.894	786
902.996	1236
903.098	214
903.200	317
903.302	767
903.404	761
903.505	451
903.607	459
903.709	1085
903.811	1238
903.913	1035
904.014	605
904.116	857
904.218	1028
904.319	916
904.421	488
904.523	1074
904.624	1416
904.726	1092
904.827	-260
904.929	642
905.030	464
905.132	978
905.233	702
905.335	-239
905.436	634
905.537	804
905.639	408
905.740	553
905.841	697
905.943	207
906.044	544
906.145	825
906.247	-517
906.348	764
906.449	32
906.550	1016
906.651	780
906.752	723
906.854	-129
906.955	733
907.056	1037
907.157	1411
907.258	959
907.359	237
907.460	187
907.561	376
907.662	-15
907.762	1193
907.863	746
907.964	1348
908.065	1458
908.166	1274
908.267	864
908.367	351
908.468	9
908.569	255
908.670	522
908.770	1000
908.871	1637
908.971	1498
909.072	1534
909.173	866
909.273	941
909.374	1007
909.474	1055
909.575	925
909.675	523
909.776	1196
909.876	-203
909.977	1067
910.077	1541
910.177	872
910.278	700
910.378	1367
910.478	1513
910.579	1232
910.679	568
910.779	1352
910.879	470
910.980	538
911.080	825
911.180	1439
911.280	1565
911.380	1030
911.480	362
911.580	812
911.680	236
911.780	1873
911.880	1573
911.980	1526
912.080	995
912.180	625
912.280	1088
912.380	1010
912.480	1232
912.580	753
912.679	706
912.779	1731
912.879	974
912.979	1028
913.078	651
913.178	821
913.278	720
913.377	904
913.477	556
913.577	472
913.676	1548
913.776	1230
913.875	1119
913.975	780
914.074	518
914.174	663
914.273	399
914.373	1793
914.472	1111
914.572	432
914.671	-20
914.770	1480
914.870	897
914.969	1336
915.068	406
915.167	1439
915.267	465
915.366	626
915.465	667
915.564	1366
915.663	944
915.763	1247
915.862	1313
915.961	1787
916.060	490
916.159	1819
916.258	-19
916.357	1027
916.456	1930
916.555	1360
916.654	295
916.752	1964
916.851	902
916.950	1276
917.049	1310
917.148	1427
917.247	1091
917.345	1097
917.444	544
917.543	1325
917.642	1099
917.740	1044
917.839	1331
917.937	1655
918.036	1446
918.135	642
918.233	1364
918.332	645
918.430	335
918.529	1380
918.627	314
918.726	1124
918.824	1297
918.923	1173
919.021	1085
919.119	252
919.218	751
919.316	1560
919.414	1386
919.512	1418
919.611	1288
919.709	1485
919.807	1563
919.905	863
920.003	1699
920.102	1273
920.200	1529
920.298	1040
920.396	1912
920.494	1048
920.592	252
920.690	1021
920.788	442
920.886	1800
920.984	1284
921.082	1278
921.180	1614
921.277	930
921.375	1667
921.473	1074
921.571	713
921.669	1140
921.766	1499
921.864	2398
921.962	1518
922.060	1236
922.157	1281
922.255	2125
922.352	2003
922.450	2108
922.548	1090
922.645	2292
922.743	1927
922.840	2846
922.938	3387
923.035	3397
923.133	3820
923.230	3891
923.327	4237
923.425	3975
923.522	3652
923.619	3635
923.717	3310
923.814	3210
923.911	2862
924.008	3670
924.106	3115
924.203	3156
924.300	3270
924.397	2550
924.494	3498
924.591	3192
924.688	2584
924.786	3102
924.883	2968
924.979	3421
925.077	3748
925.173	2977
925.270	3257
925.367	2387
925.464	3037
925.561	3152
925.658	2562
925.755	3329
925.852	3904
925.948	2895
926.045	3842
926.142	2873
926.239	2004
926.335	2915
926.432	2783
926.529	2820
926.625	3105
926.722	2959
926.818	2071
926.915	3213
927.011	2543
927.108	3674
927.204	2083
927.301	2870
927.397	2859
927.494	3332
927.590	2729
927.687	2764
927.783	2962
927.879	3383
927.976	3163
928.072	2834
928.168	2476
928.264	2946
928.361	2472
928.457	2668
928.553	3073
928.649	2199
928.745	3137
928.841	2363
928.937	2202
929.033	3287
929.129	3355
929.225	3322
929.321	3033
929.417	1690
929.513	3460
929.609	2508
929.705	2334
929.801	3390
929.897	2217
929.993	2127
930.089	2792
930.184	2395
930.280	2554
930.376	3138
930.471	1791
930.567	2247
930.663	2440
930.758	2714
930.854	2220
930.950	2377
931.045	2540
931.141	3095
931.236	2879
931.332	3123
931.427	2043
931.523	2398
931.618	3107
931.714	2130
931.809	2669
931.905	2889
932.000	2484
932.095	2212
932.191	2583
932.286	2393
932.381	1898
932.476	1703
932.572	2069
932.667	1924
932.762	2243
932.857	2602
932.952	2154
933.047	2586
933.142	1525
933.237	2572
933.332	2157
933.427	2932
933.522	2501
933.617	2026
933.712	1861
933.807	2668
933.902	2438
933.997	2385
934.092	2249
934.187	1476
934.282	1969
934.376	2972
934.471	2227
934.566	1961
934.661	1865
934.755	2193
934.850	2301
934.945	1618
935.039	2449
935.134	2146
935.228	1728
935.323	2739
935.417	2468
935.512	2392
935.606	952
935.701	2862
935.795	2308
935.890	2192
935.984	2089
936.079	1439
936.173	1862
936.267	1957
936.362	1493
936.456	2210
936.550	2340
936.644	2757
936.738	1850
936.833	1313
936.927	1273
937.021	1866
937.115	2501
937.209	1856
937.303	2847
937.397	1993
937.491	1617
937.585	1839
937.679	2112
937.773	1675
937.867	1981
937.961	2189
938.055	1782
938.149	1804
938.243	1875
938.337	1613
938.430	2045
938.524	3431
938.618	1848
938.712	2295
938.805	2313
938.899	2364
938.993	2525
939.086	1675
939.180	1101
939.274	1362
939.367	2210
939.461	1349
939.554	1000
939.648	847
939.741	2070
939.835	1951
939.928	2421
940.022	2436
940.115	1236
940.208	2174
940.302	1649
940.395	2462
940.488	1336
940.582	2565
940.675	806
940.768	1609
940.861	2091
940.954	2609
941.048	877
941.141	1057
941.234	1098
941.327	2104
941.420	3342
941.513	1759
941.606	1501
941.699	2764
941.792	1522
941.885	1382
941.978	1523
942.071	1979
942.164	1848
942.257	1064
942.349	1978
942.442	1503
942.535	1009
942.628	1401
942.721	1423
942.813	710
942.906	2355
942.999	2166
943.091	1375
943.184	1281
943.277	506
943.369	1140
943.462	638
943.554	636
943.647	908
943.739	1537
943.832	1210
943.924	1018
944.017	1296
944.109	572
944.201	985
944.294	2054
944.386	858
944.478	872
944.571	1072
944.663	1454
944.755	1709
944.847	2100
944.940	899
945.032	344
945.124	440
945.216	1693
945.308	857
945.400	1464
945.492	1572
945.584	1255
945.676	597
945.768	1270
945.860	2073
945.952	1039
946.044	1138
946.136	735
946.228	390
946.320	1003
946.412	1209
946.503	1716
946.595	2071
946.687	1179
946.779	-288
946.870	1297
946.962	506
947.054	1180
947.145	945
947.237	1433
947.329	954
947.420	1079
947.512	1154
947.603	887
947.695	1470
947.786	345
947.878	417
947.969	1301
948.061	1523
948.152	825
948.243	322
948.335	1342
948.426	589
948.517	1035
948.609	203
948.700	1385
948.791	699
948.882	793
948.973	1044
949.065	983
949.156	1145
949.247	422
949.338	759
949.429	589
949.520	298
949.611	488
949.702	1266
949.793	1804
949.884	1733
949.975	594
950.066	705
950.157	459
950.247	552
950.338	1178
950.429	997
950.520	1406
950.611	632
950.701	1083
950.792	1857
950.883	1855
950.973	598
951.064	483
951.155	1269
951.245	913
951.336	1667
951.427	617
951.517	1451
951.608	742
951.698	938
951.788	1149
951.879	484
951.969	889
952.060	874
952.150	751
952.240	1731
952.331	106
952.421	2167
952.511	687
952.602	629
952.692	685
952.782	1090
952.872	712
952.962	138
953.052	461
953.143	897
953.233	1012
953.323	535
953.413	377
953.503	1245
953.593	766
953.683	864
953.773	-49
953.863	281
953.953	1634
954.042	1096
954.132	754
954.222	1643
954.312	883
954.402	401
954.492	1077
954.581	1266
954.671	1101
954.761	1114
954.850	1560
954.940	302
955.030	-96
955.119	818
955.209	485
955.298	47
955.388	1119
955.477	984
955.567	-118
955.656	54
955.746	717
955.835	322
955.925	829
956.014	-448
956.103	160
956.193	1164
956.282	508
956.371	46
956.461	-307
956.550	764
956.639	739
956.728	230
956.817	89
956.906	-522
956.995	825
957.085	37
957.174	480
957.263	668
957.352	1158
957.441	176
957.530	718
957.619	592
957.708	286
957.796	-287
957.885	176
957.974	-430
958.063	25
958.152	160
958.241	-157
958.329	-301
958.418	-292
958.507	-767
958.596	1090
958.684	-226
958.773	1204
958.861	376
958.950	460
959.039	61
959.127	-93
959.216	402
959.304	-66
959.393	173
959.481	635
959.570	317
959.658	277
959.746	188
959.835	855
959.923	2087
960.011	1227
960.100	957
960.188	-72
960.276	583
960.365	521
960.453	725
960.541	-346
960.629	-233
960.717	78
960.805	-131
960.893	435
960.981	-1142
961.069	1100
961.158	-279
961.245	1718
961.333	147
961.421	-94
961.509	860
961.597	875
961.685	-16
961.773	-173
961.861	171
961.949	400
962.036	-487
962.124	964
962.212	79
962.299	-101
962.387	-190
962.475	998
962.562	-235
962.650	546
962.738	316
962.825	-335
962.913	915
963.000	364
963.088	769
963.175	519
963.263	1340
963.350	210
963.438	371
963.525	-75
963.612	1207
963.700	4312
963.787	10947
963.874	5201
963.962	1401
964.049	146
964.136	94
964.223	11
964.310	559
964.398	568
964.485	-191
964.572	573
964.659	1643
964.746	1863
964.833	918
964.920	-201
965.007	-281
965.094	553
965.181	-57
965.268	618
965.355	-115
965.441	-240
965.528	-400
965.615	956
965.702	-257
965.789	-1065
965.875	202
965.962	-702
966.049	-922
966.136	827
966.222	-818
966.309	1027
966.395	-293
966.482	1085
966.569	78
966.655	823
966.742	-548
966.828	63
966.915	-679
967.001	-266
967.087	-323
967.174	-240
967.260	437
967.347	1456
967.433	3121
967.519	7410
967.605	2308
967.692	-130
967.778	643
967.864	370
967.950	560
968.036	-636
968.123	149
968.209	-252
968.295	-1523
968.381	1852
968.467	238
968.553	-715
968.639	462
968.725	520
968.811	919
968.897	1709
968.983	811
969.069	-608
969.154	802
969.240	716
969.326	-460
969.412	-238
969.497	-337
969.583	-382
969.669	652
969.755	111
969.840	-223
969.926	456
970.012	62
970.097	1335
970.183	1306
970.268	756
970.354	1189
970.439	1249
970.525	4813
970.610	935
970.696	1325
970.781	-246
970.866	-830
970.952	566
971.037	-184
971.122	-274
971.208	-41
971.293	-185
971.378	-224
971.463	383
971.549	787
971.634	533
971.719	724
971.804	-341
971.889	1274
971.974	-597
972.059	497
972.144	355
972.229	-37
972.314	-728
972.399	174
972.484	-217
972.569	655
972.654	-326
972.739	3020
972.824	2002
972.908	737
972.993	-1
973.078	556
973.163	290
973.247	-43
973.332	-721
973.417	1309
973.501	-1036
973.586	-2
973.671	861
973.755	584
973.840	1212
973.924	1025
974.009	80
974.093	1153
974.178	1506
974.262	1068
974.346	1947
974.431	1176
974.515	445
974.600	184
974.684	760
974.768	-406
974.852	1210
974.937	-1433
975.021	562
975.105	769
975.189	-256
975.273	400
975.358	-196
975.442	54
975.526	607
975.610	-367
975.694	-251
975.778	1221
975.862	-1195
975.946	-1366
976.030	1312
976.114	-113
976.198	439
976.281	-363
976.365	738
976.449	-890
976.533	917
976.617	-452
976.700	-59
976.784	-284
976.868	427
976.951	1384
977.035	428
977.119	31
977.202	310
977.286	421
977.369	684
977.453	814
977.536	114
977.620	403
977.703	699
977.787	-650
977.870	1226
977.953	1283
978.037	-668
978.120	1512
978.203	860
978.287	2260
978.370	1405
978.453	453
978.536	-438
978.620	954
978.703	1604
978.786	1006
978.869	-461
978.952	-575
979.035	677
979.118	150
979.201	-680
979.284	-43
979.367	-150
979.450	542
979.533	-540
979.616	19
979.699	238
979.782	-21
979.865	247
979.948	47
980.030	106
980.113	-665
980.196	-600
980.279	1142
980.361	33
980.444	-170
980.526	560
980.609	157
980.692	-14
980.774	1046
980.857	-906
980.939	1006
981.022	-244
981.104	-503
981.187	615
981.269	-39
981.352	-246
981.434	-806
981.516	365
981.599	674
981.681	557
981.763	88
981.846	-230
981.928	-321
982.010	126
982.092	-643
982.174	677
982.256	115
982.339	461
982.421	-391
982.503	781
982.585	-663
982.667	116
982.749	309
982.831	-187
982.913	-1360
982.995	814
983.077	-1326
983.158	1240
983.240	-804
983.322	797
983.404	595
983.486	-122
983.568	568
983.649	465
983.731	355
983.813	-131
983.894	512
983.976	171
984.058	34
984.139	1441
984.221	-711
984.302	449
984.384	-231
984.465	64
984.547	-109
984.628	-85
984.710	513
984.791	-82
984.872	-1028
984.954	-487
985.035	683
985.116	-724
985.198	-712
985.279	893
985.360	-796
985.441	45
985.522	592
985.604	-166
985.685	-1850
985.766	733
985.847	1226
985.928	-22
986.009	-265
986.090	-24
986.171	317
986.252	-628
986.333	187
986.414	-55
986.495	276
986.576	-236
986.656	-680
986.737	413
986.818	764
986.899	147
986.980	288
987.060	1401
987.141	-205
987.222	392
987.302	638
987.383	-47
987.464	-280
987.544	264
987.625	455
987.705	431
987.786	-599
987.866	-561
987.947	156
988.027	38
988.108	-70
988.188	301
988.268	333
988.349	642
988.429	-190
988.509	276
988.589	-73
988.670	-1616
988.750	742
988.830	366
988.910	525
988.990	181
989.070	-358
989.151	-181
989.231	-851
989.311	569
989.391	-139
989.471	632
989.551	-244
989.631	-421
989.711	1100
989.791	-1554
989.870	-806
989.950	1444
990.030	-690
990.110	-241
990.190	-516
990.269	-220
990.349	-520
990.429	731
990.509	149
990.588	-208
990.668	132
990.747	12
990.827	51
990.907	375
990.986	-825
991.066	-560
991.145	-667
991.225	404
991.304	-394
991.383	297
991.463	-249
991.542	873
991.622	-188
991.701	-483
991.780	-485
991.859	-556
991.939	-369
992.018	-811
992.097	-458
992.176	446
992.256	-90
992.335	-567
992.414	1144
992.493	-628
992.572	-364
992.651	1004
992.730	162
992.809	-328
992.888	-943
992.967	-530
993.046	455
993.125	-945
993.203	-544
993.282	842
993.361	-422
993.440	-681
993.519	-971
993.597	-321
993.676	-1241
993.755	741
993.834	731
993.912	-1018
993.991	262
994.069	-1092
994.148	105
994.226	-125
994.305	-292
994.384	-755
994.462	567
994.540	-645
994.619	-778
994.697	365
994.776	-592
994.854	261
994.932	-847
995.011	-222
995.089	-252
995.167	-502
995.245	-472
995.324	-166
995.402	-433
995.480	-941
995.558	199
995.636	-986
995.714	-600
995.792	0
995.870	-326
995.948	-62
996.026	-853
996.104	-791
996.182	-79
996.260	-552
996.338	-352
996.416	-1037
996.494	-774
996.572	244
996.649	-1023
996.727	-857
996.805	-278
996.883	-622
996.960	-1623
997.038	545
997.116	-288
997.193	-242
997.271	-70
997.348	-388
997.426	-678
997.504	-520
997.581	-37
997.658	799
997.736	-1452
997.813	-1568
997.891	134
997.968	-1200
998.046	-690
998.123	-403
998.200	-39
998.277	-1415
998.355	287
998.432	-916
998.509	-961
998.586	-58
998.663	319
998.741	-198
998.818	-707
998.895	-1000
998.972	-378
999.049	-31
999.126	-659
999.203	-85
999.280	-1016
999.357	-910
999.434	-523
999.511	-820
999.587	168
999.664	-143
999.741	-263
999.818	-324
999.895	-530
999.971	-1422
1000.048	-31
1000.125	178
1000.202	-1105
1000.278	-722
1000.355	-36
1000.431	-756
1000.508	-872
1000.584	-732
1000.661	-653
1000.738	-1025
1000.814	-344
1000.890	144
1000.967	-1118
1001.043	-22
1001.120	-1483
1001.196	-871
1001.272	-843
1001.349	-425
1001.425	-94
1001.501	-393
1001.577	-1610
1001.654	684
1001.730	-776
1001.806	-581
1001.882	-1726
1001.958	-686
1002.034	-147
1002.110	-884
1002.186	-759
1002.262	-769
1002.338	-1460
1002.414	-882
1002.490	-459
1002.566	-1020
1002.642	-764
1002.718	-133
1002.794	-86
1002.870	-700
1002.945	-1034
1003.021	-945
1003.097	-1304
1003.173	-839
1003.248	-1114
1003.324	-791
1003.400	-190
1003.475	-862
1003.551	-951
1003.626	-749
1003.702	-767
1003.777	-817
1003.853	-1254
1003.928	-1333
1004.004	-851
1004.079	-674
1004.155	-947
1004.230	-1531
1004.305	-475
1004.381	-1273
1004.456	-535
1004.531	-735
1004.607	-806
1004.682	-1530
1004.757	-513
1004.832	-1274
1004.907	-684
1004.982	-334
1005.057	-1484
1005.133	-1311
1005.208	-737
1005.283	-890
1005.358	-380
1005.433	-785
1005.508	-886
1005.583	-1059
1005.657	-861
1005.732	-143
1005.807	-1831
1005.882	-885
1005.957	-766
1006.032	-335
1006.106	-675
1006.181	-1571
1006.256	-918
1006.331	-502
1006.405	-1537
1006.480	-319
1006.554	-643
1006.629	-488
1006.704	-981
1006.778	-842
1006.853	-264
1006.927	-959
1007.002	-776
1007.076	-1399
1007.150	-1177
1007.225	-702
1007.299	-1313
1007.373	-1174
1007.448	-501
1007.522	77
1007.596	-1234
1007.671	-1441
1007.745	-1003
1007.819	-1180
1007.893	-726
1007.967	-424
1008.041	-1595
1008.115	468
1008.190	-1248
1008.264	-126
1008.338	-1939
1008.412	-782
1008.486	-629
1008.560	-947
1008.633	-1201
1008.707	-574
1008.781	-735
1008.855	-1055
1008.929	-595
1009.003	-1512
1009.076	-1068
1009.150	-979
1009.224	-1097
1009.298	-951
1009.371	-1859
1009.445	-865
1009.519	-1104
1009.592	-1890
1009.666	-806
1009.739	-1075
1009.813	-1917
1009.886	-876
1009.960	-1798
1010.033	-1179
1010.107	-252
1010.180	-1509
1010.253	-1458
1010.327	-950
1010.400	-1269
1010.473	-1441
1010.547	-186
1010.620	-1232
1010.693	-1592
1010.766	-1895
1010.840	-1250
1010.913	-1824
1010.986	-1899
1011.059	-1901
1011.132	-212
1011.205	-124
1011.278	-912
1011.351	-1766
1011.424	-1004
1011.497	-1323
1011.570	-720
1011.643	-903
1011.716	-787
1011.789	-564
1011.862	-1186
1011.934	-687
1012.007	-2175
1012.080	-1268
1012.153	-1087
1012.225	-784
1012.298	-1712
1012.371	-1794
1012.443	-1011
1012.516	-1735
1012.588	-1521
1012.661	-746
1012.733	-1721
1012.806	-1212
1012.879	-1682
1012.951	-1643
1013.023	-1279
1013.096	-1152
1013.168	-1865
1013.241	-744
1013.313	-1103
1013.385	-853
1013.458	-1548
1013.530	-243
1013.602	-1980
1013.674	-1049
1013.746	-1331
1013.819	-1202
1013.891	-787
1013.963	-1162
1014.035	-1284
1014.107	-832
1014.179	-1042
1014.251	-1278
1014.323	-1293
1014.395	-1554
1014.467	-1319
1014.539	-2065
1014.611	-990
1014.683	-1485
1014.754	-1135
1014.826	-1444
1014.898	-1428
1014.970	-1335
1015.042	-913
1015.113	-829
1015.185	-1656
1015.257	-1056
1015.328	-1579
1015.400	-2215
1015.471	-1157
1015.543	-1964
1015.615	-997
1015.686	-2152
1015.757	-1521
1015.829	-373
1015.901	-1568
1015.972	-1283
1016.043	-1286
1016.115	-581
1016.186	-1555
1016.257	-2549
1016.328	-795
1016.400	-1217
1016.471	-1468
1016.542	-1351
1016.613	-884
1016.685	-1428
1016.756	-790
1016.827	-1752
1016.898	-1747
1016.969	-626
1017.040	-1620
1017.111	-1502
1017.182	-2251
1017.253	-1626
1017.324	-692
1017.395	-1295
1017.466	-1191
1017.537	-2345
1017.608	-1050
1017.678	-1298
1017.749	-1869
1017.820	-1686
1017.891	-1941
1017.961	-1759
1018.032	-1578
1018.103	-2177
1018.173	-1352
1018.244	-1937
1018.315	-2136
1018.385	-867
1018.456	-1012
1018.526	-1603
1018.597	-1745
1018.667	-1710
1018.738	-1924
1018.808	-2201
1018.878	-2251
1018.949	-1035
1019.019	-1344
1019.089	-1950
1019.160	-206
1019.230	-1996
1019.300	-2121
1019.371	-2021
1019.441	-440
1019.511	-1407
1019.581	-1643
1019.651	-1159
1019.721	-1392
1019.791	-2412
1019.861	-1790
1019.931	-1844
1020.001	-1404
1020.071	-1076
1020.141	-1217
1020.211	-1783
1020.281	-1514
1020.351	-1589
1020.421	-1680
1020.491	-422
1020.560	-1802
1020.630	-544
1020.700	-1910
1020.770	-1579
1020.839	-2042
1020.909	-1332
1020.979	-2429
1021.048	-2453
1021.118	-2417
1021.187	-1764
1021.257	-1820
1021.326	-1660
1021.396	-864
1021.465	-1123
1021.535	-2329
1021.604	-1345
1021.674	-1438
1021.743	-1806
1021.812	-1339
1021.882	-1573
1021.951	-2250
1022.020	-1663
1022.089	-1256
1022.159	-2243
1022.228	-1895
1022.297	-2350
1022.366	-2649
1022.435	-1845
1022.504	-1991
1022.573	-2030
1022.642	-1220
1022.711	-1630
1022.781	-1492
1022.849	-1494
1022.918	-1917
1022.987	-1570
1023.056	-1786
1023.125	-2494
1023.194	-1626
1023.263	-2020
1023.331	-1537
1023.400	-2442
1023.469	-2797
1023.538	-1785
1023.606	-1564
1023.675	-1924
1023.744	-2153
1023.812	-2191
1023.881	-2263
1023.949	-1755
1024.018	-1792
1024.086	-2516
1024.155	-2988
1024.223	-1470
1024.292	-1463
1024.360	-1031
1024.429	-2006
1024.497	-2969
1024.565	-2585
1024.634	-2056
1024.702	-1377
1024.770	-2015
1024.838	-2062
1024.907	-1449
1024.975	-2058
1025.043	-2011
1025.111	-2131
1025.179	-1878
1025.247	-2233
1025.315	-1630
1025.383	-1484
1025.451	-1643
1025.519	-2648
1025.587	-2070
1025.655	-2186
1025.723	-1935
1025.791	-1870
1025.859	-1510
1025.927	-1699
1025.995	-1797
1026.062	-1937
1026.130	-1799
1026.198	-2121
1026.266	-2487
1026.333	-2361
1026.401	-1673
1026.469	-2662
1026.536	-1606
1026.604	-2915
1026.671	-2357
1026.739	-2117
1026.806	-1716
1026.874	-2615
1026.941	-1457
1027.009	-1791
1027.076	-2835
1027.144	-1814
1027.211	-2250
1027.278	-2711
1027.345	-1695
1027.413	-2089
1027.480	-2190
1027.547	-1336
1027.614	-1957
1027.682	-2097
1027.749	-1749
1027.816	-1671
1027.883	-1551
1027.950	-1324
1028.017	-2564
1028.084	-1865
1028.151	-2652
1028.218	-1948
1028.285	-1418
1028.352	-1609
1028.419	-1557
1028.486	-2256
1028.553	-1575
1028.619	-2104
1028.686	-1836
1028.753	-2193
1028.820	-2788
1028.886	-2262
1028.953	-2548
1029.020	-2134
1029.086	-1637
1029.153	-2700
1029.220	-2188
1029.286	-2225
1029.353	-2015
1029.419	-2838
1029.486	-1622
1029.552	-2285
1029.619	-2369
1029.685	-2981
1029.751	-2252
1029.818	-1092
1029.884	-2500
1029.951	-1693
1030.017	-1409
1030.083	-2096
1030.149	-1437
1030.216	-2459
1030.282	-1563
1030.348	-2157
1030.414	-2446
1030.480	-2277
1030.546	-2008
1030.612	-1953
1030.678	-2633
1030.744	-2405
1030.810	-2242
1030.876	-2757
1030.942	-1826
1031.008	-2189
1031.074	-1914
1031.140	-2132
1031.206	-1694
1031.272	-2416
1031.337	-1316
1031.403	-2490
1031.469	-1706
1031.534	-2361
1031.600	-2179
1031.666	-1893
1031.731	-2636
1031.797	-2857
1031.863	-2318
1031.928	-2939
1031.994	-1888
1032.059	-2292
1032.125	-2019
1032.190	-2110
1032.256	-2412
1032.321	-2397
1032.386	-2284
1032.452	-1150
1032.517	-1780
1032.582	-2291
1032.647	-2160
1032.713	-3339
1032.778	-2063
1032.843	-1985
1032.908	-1819
1032.974	-1868
1033.039	-2272
1033.104	-1442
1033.169	-2416
1033.234	-2801
1033.299	-1386
1033.364	-1612
1033.429	-2172
1033.494	-1745
1033.559	-1257
1033.624	-1713
1033.688	-1807
1033.753	-2883
1033.818	-2829
1033.883	-2269
1033.948	-1634
1034.013	-2062
1034.077	-1729
1034.142	-1550
1034.207	-1753
1034.271	-742
1034.336	-1087
1034.400	-2006
1034.465	-2040
1034.530	-2176
1034.594	-1445
1034.658	-1994
1034.723	-2509
1034.787	-2359
1034.852	-2516
1034.916	-2380
1034.981	-1420
1035.045	-1600
1035.109	-1881
1035.173	-1587
1035.238	-2323
1035.302	-1633
1035.366	-1848
1035.430	-1848
1035.495	-2353
1035.559	-1371
1035.623	-2292
1035.687	-2688
1035.751	-2756
1035.815	-2078
1035.879	-1891
1035.943	-2526
1036.007	-1694
1036.071	-1651
1036.135	-1854
1036.198	-1973
1036.262	-2199
1036.326	-1972
1036.390	-2156
1036.454	-2455
1036.517	-1366
1036.581	-1642
1036.645	-2056
1036.709	-1791
1036.772	-2410
1036.836	-2714
1036.900	-2271
1036.963	-2146
1037.026	-1969
1037.090	-2276
1037.154	-1510
1037.217	-2473
1037.280	-1950
1037.344	-1595
1037.407	-2309
1037.471	-1705
1037.534	-1923
1037.597	-1970
1037.661	-2679
1037.724	-2409
1037.787	-2096
1037.850	-2275
1037.913	-2655
1037.977	-2133
1038.040	-1966
1038.103	-1646
1038.166	-1517
1038.229	-2395
1038.292	-2231
1038.355	-2445
1038.418	-2170
1038.481	-1972
1038.544	-1961
1038.607	-1593
1038.670	-1749
1038.732	-1768
1038.795	-1781
1038.858	-1830
1038.921	-1641
1038.984	-2488
1039.046	-1845
1039.109	-1639
1039.172	-2197
1039.234	-2139
1039.297	-2691
1039.360	-1888
1039.422	-2206
1039.485	-2890
1039.547	-2657
1039.610	-1760
1039.672	-2428
1039.734	-1771
1039.797	-1916
1039.859	-2200
1039.922	-1937
1039.984	-2308
1040.046	-2692
1040.109	-1822
1040.171	-2387
1040.233	-1422
1040.295	-2638
1040.358	-2096
1040.420	-2248
1040.482	-2717
1040.544	-1412
1040.606	-1271
1040.668	-1555
1040.730	-2282
1040.792	-1706
1040.854	-2602
1040.916	-1434
1040.978	-2785
1041.040	-1765
1041.102	-1963
1041.164	-2331
1041.225	-1865
1041.287	-1443
1041.349	-1169
1041.411	-2457
1041.472	-2040
1041.534	-1196
1041.596	-2317
1041.657	-1433
1041.719	-2558
1041.781	-2333
1041.842	-1840
1041.904	-2071
1041.965	-2390
1042.027	-2625
1042.088	-1971
1042.150	-1526
1042.211	-2476
1042.272	-1749
1042.334	-2352
1042.395	-2434
1042.456	-1852
1042.518	-1831
1042.579	-1707
1042.640	-2377
1042.701	-2103
1042.763	-1631
1042.824	-1986
1042.885	-2334
1042.946	-1549
1043.007	-1398
1043.068	-1901
1043.129	-2579
1043.190	-2428
1043.251	-1656
1043.312	-1522
1043.373	-1292
1043.434	-1963
1043.495	-2135
1043.556	-816
1043.616	-1191
1043.677	-1777
1043.738	-1243
1043.799	-1980
1043.859	-1922
1043.920	-2416
1043.981	-2100
1044.041	-2233
1044.102	-1789
1044.162	-2470
1044.223	-2562
1044.284	-1903
1044.344	-1951
1044.405	-1632
1044.465	-1583
1044.525	-1559
1044.586	-2034
1044.646	-2232
1044.707	-1035
1044.767	-1268
1044.827	-1698
1044.887	-1441
1044.948	-993
1045.008	-1771
1045.068	-1544
1045.128	-962
1045.188	-1568
1045.249	-616
1045.309	-1655
1045.369	-1782
1045.429	-1584
1045.489	-1927
1045.549	-2052
1045.609	-2265
1045.669	-2006
1045.729	-1601
1045.789	-2217
1045.848	-1829
1045.908	-1247
1045.968	-1448
1046.028	-1777
1046.088	-1633
1046.147	-1965
1046.207	-1961
1046.267	-680
1046.326	-828
1046.386	-1140
1046.446	-820
1046.505	-1286
1046.565	-1581
1046.624	-1444
1046.684	-589
1046.743	-1615
1046.803	-753
1046.862	-507
1046.922	0
