'Start Wavelength	183.907
'End Wavelength	1046.922
'Gate Delay	5.000
'Gate Width (ms)	1.050
'Laser Output Level	0.000
'X Position	0.000
'Y Position	0.000
'Z Position	0.000
'Grid Point Number	1.000
'Shot Number	100.000
183.907	599.000
183.977	-365.000
184.047	-763
184.116	1023
184.186	-509
184.256	-280
184.325	35
184.395	-782
184.465	846
184.534	528
184.604	-717
184.674	58
184.743	-185
184.813	-124
184.883	100
184.952	-397
185.022	30
185.092	414
185.161	-633
185.231	-270
185.301	-559
185.370	-291
185.440	-622
185.509	-212
185.579	-176
185.649	-226
185.718	282
185.788	-27
185.857	-1286
185.927	-367
185.996	58
186.066	-595
186.136	189
186.205	174
186.275	-491
186.344	-441
186.414	-264
186.483	-322
186.553	588
186.622	-128
186.692	-602
186.761	98
186.831	249
186.900	-24
186.970	184
187.039	867
187.109	-125
187.178	-424
187.248	340
187.317	53
187.387	-778
187.456	-223
187.526	-243
187.595	-181
187.664	-360
187.734	58
187.803	58
187.873	478
187.942	-560
188.012	869
188.081	-397
188.150	-884
188.220	-16
188.289	692
188.358	-277
188.428	230
188.497	-782
188.567	542
188.636	-53
188.705	-104
188.775	-1135
188.844	-772
188.913	482
188.983	491
189.052	-124
189.121	37
189.191	-645
189.260	1021
189.329	-393
189.399	-554
189.468	-656
189.537	-211
189.606	-79
189.676	880
189.745	-313
189.814	-23
189.883	-897
189.953	88
190.022	-212
190.091	319
190.161	463
190.230	212
190.299	-279
190.368	-469
190.437	114
190.507	172
190.576	-198
190.645	403
190.714	-140
190.783	107
190.853	498
190.922	193
190.991	-511
191.060	236
191.129	263
191.198	768
191.268	-270
191.337	-940
191.406	-291
191.475	-165
191.544	-141
191.613	-168
191.682	-1097
191.752	-450
191.821	-442
191.890	-78
191.959	-442
192.028	-183
192.097	-1
192.166	135
192.235	-146
192.304	-249
192.373	-461
192.442	-87
192.511	-662
192.580	-72
192.650	-1052
192.719	-585
192.788	88
192.857	-121
192.926	-567
192.995	-289
193.064	-763
193.133	-301
193.202	-456
193.271	1
193.340	432
193.409	621
193.478	316
193.547	-485
193.615	-313
193.684	69
193.753	-675
193.822	-774
193.891	-428
193.960	125
194.029	-839
194.098	-365
194.167	-979
194.236	581
194.305	-594
194.374	-47
194.443	-648
194.512	455
194.580	-78
194.649	642
194.718	707
194.787	-178
194.856	-635
194.925	527
194.994	231
195.062	267
195.131	-638
195.200	11
195.269	30
195.338	-325
195.407	-101
195.475	182
195.544	329
195.613	-837
195.682	-166
195.751	-206
195.819	-305
195.888	386
195.957	111
196.026	-847
196.094	-197
196.163	-534
196.232	74
196.301	-196
196.369	307
196.438	-298
196.507	-225
196.576	-664
196.644	-631
196.713	-1194
196.782	-637
196.850	107
196.919	-690
196.988	572
197.056	-868
197.125	-728
197.194	-288
197.262	-487
197.331	-620
197.400	-360
197.468	-951
197.537	-1120
197.606	-435
197.674	259
197.743	-313
197.812	-629
197.880	45
197.949	-148
198.017	-199
198.086	-467
198.155	-381
198.223	-311
198.292	-39
198.360	-402
198.429	-472
198.497	463
198.566	-217
198.635	162
198.703	198
198.772	-337
198.840	-62
198.909	238
198.977	-788
199.046	-360
199.114	151
199.183	-528
199.251	-225
199.320	-848
199.388	-248
199.457	-423
199.525	-510
199.594	-554
199.662	-659
199.731	-394
199.799	-136
199.867	59
199.936	-691
200.004	276
200.073	-531
200.141	-1388
200.210	-203
200.278	106
200.346	-28
200.415	164
200.483	-491
200.552	-434
200.620	-915
200.688	-338
200.757	-217
200.825	-1
200.893	86
200.962	162
201.030	4
201.098	-184
201.167	216
201.235	-986
201.303	-162
201.372	-444
201.440	-273
201.508	-492
201.577	-946
201.645	-283
201.713	-739
201.781	-79
201.850	364
201.918	-71
201.986	-217
202.055	46
202.123	481
202.191	-721
202.259	-475
202.327	-68
202.396	-326
202.464	-1103
202.532	-47
202.600	608
202.669	-730
202.737	264
202.805	-524
202.873	-156
202.941	-179
203.009	476
203.078	-540
203.146	-506
203.214	-865
203.282	-1127
203.350	61
203.418	-430
203.487	-638
203.555	-694
203.623	90
203.691	206
203.759	-153
203.827	15
203.895	-195
203.963	-648
204.031	-1273
204.099	-190
204.168	-971
204.236	17
204.304	-1148
204.372	492
204.440	-105
204.508	-436
204.576	-752
204.644	-631
204.712	-1139
204.780	15
204.848	-875
204.916	39
204.984	-121
205.052	-553
205.120	-450
205.188	360
205.256	-543
205.324	-85
205.392	-1265
205.460	-93
205.528	-1724
205.596	-627
205.664	-321
205.732	-1004
205.799	14
205.867	529
205.935	-1122
206.003	-22
206.071	-448
206.139	-330
206.207	-1551
206.275	-575
206.343	-954
206.411	12
206.478	-956
206.546	692
206.614	-503
206.682	-403
206.750	-668
206.818	-227
206.885	-117
206.953	-1314
207.021	947
207.089	294
207.157	-538
207.225	10
207.292	-401
207.360	-1270
207.428	-518
207.496	-342
207.563	-541
207.631	-272
207.699	-453
207.767	15
207.834	-822
207.902	159
207.970	-489
208.038	-458
208.105	-719
208.173	-351
208.241	-330
208.309	-42
208.376	-314
208.444	306
208.512	-792
208.579	-1221
208.647	138
208.715	681
208.782	-197
208.850	-522
208.918	-1000
208.985	-121
209.053	-301
209.120	-516
209.188	-617
209.256	-600
209.323	-884
209.391	74
209.459	918
209.526	-408
209.594	-1306
209.661	-190
209.729	138
209.796	85
209.864	-699
209.932	-1542
209.999	786
210.067	-491
210.134	-450
210.202	67
210.269	972
210.337	-316
210.404	-863
210.472	-252
210.539	-197
210.607	-14
210.674	-72
210.742	-63
210.809	-810
210.877	-237
210.944	274
211.012	-1914
211.079	474
211.146	-750
211.214	-580
211.281	-93
211.349	-33
211.416	138
211.484	479
211.551	-230
211.618	-322
211.686	-175
211.753	-719
211.821	-168
211.888	-860
211.955	294
212.023	-411
212.090	-585
212.157	-540
212.225	-602
212.292	-156
212.359	419
212.427	1739
212.494	132
212.561	-613
212.629	298
212.696	-498
212.763	-465
212.831	-847
212.898	-30
212.965	-1158
213.032	359
213.100	-642
213.167	-422
213.234	1
213.301	-300
213.369	-225
213.436	-437
213.503	-589
213.570	39
213.638	-458
213.705	-159
213.772	-1049
213.839	-95
213.906	649
213.973	-78
214.041	-1170
214.108	263
214.175	-692
214.242	-876
214.309	-227
214.376	-108
214.444	-601
214.511	332
214.578	-588
214.645	154
214.712	-554
214.779	-918
214.846	-1193
214.913	162
214.980	17
215.048	-466
215.115	359
215.182	568
215.249	-1102
215.316	-79
215.383	-166
215.450	-537
215.517	-397
215.584	334
215.651	-244
215.718	-98
215.785	-172
215.852	-612
215.919	-285
215.986	315
216.053	-758
216.120	-1209
216.187	282
216.254	-152
216.321	-873
216.388	-430
216.455	-369
216.522	119
216.589	79
216.656	-67
216.722	584
216.789	-514
216.856	300
216.923	-307
216.990	-62
217.057	-606
217.124	-15
217.191	1
217.258	-644
217.324	-58
217.391	813
217.458	-59
217.525	-330
217.592	-752
217.659	-1119
217.725	1120
217.792	-894
217.859	790
217.926	-709
217.993	-320
218.059	453
218.126	-592
218.193	-729
218.260	-901
218.327	115
218.393	-471
218.460	-624
218.527	-1000
218.594	4
218.660	207
218.727	358
218.794	-593
218.860	640
218.927	-1249
218.994	-580
219.061	-99
219.127	-1388
219.194	30
219.261	-570
219.327	-805
219.394	-435
219.461	-958
219.527	-85
219.594	-369
219.661	-81
219.727	-1118
219.794	203
219.860	-776
219.927	-275
219.994	-115
220.060	-135
220.127	303
220.193	-74
220.260	-367
220.326	-241
220.393	-307
220.460	267
220.526	69
220.593	-567
220.659	1432
220.726	-687
220.792	807
220.859	355
220.925	624
220.992	2332
221.058	2102
221.125	1097
221.191	163
221.258	-166
221.324	-141
221.391	-1115
221.457	0
221.524	-419
221.590	262
221.657	855
221.723	-522
221.789	120
221.856	931
221.922	-900
221.989	-176
222.055	-476
222.121	-1561
222.188	670
222.254	-386
222.321	-1081
222.387	-1175
222.453	-695
222.520	-253
222.586	-219
222.652	803
222.719	-592
222.785	-466
222.851	-172
222.918	-418
222.984	-760
223.050	-759
223.116	-2323
223.183	539
223.249	-676
223.315	-348
223.382	-486
223.448	-178
223.514	-833
223.580	-947
223.647	-1380
223.713	-1206
223.779	-406
223.845	-641
223.911	-351
223.978	-928
224.044	-448
224.110	62
224.176	-187
224.242	-313
224.309	-677
224.375	362
224.441	-314
224.507	-891
224.573	-979
224.639	-245
224.705	-761
224.772	203
224.838	-1803
224.904	-220
224.970	417
225.036	-903
225.102	-1218
225.168	843
225.234	-779
225.300	-849
225.366	-627
225.432	-160
225.499	-301
225.565	-763
225.631	-1601
225.697	-375
225.763	-43
225.829	-109
225.895	-1279
225.961	-114
226.027	-455
226.093	-887
226.159	-62
226.225	356
226.291	1132
226.357	2139
226.423	958
226.489	772
226.554	-152
226.620	-40
226.686	-126
226.752	607
226.818	28
226.884	3245
226.950	3432
227.016	630
227.082	325
227.148	-260
227.214	384
227.279	116
227.345	-268
227.411	-287
227.477	-442
227.543	632
227.609	-432
227.674	-249
227.740	-1157
227.806	-1259
227.872	-728
227.938	-196
228.003	-633
228.069	-834
228.135	-764
228.201	-567
228.267	-464
228.332	-721
228.398	-1137
228.464	-196
228.530	-1522
228.595	-44
228.661	-1092
228.727	-55
228.792	188
228.858	-715
228.924	-2310
228.990	834
229.055	-1525
229.121	267
229.187	-653
229.252	-133
229.318	-1197
229.384	-325
229.449	-822
229.515	-2134
229.581	-1810
229.646	952
229.712	-712
229.777	-59
229.843	-870
229.909	94
229.974	-615
230.040	-155
230.105	-558
230.171	-965
230.236	524
230.302	333
230.368	-541
230.433	-934
230.499	280
230.564	-291
230.630	-1479
230.695	-2
230.761	160
230.826	-1366
230.892	355
230.957	-1245
231.023	-299
231.088	-248
231.154	-684
231.219	-139
231.284	-884
231.350	342
231.415	-798
231.481	-555
231.546	-1216
231.612	-1182
231.677	-959
231.742	-1149
231.808	1258
231.873	-1134
231.939	-2603
232.004	596
232.069	367
232.135	-1362
232.200	-521
232.265	-81
232.331	-327
232.396	-829
232.461	-1485
232.527	-647
232.592	-1145
232.657	-1062
232.723	-604
232.788	-202
232.853	-695
232.918	-259
232.984	-1558
233.049	-1174
233.114	-802
233.179	-255
233.245	-434
233.310	809
233.375	-1720
233.440	86
233.506	-697
233.571	-729
233.636	-495
233.701	-598
233.766	-557
233.832	946
233.897	-624
233.962	-2338
234.027	1824
234.092	-63
234.157	-1057
234.222	-1301
234.288	-989
234.353	889
234.418	1582
234.483	1027
234.548	71
234.613	-169
234.678	-28
234.743	-755
234.808	1773
234.873	-62
234.938	1214
235.004	-373
235.069	-1061
235.134	-541
235.199	118
235.264	-111
235.329	-2216
235.394	603
235.459	192
235.524	-637
235.589	-533
235.654	-659
235.719	-2246
235.784	146
235.849	-1079
235.913	1450
235.978	438
236.043	1287
236.108	-477
236.173	-172
236.238	450
236.303	-966
236.368	-869
236.433	304
236.498	239
236.563	109
236.627	809
236.692	5072
236.757	3867
236.822	767
236.887	-63
236.952	1049
237.017	-1616
237.081	793
237.146	-943
237.211	1999
237.276	4340
237.341	8862
237.405	3098
237.470	1302
237.535	419
237.600	-156
237.664	-237
237.729	-1199
237.794	-713
237.859	1632
237.923	333
237.988	250
238.053	531
238.118	165
238.182	2184
238.247	3796
238.312	-379
238.376	672
238.441	-1669
238.506	744
238.570	-1286
238.635	705
238.700	-589
238.764	-879
238.829	571
238.893	-50
238.958	-703
239.023	-250
239.087	-1113
239.152	-176
239.216	-1563
239.281	247
239.346	-742
239.410	-569
239.475	-1505
239.539	2432
239.604	972
239.668	747
239.733	-666
239.797	-160
239.862	585
239.926	1995
239.991	490
240.055	-654
240.120	-1651
240.184	-463
240.249	-720
240.313	-575
240.378	-674
240.442	963
240.507	2463
240.571	129
240.635	-169
240.700	742
240.764	-838
240.829	-442
240.893	-1378
240.957	418
241.022	739
241.086	3272
241.151	-462
241.215	-1206
241.279	30
241.344	465
241.408	24
241.472	-1343
241.537	-182
241.601	273
241.665	-1854
241.730	-950
241.794	465
241.858	-1523
241.922	-1622
241.987	-757
242.051	-1138
242.115	-1327
242.179	-691
242.244	-689
242.308	564
242.372	-722
242.436	-1185
242.501	-554
242.565	-1546
242.629	-1201
242.693	230
242.757	-829
242.822	-778
242.886	-317
242.950	-221
243.014	-817
243.078	-209
243.142	76
243.206	-532
243.271	-119
243.335	-1232
243.399	20
243.463	683
243.527	7585
243.591	1438
243.655	-119
243.719	-1385
243.783	749
243.847	-360
243.911	904
243.975	416
244.040	-782
244.104	896
244.168	-507
244.232	63
244.296	-165
244.360	984
244.424	-861
244.488	366
244.552	377
244.615	-1399
244.679	-278
244.743	-900
244.807	-762
244.871	-768
244.935	117
244.999	-1410
245.063	-374
245.127	-172
245.191	877
245.255	-617
245.319	101
245.383	-791
245.446	196
245.510	-458
245.574	-37
245.638	-381
245.702	-1925
245.766	1455
245.829	798
245.893	-1727
245.957	-1157
246.021	106
246.085	50
246.149	-1
246.212	2773
246.276	2484
246.340	59
246.404	614
246.467	938
246.531	-753
246.595	293
246.659	945
246.722	-857
246.786	570
246.850	481
246.913	1093
246.977	-1488
247.041	-833
247.104	-107
247.168	230
247.232	2045
247.295	3744
247.359	1654
247.423	-796
247.486	1027
247.550	924
247.614	95
247.677	712
247.741	-346
247.804	-131
247.868	-318
247.932	-8
247.995	5253
248.059	841
248.122	-884
248.186	279
248.249	1052
248.313	6178
248.376	8784
248.440	2918
248.503	102
248.567	2088
248.630	380
248.694	2419
248.757	3222
248.821	7639
248.884	4787
248.948	2364
249.011	6225
249.075	8077
249.138	8400
249.202	2974
249.265	838
249.328	1548
249.392	514
249.455	241
249.519	238
249.582	-14
249.645	1369
249.709	162
249.772	175
249.835	272
249.899	280
249.962	120
250.025	-4
250.089	1897
250.152	3752
250.215	797
250.279	8
250.342	882
250.405	446
250.468	-836
250.532	458
250.595	1379
250.658	5345
250.721	12258
250.785	3820
250.848	2403
250.911	4
250.974	1166
251.038	82
251.101	4188
251.164	1599
251.227	2041
251.290	1236
251.354	1007
251.417	8750
251.480	9871
251.543	4862
251.606	19083
251.669	14047
251.732	4174
251.795	5117
251.859	4296
251.922	12234
251.985	7429
252.048	2813
252.111	826
252.174	419
252.237	3370
252.300	9008
252.363	7276
252.426	17297
252.489	5890
252.552	3099
252.615	163
252.678	2254
252.741	5582
252.804	6397
252.867	16977
252.930	10873
252.993	4705
253.056	2496
253.119	738
253.182	748
253.245	1595
253.308	1916
253.371	964
253.434	623
253.497	1270
253.559	4970
253.622	2179
253.685	2772
253.748	4229
253.811	339
253.874	1320
253.937	1289
254.000	1420
254.062	1892
254.125	4259
254.188	3386
254.251	2363
254.314	405
254.376	1526
254.439	3619
254.502	2449
254.565	1285
254.628	5179
254.690	2746
254.753	1052
254.816	1320
254.878	342
254.941	2262
255.004	2610
255.067	790
255.129	31
255.192	436
255.255	-1874
255.317	-298
255.380	-291
255.443	-686
255.505	-518
255.568	-864
255.631	-923
255.693	200
255.756	-2228
255.819	68
255.881	-1254
255.944	-571
256.006	-766
256.069	-801
256.132	-773
256.194	-481
256.257	1180
256.319	1096
256.382	460
256.444	592
256.507	-497
256.569	-1466
256.632	-818
256.694	25
256.757	2145
256.819	8082
256.882	408
256.944	1001
257.007	615
257.069	-496
257.132	178
257.194	755
257.257	-1048
257.319	-1293
257.381	-1446
257.444	2367
257.506	8030
257.569	10035
257.631	4515
257.693	2149
257.756	1041
257.818	168
257.880	-737
257.943	122
258.005	-1118
258.067	-1052
258.130	-829
258.192	114
258.254	1105
258.317	622
258.379	-641
258.441	1304
258.503	2443
258.566	1522
258.628	4430
258.690	-291
258.753	127
258.815	1445
258.877	245
258.939	-673
259.001	-884
259.064	-661
259.126	-458
259.188	695
259.250	-606
259.312	-717
259.375	990
259.437	773
259.499	-319
259.561	-710
259.623	21
259.685	-377
259.747	245
259.809	1355
259.872	5997
259.934	8049
259.996	7120
260.058	1308
260.120	-867
260.182	-343
260.244	-554
260.306	-984
260.368	361
260.430	-976
260.492	-153
260.554	555
260.616	-47
260.678	3267
260.740	6201
260.802	645
260.864	418
260.926	-810
260.988	-26
261.050	-1000
261.112	-1189
261.174	4454
261.236	4494
261.298	-8
261.359	1235
261.421	4093
261.483	-1298
261.545	393
261.607	-1426
261.669	259
261.731	480
261.793	4354
261.854	-61
261.916	144
261.978	-917
262.040	-596
262.102	428
262.164	-152
262.225	615
262.287	-659
262.349	1101
262.411	1662
262.472	31
262.534	340
262.596	3198
262.658	217
262.719	-1247
262.781	367
262.843	2198
262.904	2326
262.966	653
263.028	361
263.090	3691
263.151	14684
263.213	4122
263.275	992
263.336	-361
263.398	91
263.459	-896
263.521	-203
263.583	1091
263.644	651
263.706	-255
263.767	-565
263.829	-954
263.891	-2073
263.952	-1344
264.014	-1042
264.075	-1141
264.137	-1127
264.198	-459
264.260	-1339
264.321	-1084
264.383	145
264.444	1075
264.506	-949
264.567	-989
264.629	405
264.690	-1955
264.752	-467
264.813	-834
264.875	-1054
264.936	-694
264.998	-1259
265.059	-736
265.120	-1104
265.182	-1543
265.243	2850
265.305	2179
265.366	-234
265.427	-480
265.489	-387
265.550	-2125
265.611	-1246
265.673	-1129
265.734	-288
265.795	-1576
265.857	-1801
265.918	-1082
265.979	-720
266.040	5604
266.102	4102
266.163	1025
266.224	427
266.286	-631
266.347	-1519
266.408	-54
266.469	-572
266.530	-1284
266.592	-1524
266.653	403
266.714	1879
266.775	-644
266.836	-244
266.898	-1237
266.959	-1264
267.020	-664
267.081	-31
267.142	-930
267.203	-1288
267.264	-1054
267.326	292
267.387	19
267.448	-1344
267.509	-977
267.570	-1205
267.631	-1167
267.692	-454
267.753	-1055
267.814	-835
267.875	-1127
267.936	2578
267.997	-1155
268.058	-975
268.119	-982
268.180	-619
268.241	-1510
268.302	-950
268.363	-1738
268.424	-506
268.485	-574
268.546	-1878
268.607	-1211
268.668	-1288
268.729	-543
268.790	-406
268.851	-1199
268.912	452
268.972	1315
269.033	317
269.094	-1212
269.155	-786
269.216	-587
269.277	-605
269.338	-698
269.398	-986
269.459	-886
269.520	392
269.581	-479
269.642	364
269.702	-559
269.763	-1512
269.824	-1266
269.885	-688
269.945	575
270.006	-170
270.067	-1279
270.128	-807
270.188	-1335
270.249	-1187
270.310	-1227
270.370	-962
270.431	-920
270.492	-1061
270.553	-912
270.613	-437
270.674	2658
270.734	177
270.795	-765
270.856	376
270.916	-317
270.977	-952
271.038	23
271.098	-519
271.159	22
271.219	103
271.280	-261
271.340	-788
271.401	-1281
271.462	1226
271.522	-411
271.583	-286
271.643	-1182
271.704	-549
271.764	-1161
271.825	588
271.885	6930
271.946	9599
272.006	2193
272.066	2449
272.127	6962
272.187	1136
272.248	-330
272.308	621
272.369	4099
272.429	2290
272.489	768
272.550	1514
272.610	894
272.671	-220
272.731	46
272.791	1287
272.852	-261
272.912	875
272.972	-480
273.033	-646
273.093	-285
273.153	460
273.214	-851
273.274	-1190
273.334	1583
273.394	7395
273.455	1883
273.515	1745
273.575	6227
273.635	1825
273.696	2569
273.756	7098
273.816	3123
273.876	789
273.936	1698
273.997	6210
274.057	554
274.117	91
274.177	-93
274.237	8345
274.297	7323
274.358	5347
274.418	5022
274.478	4992
274.538	929
274.598	-497
274.658	3807
274.718	7444
274.778	2235
274.838	-108
274.898	938
274.958	8760
275.018	6906
275.078	5015
275.138	1628
275.198	-76
275.258	-324
275.318	-305
275.378	707
275.438	2037
275.498	-277
275.558	3443
275.618	9390
275.678	5306
275.738	1519
275.798	1073
275.858	-146
275.918	-1113
275.978	-151
276.038	-181
276.098	-198
276.157	485
276.217	4460
276.277	1849
276.337	930
276.397	-763
276.457	-20
276.517	-524
276.576	-979
276.636	-803
276.696	-473
276.756	1891
276.815	1350
276.875	-360
276.935	-759
276.995	-691
277.055	-544
277.114	-139
277.174	-560
277.234	3874
277.293	674
277.353	137
277.413	129
277.472	-844
277.532	-1227
277.592	-211
277.651	2543
277.711	8641
277.771	1433
277.830	9046
277.890	7634
277.950	3309
278.009	16287
278.069	5884
278.128	4775
278.188	8917
278.248	2948
278.307	7921
278.367	4960
278.426	790
278.486	-363
278.545	-300
278.605	-177
278.664	-237
278.724	-1203
278.783	1876
278.843	6614
278.902	986
278.962	-67
279.021	-148
279.081	310
279.140	793
279.199	-311
279.259	134
279.318	131
279.378	562
279.437	2178
279.496	9932
279.556	37712
279.615	32248
279.675	7735
279.734	3596
279.793	4328
279.853	8478
279.912	2389
279.971	1376
280.031	757
280.090	2579
280.149	5327
280.208	3259
280.268	22097
280.327	29042
280.386	5694
280.445	3776
280.505	2123
280.564	1118
280.623	-154
280.682	1321
280.742	4096
280.801	-479
280.860	-652
280.919	-544
280.978	-747
281.037	-786
281.097	-284
281.156	-367
281.215	-403
281.274	-266
281.333	3667
281.392	2576
281.451	-659
281.510	-818
281.569	-798
281.628	107
281.688	-57
281.747	-449
281.806	-1085
281.865	-1166
281.924	-1390
281.983	-878
282.042	-954
282.101	-997
282.160	-23
282.219	-944
282.278	-854
282.337	1662
282.396	916
282.454	-1216
282.513	-311
282.572	3674
282.631	1466
282.690	-1003
282.749	-975
282.808	31
282.867	-972
282.926	-72
282.985	-1073
283.043	-861
283.102	-752
283.161	-799
283.220	413
283.279	5085
283.338	122
283.396	-263
283.455	-1273
283.514	-908
283.573	701
283.631	223
283.690	-1232
283.749	-438
283.808	699
283.866	1490
283.925	-1618
283.984	42
284.043	-663
284.101	559
284.160	-935
284.219	353
284.277	-278
284.336	579
284.395	4882
284.453	5932
284.512	560
284.570	1815
284.629	319
284.688	468
284.746	1082
284.805	1116
284.863	2434
284.922	3798
284.981	3476
285.039	4911
285.098	8868
285.156	24350
285.215	49714
285.273	49419
285.332	29803
285.390	14425
285.449	8095
285.507	4800
285.566	3125
285.624	3256
285.683	1103
285.741	920
285.799	383
285.858	623
285.916	1017
285.975	176
286.033	-833
286.091	-323
286.150	-1476
286.208	330
286.267	-308
286.325	-13
286.383	190
286.442	194
286.500	-1037
286.558	-397
286.616	-757
286.675	-53
286.733	-590
286.791	-959
286.850	-286
286.908	-249
286.966	1277
287.024	371
287.083	-1159
287.141	-1028
287.199	-829
287.257	-581
287.315	-244
287.374	-526
287.432	834
287.490	77
287.548	-49
287.606	-1175
287.664	-478
287.723	414
287.781	-248
287.839	-677
287.897	-759
287.955	-556
288.013	-767
288.071	990
288.129	10235
288.187	39823
288.245	16336
288.303	3421
288.361	1838
288.419	-19
288.477	-1012
288.535	-842
288.593	-842
288.651	-523
288.709	-1171
288.767	-1331
288.825	-1497
288.883	-711
288.941	-1355
288.999	-1283
289.057	-1623
289.115	-1213
289.173	-1439
289.231	-832
289.289	-1344
289.346	-875
289.404	-619
289.462	-4
289.520	-160
289.578	-426
289.636	-1623
289.694	-1671
289.751	-1045
289.809	-1142
289.867	-1315
289.925	-779
289.983	-963
290.040	-1081
290.098	-1432
290.156	-1158
290.214	-664
290.271	-756
290.329	-666
290.387	-1338
290.444	-1684
290.502	-1621
290.560	-2057
290.617	-1546
290.675	-1319
290.733	-1828
290.790	-491
290.848	-875
290.906	-1815
290.963	-1637
291.021	-1171
291.078	-571
291.136	-1290
291.194	-272
291.251	2251
291.309	-492
291.366	-1213
291.424	-1109
291.481	-1741
291.539	-1612
291.596	-1322
291.654	-1548
291.711	-1660
291.769	-843
291.826	-753
291.884	-492
291.941	-1448
291.999	-981
292.056	-909
292.114	-680
292.171	-1925
292.228	-978
292.286	-1246
292.343	260
292.401	745
292.458	-855
292.515	-1066
292.573	-592
292.630	-1255
292.687	-610
292.745	-1519
292.802	-781
292.859	-1185
292.917	4127
292.974	1282
293.031	539
293.089	-1425
293.146	-902
293.203	-1689
293.260	-1118
293.318	-2419
293.375	-562
293.432	-1678
293.489	-1039
293.546	-938
293.604	-849
293.661	525
293.718	7645
293.775	2422
293.832	631
293.889	-530
293.947	-434
294.004	-1123
294.061	-482
294.118	37
294.175	1888
294.232	1297
294.289	-138
294.346	-1206
294.403	-966
294.460	-916
294.517	-901
294.574	-659
294.631	-1491
294.688	-942
294.745	2
294.802	5812
294.859	3983
294.916	732
294.973	-531
295.030	-485
295.087	-608
295.144	-1691
295.201	-262
295.258	-1618
295.315	-1184
295.372	1449
295.429	5275
295.486	1133
295.542	-185
295.599	-680
295.656	605
295.713	1004
295.770	4543
295.827	145
295.883	291
295.940	-1371
295.997	647
296.054	197
296.111	-819
296.167	-990
296.224	-693
296.281	-1750
296.338	-872
296.394	-1664
296.451	-1357
296.508	444
296.564	3803
296.621	987
296.678	4397
296.734	9183
296.791	2642
296.848	17
296.904	90
296.961	3177
297.018	7047
297.074	4164
297.131	1137
297.187	-668
297.244	590
297.301	4832
297.357	12242
297.414	3213
297.470	1488
297.527	-959
297.583	-966
297.640	-883
297.696	-1027
297.753	-962
297.809	-1157
297.866	-1390
297.922	-1645
297.979	-1314
298.035	-1355
298.092	-470
298.148	2517
298.204	2947
298.261	226
298.317	1814
298.374	7146
298.430	3719
298.486	1690
298.543	85
298.599	-1044
298.656	-1067
298.712	1240
298.768	2945
298.824	1889
298.881	-693
298.937	-604
298.993	-1248
299.050	-308
299.106	-855
299.162	-499
299.218	-145
299.275	-1101
299.331	-1693
299.387	235
299.443	6048
299.500	7574
299.556	1315
299.612	365
299.668	-477
299.724	-690
299.780	-249
299.837	-1029
299.893	-721
299.949	4785
300.005	5247
300.061	3988
300.117	8651
300.173	3399
300.229	565
300.285	1869
300.341	2217
300.397	849
300.453	-569
300.510	-1076
300.566	-1148
300.622	344
300.678	341
300.734	4103
300.790	5364
300.845	7893
300.901	3211
300.957	4525
301.013	3742
301.069	270
301.125	225
301.181	-20
301.237	-336
301.293	-1121
301.349	-762
301.405	-1706
301.461	-955
301.516	-968
301.572	-730
301.628	-12
301.684	-328
301.740	1641
301.796	3147
301.851	1577
301.907	3339
301.963	3895
302.019	4640
302.074	20776
302.130	21326
302.186	8725
302.242	2457
302.297	249
302.353	648
302.409	3114
302.464	2862
302.520	1152
302.576	6984
302.631	8578
302.687	3312
302.743	354
302.798	-744
302.854	-491
302.910	-578
302.965	-505
303.021	1117
303.076	1113
303.132	1802
303.187	2638
303.243	107
303.299	-603
303.354	-707
303.410	-125
303.465	-1591
303.521	-1223
303.576	-1395
303.632	-123
303.687	451
303.743	5890
303.798	4492
303.853	502
303.909	-354
303.964	-516
304.020	-390
304.075	749
304.130	1128
304.186	3393
304.241	4230
304.297	2035
304.352	899
304.358	731
304.407	-638
304.449	175
304.463	451
304.518	-892
304.539	-870
304.573	-872
304.629	-849
304.630	-828
304.684	500
304.720	3168
304.739	4367
304.794	7320
304.811	6476
304.850	4149
304.902	684
304.905	478
304.960	-371
304.992	-309
305.015	-199
305.071	-299
305.083	-328
305.126	-600
305.173	-956
305.181	-986
305.236	-1719
305.264	-1069
305.292	-407
305.347	-654
305.354	-491
305.402	533
305.445	-176
305.457	-360
305.512	934
305.535	853
305.567	533
305.622	-642
305.626	-559
305.678	3206
305.716	8313
305.733	9480
305.788	9921
305.807	8359
305.843	6781
305.897	10710
305.898	10730
305.953	9432
305.988	5916
306.008	4394
306.063	1171
306.078	978
306.118	927
306.168	394
306.173	357
306.228	-18
306.259	-211
306.283	-296
306.338	36
306.349	-11
306.393	-78
306.440	99
306.448	85
306.503	196
306.530	323
306.558	938
306.613	1607
306.620	1918
306.668	7297
306.711	13086
306.723	12896
306.778	9488
306.801	6884
306.833	4487
306.888	1529
306.892	1355
306.943	778
306.982	54
306.997	-151
307.052	406
307.072	220
307.107	19
307.162	222
307.163	217
307.217	463
307.253	900
307.272	1007
307.327	1019
307.343	1024
307.381	1421
307.434	1685
307.436	1849
307.491	5667
307.524	8645
307.546	9252
307.600	11367
307.614	10840
307.655	6422
307.704	1779
307.710	1714
307.765	1956
307.795	2418
307.819	2633
307.874	2462
307.885	2476
307.929	2826
307.975	2996
307.984	3321
308.038	6004
308.065	7106
308.093	16239
308.148	36805
308.156	40616
308.202	58975
308.246	72735
308.257	68774
308.312	36934
308.336	24158
308.366	19830
308.421	13622
308.426	12864
308.475	7596
308.517	3941
308.530	3694
308.585	3125
308.607	2915
308.639	3093
308.694	3388
308.697	3430
308.748	4521
308.787	4628
308.803	4602
308.857	4918
308.877	4936
308.912	5645
308.967	7012
308.967	7002
309.021	13441
309.058	18288
309.076	23816
309.130	41567
309.148	47049
309.185	74716
309.238	118678
309.239	119185
309.293	124974
309.328	120128
309.348	101860
309.402	47606
309.418	32697
309.457	24940
309.508	16070
309.511	16286
309.566	20211
309.598	23258
309.620	33885
309.674	61715
309.688	68640
309.729	57642
309.778	40436
309.783	39313
309.837	24924
309.868	16933
309.892	22246
309.946	35354
309.959	38552
310.001	47249
310.049	56232
310.055	53750
310.109	28596
310.139	14454
310.163	11300
310.218	5164
310.229	3948
310.272	3503
310.319	2988
310.326	2800
310.381	1830
310.409	1266
310.435	1322
310.489	1298
310.499	1296
310.543	1514
310.589	1666
310.598	1637
310.652	1600
310.679	1412
310.706	1276
310.760	1270
310.769	1243
310.814	1556
310.859	1739
310.868	1728
310.923	1684
310.948	1687
310.977	2061
311.031	2745
311.038	2822
311.085	2511
311.128	2119
311.139	2228
311.193	2678
311.218	2935
311.247	2500
311.301	1559
311.308	1437
311.356	1586
311.398	1676
311.410	1692
311.464	1676
311.488	1724
311.518	1995
311.572	2374
311.578	2407
311.626	5652
311.668	8440
311.680	7795
311.734	4648
311.758	3229
311.788	2835
311.842	2110
311.847	2022
311.896	3380
311.937	4499
311.950	4474
312.004	4255
312.027	4140
312.058	4057
312.112	3860
312.117	3823
312.165	3221
312.207	2676
312.297	2045
312.386	2094
312.476	3708
312.566	14620
312.656	5123
312.745	1471
312.835	2283
312.925	2977
313.015	1792
313.104	1381
313.194	2794
313.284	2951
313.374	6897
313.463	4000
313.553	3336
313.643	1793
313.732	1853
313.822	1627
313.912	1961
314.001	3232
314.091	2892
314.180	2678
314.270	6202
314.360	5426
314.449	5574
314.539	2111
314.628	2135
314.718	1495
314.808	3137
314.897	1820
314.987	2857
315.076	4654
315.166	5813
315.255	3559
315.345	5710
315.434	3800
315.524	3739
315.613	4786
315.703	9265
315.792	9521
315.881	11338
315.971	5093
316.060	11051
316.150	7069
316.239	5662
316.328	2014
316.418	2038
316.507	2721
316.597	6061
316.686	4449
316.775	3220
316.865	3825
316.954	2332
317.043	1553
317.133	3761
317.222	2738
317.311	2800
317.400	2195
317.490	7396
317.579	8076
317.668	3253
317.757	7150
317.847	10614
317.936	21770
318.025	23036
318.114	9615
318.203	6711
318.293	5883
318.382	9467
318.471	11091
318.560	7427
318.649	5949
318.738	3259
318.828	6698
318.917	7089
319.006	3271
319.095	8384
319.184	19052
319.273	27979
319.362	21786
319.451	5716
319.540	5552
319.629	20570
319.718	31962
319.807	6052
319.896	11331
319.985	26316
320.074	18599
320.163	2979
320.252	2977
320.341	3026
320.430	3704
320.519	15330
320.608	5636
320.697	3846
320.786	4335
320.875	8334
320.964	12026
321.053	23170
321.142	35431
321.230	31738
321.319	18916
321.408	53282
321.497	14519
321.586	20048
321.675	10468
321.764	13392
321.852	8211
321.941	33410
322.030	17651
322.119	18022
322.207	54873
322.296	11327
322.385	5091
322.474	16347
322.562	69624
322.651	24874
322.740	21993
322.829	25756
322.917	11102
323.006	14919
323.095	14487
323.183	4730
323.272	9848
323.361	15543
323.449	17629
323.538	6578
323.626	14686
323.715	5055
323.804	2849
323.892	17094
323.981	17401
324.069	3369
324.158	3121
324.246	4106
324.335	9913
324.424	22326
324.512	6201
324.601	8817
324.689	11540
324.778	15632
324.866	8872
324.954	3026
325.043	4443
325.131	6052
325.220	5413
325.308	5878
325.397	8413
325.485	5566
325.574	1419
325.662	2828
325.750	4757
325.839	3170
325.927	1914
326.015	4108
326.104	1865
326.192	3657
326.280	1626
326.369	2883
326.457	8369
326.545	19738
326.634	5294
326.722	2713
326.810	3273
326.898	2522
326.987	3517
327.075	14568
327.163	7987
327.251	2183
327.340	3493
327.428	5899
327.516	2121
327.604	3173
327.692	1153
327.781	1409
327.869	2822
327.957	3695
328.045	5449
328.133	1667
328.221	902
328.309	3414
328.397	2778
328.485	5252
328.574	8321
328.662	37880
328.750	10965
328.838	2590
328.926	1736
329.014	3019
329.102	4679
329.190	10386
329.278	9677
329.366	1872
329.454	1040
329.542	2132
329.630	592
329.718	1958
329.806	4439
329.893	2296
329.981	1002
330.069	2833
330.157	11257
330.245	35627
330.333	17101
330.421	3732
330.509	8997
330.597	49900
330.684	24281
330.772	5091
330.860	1466
330.948	2640
331.036	2261
331.123	1330
331.211	746
331.299	1859
331.387	3290
331.475	7411
331.562	2360
331.650	2060
331.738	1673
331.825	1678
331.913	590
332.001	1474
332.089	1967
332.176	1857
332.264	3490
332.352	5725
332.439	3528
332.527	2577
332.614	901
332.702	1280
332.790	1534
332.877	5537
332.965	9034
333.052	5796
333.140	7892
333.228	23450
333.315	3876
333.403	2417
333.490	2547
333.578	9092
333.665	36292
333.753	12166
333.840	2742
333.928	2327
334.015	2993
334.103	4029
334.190	10902
334.278	4572
334.365	1879
334.452	2181
334.540	1370
334.627	1166
334.715	1673
334.802	3988
334.889	7538
334.977	9496
335.064	3325
335.151	2074
335.239	1334
335.326	2425
335.413	6105
335.501	8728
335.588	2533
335.675	2005
335.762	1064
335.850	1585
335.937	2091
336.024	4251
336.111	11673
336.199	7157
336.286	2428
336.373	1799
336.460	1266
336.547	1609
336.635	3048
336.722	3222
336.809	1486
336.896	4881
336.983	10093
337.070	16280
337.157	12082
337.245	6308
337.332	3209
337.419	1562
337.506	302
337.593	1028
337.680	1982
337.767	5686
337.854	6532
337.941	7641
338.028	8282
338.115	2628
338.202	3301
338.289	3706
338.376	11733
338.463	4835
338.550	2679
338.637	3466
338.724	2315
338.811	2571
338.898	1257
338.984	1620
339.071	819
339.158	4537
339.245	20901
339.332	10184
339.419	4768
339.506	3651
339.593	1640
339.679	3982
339.766	2136
339.853	5049
339.940	17002
340.027	2566
340.113	4162
340.200	8260
340.287	3187
340.374	7516
340.460	14757
340.547	3847
340.634	9878
340.720	43748
340.807	21255
340.894	3677
340.980	2324
341.067	3812
341.154	4043
341.240	9249
341.327	23651
341.414	7204
341.500	8222
341.587	3728
341.674	3465
341.760	15567
341.847	18934
341.933	5040
342.020	381
342.106	1810
342.193	4689
342.279	12782
342.366	8923
342.452	15986
342.539	7020
342.625	20773
342.712	48504
342.798	18555
342.885	5436
342.971	1419
343.058	1508
343.144	3047
343.230	2967
343.317	3617
343.403	3011
343.490	2195
343.576	735
343.662	2327
343.749	3676
343.835	3897
343.921	7778
344.008	54332
344.094	117849
344.180	25133
344.267	11735
344.353	33335
344.439	30794
344.525	22002
344.612	8458
344.698	6235
344.784	3625
344.870	3021
344.957	3421
345.043	9407
345.129	5454
345.215	15753
345.301	7248
345.387	4704
345.474	506
345.560	836
345.646	1791
345.732	2650
345.818	4955
345.904	4080
345.990	4668
346.076	2531
346.162	4635
346.249	4026
346.335	1861
346.421	2909
346.507	12199
346.593	47457
346.679	9005
346.765	3191
346.851	2942
346.937	3200
347.023	3411
347.108	5190
347.194	3871
347.280	2726
347.366	4435
347.452	13436
347.538	56075
347.624	43992
347.710	32335
347.796	4517
347.882	1940
347.967	1778
348.053	1051
348.139	1374
348.225	1756
348.311	3084
348.397	1907
348.482	5606
348.568	5828
348.654	2030
348.740	2023
348.825	1673
348.911	6274
348.997	26080
349.083	47019
349.168	6093
349.254	4159
349.340	4721
349.425	1669
349.511	6281
349.597	3969
349.682	14260
349.768	42138
349.854	16615
349.939	1670
350.025	2190
350.110	3290
350.196	2419
350.282	1151
350.367	2190
350.453	2460
350.538	3355
350.624	4891
350.709	4833
350.795	1566
350.880	4185
350.966	3260
351.051	4249
351.137	1825
351.222	3820
351.308	13890
351.393	43392
351.479	11370
351.564	3797
351.649	3445
351.735	2290
351.820	1976
351.906	2790
351.991	2801
352.076	25731
352.162	39095
352.247	7918
352.332	6013
352.418	13812
352.503	14155
352.588	67267
352.673	56409
352.759	11906
352.844	4781
352.929	6225
353.014	9962
353.100	4594
353.185	5821
353.270	18089
353.355	18342
353.441	3695
353.526	2585
353.611	15792
353.696	19631
353.781	10933
353.866	3063
353.952	4881
354.037	16411
354.122	40333
354.207	35070
354.292	10659
354.377	4013
354.462	3356
354.547	6267
354.632	4275
354.717	4606
354.802	6306
354.887	2646
354.972	2469
355.057	1528
355.142	1913
355.227	4070
355.312	9120
355.397	23500
355.482	61840
355.567	26078
355.652	19706
355.737	18315
355.822	46590
355.907	35874
355.991	5864
356.076	1999
356.161	2804
356.246	1672
356.331	3520
356.416	7656
356.501	64770
356.585	65288
356.670	11183
356.755	7543
356.840	9485
356.924	47788
357.009	171923
357.094	68583
357.179	18210
357.263	10263
357.348	11814
357.433	10546
357.517	11340
357.602	7859
357.687	4484
357.771	5194
357.856	5417
357.941	7167
358.025	35162
358.110	153378
358.195	74707
358.279	13242
358.364	10294
358.448	40718
358.533	105607
358.617	74771
358.702	68931
358.787	25507
358.871	19450
358.956	14098
359.040	2776
359.125	2272
359.209	2801
359.294	2916
359.378	5313
359.462	11589
359.547	6562
359.631	2650
359.716	2186
359.800	1775
359.885	4796
359.969	3415
360.053	3674
360.138	1394
360.222	7950
360.306	16823
360.391	11107
360.475	12609
360.559	33501
360.644	39760
360.728	25051
360.812	34805
360.896	94923
360.981	45204
361.065	24951
361.149	7040
361.233	7587
361.318	4452
361.402	4890
361.486	6187
361.570	3979
361.654	7155
361.739	18586
361.823	68613
361.907	98473
361.991	16946
362.075	12749
362.159	34479
362.243	21729
362.327	12845
362.411	11788
362.495	7077
362.580	3702
362.664	1750
362.748	2099
362.832	2439
362.916	2616
363.000	16571
363.084	67265
363.168	110383
363.252	27322
363.336	10482
363.420	11801
363.503	13129
363.587	11227
363.671	6916
363.755	7954
363.839	14842
363.923	4082
364.007	14858
364.091	13785
364.175	3220
364.258	13843
364.342	15366
364.426	28169
364.510	16176
364.594	11918
364.677	15453
364.761	80428
364.845	57248
364.929	29294
365.013	24581
365.096	18143
365.180	20757
365.264	5872
365.347	12131
365.431	4637
365.515	3623
365.598	5437
365.682	4007
365.766	2374
365.849	2392
365.933	4975
366.017	5082
366.100	1383
366.184	37
366.267	3085
366.351	2235
366.435	1620
366.518	1618
366.602	2308
366.685	3454
366.769	4365
366.852	4713
366.936	13817
367.019	10275
367.103	2007
367.186	2216
367.270	788
367.353	1091
367.436	3686
367.520	2746
367.603	6221
367.687	8751
367.770	20396
367.853	9342
367.937	24827
368.020	39494
368.104	11091
368.187	14540
368.270	22283
368.353	16811
368.437	13433
368.520	8308
368.603	17747
368.687	32371
368.770	63877
368.853	14534
368.936	15606
369.020	9717
369.103	5045
369.186	1642
369.269	2538
369.352	12132
369.436	18134
369.519	9381
369.602	2186
369.685	5055
369.768	5870
369.851	3656
369.934	1833
370.018	4627
370.101	17025
370.184	11718
370.267	5103
370.350	9667
370.433	15122
370.516	38226
370.599	45675
370.682	15521
370.765	46111
370.848	46464
370.931	68759
371.014	22830
371.097	4793
371.180	5005
371.263	2344
371.346	651
371.429	2258
371.511	1677
371.594	9699
371.677	12340
371.760	8096
371.843	10777
371.926	55683
372.009	121943
372.091	44440
372.174	27770
372.257	57394
372.340	21941
372.423	16198
372.505	11883
372.588	6417
372.671	25583
372.754	75194
372.836	34407
372.919	7193
373.002	10854
373.085	10168
373.167	14126
373.250	36515
373.332	61507
373.415	83122
373.498	168154
373.580	66425
373.663	70266
373.746	98809
373.828	27595
373.911	11597
373.993	7863
374.076	9229
374.159	7443
374.241	17050
374.324	67175
374.406	42686
374.489	45651
374.571	125889
374.654	54260
374.736	25218
374.819	73242
374.901	117805
374.983	119019
375.066	21445
375.148	5513
375.231	7028
375.313	14153
375.395	11864
375.478	3278
375.560	3321
375.643	5454
375.725	23777
375.807	96476
375.890	62828
375.972	14028
376.054	14141
376.136	6758
376.219	5143
376.301	28615
376.383	85844
376.465	35052
376.548	30519
376.630	29975
376.712	75787
376.794	35097
376.877	4299
376.959	1754
377.041	4287
377.123	780
377.205	1611
377.287	876
377.369	2960
377.452	2864
377.534	3083
377.616	3197
377.698	3514
377.780	1971
377.862	4329
377.944	3904
378.026	1039
378.108	1896
378.190	2246
378.272	2415
378.354	2028
378.436	913
378.518	3829
378.600	13048
378.682	18624
378.764	47533
378.846	36672
378.928	9683
379.010	18577
379.091	9033
379.173	3610
379.255	2565
379.337	5775
379.419	22487
379.501	63264
379.583	23982
379.664	6076
379.746	18800
379.828	50748
379.910	64339
379.991	53624
380.073	7712
380.155	5812
380.237	5011
380.318	2018
380.400	3268
380.482	12273
380.564	18852
380.645	16070
380.727	16263
380.809	10714
380.890	5661
380.972	2779
381.053	3602
381.135	5648
381.217	15911
381.298	52053
381.380	24867
381.461	18341
381.543	76562
381.624	96522
381.706	17781
381.787	7936
381.869	8636
381.951	33985
382.032	121927
382.113	87652
382.195	19370
382.276	11358
382.358	24582
382.439	67508
382.521	76492
382.602	114502
382.684	57553
382.765	104976
382.846	139434
382.928	248281
383.009	133696
383.090	79447
383.172	277647
383.253	413516
383.334	142105
383.416	110905
383.497	61452
383.578	33762
383.659	64504
383.741	226908
383.822	518905
383.903	283502
383.984	97665
384.066	142843
384.147	90656
384.228	20250
384.309	16784
384.390	11928
384.471	7685
384.553	10156
384.634	12834
384.715	15150
384.796	6078
384.877	8931
384.958	42862
385.039	56884
385.120	22656
385.201	7814
385.282	7758
385.363	6049
385.444	7411
385.525	13366
385.606	45637
385.687	41814
385.768	8305
385.849	11952
385.930	61500
386.011	97553
386.092	26733
386.173	5482
386.254	4223
386.335	4012
386.416	5024
386.496	26571
386.577	46652
386.658	12479
386.739	7294
386.820	4516
386.901	1013
386.981	3050
387.062	2920
387.143	9419
387.224	45593
387.304	42696
387.385	13076
387.466	3665
387.547	3851
387.627	3059
387.708	13824
387.789	73248
387.869	85205
387.950	22078
388.031	1874
388.111	-559
388.192	2014
388.273	4558
388.353	4184
388.434	4955
388.514	12231
388.595	57400
388.676	85268
388.756	50574
388.837	50224
388.917	30930
388.998	2889
389.078	4598
389.159	3107
389.239	3492
389.320	8593
389.400	6897
389.480	13273
389.561	39971
389.641	19880
389.722	8730
389.802	16006
389.883	17134
389.963	44672
390.043	24320
390.124	3295
390.204	14267
390.284	57131
390.365	34526
390.445	14513
390.525	56547
390.605	67072
390.686	27252
390.766	7809
390.846	4826
390.927	1531
391.007	2411
391.087	2963
391.167	1802
391.247	493
391.328	3624
391.408	2805
391.488	2571
391.568	-373
391.648	5928
391.728	12156
391.808	10472
391.888	9723
391.969	22889
392.049	36955
392.129	12585
392.209	13398
392.289	44108
392.369	19998
392.449	3991
392.529	4616
392.609	9258
392.689	10205
392.769	40898
392.849	34267
392.929	16079
393.009	43476
393.089	33627
393.169	15873
393.248	54238
393.328	245989
393.408	270703
393.488	59869
393.568	17463
393.648	8183
393.728	5715
393.807	2887
393.887	4232
393.967	3155
394.047	5755
394.127	7507
394.206	11749
394.286	40650
394.366	186756
394.446	206192
394.525	44850
394.605	8761
394.685	7458
394.764	9652
394.844	12296
394.924	10024
395.003	8834
395.083	7294
395.163	5596
395.242	4907
395.322	6142
395.402	1428
395.481	5034
395.561	6138
395.640	22875
395.720	21876
395.799	10832
395.879	9013
395.958	13514
396.038	60011
396.117	243089
396.197	269235
396.276	71190
396.356	17123
396.435	9820
396.515	8822
396.594	15195
396.673	23636
396.753	70000
396.832	234822
396.912	204866
396.991	56325
397.070	13052
397.150	6106
397.229	4553
397.308	3882
397.388	8035
397.467	3720
397.546	2216
397.625	290
397.705	5528
397.784	7943
397.863	2562
397.942	169
398.022	103
398.101	1094
398.180	6025
398.259	2674
398.338	3138
398.417	3108
398.497	1522
398.576	3099
398.655	262
398.734	399
398.813	666
398.892	698
398.971	5378
399.050	2598
399.129	-605
399.208	-123
399.287	1504
399.366	273
399.445	862
399.524	1447
399.603	632
399.682	6093
399.761	13838
399.840	12158
399.919	5198
399.998	221
400.077	-598
400.156	537
400.235	3264
400.313	-263
400.392	1632
400.471	26003
400.550	47433
400.629	9832
400.708	3973
400.786	988
400.865	1147
400.944	3583
401.023	5630
401.102	212
401.180	173
401.259	445
401.338	837
401.416	3763
401.495	3445
401.574	850
401.652	893
401.731	3381
401.810	902
401.888	913
401.967	-551
402.046	215
402.124	3605
402.203	3845
402.281	2020
402.360	-88
402.438	2992
402.517	305
402.596	385
402.674	-594
402.753	-970
402.831	23
402.910	2046
402.988	8833
403.066	35905
403.145	20396
403.223	11664
403.302	29943
403.380	21204
403.459	18540
403.537	7386
403.615	1568
403.694	-1198
403.772	887
403.850	490
403.929	-488
404.007	-417
404.085	3545
404.164	3827
404.242	669
404.320	2971
404.398	6790
404.477	20607
404.555	92290
404.633	82934
404.711	12017
404.789	3576
404.868	1016
404.946	457
405.024	90
405.102	-232
405.180	-682
405.258	-189
405.336	912
405.415	206
405.493	2385
405.571	3200
405.649	-318
405.727	-400
405.805	2233
405.883	1945
405.961	1252
406.039	202
406.117	-1005
406.195	4036
406.273	23571
406.351	86672
406.429	50448
406.507	4142
406.585	-240
406.663	4216
406.740	5662
406.818	4306
406.896	205
406.974	1613
407.052	5874
407.130	52460
407.208	73922
407.285	13792
407.363	1426
407.441	2443
407.519	1577
407.596	2917
407.674	7222
407.752	17343
407.830	13230
407.907	2702
407.985	1259
408.063	1513
408.141	-1362
408.218	1031
408.296	-812
408.373	2086
408.451	3470
408.529	3620
408.606	-453
408.684	123
408.762	-92
408.839	-501
408.917	-643
408.994	-658
409.072	-1672
409.149	-111
409.227	291
409.304	717
409.382	-131
409.459	76
409.537	1833
409.614	2496
409.692	788
409.769	501
409.846	1832
409.924	3766
410.001	-507
410.079	1508
410.156	1205
410.233	162
410.311	-59
410.388	59
410.465	534
410.543	80
410.620	824
410.697	2484
410.775	3959
410.852	214
410.929	1293
411.006	4013
411.083	162
411.161	591
411.238	692
411.315	701
411.392	76
411.469	1366
411.547	798
411.624	-1570
411.701	-382
411.778	2066
411.855	8385
411.932	3527
412.009	351
412.086	718
412.163	754
412.240	1293
412.317	163
412.394	286
412.471	-623
412.548	86
412.625	419
412.702	2120
412.779	2932
412.856	1398
412.933	-1611
413.010	511
413.087	2357
413.164	26652
413.241	38057
413.318	8352
413.395	3804
413.471	6418
413.548	2365
413.625	1335
413.702	337
413.779	259
413.855	-1431
413.932	-400
414.009	-1485
414.086	-58
414.162	-248
414.239	3151
414.316	24261
414.393	59965
414.469	19244
414.546	793
414.623	-557
414.699	1519
414.776	2993
414.853	427
414.929	1138
415.006	-91
415.082	-4
415.159	617
415.236	707
415.312	1449
415.389	6469
415.465	9950
415.542	3186
415.618	1515
415.695	6204
415.771	3093
415.848	1610
415.924	1150
416.000	-483
416.077	517
416.153	-1173
416.230	-434
416.306	-480
416.383	-591
416.459	-64
416.535	-414
416.612	-589
416.688	-306
416.764	389
416.841	349
416.917	-140
416.993	449
417.069	1302
417.146	2397
417.222	3915
417.298	2760
417.374	1046
417.451	1035
417.527	3293
417.603	4264
417.679	1438
417.755	1729
417.831	-913
417.908	-807
417.984	-1173
418.060	-598
418.136	7056
418.212	11684
418.288	3212
418.364	424
418.440	883
418.516	3440
418.592	1242
418.668	10796
418.744	21579
418.820	15773
418.896	2282
418.972	-222
419.048	603
419.124	9152
419.200	6717
419.276	1208
419.352	-1931
419.428	920
419.504	1221
419.579	3097
419.655	962
419.731	2419
419.807	13077
419.883	24567
419.959	14910
420.034	3396
420.110	6895
420.186	36450
420.262	27794
420.337	3097
420.413	2323
420.489	339
420.565	-6
420.640	-395
420.716	1168
420.792	-720
420.867	1031
420.943	115
421.019	4665
421.094	3603
421.170	61
421.245	-1026
421.321	328
421.397	358
421.472	1880
421.548	7937
421.623	7603
421.699	2813
421.774	2058
421.850	1264
421.925	5376
422.001	4214
422.076	1565
422.152	2439
422.227	6075
422.302	5388
422.378	6571
422.453	10986
422.529	26016
422.604	92781
422.679	176771
422.755	113728
422.830	30826
422.905	9867
422.981	3569
423.056	2511
423.131	1898
423.207	1603
423.282	2547
423.357	11213
423.432	6581
423.508	5401
423.583	19351
423.658	13760
423.733	1347
423.808	2997
423.883	4903
423.959	3667
424.034	870
424.109	777
424.184	-680
424.259	594
424.334	-11
424.409	-548
424.484	-165
424.559	1350
424.634	315
424.709	3321
424.784	3907
424.859	1404
424.934	4574
425.009	28645
425.084	45744
425.159	13278
425.234	498
425.309	-227
425.384	-1248
425.459	-1404
425.534	439
425.609	-228
425.683	-799
425.758	-240
425.833	31
425.908	2588
425.983	15566
426.058	48510
426.132	17607
426.207	777
426.282	-9
426.357	-768
426.431	-1005
426.506	-225
426.581	-1247
426.655	358
426.730	-16
426.805	790
426.879	803
426.954	129
427.029	5010
427.103	36562
427.178	79956
427.253	32136
427.327	1685
427.402	-191
427.476	-69
427.551	-959
427.625	302
427.700	-437
427.774	-1287
427.849	127
427.923	-643
427.998	-819
428.072	-1302
428.147	2064
428.221	15189
428.296	34041
428.370	13775
428.444	447
428.519	-349
428.593	-165
428.667	0
428.742	243
428.816	1785
428.890	12794
428.965	21963
429.039	4093
429.113	263
429.188	432
429.262	-501
429.336	5510
429.410	20180
429.485	10825
429.559	348
429.633	-910
429.707	-273
429.781	1627
429.855	16062
429.930	35443
430.004	10849
430.078	3096
430.152	7288
430.226	38214
430.300	41361
430.374	3856
430.448	688
430.522	1132
430.596	3552
430.670	7848
430.744	50643
430.818	82843
430.892	16162
430.966	1545
431.040	90
431.114	-900
431.188	-1082
431.262	-344
431.336	-358
431.410	1191
431.484	4754
431.557	7030
431.631	-1044
431.705	-326
431.779	4053
431.853	23535
431.927	14829
432.000	886
432.074	-688
432.148	-1063
432.222	-822
432.295	-210
432.369	-215
432.443	2661
432.516	26390
432.590	72056
432.664	23507
432.737	1452
432.811	-535
432.885	-662
432.958	-696
433.032	-1061
433.106	-418
433.179	-56
433.253	-879
433.326	-1078
433.400	-545
433.473	-589
433.547	-1559
433.620	795
433.694	3861
433.767	2678
433.841	-1046
433.914	-414
433.988	-900
434.061	-807
434.134	-1792
434.208	-637
434.281	-2424
434.355	-872
434.428	-319
434.501	-1095
434.575	-2078
434.648	-1362
434.721	-2154
434.795	-570
434.868	-1396
434.941	-816
435.014	-781
435.088	-370
435.161	1003
435.234	4572
435.307	3632
435.381	603
435.454	-1077
435.527	585
435.600	-768
435.673	-331
435.746	-1542
435.819	255
435.892	-661
435.966	-1246
436.039	-1220
436.112	-461
436.185	-1416
436.258	-781
436.331	-1825
436.404	-1202
436.477	-1480
436.550	-1260
436.623	-479
436.696	-1056
436.769	-467
436.842	-77
436.915	-1804
436.987	556
437.060	13
437.133	-741
437.206	-1497
437.279	-234
437.352	-1109
437.425	-501
437.498	434
437.570	5090
437.643	4719
437.716	392
437.789	-762
437.861	-161
437.934	1344
438.007	486
438.080	-63
438.152	1101
438.225	3811
438.298	34902
438.370	89163
438.443	32714
438.516	3406
438.588	-469
438.661	-1368
438.734	-423
438.806	-47
438.879	1027
438.951	364
439.024	258
439.096	-940
439.169	-669
439.241	-1150
439.314	-1104
439.386	-1652
439.459	-790
439.531	-222
439.604	-34
439.676	-896
439.749	-983
439.821	-1559
439.893	-847
439.966	-730
440.038	-583
440.110	-610
440.183	-184
440.255	-182
440.327	733
440.400	13214
440.472	62501
440.544	36667
440.617	2833
440.689	1155
440.761	1615
440.833	2310
440.905	1122
440.978	-1243
441.050	-1070
441.122	-856
441.194	-1184
441.266	-1146
441.338	-749
441.411	2011
441.483	26411
441.555	35797
441.627	4094
441.699	415
441.771	-1012
441.843	-1193
441.915	-507
441.987	-1312
442.059	-1493
442.131	-1108
442.203	-265
442.275	520
442.347	358
442.419	103
442.491	8231
442.563	20652
442.635	6914
442.706	4626
442.778	5727
442.850	-486
442.922	-1241
442.994	-995
443.066	1177
443.137	-74
443.209	-757
443.281	304
443.353	2059
443.425	10655
443.496	44908
443.568	38566
443.640	9998
443.711	739
443.783	-331
443.855	-819
443.926	-764
443.998	-1184
444.070	-873
444.141	-892
444.213	2885
444.285	4613
444.356	1291
444.428	-1204
444.499	-1297
444.571	-1244
444.642	-1007
444.714	443
444.785	3360
444.857	353
444.928	-1069
445.000	-1134
445.071	28
445.143	27
445.214	819
445.285	79
445.357	4561
445.428	29037
445.500	73091
445.571	33073
445.642	15118
445.714	2528
445.785	823
445.856	502
445.928	4921
445.999	1055
446.070	-84
446.141	2527
446.213	3673
446.284	-808
446.355	-976
446.426	-1326
446.497	-468
446.569	-1100
446.640	3833
446.711	3434
446.782	-575
446.853	-959
446.924	1374
446.995	570
447.066	-670
447.138	-812
447.209	-695
447.280	-2341
447.351	-516
447.422	-1684
447.493	-651
447.564	856
447.635	4182
447.706	448
447.777	-1032
447.847	-1336
447.918	-895
447.989	-741
448.060	-842
448.131	-602
448.202	2419
448.273	3936
448.344	157
448.414	-276
448.485	-796
448.556	-453
448.627	-629
448.698	-242
448.768	-857
448.839	-1847
448.910	-906
448.981	611
449.051	142
449.122	-778
449.193	-620
449.263	-1143
449.334	-906
449.405	904
449.475	5769
449.546	1361
449.616	-456
449.687	-993
449.758	-654
449.828	-1414
449.899	-1229
449.969	-1657
450.040	-814
450.110	-1642
450.181	-789
450.251	-1766
450.322	-1528
450.392	-502
450.463	-978
450.533	-1818
450.604	-953
450.674	-1604
450.744	-99
450.815	-1319
450.885	-544
450.955	-1260
451.026	-1788
451.096	-1045
451.166	-1664
451.237	-1284
451.307	-253
451.377	-1222
451.447	-1630
451.518	-1283
451.588	-1284
451.658	-1125
451.728	-1542
451.799	-852
451.869	-542
451.939	-1285
452.009	-918
452.079	-634
452.149	129
452.219	-1146
452.289	-161
452.360	-216
452.430	-1534
452.500	-567
452.570	135
452.640	-273
452.710	1406
452.780	1854
452.850	8378
452.920	9046
452.990	796
453.060	-684
453.129	590
453.199	-495
453.269	445
453.339	760
453.409	1079
453.479	433
453.549	2172
453.619	1496
453.688	-688
453.758	-1206
453.828	-1509
453.898	-979
453.968	-760
454.037	-882
454.087	-524
454.107	-382
454.168	-1867
454.177	-2088
454.247	-1035
454.249	-1034
454.316	-1166
454.330	-1163
454.386	-1151
454.411	-1051
454.456	-965
454.492	-484
454.525	-32
454.574	-101
454.595	-121
454.655	-942
454.665	-1098
454.734	-1565
454.736	-1531
454.804	-99
454.817	-103
454.873	-140
454.898	-275
454.943	-525
454.979	-944
455.013	-1316
455.060	-1081
455.082	-1000
455.141	-907
455.152	-868
455.221	759
455.222	770
455.291	991
455.303	2809
455.360	10892
455.384	19555
455.430	35649
455.465	23043
455.499	11130
455.546	3400
455.569	-240
455.627	-188
455.638	-170
455.707	-1051
455.708	-1042
455.777	-766
455.789	-773
455.846	-792
455.869	-955
455.916	-1118
455.950	-1160
455.985	-1308
456.031	-1298
456.054	-1307
456.112	-1230
456.124	-1204
456.193	-1246
456.193	-1252
456.262	-946
456.274	-921
456.332	-773
456.355	-908
456.401	-1157
456.436	-972
456.470	-797
456.516	-918
456.540	-967
456.597	-755
456.609	-725
456.678	-799
456.678	-806
456.747	-1394
456.759	-1499
456.817	-1746
456.840	-1381
456.886	-916
456.920	-977
456.955	-899
457.001	-474
457.024	-307
457.082	-931
457.093	-1065
457.162	-902
457.163	-900
457.232	-1607
457.243	-1505
457.301	-1229
457.324	-1490
457.370	-1738
457.405	-1267
457.439	-904
457.485	-754
457.508	-761
457.566	-815
457.577	-806
457.646	-1041
457.647	-1037
457.715	-612
457.727	-573
457.784	-207
457.808	186
457.853	593
457.889	1198
457.922	1721
457.969	678
457.991	254
458.050	75
458.060	61
458.129	1732
458.130	1751
458.198	2161
458.211	1863
458.267	575
458.292	-70
458.336	-991
458.372	-269
458.405	537
458.453	360
458.474	176
458.533	1280
458.543	1498
458.611	4499
458.614	4479
458.680	1999
458.694	1252
458.749	-226
458.775	-166
458.818	-352
458.855	-410
458.887	-497
458.936	-531
458.955	-615
459.016	-1070
459.024	-1049
459.093	-566
459.097	-552
459.162	-587
459.177	-366
459.230	311
459.257	310
459.299	333
459.338	324
459.368	195
459.418	-116
459.437	-266
459.499	-341
459.505	-285
459.574	-495
459.579	-458
459.643	-320
459.659	-482
459.711	-865
459.740	-563
459.780	-583
459.820	-957
459.849	-934
459.900	-595
459.917	-420
459.981	-108
459.986	-125
460.054	-537
460.061	-557
460.123	-400
460.141	-164
460.191	246
460.222	157
460.260	157
460.302	847
460.328	1137
460.382	452
460.397	292
460.462	-728
460.465	-750
460.534	538
460.543	601
460.602	1730
460.623	2335
460.671	4136
460.703	7114
460.739	8365
460.783	6846
460.808	6003
460.864	914
460.876	156
460.944	-442
460.945	-449
461.013	-174
461.024	-207
461.081	-335
461.104	90
461.150	535
461.184	111
461.218	-164
461.264	-372
461.286	-400
461.345	-267
461.355	-205
461.423	384
461.425	378
461.491	-348
461.505	-335
461.559	-392
461.585	-525
461.628	-410
461.665	-93
461.696	84
461.745	269
461.764	269
461.825	61
461.832	89
461.901	173
461.905	217
461.969	-354
461.985	-642
462.037	-126
462.065	265
462.105	-140
462.145	-517
462.173	-436
462.225	-412
462.241	-513
462.305	-793
462.310	-779
462.378	-267
462.385	-260
462.446	-238
462.465	-144
462.514	-59
462.545	-74
462.582	-83
462.625	-68
462.650	-111
462.705	-218
462.718	-236
462.785	-511
462.786	-518
462.854	-912
462.865	-952
462.922	-182
462.945	135
462.990	82
463.025	28
463.058	-68
463.104	-407
463.126	-560
463.184	-536
463.194	-356
463.262	373
463.264	422
463.330	907
463.344	847
463.398	302
463.424	172
463.466	-164
463.504	-562
463.533	-395
463.583	244
463.601	485
463.663	667
463.669	555
463.737	-108
463.743	-199
463.805	455
463.823	681
463.873	139
463.903	-233
463.940	-31
463.982	124
464.008	104
464.062	82
464.076	97
464.142	504
464.144	507
464.211	81
464.221	57
464.279	-105
464.301	-200
464.347	-12
464.381	206
464.414	421
464.461	664
464.482	463
464.540	-213
464.550	-206
464.617	-119
464.620	-110
464.685	866
464.699	1045
464.753	1038
464.779	1114
464.820	971
464.859	607
464.888	234
464.938	-231
464.956	-19
465.018	592
465.023	643
465.091	1172
465.098	1254
465.158	866
465.177	776
465.226	845
465.257	651
465.293	417
465.336	457
465.361	680
465.416	917
465.428	790
465.495	514
465.496	516
465.563	462
465.575	510
465.631	308
465.654	191
465.698	92
465.734	29
465.765	394
465.813	905
465.833	950
465.893	1249
465.900	1289
465.968	1264
465.972	1280
466.035	840
466.052	711
466.102	499
466.131	318
466.170	-39
466.210	-404
466.237	207
466.290	1452
466.304	1302
466.369	633
466.372	636
466.439	651
466.449	646
466.506	261
466.528	154
466.573	858
466.607	1315
466.641	1314
466.687	1382
466.708	1542
466.766	1982
466.775	1942
466.842	1595
466.845	1574
466.909	1177
466.925	1102
466.977	1072
467.004	1051
467.044	995
467.083	938
467.111	1006
467.163	1137
467.178	1227
467.242	1604
467.245	1620
467.312	1932
467.321	1974
467.379	1501
467.400	1325
467.446	1429
467.480	1504
467.559	1301
467.638	849
467.717	1538
467.796	1144
467.875	1271
467.955	1101
468.034	914
468.113	1538
468.192	1524
468.271	568
468.350	985
468.429	582
468.508	947
468.588	324
468.667	727
468.746	1303
468.825	869
468.904	978
468.983	341
469.062	987
469.141	1258
469.220	554
469.299	324
469.378	271
469.456	1779
469.535	2011
469.614	1099
469.693	809
469.772	1727
469.851	2031
469.930	1108
470.009	1620
470.088	1982
470.166	2256
470.245	3840
470.324	4417
470.403	2314
470.482	1472
470.560	1088
470.639	1309
470.718	2075
470.797	1632
470.875	1541
470.954	673
471.033	1296
471.111	1137
471.190	362
471.269	289
471.347	261
471.426	770
471.505	1413
471.583	1084
471.662	526
471.740	1333
471.819	1424
471.898	330
471.976	1551
472.055	1207
472.133	941
472.212	982
472.290	-48
472.369	1129
472.447	1332
472.526	512
472.604	1121
472.683	1204
472.761	2079
472.839	1674
472.918	42
472.996	731
473.075	1469
473.153	404
473.231	507
473.310	165
473.388	697
473.466	1156
473.545	1351
473.623	2406
473.701	1131
473.780	1433
473.858	-462
473.936	2677
474.014	1490
474.093	1354
474.171	425
474.249	782
474.327	817
474.405	404
474.484	912
474.562	663
474.640	371
474.718	622
474.796	1074
474.874	1994
474.952	977
475.030	412
475.108	238
475.187	931
475.265	1077
475.343	1939
475.421	1322
475.499	28
475.577	753
475.655	1244
475.733	1958
475.811	538
475.889	389
475.966	996
476.044	1034
476.122	459
476.200	1383
476.278	906
476.356	-90
476.434	604
476.512	1394
476.590	1059
476.667	1196
476.745	-314
476.823	921
476.901	718
476.979	-342
477.056	919
477.134	-310
477.212	1023
477.290	931
477.367	144
477.445	-137
477.523	317
477.601	-204
477.678	-202
477.756	323
477.834	56
477.911	716
477.989	1114
478.066	342
478.144	1
478.222	987
478.299	1261
478.377	1173
478.454	-58
478.532	341
478.609	686
478.687	1481
478.764	-762
478.842	461
478.919	349
478.997	591
479.074	414
479.152	-213
479.229	-242
479.307	-191
479.384	583
479.461	1007
479.539	-50
479.616	-303
479.694	-129
479.771	593
479.848	-295
479.926	-590
480.003	1909
480.080	829
480.157	593
480.235	-55
480.312	113
480.389	6
480.467	-11
480.544	-580
480.621	474
480.698	408
480.775	307
480.853	-67
480.930	555
481.007	554
481.084	-420
481.161	252
481.238	325
481.315	397
481.392	-348
481.470	144
481.547	58
481.624	-420
481.701	-366
481.778	-33
481.855	241
481.932	291
482.009	-538
482.086	362
482.163	646
482.240	482
482.317	1402
482.393	548
482.470	391
482.547	-656
482.624	-13
482.701	324
482.778	-359
482.855	-454
482.932	-239
483.009	278
483.085	520
483.162	-384
483.239	1233
483.316	-533
483.393	466
483.469	-316
483.546	337
483.623	-42
483.699	201
483.776	296
483.853	191
483.930	169
484.006	336
484.083	1935
484.160	3257
484.236	6461
484.313	4157
484.389	1810
484.466	3597
484.543	1448
484.619	2177
484.696	2984
484.772	2262
484.849	1626
484.925	1861
485.002	1418
485.078	2382
485.155	2262
485.231	1556
485.308	2057
485.384	1873
485.461	2674
485.537	2143
485.614	2449
485.690	1360
485.766	2245
485.843	2268
485.919	4604
485.995	4116
486.072	2564
486.148	1378
486.224	950
486.301	1759
486.377	1334
486.453	668
486.530	2154
486.606	4105
486.682	2969
486.758	2944
486.835	2410
486.911	1526
486.987	3926
487.063	9319
487.139	12941
487.215	6960
487.292	3301
487.368	2634
487.444	2103
487.520	2879
487.596	863
487.672	4511
487.748	8517
487.824	11102
487.900	3869
487.976	2399
488.052	1609
488.128	2628
488.204	904
488.280	1781
488.356	2482
488.432	2068
488.508	2334
488.584	1901
488.660	1913
488.736	1893
488.812	2006
488.888	3730
488.964	5871
489.039	13427
489.115	21160
489.191	10466
489.267	2238
489.343	1860
489.418	1801
489.494	1109
489.570	-125
489.646	2478
489.722	968
489.797	585
489.873	1096
489.949	1598
490.024	1581
490.100	1912
490.176	1360
490.251	1713
490.327	3170
490.403	419
490.478	1038
490.554	987
490.629	1135
490.705	1309
490.781	2733
490.856	1107
490.932	2690
491.007	2330
491.083	1116
491.158	915
491.234	948
491.309	1819
491.385	268
491.460	644
491.536	2347
491.611	802
491.686	1903
491.762	2758
491.837	8599
491.913	13186
491.988	19393
492.063	24131
492.139	3240
492.214	1553
492.289	2101
492.365	599
492.440	2089
492.515	906
492.590	1318
492.666	803
492.741	1690
492.816	1127
492.891	153
492.967	1421
493.042	1306
493.117	568
493.192	1577
493.267	6480
493.342	21408
493.418	30151
493.493	3126
493.568	861
493.643	986
493.718	540
493.793	1521
493.868	2948
493.943	2371
494.018	1917
494.093	-157
494.168	601
494.243	1144
494.318	1200
494.393	611
494.468	207
494.543	303
494.618	1375
494.693	106
494.768	487
494.842	-61
494.917	892
494.992	1285
495.067	812
495.142	341
495.217	1079
495.292	432
495.366	1010
495.441	1175
495.516	2970
495.591	5574
495.665	22118
495.740	46840
495.815	16344
495.890	616
495.964	-1539
496.039	2883
496.114	153
496.188	846
496.263	872
496.338	274
496.412	384
496.487	1567
496.561	1754
496.636	2059
496.710	909
496.785	620
496.860	1078
496.934	319
497.009	763
497.083	333
497.158	514
497.232	1197
497.307	1335
497.381	957
497.455	698
497.530	887
497.604	305
497.679	1434
497.753	1333
497.827	862
497.902	1465
497.976	1792
498.050	2474
498.125	6092
498.199	7678
498.273	5544
498.348	3984
498.422	2967
498.496	2855
498.570	3465
498.645	463
498.719	-408
498.793	241
498.867	1383
498.941	718
499.016	1908
499.090	4935
499.164	2325
499.238	1332
499.312	1259
499.386	1700
499.460	1926
499.534	945
499.609	1314
499.683	378
499.757	714
499.831	1102
499.905	3319
499.979	3052
500.053	1214
500.127	2701
500.201	2398
500.275	910
500.349	502
500.422	702
500.496	2363
500.570	7412
500.644	6730
500.718	2968
500.792	2162
500.866	1336
500.940	533
501.013	649
501.087	325
501.161	4186
501.235	1745
501.309	3182
501.382	2516
501.456	3702
501.530	1838
501.603	-582
501.677	-85
501.751	-598
501.825	1279
501.898	472
501.972	1214
502.046	272
502.119	70
502.193	1534
502.266	821
502.340	327
502.413	1039
502.487	104
502.561	-490
502.634	1083
502.708	8
502.781	145
502.855	1065
502.928	-1501
503.002	219
503.075	-795
503.149	-341
503.222	-118
503.295	-130
503.369	984
503.442	-306
503.516	757
503.589	807
503.662	433
503.736	-297
503.809	1412
503.882	-380
503.956	1143
504.029	2444
504.102	5661
504.175	8036
504.249	130
504.322	851
504.395	-189
504.468	-65
504.542	-287
504.615	-367
504.688	498
504.761	-1221
504.834	1721
504.907	1370
504.980	3079
505.053	787
505.127	-807
505.200	3252
505.273	173
505.346	-481
505.419	-1523
505.492	782
505.565	-868
505.638	425
505.711	-789
505.784	-1006
505.857	-580
505.930	745
506.003	-1865
506.076	1110
506.149	-468
506.221	-1267
506.294	1379
506.367	-1361
506.440	1620
506.513	2375
506.586	-462
506.659	133
506.731	703
506.804	236
506.877	304
506.950	-153
507.022	613
507.095	-1750
507.168	681
507.241	569
507.313	-21
507.386	-587
507.459	1681
507.531	163
507.604	-921
507.677	269
507.749	-1143
507.822	1787
507.894	1593
507.967	3306
508.040	915
508.112	1155
508.185	1661
508.257	-436
508.330	3902
508.402	-155
508.475	1
508.547	375
508.620	301
508.692	123
508.765	1046
508.837	-209
508.909	727
508.982	-833
509.054	466
509.127	-135
509.199	20
509.271	19
509.344	-98
509.416	11
509.488	148
509.560	328
509.633	-530
509.705	807
509.777	267
509.849	1496
509.922	-643
509.994	329
510.066	1291
510.138	-1088
510.210	3554
510.283	1803
510.355	1361
510.427	1261
510.499	1396
510.571	1456
510.643	-853
510.715	3887
510.787	257
510.859	2484
510.931	243
511.003	2498
511.076	2671
511.148	-37
511.219	-597
511.291	914
511.363	751
511.435	543
511.507	-472
511.579	417
511.651	993
511.723	136
511.795	155
511.867	-1097
511.939	65
512.010	-50
512.082	429
512.154	-1000
512.226	154
512.298	2274
512.369	2117
512.441	2802
512.513	2346
512.585	-508
512.656	2017
512.728	1239
512.800	721
512.871	2250
512.943	874
513.015	-821
513.086	664
513.158	1071
513.230	-238
513.301	1871
513.373	3302
513.444	595
513.516	535
513.588	568
513.659	1588
513.731	2286
513.802	384
513.874	6464
513.945	8809
514.016	821
514.088	676
514.159	-312
514.231	3143
514.302	1948
514.374	1075
514.445	-1438
514.516	2547
514.588	-265
514.659	342
514.730	1062
514.802	2109
514.873	-264
514.944	2647
515.016	1514
515.087	770
515.158	607
515.229	2327
515.301	-220
515.372	1496
515.443	-763
515.514	67
515.585	-712
515.656	1084
515.728	1732
515.799	322
515.870	699
515.941	1097
516.012	-584
516.083	2607
516.154	1855
516.225	4054
516.296	4386
516.367	2110
516.438	2023
516.509	3729
516.580	8300
516.651	35970
516.722	108667
516.793	44845
516.864	5075
516.935	4773
517.006	5059
517.077	10203
517.148	32373
517.219	120961
517.289	163142
517.360	17534
517.431	4446
517.502	1899
517.573	2711
517.643	1940
517.714	1683
517.785	2084
517.856	1352
517.926	4095
517.997	4078
518.068	3365
518.138	9199
518.209	16465
518.280	81279
518.350	253457
518.421	88938
518.492	7462
518.562	2913
518.633	2170
518.703	-295
518.774	3864
518.845	6626
518.915	6623
518.986	816
519.056	2449
519.127	6990
519.197	8882
519.268	5305
519.338	2699
519.408	157
519.479	4358
519.549	2017
519.620	2911
519.690	-439
519.760	131
519.831	-21
519.901	426
519.971	464
520.042	-481
520.112	-271
520.182	2186
520.253	1696
520.323	333
520.393	-1057
520.463	2374
520.534	-2701
520.604	2985
520.674	638
520.744	-748
520.814	-343
520.885	1493
520.955	188
521.025	943
521.095	421
521.165	1032
521.235	-1030
521.305	-850
521.375	849
521.445	619
521.515	670
521.585	3228
521.655	404
521.725	2032
521.795	2056
521.865	-1426
521.935	2322
522.005	-484
522.075	-165
522.145	658
522.215	-1031
522.285	-133
522.355	445
522.424	749
522.494	-175
522.564	2786
522.634	8897
522.704	27590
522.774	7208
522.843	1695
522.913	1188
522.983	1411
523.053	741
523.122	919
523.192	2288
523.262	12330
523.331	10081
523.401	1606
523.471	-129
523.540	602
523.610	-744
523.680	108
523.749	246
523.819	482
523.888	-984
523.958	-322
524.027	-201
524.097	909
524.166	-365
524.236	-1135
524.305	1495
524.375	-726
524.444	-393
524.514	1517
524.583	-1027
524.653	-999
524.722	314
524.791	-1929
524.861	1617
524.930	-1664
524.999	-28
525.069	1425
525.138	-459
525.207	-607
525.277	89
525.346	2
525.415	273
525.484	-394
525.554	-1024
525.623	279
525.692	6
525.761	-24
525.830	451
525.900	-357
525.969	683
526.038	1336
526.107	3104
526.176	13680
526.245	8742
526.314	4150
526.383	7737
526.452	7778
526.522	20022
526.591	17940
526.660	8810
526.729	3779
526.797	5819
526.867	16321
526.935	71165
527.004	71377
527.073	26945
527.142	680
527.211	1021
527.280	1582
527.349	869
527.418	-691
527.487	1210
527.555	-995
527.624	-1126
527.693	-1085
527.762	947
527.831	-1312
527.899	-74
527.968	-478
528.037	-1181
528.106	803
528.174	1997
528.243	905
528.312	1974
528.380	2735
528.449	-1173
528.518	642
528.586	-2039
528.655	875
528.723	-435
528.792	-381
528.861	-1812
528.929	-1864
528.998	1149
529.066	-644
529.135	-490
529.203	-1001
529.272	-1733
529.340	-284
529.409	1086
529.477	-1383
529.545	-1850
529.614	1521
529.682	-2088
529.751	-1366
529.819	1650
529.887	-726
529.956	-1239
530.024	150
530.092	-2449
530.161	1240
530.229	1266
530.297	-166
530.365	162
530.434	-1095
530.502	-1543
530.570	-348
530.638	-1175
530.707	350
530.775	1900
530.843	-1156
530.911	-702
530.979	-50
531.047	-1211
531.115	115
531.183	-56
531.252	-508
531.320	-346
531.388	-1748
531.456	124
531.524	-1878
531.592	-276
531.660	1083
531.728	-1399
531.796	-811
531.864	91
531.932	49
532.000	-418
532.067	-198
532.135	-387
532.203	1215
532.271	-101
532.339	3549
532.407	9989
532.475	4316
532.542	682
532.610	1325
532.678	2555
532.746	24155
532.814	53786
532.881	11392
532.949	349
533.017	102
533.084	-345
533.152	-583
533.220	-38
533.287	-1003
533.355	-29
533.423	38
533.490	-1376
533.558	-163
533.625	-169
533.693	-1347
533.761	-370
533.828	214
533.896	-1365
533.963	2159
534.031	2942
534.098	5002
534.166	926
534.233	-319
534.300	768
534.368	-427
534.435	-681
534.503	-1006
534.570	-792
534.637	-628
534.705	147
534.772	-2
534.840	507
534.907	7010
534.974	6834
535.041	-74
535.109	-316
535.176	-601
535.243	150
535.310	-123
535.378	-1495
535.445	-175
535.512	-787
535.579	93
535.646	-1026
535.714	89
535.781	635
535.848	613
535.915	111
535.982	-468
536.049	-806
536.116	765
536.183	-720
536.250	-222
536.317	-324
536.384	495
536.451	2459
536.518	2853
536.585	-1699
536.652	2279
536.719	3815
536.786	1297
536.853	215
536.920	2861
536.987	5869
537.053	5458
537.120	29952
537.187	22224
537.254	-213
537.321	-437
537.388	1345
537.454	-605
537.521	-474
537.588	-718
537.654	587
537.721	-202
537.788	446
537.855	-787
537.921	-226
537.988	-381
538.055	293
538.121	-1156
538.188	681
538.254	1418
538.321	6285
538.388	3592
538.454	3
538.521	-25
538.587	-426
538.654	-333
538.720	-258
538.787	255
538.853	170
538.920	470
538.986	668
539.053	-403
539.119	-47
539.185	674
539.252	1907
539.318	2042
539.385	1923
539.451	-935
539.517	619
539.583	2564
539.650	6537
539.716	20893
539.782	3406
539.849	-259
539.915	502
539.981	-154
540.047	495
540.114	278
540.180	1226
540.246	59
540.312	1390
540.378	6466
540.444	7196
540.510	8075
540.576	23078
540.643	4918
540.709	-295
540.775	1247
540.841	-288
540.907	388
540.973	844
541.039	2117
541.105	1943
541.171	-26
541.237	-811
541.303	1528
541.369	2330
541.435	1508
541.500	5351
541.566	1032
541.632	101
541.698	90
541.764	679
541.830	-30
541.896	-872
541.961	903
542.027	-627
542.093	516
542.159	-371
542.224	-285
542.290	2587
542.356	4127
542.421	7464
542.487	2645
542.553	-6
542.618	280
542.684	-309
542.750	841
542.815	1719
542.881	3847
542.947	21536
543.012	13476
543.078	598
543.143	419
543.209	726
543.274	127
543.340	1579
543.405	7166
543.471	11412
543.536	1030
543.602	339
543.667	-1192
543.732	1942
543.798	-328
543.863	184
543.928	-640
543.994	-1066
544.059	-178
544.124	457
544.190	-375
544.255	42
544.320	1366
544.386	144
544.451	1863
544.516	2562
544.581	3023
544.646	13435
544.712	19957
544.777	2173
544.842	70
544.907	-854
544.972	385
545.037	376
545.102	-68
545.168	729
545.233	-41
545.298	1109
545.363	304
545.428	1979
545.493	7258
545.558	15460
545.623	4529
545.688	-253
545.753	715
545.818	-352
545.883	813
545.947	-969
546.012	13
546.077	283
546.142	987
546.207	293
546.272	1707
546.337	986
546.401	1314
546.466	1103
546.531	-90
546.596	1853
546.661	1301
546.725	1474
546.790	75
546.855	455
546.919	-119
546.984	631
547.049	726
547.113	928
547.178	1317
547.243	2074
547.307	1546
547.372	2219
547.436	1911
547.501	1901
547.565	2182
547.630	2823
547.695	3096
547.759	1744
547.823	1513
547.888	1589
547.952	1358
548.017	2442
548.081	1760
548.146	2423
548.210	2396
548.274	2025
548.339	2389
548.403	2413
548.468	2103
548.532	1108
548.596	2186
548.660	1861
548.725	2620
548.789	2443
548.853	2475
548.917	2190
548.982	1319
549.046	1991
549.110	647
549.174	2297
549.238	1432
549.303	1710
549.367	3008
549.431	2052
549.495	1327
549.559	958
549.623	2630
549.687	3160
549.751	5178
549.815	3192
549.879	3730
549.943	1828
550.007	3567
550.071	2575
550.135	5468
550.199	2458
550.263	3232
550.327	3241
550.391	2134
550.455	2775
550.519	3003
550.582	3957
550.646	5113
550.710	6092
550.774	3911
550.838	3267
550.901	3467
550.965	4167
551.029	4626
551.093	5134
551.156	4936
551.220	6625
551.284	7776
551.347	5811
551.411	4491
551.475	4390
551.538	4376
551.602	4400
551.666	3731
551.729	2746
551.793	3152
551.856	3150
551.920	3246
551.983	3554
552.047	2628
552.110	3818
552.174	3116
552.237	3183
552.301	3409
552.364	3343
552.428	3295
552.491	3212
552.554	3939
552.618	2756
552.681	4578
552.745	4412
552.808	10932
552.871	13233
552.934	5657
552.998	3090
553.061	2679
553.124	3287
553.187	4254
553.251	3076
553.314	3588
553.377	4127
553.440	8370
553.503	22325
553.567	31108
553.630	5340
553.693	4067
553.756	4156
553.819	3556
553.882	3156
553.945	3916
554.008	3066
554.071	2664
554.134	3432
554.197	2706
554.260	3296
554.323	3769
554.386	3037
554.449	3832
554.512	4165
554.575	2200
554.638	3702
554.701	2241
554.764	3570
554.827	2514
554.889	2896
554.952	1967
555.015	1457
555.078	2032
555.141	3525
555.203	2960
555.266	2840
555.329	2090
555.391	1761
555.454	2380
555.517	2027
555.580	2638
555.642	2535
555.705	1455
555.768	2098
555.830	2304
555.893	1233
555.955	1935
556.018	2115
556.080	1878
556.143	1843
556.206	1496
556.268	1696
556.330	2479
556.393	2234
556.455	2092
556.518	1745
556.580	1117
556.643	1223
556.705	1943
556.767	438
556.830	1820
556.892	1708
556.955	5161
557.017	3130
557.079	1908
557.142	1461
557.204	2645
557.266	7491
557.328	5447
557.391	1444
557.453	769
557.515	1217
557.577	2343
557.639	2999
557.701	674
557.764	873
557.826	1370
557.888	1515
557.950	1255
558.012	1556
558.074	1702
558.136	5376
558.198	12245
558.260	4200
558.322	809
558.384	1775
558.446	1664
558.508	2481
558.570	5041
558.632	10262
558.694	13698
558.756	11436
558.818	34400
558.880	71543
558.942	17467
559.003	12781
559.065	5575
559.127	2465
559.189	1663
559.251	3664
559.312	5980
559.374	14561
559.436	44327
559.498	16920
559.559	3041
559.621	1873
559.683	2583
559.744	6115
559.806	20174
559.868	26389
559.929	2994
559.991	2777
560.052	5225
560.114	13120
560.176	6230
560.237	9406
560.299	12267
560.360	1838
560.422	420
560.483	1907
560.545	280
560.606	378
560.667	199
560.729	441
560.790	127
560.852	727
560.913	734
560.974	1047
561.036	143
561.097	445
561.158	1471
561.220	325
561.281	695
561.342	1028
561.403	3058
561.465	2099
561.526	11417
561.587	13958
561.648	761
561.709	1203
561.771	1170
561.832	35
561.893	-106
561.954	755
562.015	936
562.076	1180
562.137	653
562.198	1131
562.259	657
562.320	1407
562.381	944
562.442	2938
562.503	1686
562.564	1421
562.625	560
562.686	1850
562.747	473
562.808	1035
562.869	189
562.930	307
562.991	334
563.051	521
563.112	916
563.173	55
563.234	-565
563.294	1410
563.355	1103
563.416	901
563.477	2156
563.537	1020
563.598	631
563.659	809
563.720	-121
563.780	1048
563.841	1855
563.901	1000
563.962	1116
564.023	391
564.083	886
564.144	1334
564.204	887
564.265	507
564.325	459
564.386	1167
564.446	1111
564.507	710
564.567	466
564.628	647
564.688	24
564.749	637
564.809	1170
564.869	1206
564.930	120
564.990	878
565.050	1381
565.111	1072
565.171	1560
565.231	1006
565.292	1492
565.352	1025
565.412	1364
565.472	1429
565.532	1552
565.593	888
565.653	1171
565.713	571
565.773	1826
565.833	2808
565.893	4291
565.953	445
566.013	1610
566.074	988
566.134	1605
566.194	1717
566.254	1349
566.314	1091
566.374	889
566.434	1015
566.494	1352
566.554	1572
566.614	924
566.673	1378
566.733	2142
566.793	1802
566.853	959
566.913	1839
566.973	918
567.033	2380
567.092	1940
567.152	586
567.212	2090
567.272	1504
567.331	2052
567.391	1838
567.451	2504
567.511	1042
567.570	1945
567.630	1979
567.690	2054
567.749	2001
567.809	2277
567.868	3074
567.928	2377
567.988	1909
568.047	3370
568.107	4565
568.166	6733
568.226	10220
568.285	13156
568.345	9354
568.404	6781
568.464	4989
568.523	5024
568.582	5593
568.642	6360
568.701	9605
568.761	14656
568.820	23509
568.879	18973
568.939	9814
568.998	6460
569.057	4863
569.116	3936
569.176	3191
569.235	2262
569.294	1535
569.353	1998
569.413	1671
569.472	1156
569.531	1385
569.590	1819
569.649	1252
569.708	1105
569.767	1992
569.827	1884
569.886	1151
569.945	1693
570.004	1436
570.063	1249
570.122	1440
570.181	692
570.240	1327
570.299	1885
570.358	2307
570.417	1666
570.475	1008
570.534	2277
570.593	1756
570.652	1933
570.711	672
570.770	1873
570.829	1800
570.887	2306
570.946	2599
571.005	1480
571.064	2572
571.122	2638
571.181	987
571.240	1249
571.299	1503
571.357	1642
571.416	1354
571.475	1718
571.533	1711
571.592	1667
571.650	1334
571.709	2205
571.768	1754
571.826	1576
571.885	1175
571.943	1347
572.002	124
572.060	681
572.119	1166
572.177	1274
572.236	1591
572.294	1404
572.352	1335
572.411	1779
572.469	888
572.528	1075
572.586	1322
572.644	885
572.703	2442
572.761	1577
572.819	968
572.877	1303
572.936	877
572.994	1826
573.052	842
573.110	1316
573.169	1533
573.227	1065
573.285	1281
573.343	1372
573.401	1616
573.459	1690
573.517	1231
573.576	924
573.634	1582
573.692	1196
573.750	1465
573.808	974
573.866	1114
573.924	1239
573.982	1040
574.040	397
574.098	1702
574.155	973
574.213	2093
574.271	1896
574.329	972
574.387	641
574.445	1110
574.503	859
574.560	910
574.618	1395
574.676	434
574.734	2131
574.792	1736
574.849	1312
574.907	1
574.965	1723
575.022	994
575.080	1696
575.138	801
575.195	1334
575.253	2037
575.311	1517
575.368	2018
575.426	951
575.483	1851
575.541	1650
575.598	544
575.656	1204
575.713	1057
575.771	1347
575.828	350
575.886	1055
575.943	1460
576.001	1337
576.058	448
576.115	1004
576.173	1075
576.230	1611
576.287	2365
576.345	1687
576.402	1521
576.459	1234
576.517	550
576.574	1416
576.631	1877
576.688	856
576.746	1531
576.803	866
576.860	1826
576.917	1023
576.974	1780
577.031	1617
577.089	903
577.146	646
577.203	1322
577.260	1833
577.317	1100
577.374	1810
577.431	1197
577.488	1493
577.545	1186
577.602	1480
577.659	1407
577.716	2227
577.773	2296
577.830	703
577.886	1706
577.943	1402
578.000	750
578.057	1361
578.114	1847
578.171	1686
578.227	1391
578.284	619
578.341	1993
578.398	1176
578.454	1740
578.511	1892
578.568	1397
578.625	908
578.681	1027
578.738	1605
578.794	1699
578.851	1707
578.908	1413
578.964	2229
579.021	2681
579.077	1752
579.134	2796
579.190	1670
579.247	2406
579.303	1367
579.360	1196
579.416	2484
579.473	983
579.529	1608
579.586	2280
579.642	1983
579.698	1848
579.755	2153
579.811	1768
579.867	2560
579.924	2362
579.980	1318
580.036	1764
580.093	1244
580.149	1623
580.205	2282
580.261	493
580.317	2257
580.374	2270
580.430	1651
580.486	1965
580.542	1663
580.598	1593
580.619	1426
580.654	1123
580.692	1312
580.710	1388
580.765	1774
580.767	1775
580.823	2307
580.838	2331
580.879	2349
580.911	2231
580.935	2127
580.984	2383
580.991	2411
581.047	2230
581.057	2350
581.103	2829
581.130	2514
581.159	2128
581.203	2160
581.215	2160
581.270	2867
581.276	2862
581.326	2721
581.349	3021
581.382	3423
581.422	2431
581.438	2002
581.494	2639
581.494	2645
581.550	2071
581.567	2401
581.606	3007
581.640	3066
581.661	3083
581.713	3998
581.717	4064
581.773	3064
581.786	3107
581.829	3265
581.859	3345
581.885	3355
581.932	3660
581.940	3713
581.996	4215
582.004	4120
582.052	3374
582.077	3382
582.107	3430
582.150	3597
582.163	3626
582.219	3845
582.223	3849
582.274	3885
582.296	3892
582.330	3762
582.368	4083
582.386	4325
582.441	4914
582.441	4905
582.497	5214
582.514	5103
582.552	5093
582.587	5822
582.608	6010
582.659	5268
582.663	5205
582.719	5447
582.732	5531
582.774	5982
582.805	6176
582.830	6261
582.877	5468
582.885	5353
582.941	6529
582.950	6419
582.996	5792
583.023	6234
583.052	6842
583.095	7077
583.107	7108
583.162	6776
583.168	6794
583.218	6735
583.240	6879
583.273	7078
583.313	7262
583.328	7364
583.384	7372
583.385	7378
583.439	7392
583.458	7405
583.494	7455
583.531	7176
583.549	7157
583.603	8053
583.605	8075
583.660	8273
583.676	8228
583.715	8334
583.748	8813
583.770	9086
583.820	9398
583.825	9423
583.881	9167
583.893	9101
583.936	8887
583.965	9432
583.991	10008
584.038	9765
584.046	9723
584.101	9247
584.110	9369
584.156	10123
584.183	10300
584.211	10377
584.255	10374
584.266	10448
584.321	10224
584.328	10283
584.376	11060
584.400	11374
584.431	11573
584.472	11451
584.486	11511
584.541	11959
584.545	11979
584.596	12337
584.617	12031
584.651	12057
584.689	13020
584.706	13279
584.761	13497
584.762	13466
584.816	13255
584.834	13541
584.871	14064
584.906	14094
584.926	14109
584.978	14195
584.980	14245
585.035	15644
585.051	15786
585.090	16433
585.123	16884
585.145	17305
585.195	17762
585.200	17908
585.254	19941
585.267	20386
585.309	22973
585.340	24647
585.364	24348
585.412	23202
585.419	23179
585.473	23623
585.484	23425
585.528	25154
585.556	26943
585.583	32681
585.628	43277
585.637	48485
585.692	83720
585.700	89044
585.747	99215
585.772	95459
585.801	67530
585.845	32175
585.856	30800
585.910	26255
585.917	25713
585.965	25445
585.989	24736
586.019	24531
586.061	24666
586.074	24961
586.128	26330
586.133	26265
586.183	27371
586.205	28019
586.237	27609
586.277	26839
586.292	27034
586.346	27759
586.349	27690
586.401	28253
586.421	28515
586.455	29017
586.493	29454
586.509	30187
586.564	31256
586.565	31196
586.618	32839
586.637	33168
586.672	33840
586.709	34496
586.727	35184
586.781	36493
586.781	36621
586.835	37351
586.853	37644
586.889	38283
586.925	37822
586.944	38175
586.996	39646
586.998	39838
587.052	41679
587.068	42033
587.106	43531
587.140	44196
587.161	44937
587.212	46686
587.215	46975
587.269	49697
587.284	50179
587.323	51589
587.356	52593
587.377	53900
587.427	55830
587.431	56228
587.485	59734
587.499	60327
587.539	62419
587.571	63476
587.593	65323
587.643	69653
587.648	70354
587.702	74405
587.715	75070
587.755	79057
587.786	81703
587.810	84317
587.858	89377
587.864	90574
587.917	98888
587.930	100427
587.971	108175
588.001	113129
588.025	118713
588.073	128772
588.079	130952
588.133	146375
588.145	149197
588.187	164378
588.217	174086
588.241	185069
588.288	205403
588.295	209960
588.348	240800
588.360	246716
588.402	279856
588.431	300887
588.456	326121
588.503	372273
588.510	383411
588.564	463346
588.575	478373
588.617	577861
588.646	643655
588.671	737071
588.718	910153
588.725	953648
588.778	1270055
588.789	1330601
588.832	1567352
588.861	1720267
588.886	1659667
588.932	1511340
588.939	1498152
588.993	1328054
589.004	1291807
589.047	1617560
589.075	1812214
589.100	1695908
589.147	1458315
589.154	1425944
589.207	1130168
589.218	1065255
589.261	989123
589.290	931452
589.314	966748
589.361	1027813
589.368	1063348
589.421	1324977
589.433	1376043
589.475	1579562
589.504	1711547
589.528	1640202
589.576	1456087
589.582	1480355
589.635	1638613
589.647	1662553
589.689	1416886
589.718	1234922
589.742	1077740
589.790	750506
589.795	734557
589.849	554950
589.861	510937
589.902	437486
589.932	379490
589.955	355155
590.004	299229
590.009	297123
590.062	259583
590.075	249163
590.115	229962
590.146	213209
590.168	206466
590.218	188140
590.222	187832
590.275	172626
590.289	167848
590.328	159296
590.360	150844
590.381	147875
590.431	138482
590.435	138708
590.488	131526
590.503	128929
590.541	125196
590.574	120700
590.594	119258
590.645	113705
590.647	114074
590.700	109326
590.716	107287
590.753	104626
590.787	101358
590.806	100723
590.859	97190
590.859	97610
590.912	94187
590.930	92608
590.965	92751
591.001	92038
591.018	91697
591.071	89353
591.072	88892
591.124	88047
591.143	87197
591.177	86899
591.214	85695
591.230	85809
591.283	84837
591.285	84374
591.336	84130
591.356	83553
591.389	83337
591.427	82001
591.442	81232
591.495	77002
591.498	76304
591.547	76288
591.569	75720
591.600	74583
591.640	72160
591.653	72568
591.706	72909
591.711	72565
591.759	71816
591.782	70922
591.811	71482
591.853	71391
591.864	71821
591.917	72195
591.924	71888
591.969	71620
591.995	70869
592.022	70875
592.066	69942
592.075	70207
592.127	69710
592.137	69258
592.180	67743
592.208	66203
592.233	67167
592.279	68025
592.285	68253
592.338	67274
592.350	66711
592.390	65939
592.421	64781
592.443	65245
592.491	65211
592.495	65548
592.548	65615
592.562	65302
592.600	65390
592.633	64853
592.653	64754
592.704	63283
592.705	63644
592.775	63221
592.846	63967
592.916	66170
592.987	68850
593.058	64038
593.128	60001
593.199	61250
593.270	60346
593.341	60044
593.411	60259
593.482	61357
593.553	59976
593.623	59569
593.694	57509
593.764	56706
593.835	57624
593.906	57909
593.976	57224
594.047	55971
594.117	57875
594.188	56554
594.258	56590
594.329	55267
594.399	55887
594.470	55443
594.540	56749
594.611	56632
594.681	55151
594.751	54583
594.822	56364
594.892	56808
594.963	54785
595.033	56982
595.103	56372
595.174	55667
595.244	58098
595.314	57929
595.384	55743
595.455	56209
595.525	56696
595.595	57698
595.665	58504
595.736	56249
595.806	56105
595.876	56049
595.946	55347
596.016	55926
596.087	57630
596.157	56344
596.227	57016
596.297	58949
596.367	59008
596.437	60558
596.507	60470
596.577	60093
596.647	61396
596.717	62531
596.787	63074
596.857	61614
596.927	63260
596.997	62858
597.067	66083
597.137	72274
597.207	67067
597.277	63976
597.347	62353
597.417	62746
597.487	65848
597.557	65384
597.626	65225
597.696	65244
597.766	64336
597.836	61272
597.906	60730
597.975	60155
598.045	59557
598.115	60774
598.185	63840
598.254	67122
598.324	72533
598.394	72407
598.464	72955
598.533	68897
598.603	66729
598.672	66611
598.742	64887
598.812	65140
598.881	65449
598.951	64464
599.020	64430
599.090	65798
599.159	68173
599.229	66421
599.299	64266
599.368	65476
599.437	66202
599.507	63856
599.576	63033
599.646	69187
599.715	69853
599.785	62904
599.854	60221
599.924	59406
599.993	60939
600.062	60577
600.132	61562
600.201	63647
600.270	72576
600.340	73452
600.409	69660
600.478	70010
600.547	70264
600.617	68066
600.686	63387
600.755	61898
600.824	63310
600.894	60288
600.963	57097
601.032	57391
601.101	57459
601.170	57000
601.239	57717
601.308	57300
601.378	57990
601.447	57480
601.516	57833
601.585	61033
601.654	63152
601.723	60111
601.792	61997
601.861	68359
601.930	79081
601.999	74259
602.068	66030
602.137	67443
602.206	67497
602.275	68709
602.343	75036
602.412	74956
602.481	68091
602.550	66736
602.619	67185
602.688	69912
602.756	67226
602.825	66710
602.894	68052
602.963	65902
603.032	67443
603.100	67658
603.169	66530
603.238	68889
603.307	65638
603.375	67350
603.444	69154
603.513	67525
603.581	70589
603.650	70383
603.719	64400
603.787	65506
603.856	66181
603.924	68406
603.993	69654
604.061	70253
604.130	72723
604.198	75038
604.267	73764
604.335	74248
604.404	75262
604.472	77015
604.541	75101
604.609	77305
604.678	79258
604.746	79061
604.815	82242
604.883	80487
604.951	80409
605.020	80090
605.088	77919
605.156	77466
605.225	77551
605.293	77624
605.361	78004
605.429	78225
605.498	81072
605.566	83651
605.634	83843
605.702	84391
605.771	83989
605.839	85910
605.907	82188
605.975	82598
606.043	81075
606.111	80560
606.180	85979
606.248	93165
606.316	95147
606.384	83376
606.452	84656
606.520	97649
606.588	79226
606.656	73866
606.724	72009
606.792	68784
606.860	64778
606.928	59257
606.996	58978
607.064	57954
607.132	58976
607.200	62154
607.267	63030
607.335	63812
607.403	65453
607.471	62756
607.539	63099
607.607	62701
607.674	58913
607.742	60219
607.810	61435
607.878	59902
607.946	58565
608.013	60511
608.081	61032
608.149	60821
608.216	62614
608.284	64987
608.352	63902
608.419	61513
608.487	64286
608.555	60133
608.622	63047
608.690	65235
608.757	71080
608.825	71127
608.893	70445
608.960	69691
609.028	66563
609.095	66743
609.163	64787
609.230	59905
609.298	57464
609.365	59076
609.432	63720
609.500	66965
609.567	75104
609.635	83623
609.702	84881
609.769	80110
609.837	68245
609.904	61242
609.971	62473
610.039	70446
610.106	89238
610.173	164914
610.241	359301
610.308	240817
610.375	115326
610.442	70760
610.509	62994
610.577	62659
610.644	63424
610.711	65451
610.778	67099
610.845	69860
610.912	73865
610.980	83770
611.047	106574
611.114	82382
611.181	70484
611.248	67451
611.315	72146
611.382	70606
611.449	73581
611.516	75484
611.583	74158
611.650	74234
611.717	75557
611.784	76074
611.851	79546
611.918	86860
611.984	98767
612.051	142566
612.118	292992
612.185	721710
612.252	409628
612.319	112439
612.386	94608
612.452	86928
612.519	83022
612.586	80682
612.653	81804
612.719	84826
612.786	81746
612.853	75991
612.919	74100
612.986	76999
613.053	72652
613.120	68966
613.186	66357
613.253	69571
613.319	68316
613.386	68532
613.453	71019
613.519	76959
613.586	97464
613.652	127274
613.719	106858
613.785	92356
613.852	71770
613.918	71509
613.985	79611
614.051	104323
614.118	174278
614.184	158851
614.250	76808
614.317	72190
614.383	69996
614.449	70656
614.516	70833
614.582	70451
614.648	68044
614.715	70276
614.781	67688
614.847	68274
614.914	66938
614.980	66204
615.046	67176
615.112	69440
615.179	71043
615.245	74269
615.311	83630
615.377	116540
615.443	119495
615.509	82818
615.575	74049
615.642	73917
615.708	76021
615.774	80767
615.840	85395
615.906	99747
615.972	146269
616.038	263942
616.104	450436
616.170	914274
616.236	696041
616.302	158211
616.368	114546
616.434	88663
616.500	84724
616.565	89815
616.631	105397
616.697	86722
616.763	90700
616.829	130076
616.895	216408
616.961	199633
617.026	96261
617.092	71115
617.158	72399
617.224	67659
617.289	66354
617.355	61881
617.421	60764
617.487	62938
617.552	59641
617.618	58636
617.684	58651
617.749	60860
617.815	58470
617.880	56837
617.946	58077
618.012	60856
618.077	62012
618.143	57861
618.208	59353
618.274	61628
618.339	63178
618.405	53676
618.470	56283
618.536	55174
618.601	55358
618.667	50533
618.732	50925
618.798	51601
618.863	51101
618.928	50779
618.994	53300
619.059	61463
619.124	89207
619.190	62596
619.255	49194
619.320	48039
619.386	47989
619.451	47419
619.516	47619
619.581	48079
619.647	49995
619.712	49439
619.777	47597
619.842	48050
619.907	50465
619.972	51613
620.038	50132
620.103	48087
620.168	47491
620.233	48074
620.298	47498
620.363	48895
620.428	49897
620.493	49713
620.558	49986
620.623	50845
620.688	50425
620.753	49799
620.818	51779
620.883	50718
620.948	51624
621.013	50121
621.078	49876
621.143	49553
621.207	54740
621.272	53048
621.337	54352
621.402	49761
621.467	49746
621.532	49777
621.596	50074
621.661	50487
621.726	49199
621.791	49805
621.855	55635
621.920	58424
621.985	51405
622.049	52397
622.114	50590
622.179	50896
622.243	52484
622.308	52544
622.373	55239
622.437	55137
622.502	51552
622.566	51698
622.631	49831
622.695	53863
622.760	53761
622.824	54862
622.889	57748
622.953	66242
623.018	98025
623.082	89566
623.147	57188
623.211	58300
623.276	57468
623.340	52536
623.404	52210
623.469	50953
623.533	52060
623.597	50674
623.662	51063
623.726	47261
623.790	46553
623.854	45804
623.919	47870
623.983	48308
624.047	50252
624.111	48312
624.176	48847
624.240	49764
624.304	52961
624.368	48932
624.432	49363
624.496	51065
624.560	60218
624.625	63942
624.689	52156
624.753	52249
624.817	50044
624.881	48084
624.945	47072
625.009	45895
625.073	48632
625.137	52964
625.201	72849
625.265	68764
625.329	50131
625.393	53728
625.456	50364
625.520	49211
625.584	52083
625.648	53115
625.712	50199
625.776	52384
625.839	51715
625.903	44095
625.967	41404
626.031	46776
626.095	49593
626.158	45504
626.222	39040
626.286	39481
626.349	38381
626.413	38846
626.477	45070
626.540	38231
626.604	35842
626.668	37263
626.731	36039
626.795	36680
626.858	35702
626.922	35817
626.986	38849
627.049	35832
627.113	36806
627.176	36318
627.240	35248
627.303	34813
627.366	34896
627.430	36134
627.493	34910
627.557	33439
627.620	36202
627.684	35305
627.747	36703
627.810	32507
627.874	33063
627.937	31461
628.000	34982
628.064	35464
628.127	30242
628.190	31259
628.253	30411
628.317	29623
628.380	29823
628.443	28563
628.506	29639
628.569	29386
628.632	26908
628.696	28504
628.759	27530
628.822	27763
628.885	27979
628.948	27430
629.011	29330
629.074	28516
629.137	26584
629.200	26342
629.263	27862
629.326	25447
629.389	26843
629.452	26364
629.515	25385
629.578	26116
629.641	28223
629.704	28176
629.767	31036
629.830	27803
629.892	27108
629.955	25902
630.018	31099
630.081	33486
630.144	41846
630.207	31068
630.269	29731
630.332	25631
630.395	25911
630.458	26168
630.520	24460
630.583	26035
630.646	24800
630.708	24858
630.771	23643
630.834	26123
630.896	24976
630.959	25640
631.021	25077
631.084	24990
631.146	24676
631.209	25409
631.272	23766
631.334	24781
631.397	24770
631.459	26247
631.522	28612
631.584	25374
631.646	26939
631.709	29632
631.771	38273
631.834	29240
631.896	26551
631.958	24053
632.021	24994
632.083	23639
632.145	25114
632.208	26728
632.270	27356
632.332	22674
632.395	23104
632.457	24195
632.519	24154
632.581	25129
632.643	22738
632.706	23472
632.768	21715
632.830	24054
632.892	23165
632.954	23041
633.016	23162
633.078	24045
633.141	22785
633.203	22772
633.265	23473
633.327	23567
633.389	24230
633.451	30023
633.513	34511
633.575	28353
633.637	31015
633.698	29629
633.760	24462
633.822	24812
633.884	24642
633.946	24960
634.008	24407
634.070	28149
634.132	34570
634.193	27701
634.255	26281
634.317	26277
634.379	28274
634.441	24335
634.502	23612
634.564	23661
634.626	22618
634.687	22191
634.749	21166
634.811	22545
634.873	20958
634.934	21044
634.996	22378
635.057	20803
635.119	20915
635.181	21366
635.242	23961
635.304	19629
635.365	24517
635.427	21786
635.488	23610
635.550	20607
635.611	22056
635.673	18532
635.734	22889
635.796	23275
635.857	26447
635.918	22326
635.980	24651
636.041	23580
636.102	25295
636.164	24880
636.225	25009
636.286	21511
636.348	23207
636.409	21852
636.470	20433
636.531	20751
636.593	20060
636.654	21133
636.715	20599
636.776	19726
636.838	19251
636.899	19921
636.960	18954
637.021	18953
637.082	19396
637.143	19370
637.204	18779
637.265	18204
637.326	19010
637.387	19870
637.448	18197
637.509	19448
637.570	19767
637.631	19605
637.692	18443
637.753	16978
637.814	19400
637.875	18367
637.936	19424
637.997	18735
638.058	19872
638.119	19145
638.179	18068
638.240	17459
638.301	17810
638.362	17117
638.423	16907
638.483	18419
638.544	17188
638.605	17543
638.666	17528
638.726	17464
638.787	17995
638.848	17735
638.908	17195
638.969	17607
639.030	17407
639.090	16742
639.151	18295
639.211	21901
639.272	29630
639.332	50340
639.393	25541
639.453	18016
639.514	17201
639.574	17006
639.635	16591
639.695	17798
639.756	17102
639.816	21006
639.877	25281
639.937	41309
639.997	51731
640.058	19265
640.118	15416
640.178	17934
640.239	15773
640.299	16713
640.359	15800
640.420	16558
640.480	16848
640.540	16523
640.600	18316
640.661	18256
640.721	19344
640.781	25465
640.841	19297
640.901	17504
640.961	17387
641.021	18502
641.082	22718
641.142	32624
641.202	21623
641.262	14618
641.322	16075
641.382	14233
641.442	16175
641.502	15606
641.562	16170
641.622	14560
641.682	15226
641.742	16218
641.802	16387
641.861	17134
641.921	18036
641.981	20591
642.041	20471
642.101	28552
642.161	18261
642.221	14905
642.280	13600
642.340	14590
642.400	12880
642.460	15260
642.519	14301
642.579	15157
642.639	16423
642.698	11879
642.758	17083
642.818	16130
642.877	15307
642.937	17256
642.997	22676
643.056	35495
643.116	17813
643.175	17137
643.235	15208
643.294	15061
643.354	15957
643.414	16915
643.473	18514
643.532	19279
643.592	24114
643.651	34560
643.711	57283
643.770	108981
643.830	267835
643.889	531240
643.948	108741
644.008	26889
644.067	20024
644.126	16666
644.186	15994
644.245	16318
644.304	13688
644.363	14971
644.423	12989
644.482	14024
644.541	15739
644.600	13231
644.659	16608
644.719	17330
644.778	21903
644.837	32399
644.896	60535
644.955	127785
645.014	45814
645.073	23252
645.132	16735
645.191	15250
645.250	14310
645.309	15677
645.368	14692
645.427	17302
645.486	21155
645.545	30639
645.604	15552
645.663	14568
645.722	13767
645.781	14851
645.840	15786
645.898	17671
645.957	22556
646.016	31260
646.075	53566
646.134	99122
646.192	270873
646.251	363185
646.310	50251
646.369	20276
646.427	19288
646.486	15009
646.545	14588
646.603	13861
646.662	14482
646.721	13975
646.779	13288
646.838	13016
646.896	15646
646.955	17168
647.014	23164
647.072	34904
647.131	82650
647.189	37735
647.248	14177
647.306	13687
647.365	13359
647.423	10305
647.481	14021
647.540	11768
647.598	11785
647.657	10932
647.715	12365
647.773	10679
647.832	11292
647.890	10202
647.948	10991
648.007	11594
648.065	10821
648.123	12955
648.181	16231
648.240	19651
648.298	15830
648.356	10667
648.414	11396
648.472	11336
648.531	11401
648.589	10766
648.647	10534
648.705	9875
648.763	10930
648.821	11140
648.879	11366
648.937	11688
648.995	12921
649.053	14291
649.111	18908
649.169	26700
649.227	43224
649.285	85267
649.343	231243
649.401	108761
649.459	73133
649.516	45921
649.574	30283
649.632	63361
649.690	67689
649.748	26971
649.806	37638
649.863	59739
649.921	65358
649.979	37763
650.037	13144
650.094	10153
650.152	11645
650.210	10261
650.268	11831
650.325	12106
650.383	11472
650.440	9314
650.498	10785
650.556	10348
650.613	9677
650.671	10014
650.728	9578
650.786	10213
650.843	10868
650.901	8795
650.958	10412
651.016	9967
651.073	10271
651.131	8923
651.188	8805
651.246	8326
651.303	8529
651.360	9616
651.418	8894
651.475	9080
651.532	8570
651.590	8628
651.647	8207
651.704	8470
651.762	8835
651.819	10141
651.876	9067
651.933	7964
651.990	9766
652.048	8109
652.105	8100
652.162	8948
652.219	8781
652.276	9534
652.333	10102
652.390	8368
652.448	9734
652.505	9782
652.562	10740
652.619	12722
652.676	22506
652.733	21924
652.790	9416
652.847	8143
652.904	9995
652.961	8101
653.017	8241
653.074	8767
653.131	8553
653.188	7740
653.245	8295
653.302	9159
653.359	8362
653.415	8563
653.472	7914
653.529	9565
653.586	7636
653.642	8688
653.699	9306
653.756	8193
653.813	8154
653.869	8103
653.926	7938
653.983	7895
654.039	9154
654.096	8138
654.152	8813
654.209	7526
654.266	8466
654.322	7779
654.379	7974
654.435	8698
654.492	10222
654.548	12493
654.605	18416
654.661	10603
654.717	8701
654.774	8820
654.830	8751
654.887	8727
654.943	7677
655.000	9030
655.056	8810
655.112	8506
655.168	6745
655.225	7972
655.281	7689
655.337	7515
655.394	8524
655.450	8069
655.506	7290
655.562	7729
655.618	8740
655.675	7363
655.731	7493
655.787	6836
655.843	8316
655.899	7070
655.955	7898
656.011	7915
656.067	6492
656.123	7917
656.179	7607
656.235	8624
656.291	6459
656.347	8566
656.403	7171
656.459	7069
656.515	7079
656.571	7829
656.627	7748
656.683	7917
656.739	7843
656.795	8332
656.850	8905
656.906	9924
656.962	9582
657.018	7267
657.074	7593
657.129	8716
657.185	9604
657.241	13160
657.297	9314
657.352	8478
657.408	8542
657.464	9175
657.519	7104
657.575	6968
657.630	7685
657.686	7853
657.742	7263
657.797	7097
657.853	7845
657.908	8427
657.964	6528
658.019	6851
658.075	7416
658.130	7788
658.186	6674
658.241	8291
658.297	6249
658.352	6825
658.407	7305
658.463	6626
658.518	7604
658.573	8293
658.629	6808
658.684	7850
658.739	7504
658.795	7327
658.850	7156
658.905	6822
658.960	7913
659.016	6711
659.071	8152
659.126	8709
659.181	9619
659.236	18161
659.291	18337
659.346	11207
659.401	10817
659.457	13426
659.512	18733
659.567	9766
659.622	8178
659.677	7404
659.732	6701
659.787	7781
659.842	7010
659.897	7069
659.952	7191
660.007	6980
660.061	7098
660.116	6521
660.171	7194
660.226	7686
660.281	7536
660.336	6591
660.391	7136
660.445	7028
660.500	6614
660.555	6463
660.610	7146
660.664	7980
660.719	6424
660.774	7912
660.828	7426
660.883	7570
660.938	7611
660.992	5470
661.047	8482
661.101	5929
661.156	5940
661.211	5877
661.265	6673
661.320	6847
661.374	6808
661.429	6237
661.483	6747
661.538	6896
661.592	6890
661.647	6845
661.701	7137
661.755	7590
661.810	6830
661.864	6005
661.919	6225
661.973	6509
662.027	6328
662.081	5773
662.136	5993
662.190	7061
662.244	6082
662.299	6397
662.353	6634
662.407	6734
662.461	6018
662.515	6922
662.569	5319
662.624	6749
662.678	5906
662.732	6325
662.786	5987
662.840	6237
662.894	5631
662.948	5945
663.002	5917
663.056	6141
663.110	6347
663.164	6384
663.218	7281
663.272	6555
663.326	7186
663.380	7020
663.434	7629
663.488	5665
663.542	6019
663.595	6343
663.649	6087
663.703	6187
663.757	5743
663.811	5654
663.864	5852
663.918	5819
663.972	5970
664.026	6138
664.079	6308
664.133	6135
664.187	6514
664.240	5887
664.294	5942
664.348	5520
664.401	6856
664.455	6231
664.508	5786
664.562	6152
664.615	5612
664.669	5070
664.722	6395
664.776	5551
664.829	6294
664.883	5809
664.936	5086
664.990	5034
665.043	7233
665.097	5201
665.150	6624
665.203	5915
665.257	5721
665.310	6110
665.363	6184
665.417	5702
665.470	6055
665.523	5505
665.576	5237
665.630	6818
665.683	5768
665.736	5857
665.789	5543
665.842	5077
665.895	5743
665.949	6318
666.002	6086
666.055	5531
666.108	6035
666.161	5693
666.214	6724
666.267	7168
666.320	8910
666.373	6423
666.426	5840
666.479	5025
666.532	5341
666.585	6278
666.638	5519
666.691	5450
666.744	6797
666.796	5552
666.849	5675
666.902	5563
666.955	6119
667.008	5098
667.060	5198
667.113	5822
667.166	5855
667.219	5895
667.271	6379
667.324	6286
667.377	6989
667.430	6822
667.482	10385
667.535	8200
667.587	6834
667.640	8312
667.693	8682
667.745	18171
667.798	16336
667.850	5822
667.903	6105
667.955	5440
668.008	5771
668.060	6171
668.113	5847
668.165	6060
668.218	5179
668.270	5322
668.322	5161
668.375	4992
668.427	5857
668.479	4580
668.532	5632
668.584	5816
668.636	4847
668.689	5570
668.741	4956
668.793	5286
668.845	5126
668.898	5504
668.950	5248
669.002	4763
669.054	5354
669.106	5029
669.158	6347
669.211	5995
669.263	5819
669.315	8538
669.367	9826
669.419	5330
669.471	7547
669.523	6590
669.575	8413
669.627	7226
669.679	6048
669.731	5566
669.783	6409
669.835	6951
669.886	6136
669.938	6076
669.990	5672
670.042	5117
670.094	6580
670.146	6022
670.197	6366
670.249	7818
670.301	8642
670.353	11402
670.404	14486
670.456	20904
670.508	32817
670.560	57824
670.611	100471
670.663	179617
670.715	448911
670.766	605436
670.818	145700
670.869	30332
670.921	18569
670.972	13692
671.024	11344
671.075	10102
671.127	8039
671.178	7700
671.230	7038
671.281	6775
671.333	7131
671.384	5901
671.436	6154
671.487	7685
671.538	7346
671.590	9021
671.641	13103
671.692	20747
671.744	35207
671.795	19233
671.846	8493
671.897	6112
671.949	5719
672.000	5494
672.051	5005
672.102	5661
672.153	4806
672.204	4756
672.256	5947
672.307	4793
672.358	5108
672.409	4601
672.460	4621
672.511	4376
672.562	4433
672.613	4763
672.664	4201
672.715	4486
672.766	4780
672.817	4336
672.868	3340
672.919	4391
672.970	4084
673.021	3836
673.071	4306
673.122	4838
673.173	4715
673.224	3715
673.275	4064
673.326	4058
673.376	4578
673.427	3142
673.478	4442
673.528	4387
673.579	3826
673.630	4379
673.680	4778
673.731	3797
673.782	4257
673.832	3420
673.883	4509
673.934	3740
673.984	3888
674.035	3474
674.085	3754
674.136	3249
674.186	4419
674.237	2703
674.287	4495
674.338	3626
674.388	3662
674.438	3990
674.489	4561
674.539	4041
674.589	3112
674.640	2800
674.690	4190
674.740	4036
674.791	4233
674.841	4342
674.891	4478
674.942	4267
674.992	4590
675.042	3710
675.092	3932
675.142	2426
675.193	3108
675.243	3394
675.293	4043
675.343	2984
675.393	2826
675.443	3880
675.493	3055
675.543	3490
675.593	3237
675.643	3964
675.693	4092
675.743	3310
675.793	3657
675.843	3113
675.893	3829
675.943	3641
675.993	3754
676.043	3603
676.093	4008
676.142	4019
676.192	3747
676.242	4045
676.292	2876
676.341	2259
676.391	3159
676.441	3821
676.491	3530
676.540	2716
676.590	3473
676.640	3221
676.689	2485
676.739	2586
676.789	3660
676.838	3210
676.888	2561
676.937	3192
676.987	2587
677.037	2863
677.086	2305
677.136	2723
677.185	3173
677.235	3538
677.284	3296
677.333	3134
677.383	2227
677.432	3449
677.482	3596
677.531	2472
677.580	2945
677.630	3434
677.679	3460
677.728	2754
677.778	3681
677.827	2492
677.876	3353
677.925	2526
677.975	3009
678.024	3113
678.073	2723
678.122	2793
678.171	3171
678.220	2405
678.269	3154
678.319	2782
678.368	3539
678.417	2796
678.466	3123
678.515	3440
678.564	3282
678.613	2780
678.662	3050
678.711	2861
678.760	2652
678.809	3316
678.857	2995
678.906	3867
678.955	2679
679.004	3066
679.053	2601
679.102	3399
679.151	2581
679.199	3367
679.248	3174
679.297	2253
679.346	3465
679.394	1880
679.443	2208
679.492	2407
679.540	2999
679.589	2356
679.638	2210
679.686	2152
679.735	2660
679.784	2714
679.832	2514
679.881	2011
679.929	2306
679.978	2408
680.026	2339
680.075	3032
680.123	2738
680.172	2567
680.220	2417
680.268	2599
680.317	2379
680.365	2411
680.414	2486
680.462	2487
680.510	1857
680.559	2511
680.607	2851
680.655	2759
680.703	2575
680.752	1672
680.800	2008
680.848	2157
680.896	2152
680.945	2408
680.993	1668
681.041	2853
681.089	2670
681.137	2973
681.185	2272
681.233	1419
681.258	1656
681.281	1851
681.329	2031
681.377	2139
681.380	2213
681.425	3040
681.473	2364
681.502	3056
681.521	3485
681.569	2202
681.617	2563
681.624	2651
681.665	3031
681.713	2983
681.745	3242
681.761	3314
681.809	2942
681.857	3067
681.867	3063
681.904	2966
681.952	2923
681.989	2828
682.000	2757
682.048	2991
682.096	3049
682.111	3189
682.143	3416
682.191	3422
682.233	4254
682.239	4351
682.286	3721
682.334	3722
682.354	3494
682.382	3116
682.430	3337
682.476	3444
682.477	3421
682.525	3948
682.572	3387
682.598	3195
682.620	2985
682.667	4089
682.715	4319
682.720	4316
682.763	4036
682.810	4221
682.841	4196
682.857	4168
682.905	4234
682.952	4162
682.963	4242
683.000	4386
683.047	4436
683.085	5612
683.095	5894
683.142	4816
683.190	4349
683.206	4291
683.237	4174
683.284	4860
683.328	4220
683.332	4140
683.379	4894
683.426	4915
683.449	5004
683.473	5066
683.521	4358
683.568	5468
683.571	5458
683.615	4983
683.662	6253
683.693	5354
683.709	4835
683.757	5437
683.804	5844
683.814	5785
683.851	5449
683.898	5759
683.936	5618
683.945	5583
683.992	5902
684.039	5527
684.057	5875
684.086	6376
684.133	5985
684.179	5761
684.180	5734
684.227	6660
684.274	5988
684.300	6213
684.321	6361
684.368	5961
684.415	7039
684.422	6859
684.462	5682
684.509	6448
684.543	6450
684.556	6436
684.603	6084
684.649	6437
684.665	6260
684.696	5912
684.743	6737
684.786	7318
684.790	7333
684.837	5962
684.883	6786
684.908	6816
684.930	6888
684.977	7091
685.023	6709
685.029	6806
685.070	7477
685.117	6477
685.150	6709
685.164	6769
685.210	7095
685.257	7531
685.272	7611
685.303	7708
685.350	7207
685.393	7750
685.396	7785
685.443	8161
685.490	8585
685.514	7983
685.536	7405
685.583	7724
685.629	7978
685.636	7911
685.675	7405
685.722	8052
685.757	8042
685.768	8054
685.815	8050
685.861	7644
685.878	7761
685.908	7953
685.954	7815
686.000	8581
686.000	8584
686.047	7818
686.093	8125
686.121	8295
686.139	8438
686.185	7958
686.232	8083
686.242	8222
686.278	8620
686.324	8338
686.363	8122
686.370	8086
686.416	8385
686.463	9152
686.484	8817
686.509	8418
686.555	9073
686.601	8633
686.606	8684
686.647	9006
686.693	8688
686.727	8456
686.739	8398
686.785	9016
686.831	8779
686.848	8854
686.877	8953
686.923	8855
686.969	8798
686.969	8797
687.015	9342
687.061	9422
687.090	9307
687.107	9169
687.153	9202
687.199	9519
687.211	9290
687.245	8832
687.291	9413
687.332	9238
687.336	9221
687.382	10061
687.428	9392
687.453	9924
687.474	10282
687.520	10162
687.565	9731
687.574	9822
687.611	10134
687.657	9755
687.695	9644
687.702	9728
687.748	10623
687.794	11281
687.816	11316
687.839	10897
687.885	10648
687.931	10145
687.937	10139
687.976	10417
688.022	10215
688.058	10435
688.067	10530
688.113	9929
688.158	10028
688.179	10154
688.204	10205
688.249	10490
688.295	10422
688.300	10415
688.340	10600
688.386	10938
688.421	10761
688.431	10674
688.477	11130
688.522	10880
688.542	10842
688.567	10925
688.613	10686
688.658	11041
688.663	11030
688.703	10853
688.749	11322
688.784	11095
688.794	11026
688.839	10894
688.884	10963
688.905	11034
688.930	11323
688.975	11285
689.020	11794
689.026	11768
689.065	11342
689.110	11298
689.146	11294
689.155	11373
689.201	11465
689.246	11616
689.267	11630
689.291	11515
689.336	11938
689.381	11666
689.388	11645
689.426	11760
689.471	11705
689.509	11971
689.516	12023
689.561	12260
689.606	11851
689.630	11907
689.651	11973
689.696	11790
689.741	12477
689.750	12438
689.785	12337
689.830	12163
689.871	12176
689.875	12198
689.920	11742
689.965	11976
689.992	12177
690.010	12280
690.054	11962
690.099	12030
690.112	12001
690.144	12112
690.189	11740
690.233	12603
690.233	12622
690.278	12357
690.323	12509
690.354	12541
690.367	12687
690.412	12685
690.457	13145
690.474	13315
690.501	13338
690.546	13063
690.590	13010
690.595	12953
690.635	12762
690.680	12796
690.716	12694
690.724	12719
690.769	12818
690.813	13329
690.836	13367
690.857	13675
690.902	14058
690.946	15419
690.957	15611
690.991	16729
691.035	18349
691.077	20202
691.080	20219
691.124	18058
691.168	17065
691.198	15883
691.213	15459
691.257	15109
691.301	14596
691.318	14313
691.346	14201
691.390	13824
691.434	14133
691.439	14047
691.478	13849
691.522	14583
691.559	14483
691.567	14483
691.611	15133
691.655	15130
691.680	15141
691.699	15042
691.743	14701
691.787	14652
691.800	14483
691.831	14143
691.875	14213
691.919	14117
691.921	14071
691.964	13852
692.008	14370
692.041	14615
692.052	14717
692.096	14873
692.139	15325
692.162	15400
692.183	15287
692.227	15178
692.271	14744
692.282	14708
692.315	14889
692.359	14615
692.402	14860
692.403	14891
692.447	14990
692.490	15212
692.523	15293
692.534	15243
692.578	15099
692.622	14985
692.643	14877
692.666	14852
692.709	14929
692.753	14492
692.763	14445
692.797	14653
692.840	14945
692.884	15036
692.884	15064
692.928	14836
692.971	15085
693.004	14954
693.015	14975
693.059	14939
693.102	15243
693.124	15364
693.146	15625
693.189	15613
693.233	15916
693.245	15986
693.276	15898
693.320	15573
693.363	15298
693.365	15255
693.407	15601
693.450	16010
693.485	16171
693.493	16220
693.537	16803
693.580	16766
693.605	17078
693.624	17726
693.667	18969
693.710	20130
693.725	20513
693.753	22634
693.797	26803
693.840	30595
693.845	30857
693.883	28246
693.926	24637
693.966	21981
693.970	21828
694.013	20405
694.056	18682
694.086	17446
694.099	17396
694.142	17160
694.185	16886
694.206	16765
694.229	16952
694.272	17474
694.315	17790
694.326	17827
694.358	17915
694.401	17898
694.444	18131
694.446	18100
694.487	17948
694.530	17296
694.566	17236
694.573	17270
694.616	16822
694.659	16485
694.686	16311
694.702	16497
694.745	16852
694.787	17319
694.806	17348
694.830	17259
694.873	17440
694.916	17388
694.926	17329
694.959	17313
695.002	17251
695.044	17302
695.046	17264
695.087	17340
695.130	17347
695.166	17322
695.172	17399
695.215	17544
695.258	17655
695.286	17777
695.301	17774
695.343	17707
695.386	17679
695.406	17453
695.428	17507
695.471	17811
695.514	18197
695.526	18193
695.556	18095
695.599	18059
695.641	18027
695.646	17990
695.684	18244
695.726	18202
695.766	18302
695.769	18335
695.811	18141
695.854	17815
695.886	17696
695.896	17863
695.938	18258
695.981	18728
696.005	18966
696.023	18974
696.065	18696
696.108	18681
696.125	18572
696.150	18725
696.192	18858
696.235	18996
696.245	19017
696.277	19034
696.319	18783
696.361	18706
696.365	18649
696.404	18859
696.446	19069
696.485	19264
696.488	19315
696.530	19184
696.572	19208
696.604	19167
696.614	19221
696.656	19238
696.698	19254
696.724	19178
696.740	19227
696.783	19201
696.825	19415
696.844	19339
696.867	19168
696.909	18921
696.951	18590
696.964	18472
696.992	18745
697.034	18865
697.076	19289
697.083	19262
697.118	19361
697.160	19593
697.202	19755
697.203	19712
697.244	19616
697.286	19463
697.323	19094
697.327	19151
697.369	19333
697.411	19536
697.442	19644
697.453	19684
697.494	19557
697.536	19519
697.562	19426
697.578	19545
697.620	19792
697.661	19958
697.682	20004
697.703	20080
697.744	20117
697.786	20265
697.801	20229
697.828	20515
697.869	20789
697.911	21106
697.921	21160
697.952	20758
697.994	20056
698.035	19361
698.040	19231
698.077	19570
698.118	19879
698.160	20141
698.160	20089
698.201	20033
698.243	19893
698.279	19654
698.284	19735
698.325	20073
698.367	20412
698.399	20589
698.408	20637
698.449	20656
698.491	20662
698.518	20594
698.532	20625
698.573	20570
698.614	20522
698.638	20437
698.656	20527
698.697	20615
698.738	20698
698.757	20692
698.779	20736
698.820	20695
698.862	20673
698.877	20610
698.903	20761
698.944	20915
698.985	21065
698.996	21054
699.026	21115
699.067	21119
699.116	21071
699.235	21039
699.354	21419
699.474	19645
699.593	19633
699.713	21106
699.832	20605
699.951	20410
700.070	20581
700.190	19418
700.309	20911
700.428	19080
700.547	20314
700.667	20105
700.786	20199
700.905	19837
701.024	19411
701.143	20180
701.262	20509
701.381	19090
701.500	20088
701.619	20785
701.738	19893
701.857	19667
701.976	18956
702.095	19412
702.214	20336
702.333	19627
702.452	19430
702.571	19835
702.690	18851
702.809	18697
702.928	19281
703.047	18693
703.165	18874
703.284	18994
703.403	18995
703.522	18725
703.640	19520
703.759	19417
703.878	18982
703.997	18609
704.115	19014
704.234	18458
704.353	18415
704.471	18923
704.590	18657
704.708	17969
704.827	17957
704.946	18187
705.064	17804
705.183	18249
705.301	17812
705.420	18807
705.538	19182
705.656	19128
705.775	19689
705.893	28727
706.012	29508
706.130	18115
706.249	18370
706.367	17134
706.485	17847
706.604	16903
706.722	18197
706.840	18482
706.958	19658
707.077	17691
707.195	17897
707.313	17056
707.431	17308
707.549	17112
707.668	17263
707.786	16994
707.904	16411
708.022	16591
708.140	16651
708.258	17288
708.376	16480
708.494	17143
708.612	17176
708.730	17136
708.848	16893
708.966	16446
709.084	17318
709.202	16673
709.320	16743
709.438	16605
709.556	16405
709.674	16122
709.791	16207
709.909	16760
710.027	16885
710.145	16543
710.263	15743
710.380	16082
710.498	16605
710.616	16570
710.733	15865
710.851	16017
710.969	15945
711.086	15290
711.204	15938
711.322	15060
711.439	15512
711.557	15958
711.674	15518
711.792	15670
711.909	16865
712.027	17077
712.144	15326
712.262	15641
712.379	14836
712.497	15717
712.614	14933
712.732	15746
712.849	16661
712.966	16243
713.084	15658
713.201	14827
713.318	15953
713.436	15316
713.553	15615
713.670	14885
713.787	14821
713.905	14823
714.022	14740
714.139	14844
714.256	15358
714.373	15910
714.490	19475
714.608	32461
714.725	101772
714.842	82894
714.959	17453
715.076	15355
715.193	14384
715.310	15154
715.427	14634
715.544	14362
715.661	15046
715.778	14424
715.895	13926
716.011	13958
716.128	13118
716.245	14252
716.362	15947
716.479	14384
716.596	14805
716.713	14111
716.829	13713
716.946	14058
717.063	13879
717.180	13299
717.296	14168
717.413	14239
717.530	13700
717.646	13235
717.763	13770
717.880	12815
717.996	13943
718.113	14048
718.229	14512
718.346	12750
718.462	13500
718.579	14532
718.695	19894
718.812	14788
718.928	13911
719.045	13562
719.161	12587
719.277	13704
719.394	13611
719.510	13337
719.626	13732
719.743	13632
719.859	14520
719.975	16658
720.092	33819
720.208	54065
720.324	16009
720.440	13441
720.557	13634
720.673	16426
720.789	14811
720.905	13217
721.021	12852
721.137	12606
721.253	12656
721.369	12058
721.486	12181
721.602	12350
721.718	11513
721.834	12579
721.950	13021
722.066	11420
722.181	12120
722.297	12621
722.413	12849
722.529	11880
722.645	12819
722.761	12297
722.877	11231
722.993	12366
723.108	12019
723.224	11847
723.340	11886
723.456	12661
723.571	12290
723.687	11503
723.803	12171
723.918	11850
724.034	12321
724.150	11390
724.265	11853
724.381	11442
724.497	11709
724.612	11071
724.728	11807
724.843	11292
724.959	11545
725.074	11694
725.190	11498
725.305	12134
725.421	11091
725.536	11033
725.651	11970
725.767	11190
725.882	11714
725.997	11712
726.113	11717
726.228	10767
726.343	11026
726.459	11334
726.574	11426
726.689	10483
726.804	11117
726.920	11367
727.035	11795
727.150	11028
727.265	10873
727.380	10475
727.495	11604
727.610	9957
727.725	11228
727.841	12993
727.956	17829
728.071	14671
728.186	11360
728.301	10365
728.416	11231
728.531	10998
728.645	9867
728.760	9719
728.875	11114
728.990	9831
729.105	11141
729.220	10665
729.335	11471
729.449	10067
729.564	10764
729.679	10469
729.794	9616
729.908	10376
730.023	10192
730.138	9408
730.253	10459
730.367	10043
730.482	10924
730.596	9839
730.711	10651
730.826	10738
730.940	10950
731.055	11070
731.169	10422
731.284	10066
731.398	9914
731.513	10022
731.627	10622
731.742	10159
731.856	10914
731.970	10402
732.085	10649
732.199	11082
732.313	11515
732.428	16888
732.542	34861
732.656	20822
732.771	11191
732.885	10217
732.999	10678
733.113	10270
733.227	10766
733.342	10826
733.456	10315
733.570	9359
733.684	9988
733.798	9944
733.912	10184
734.026	9688
734.140	9946
734.254	9629
734.368	10340
734.482	10096
734.596	9920
734.710	9662
734.824	9781
734.938	9437
735.052	10317
735.166	10609
735.280	10713
735.393	9894
735.507	9754
735.621	10069
735.735	9623
735.849	10140
735.962	10379
736.076	8981
736.190	10190
736.303	9883
736.417	10463
736.531	9166
736.644	9600
736.758	8851
736.872	10064
736.985	9852
737.099	9155
737.212	8696
737.326	9795
737.439	10117
737.553	9115
737.666	9190
737.780	8988
737.893	9245
738.007	10051
738.120	9362
738.233	9791
738.347	10074
738.460	9908
738.573	10116
738.687	9670
738.800	9370
738.913	10644
739.026	8722
739.140	10213
739.253	9892
739.366	8586
739.479	8306
739.592	8376
739.705	9030
739.818	9649
739.932	8818
740.045	9117
740.158	8701
740.271	9893
740.384	8434
740.497	8689
740.610	8524
740.723	9392
740.836	8885
740.949	8858
741.062	9983
741.174	9470
741.287	8142
741.400	9476
741.513	8978
741.626	9369
741.739	8492
741.851	9008
741.964	8435
742.077	8774
742.189	8214
742.302	8603
742.415	8120
742.527	8595
742.640	8342
742.753	9045
742.865	8161
742.978	8782
743.090	8465
743.203	8620
743.316	8406
743.428	8530
743.541	8437
743.653	7875
743.766	7678
743.878	8303
743.990	7596
744.103	8789
744.215	8654
744.327	8090
744.440	9708
744.552	11724
744.664	8088
744.777	7268
744.889	8200
745.001	9603
745.113	7701
745.226	7481
745.338	7750
745.450	8120
745.562	7928
745.674	8561
745.786	7580
745.898	8015
746.010	8425
746.122	7873
746.234	8126
746.347	7846
746.459	8399
746.570	8445
746.682	8539
746.794	7420
746.906	7181
747.018	8012
747.130	7852
747.242	7992
747.354	7392
747.466	8425
747.577	7761
747.689	7731
747.801	7719
747.913	7693
748.024	7857
748.136	7223
748.248	7162
748.359	8047
748.471	7402
748.583	7165
748.694	7571
748.806	8451
748.918	7242
749.029	8707
749.141	8345
749.252	7097
749.364	8390
749.475	10657
749.587	8250
749.698	7745
749.809	7628
749.921	6909
750.032	6519
750.144	7239
750.255	6884
750.366	7218
750.478	6986
750.589	7652
750.700	7253
750.811	8440
750.923	8375
751.034	12627
751.145	10204
751.256	7345
751.367	6981
751.479	6732
751.590	6872
751.701	7161
751.812	6521
751.923	7164
752.034	6695
752.145	6169
752.256	6001
752.367	7699
752.478	7306
752.589	7169
752.700	6847
752.811	6573
752.922	6693
753.032	7122
753.143	7379
753.254	6258
753.365	7599
753.476	6842
753.586	7318
753.697	6990
753.808	6784
753.919	6630
754.029	6687
754.140	7434
754.251	5989
754.361	6552
754.472	6464
754.582	6574
754.693	7103
754.804	7820
754.914	6401
755.025	6802
755.135	6012
755.246	7821
755.356	6080
755.466	6587
755.577	7372
755.687	7591
755.798	5837
755.908	6583
756.018	6412
756.129	6833
756.239	6252
756.349	6710
756.460	5791
756.570	7000
756.680	5797
756.790	7251
756.900	6696
757.011	6433
757.121	7049
757.231	6284
757.341	6517
757.451	6947
757.561	5270
757.671	6270
757.781	5944
757.891	7347
758.001	7003
758.111	6609
758.221	7148
758.331	6973
758.441	6827
758.551	7406
758.661	6751
758.771	6900
758.880	5966
758.990	6260
759.100	6065
759.210	6508
759.320	6536
759.429	6736
759.539	6316
759.649	6170
759.758	6932
759.868	6632
759.978	6740
760.087	6373
760.197	7015
760.307	6999
760.416	7085
760.526	6581
760.635	7319
760.745	6710
760.854	6148
760.964	6490
761.073	6988
761.182	6327
761.292	6458
761.401	6923
761.511	6681
761.620	7554
761.729	7042
761.839	6319
761.948	6144
762.057	7498
762.166	6060
762.276	5882
762.385	7038
762.494	7307
762.603	6271
762.712	6753
762.822	6878
762.931	6804
763.040	6506
763.149	7171
763.258	6479
763.367	7475
763.476	7208
763.585	7415
763.694	7028
763.803	7903
763.912	7380
764.021	7440
764.130	7317
764.238	7938
764.347	7872
764.456	7648
764.565	8259
764.674	8300
764.783	8314
764.891	7937
765.000	8695
765.109	9307
765.217	9619
765.326	10733
765.435	13515
765.543	14827
765.652	15977
765.761	20501
765.869	27355
765.978	39512
766.086	66499
766.195	126775
766.303	292813
766.412	544012
766.520	423624
766.629	192602
766.737	85164
766.846	50137
766.954	33913
767.062	27096
767.171	21356
767.279	17518
767.387	14611
767.496	13563
767.604	12282
767.712	10988
767.820	10864
767.928	10326
768.037	9258
768.145	9930
768.253	9858
768.361	8605
768.469	8678
768.577	9496
768.685	10289
768.793	9503
768.901	10367
769.009	11117
769.117	10998
769.225	14299
769.333	19699
769.441	30218
769.549	50737
769.657	113189
769.765	307165
769.873	434909
769.981	205604
770.088	68021
770.196	35187
770.304	23570
770.412	18630
770.519	15456
770.627	12636
770.735	10655
770.842	10164
770.950	9760
771.058	8570
771.165	9099
771.273	8991
771.380	7278
771.488	8385
771.595	7520
771.703	7120
771.810	7824
771.918	6566
772.025	6564
772.133	7657
772.240	6760
772.348	7391
772.455	6670
772.562	5952
772.670	6136
772.777	6451
772.884	5951
772.991	6512
773.099	6673
773.206	5170
773.313	6112
773.420	6215
773.528	6215
773.635	6139
773.742	6880
773.849	6240
773.956	6145
774.063	6070
774.170	6157
774.277	5758
774.384	5858
774.491	5217
774.598	6436
774.705	5251
774.812	6071
774.919	6442
775.026	4883
775.133	6093
775.239	5927
775.346	5006
775.453	5734
775.560	5667
775.667	6250
775.773	4746
775.880	5729
775.987	5629
776.093	5639
776.200	4625
776.307	4342
776.413	5590
776.520	4555
776.627	5385
776.733	5182
776.840	4770
776.946	6186
777.053	5909
777.159	5158
777.266	4086
777.372	6854
777.478	6060
777.585	6019
777.691	4859
777.798	5255
777.904	6742
778.010	6860
778.117	5654
778.223	5134
778.329	4565
778.435	5679
778.542	5380
778.648	5807
778.754	4185
778.860	5116
778.966	4685
779.072	5184
779.178	4289
779.284	5405
779.391	4773
779.497	4078
779.603	6800
779.708	5017
779.815	10580
779.920	29581
780.026	51595
780.132	8641
780.238	5469
780.344	5717
780.450	6085
780.556	4486
780.661	4889
780.767	4553
780.873	4496
780.979	5632
781.085	3652
781.190	4444
781.296	4792
781.402	4353
781.507	4793
781.613	4386
781.719	3913
781.824	4483
781.930	4797
782.035	4732
782.141	4158
782.246	4473
782.352	4246
782.457	4035
782.563	4344
782.668	3942
782.773	4526
782.879	3765
782.984	5492
783.090	5856
783.195	5748
783.300	5585
783.405	3683
783.511	4366
783.616	4914
783.721	4749
783.826	4177
783.932	5230
784.037	4834
784.142	4402
784.247	3931
784.352	4325
784.457	4529
784.562	4398
784.667	4236
784.772	3531
784.877	2867
784.982	4634
785.087	3611
785.192	5189
785.297	3376
785.402	3708
785.507	4613
785.611	4475
785.716	3925
785.821	3878
785.926	3859
786.031	4730
786.135	4031
786.240	4610
786.345	2587
786.450	4591
786.554	4425
786.659	3897
786.763	3329
786.868	4925
786.973	4831
787.077	4104
787.182	4439
787.286	4074
787.391	3938
787.495	3314
787.600	3390
787.704	3215
787.809	4184
787.913	4263
788.017	4663
788.122	4533
788.226	4534
788.330	3241
788.435	3469
788.539	4887
788.643	4749
788.747	3716
788.852	4057
788.956	3932
789.060	4282
789.164	3858
789.268	2786
789.372	4387
789.476	3310
789.580	3881
789.684	2928
789.788	3759
789.892	3570
789.996	4519
790.100	3820
790.204	4313
790.308	3502
790.412	3825
790.516	5543
790.620	3534
790.724	3514
790.828	3611
790.931	4116
791.035	5655
791.139	4278
791.242	2581
791.346	3664
791.450	2917
791.554	3202
791.657	3109
791.761	3948
791.864	5259
791.968	3721
792.072	3729
792.175	3919
792.279	3187
792.382	3769
792.486	3625
792.589	2997
792.693	3481
792.796	2588
792.899	4626
793.003	4033
793.106	2172
793.209	2894
793.313	4881
793.416	2899
793.519	4533
793.623	4775
793.726	4641
793.829	3261
793.932	3927
794.035	3079
794.138	4827
794.242	3820
794.345	3867
794.448	4702
794.551	6400
794.654	16192
794.757	28742
794.860	6498
794.963	4764
795.066	2323
795.169	4541
795.272	3476
795.375	4004
795.477	2990
795.580	3588
795.683	2293
795.786	3979
795.889	1846
795.991	3512
796.094	3966
796.197	2668
796.300	4184
796.402	2736
796.505	3251
796.608	3078
796.710	3039
796.813	3726
796.915	2727
797.018	3764
797.120	3526
797.223	2826
797.326	4573
797.428	3263
797.530	3052
797.633	3159
797.735	4535
797.838	2242
797.940	3421
798.042	2679
798.145	2954
798.247	3713
798.349	1543
798.452	2782
798.554	3096
798.656	1890
798.758	2921
798.860	3292
798.962	2429
799.065	3733
799.167	1929
799.269	4709
799.371	3888
799.473	3659
799.575	2619
799.677	2385
799.779	4652
799.881	3978
799.983	4224
800.085	4128
800.187	2910
800.289	2122
800.390	2752
800.492	3634
800.594	3620
800.696	2352
800.798	2739
800.899	2591
801.001	2671
801.103	2842
801.205	2269
801.306	3216
801.408	2337
801.509	3388
801.611	3239
801.713	2786
801.814	2188
801.916	2769
802.017	2617
802.119	2617
802.220	2925
802.322	816
802.423	4196
802.525	2156
802.626	2820
802.727	3208
802.829	3608
802.930	1504
803.031	4037
803.133	2273
803.234	2401
803.335	2697
803.436	1938
803.538	3189
803.639	1791
803.740	3165
803.841	2821
803.942	3153
804.043	3268
804.144	2328
804.245	2755
804.346	2749
804.447	3208
804.548	3479
804.649	4105
804.750	2185
804.851	2032
804.952	2878
805.053	2348
805.154	1794
805.255	3619
805.355	3081
805.456	2605
805.557	2216
805.658	2137
805.758	3224
805.859	2208
805.960	2677
806.061	2448
806.161	2368
806.262	2299
806.362	2269
806.463	1542
806.564	3433
806.664	1752
806.765	2906
806.865	1702
806.966	2689
807.066	2373
807.166	3347
807.267	3887
807.367	3438
807.468	3067
807.568	1545
807.668	3265
807.769	3051
807.869	2156
807.969	3047
808.069	3006
808.170	2872
808.270	2402
808.370	3104
808.470	3678
808.570	1949
808.670	2570
808.770	3398
808.870	3011
808.970	3032
809.070	1989
809.170	2227
809.271	3097
809.370	2313
809.470	2544
809.570	2075
809.670	2630
809.770	2600
809.870	3615
809.970	2140
810.070	2147
810.169	3116
810.269	1259
810.369	3366
810.469	3007
810.568	2216
810.668	1878
810.768	2323
810.867	2812
810.967	1930
811.066	2364
811.166	2340
811.265	2519
811.365	2208
811.464	1945
811.564	4018
811.663	2281
811.763	1418
811.862	2285
811.962	3962
812.061	1732
812.160	2568
812.260	2669
812.359	2665
812.458	2221
812.557	3685
812.657	3105
812.756	3057
812.855	2440
812.954	2010
813.053	3786
813.153	2318
813.252	1769
813.351	2004
813.450	2455
813.549	2216
813.648	2677
813.747	2521
813.846	1703
813.945	2151
814.044	2549
814.143	2683
814.242	3202
814.341	2127
814.439	3227
814.538	2623
814.637	1963
814.736	2768
814.835	3406
814.933	1992
815.032	2673
815.131	2761
815.229	2329
815.328	3556
815.427	1981
815.525	3846
815.624	2723
815.722	2359
815.821	2657
815.919	2916
816.018	2677
816.116	3524
816.215	2012
816.313	3124
816.412	2513
816.510	3038
816.609	4190
816.707	2333
816.805	2774
816.904	1611
817.002	3341
817.100	3183
817.198	3519
817.296	2653
817.395	2533
817.493	4861
817.591	3148
817.689	5159
817.787	4715
817.885	7580
817.983	14115
818.081	30139
818.179	76200
818.277	185611
818.375	119444
818.473	25581
818.571	11763
818.669	8134
818.767	7786
818.865	8120
818.963	9496
819.061	14459
819.158	26218
819.256	56903
819.354	139804
819.452	275534
819.549	138152
819.647	33448
819.745	14941
819.842	9550
819.940	7304
820.038	5274
820.135	5356
820.233	5450
820.330	3488
820.428	3870
820.525	3731
820.623	3421
820.720	2550
820.818	2752
820.915	3539
821.012	3469
821.110	2390
821.207	3687
821.304	2254
821.402	3109
821.499	3133
821.596	3956
821.693	2673
821.791	3346
821.888	3075
821.985	4750
822.082	2778
822.179	3301
822.276	3096
822.373	3082
822.470	2034
822.567	2472
822.664	2055
822.761	2789
822.858	1422
822.955	3135
823.052	2032
823.149	2553
823.246	2108
823.343	1856
823.440	2863
823.536	2443
823.633	1872
823.730	2364
823.827	2372
823.923	2321
824.020	2875
824.117	1563
824.213	1732
824.310	2802
824.407	2500
824.503	2516
824.600	2103
824.696	2356
824.793	3003
824.889	1447
824.986	2494
825.082	2330
825.179	2209
825.275	2013
825.371	1859
825.468	2108
825.564	1280
825.660	2467
825.757	2390
825.853	3235
825.949	1721
826.045	2493
826.142	1301
826.238	2087
826.334	1671
826.430	1005
826.526	2393
826.622	2012
826.718	1407
826.814	1746
826.910	2857
827.006	2606
827.102	1244
827.198	2903
827.294	2574
827.390	2563
827.486	2257
827.582	1875
827.678	1533
827.774	2446
827.869	1774
827.965	3075
828.061	1258
828.157	2415
828.252	2162
828.348	1054
828.444	2016
828.539	1296
828.635	2118
828.731	2963
828.826	556
828.922	2403
829.017	2217
829.113	2891
829.208	1062
829.304	1446
829.399	3650
829.495	1587
829.590	2758
829.685	1527
829.781	494
829.876	1157
829.971	2253
830.066	2032
830.162	1486
830.257	2251
830.352	1545
830.447	2640
830.543	2263
830.638	-148
830.733	2082
830.828	975
830.923	2358
831.018	1331
831.113	1816
831.208	1351
831.303	1801
831.398	2017
831.493	1891
831.588	2095
831.683	1610
831.778	1835
831.873	1825
831.967	2349
832.062	644
832.157	1594
832.252	2877
832.346	2026
832.441	2411
832.536	2792
832.631	5082
832.725	4007
832.820	1154
832.914	2244
833.009	1596
833.104	2347
833.198	2707
833.293	1913
833.387	1498
833.482	1453
833.576	1440
833.670	2050
833.765	947
833.859	2108
833.954	2522
834.048	1765
834.142	1823
834.237	1401
834.331	1188
834.425	1458
834.519	1069
834.613	2073
834.708	984
834.802	2204
834.896	1100
834.990	1200
835.084	909
835.178	1437
835.272	637
835.366	1315
835.460	2199
835.554	2098
835.648	1843
835.742	1260
835.836	1140
835.930	1342
836.024	1802
836.117	2322
836.211	1477
836.305	1877
836.399	1813
836.493	757
836.586	3108
836.680	677
836.774	1202
836.867	2521
836.961	693
837.055	502
837.148	1105
837.242	1317
837.335	1807
837.429	2072
837.522	1598
837.616	1493
837.709	950
837.803	613
837.896	1402
837.989	807
838.083	1230
838.176	1588
838.269	585
838.363	1583
838.456	1701
838.549	2532
838.642	2197
838.735	5608
838.829	2271
838.922	1447
839.015	1866
839.108	1196
839.201	1330
839.294	1362
839.387	1123
839.480	959
839.573	1581
839.666	1708
839.759	1300
839.852	1107
839.945	1683
840.038	1561
840.131	1145
840.223	1228
840.316	2442
840.409	1251
840.502	953
840.594	2793
840.687	1006
840.780	847
840.873	1437
840.965	1134
841.058	1304
841.150	2459
841.243	1183
841.336	1684
841.428	1023
841.521	845
841.613	951
841.706	1635
841.798	1677
841.890	1038
841.983	853
842.075	1853
842.167	928
842.260	1459
842.352	1469
842.444	1480
842.537	977
842.629	1373
842.721	739
842.813	1936
842.905	1230
842.997	896
843.090	843
843.182	1824
843.274	891
843.366	1886
843.458	668
843.550	1616
843.642	1455
843.734	804
843.826	1084
843.918	2089
844.009	1450
844.101	1422
844.193	176
844.285	1554
844.377	1568
844.469	2216
844.560	838
844.652	1046
844.744	1441
844.835	1113
844.927	1689
845.019	1243
845.110	633
845.202	1982
845.293	1415
845.385	913
845.476	1556
845.568	1373
845.659	705
845.751	690
845.842	366
845.934	362
846.025	590
846.116	1986
846.208	1339
846.299	1412
846.390	1160
846.482	1372
846.573	1406
846.664	1874
846.755	1117
846.846	2585
846.937	1021
847.029	776
847.120	1546
847.211	1345
847.302	2484
847.393	-124
847.484	1944
847.575	1492
847.666	508
847.757	1034
847.847	1869
847.938	2151
848.029	1016
848.120	988
848.211	1169
848.302	808
848.392	776
848.483	1859
848.574	-24
848.664	622
848.755	877
848.846	1037
848.936	555
849.027	1331
849.118	607
849.208	484
849.299	936
849.389	1048
849.480	2209
849.570	2506
849.661	3712
849.751	5868
849.841	1067
849.932	1191
850.022	708
850.112	453
850.203	716
850.293	920
850.383	644
850.474	136
850.564	794
850.654	976
850.744	788
850.834	527
850.924	371
851.014	1422
851.104	564
851.194	869
851.284	419
851.374	1137
851.464	591
851.554	938
851.644	768
851.734	933
851.824	663
851.914	975
852.004	1766
852.094	44
852.183	735
852.273	804
852.363	1549
852.452	644
852.542	842
852.632	420
852.721	1480
852.811	1453
852.901	-85
852.990	922
853.080	837
853.169	1026
853.259	1247
853.348	331
853.438	1584
853.527	871
853.617	875
853.706	2088
853.795	1581
853.885	6759
853.974	10073
854.063	19307
854.152	26574
854.242	7960
854.331	1397
854.420	889
854.509	590
854.598	1627
854.687	1788
854.777	1265
854.866	1469
854.955	1812
855.044	168
855.133	1051
855.222	1141
855.311	1182
855.400	1432
855.488	1308
855.577	632
855.666	1190
855.755	1170
855.844	1660
855.933	1413
856.021	916
856.110	1131
856.199	433
856.288	602
856.376	1233
856.465	440
856.554	886
856.642	505
856.731	1185
856.819	1078
856.908	658
856.996	1009
857.085	986
857.173	1661
857.262	1118
857.350	693
857.438	1775
857.527	472
857.615	1302
857.703	1370
857.792	1186
857.880	429
857.968	-330
858.056	463
858.145	324
858.233	648
858.321	600
858.409	1565
858.497	798
858.585	918
858.673	853
858.761	456
858.849	289
858.937	716
859.025	1538
859.113	955
859.201	491
859.289	1389
859.377	530
859.465	1214
859.552	1093
859.640	483
859.728	300
859.816	1211
859.903	1182
859.991	449
860.079	1029
860.166	648
860.254	-325
860.342	623
860.429	258
860.517	226
860.604	948
860.692	840
860.779	697
860.867	1237
860.954	1202
861.042	690
861.129	1229
861.216	1113
861.304	545
861.391	-285
861.478	806
861.565	595
861.653	1564
861.740	118
861.827	725
861.914	1171
862.001	1124
862.089	1276
862.176	1046
862.263	1126
862.350	790
862.437	539
862.524	807
862.611	948
862.698	639
862.785	759
862.871	350
862.958	377
863.045	972
863.132	361
863.219	927
863.306	588
863.392	1003
863.479	204
863.566	1181
863.652	1218
863.739	1050
863.826	595
863.912	1470
863.999	85
864.086	555
864.172	526
864.259	922
864.345	1555
864.432	935
864.518	934
864.604	710
864.691	1086
864.777	838
864.863	838
864.950	773
865.036	-151
865.122	624
865.209	1412
865.295	530
865.381	883
865.467	749
865.553	903
865.639	1244
865.726	2054
865.812	3480
865.898	5505
865.984	7982
866.070	13834
866.156	14011
866.242	2506
866.328	657
866.414	920
866.499	933
866.585	715
866.671	1054
866.757	456
866.843	1135
866.928	853
867.014	-130
867.100	1119
867.186	315
867.271	927
867.357	475
867.442	673
867.528	641
867.614	-357
867.699	1043
867.785	801
867.870	876
867.956	806
868.041	600
868.127	1008
868.212	937
868.297	881
868.383	631
868.468	926
868.553	2880
868.639	2797
868.724	4404
868.809	2919
868.894	426
868.979	532
869.065	1730
869.150	37
869.235	638
869.320	414
869.405	462
869.490	242
869.575	886
869.660	654
869.745	1025
869.830	-467
869.915	305
870.000	286
870.085	337
870.169	-37
870.254	37
870.339	-51
870.424	-509
870.509	508
870.593	1028
870.678	271
870.763	571
870.847	422
870.932	615
871.016	815
871.101	-70
871.186	44
871.270	707
871.355	682
871.439	394
871.523	254
871.608	365
871.692	979
871.777	617
871.861	475
871.945	-164
872.030	562
872.114	499
872.198	692
872.282	376
872.367	123
872.451	-75
872.535	262
872.619	371
872.703	-366
872.787	808
872.871	776
872.955	404
873.039	-261
873.123	312
873.207	752
873.291	72
873.375	-241
873.459	-121
873.543	-341
873.627	-329
873.711	300
873.794	133
873.878	-387
873.962	-604
874.045	68
874.129	478
874.137	513
874.213	869
874.245	586
874.296	127
874.352	239
874.380	293
874.460	557
874.464	568
874.547	43
874.568	112
874.631	311
874.676	437
874.714	542
874.784	103
874.798	19
874.881	896
874.892	789
874.965	22
874.999	350
875.048	807
875.107	96
875.131	-193
875.215	1032
875.215	1031
875.298	327
875.323	300
875.381	207
875.430	106
875.465	60
875.538	274
875.548	295
875.631	-233
875.646	-291
875.714	-520
875.753	-69
875.798	402
875.861	184
875.881	144
875.964	312
875.968	300
876.047	41
876.076	155
876.130	310
876.183	41
876.213	-80
876.291	282
876.296	306
876.379	-225
876.398	-106
876.462	290
876.506	37
876.545	-202
876.613	-193
876.628	-183
876.711	-316
876.721	-198
876.794	600
876.828	359
876.877	115
876.935	218
876.960	285
877.043	583
877.043	585
877.125	776
877.150	575
877.208	255
877.258	544
877.291	731
877.365	-71
877.374	-164
877.456	345
877.472	328
877.539	162
877.579	273
877.622	377
877.687	166
877.704	159
877.787	628
877.794	526
877.869	-798
877.901	-518
877.952	58
878.008	107
878.034	105
878.115	338
878.117	342
878.199	456
878.222	342
878.282	50
878.329	67
878.364	160
878.437	754
878.447	791
878.529	-906
878.544	-819
878.611	-162
878.651	85
878.694	420
878.758	490
878.776	427
878.858	442
878.865	459
878.941	636
878.972	340
879.023	-158
879.078	49
879.105	294
879.185	172
879.187	159
879.269	-193
879.292	-195
879.351	54
879.399	-61
879.433	-67
879.506	210
879.516	204
879.598	58
879.613	-67
879.680	-521
879.720	-149
879.762	193
879.827	481
879.844	599
879.926	338
879.933	335
880.007	99
880.040	127
880.089	190
880.147	282
880.171	445
880.253	1547
880.254	1550
880.335	1562
880.360	1897
880.417	2396
880.467	2727
880.499	3137
880.574	3671
880.580	3667
880.662	1070
880.680	910
880.744	505
880.787	572
880.825	601
880.893	114
880.907	41
880.989	501
881.000	505
881.070	396
881.106	177
881.152	4
881.213	201
881.233	223
881.315	462
881.319	464
881.396	799
881.426	687
881.478	39
881.532	18
881.559	223
881.639	-323
881.641	-340
881.722	232
881.745	127
881.803	-17
881.852	189
881.885	147
881.958	92
881.966	151
882.047	721
882.064	748
882.129	501
882.171	630
882.210	872
882.277	1322
882.291	1308
882.372	179
882.383	85
882.454	43
882.489	76
882.535	0
882.596	122
882.616	197
882.697	295
882.702	307
882.778	364
882.808	444
882.859	383
882.914	88
882.940	69
883.020	276
883.021	274
883.102	-143
883.127	-330
883.183	-196
883.233	168
883.264	112
883.339	-47
883.345	-12
883.426	96
883.445	265
883.507	538
883.551	332
883.587	150
883.657	304
883.668	306
883.749	-77
883.763	-110
883.830	123
883.869	311
883.910	164
883.975	53
883.991	90
884.072	-263
884.081	-254
884.152	-97
884.187	-86
884.233	-4
884.292	-87
884.314	7
884.394	937
884.398	952
884.475	-136
884.504	-422
884.555	-72
884.610	214
884.636	40
884.716	-282
884.716	-279
884.797	-5
884.821	142
884.877	331
884.927	188
884.958	48
885.033	96
885.038	115
885.118	22
885.139	79
885.199	-95
885.244	-191
885.279	6
885.350	451
885.359	457
885.439	294
885.456	213
885.520	-610
885.561	-819
885.600	-162
885.667	480
885.680	336
885.760	-279
885.773	-374
885.840	74
885.878	305
885.920	-25
885.984	-413
886.000	-377
886.080	-398
886.089	-405
886.160	-577
886.195	-613
886.240	-412
886.300	-97
886.320	-85
886.400	27
886.406	26
886.480	179
886.511	253
886.560	76
886.616	-277
886.640	-140
886.720	741
886.722	752
886.800	163
886.827	29
886.879	-29
886.932	-200
886.959	-28
887.038	609
887.039	607
887.119	227
887.143	119
887.198	337
887.248	425
887.278	207
887.354	-313
887.358	-300
887.437	80
887.459	199
887.517	111
887.564	-70
887.596	-41
887.669	60
887.676	42
887.755	-136
887.774	-188
887.835	-7
887.880	181
887.914	147
887.985	42
887.994	25
888.073	-178
888.090	-220
888.153	-227
888.195	-188
888.232	-143
888.300	-62
888.311	-30
888.391	121
888.405	153
888.470	-165
888.510	-355
888.549	-320
888.615	-185
888.628	-171
888.708	-124
888.720	-115
888.787	-202
888.825	-285
888.866	-81
888.930	288
888.945	277
889.024	242
889.035	237
889.103	146
889.140	87
889.182	-223
889.245	-673
889.261	-594
889.340	-169
889.349	-119
889.419	-309
889.454	-397
889.498	-595
889.559	-848
889.577	-729
889.656	-182
889.664	-122
889.735	105
889.768	213
889.814	-53
889.873	-397
889.978	-211
890.083	-432
890.187	-75
890.292	199
890.397	27
890.501	363
890.606	-566
890.710	34
890.815	-549
890.919	-72
891.024	-29
891.128	55
891.233	435
891.337	47
891.442	-196
891.546	133
891.650	81
891.755	-270
891.859	302
891.963	-224
892.068	-65
892.172	484
892.276	-686
892.380	182
892.484	-777
892.589	-578
892.693	-1140
892.797	-552
892.901	152
893.005	-1263
893.109	-301
893.213	-256
893.317	150
893.421	200
893.525	-10
893.629	-758
893.733	14
893.837	-394
893.941	197
894.045	-268
894.148	-124
894.252	59
894.356	-288
894.460	50
894.564	425
894.667	-185
894.771	-80
894.875	-230
894.978	-665
895.082	-945
895.186	-75
895.289	-601
895.393	-362
895.496	-144
895.600	212
895.703	-313
895.807	189
895.910	28
896.014	-871
896.117	-538
896.221	38
896.324	442
896.427	259
896.531	-394
896.634	-593
896.737	-512
896.840	-427
896.944	-685
897.047	209
897.150	-1067
897.253	-481
897.356	799
897.460	-262
897.563	-94
897.666	102
897.769	-633
897.872	-744
897.975	-459
898.078	-730
898.181	-212
898.284	-671
898.387	-617
898.490	-369
898.593	17
898.695	-564
898.798	-816
898.901	290
899.004	-579
899.107	-402
899.209	-352
899.312	-556
899.415	-746
899.518	-723
899.620	-830
899.723	-1124
899.826	-237
899.928	-272
900.031	-877
900.133	-619
900.236	-389
900.338	-432
900.441	-520
900.543	395
900.646	-267
900.748	-886
900.851	-560
900.953	120
901.055	-623
901.158	328
901.260	-321
901.362	301
901.465	146
901.567	-710
901.669	-466
901.771	4
901.873	-756
901.976	-463
902.078	-654
902.180	-5
902.282	-1003
902.384	-415
902.486	-417
902.588	-466
902.690	297
902.792	-367
902.894	269
902.996	-1077
903.098	-817
903.200	-174
903.302	-1037
903.404	-43
903.505	-1135
903.607	-407
903.709	16
903.811	-320
903.913	-121
904.014	277
904.116	-656
904.218	-964
904.319	-470
904.421	-62
904.523	-622
904.624	-704
904.726	-662
904.827	-186
904.929	-136
905.030	-1325
905.132	-351
905.233	179
905.335	-306
905.436	-10
905.537	-952
905.639	-161
905.740	-593
905.841	-565
905.943	-679
906.044	-794
906.145	-604
906.247	-18
906.348	-662
906.449	122
906.550	-761
906.651	-409
906.752	-556
906.854	-933
906.955	-620
907.056	-281
907.157	-202
907.258	-368
907.359	-859
907.460	-1254
907.561	-843
907.662	-276
907.762	-465
907.863	-372
907.964	211
908.065	212
908.166	-556
908.267	-654
908.367	-465
908.468	-760
908.569	-872
908.670	-547
908.770	185
908.871	-348
908.971	100
909.072	-303
909.173	-75
909.273	-626
909.374	-605
909.474	-19
909.575	-834
909.675	-225
909.776	-769
909.876	-678
909.977	-113
910.077	-332
910.177	-509
910.278	-540
910.378	-694
910.478	-688
910.579	-245
910.679	-537
910.779	-608
910.879	-137
910.980	-561
911.080	-865
911.180	-1241
911.280	-1091
911.380	-423
911.480	99
911.580	-794
911.680	-519
911.780	-530
911.880	-833
911.980	-618
912.080	-439
912.180	-868
912.280	24
912.380	-405
912.480	-10
912.580	-44
912.679	-582
912.779	475
912.879	-716
912.979	-634
913.078	-1285
913.178	-322
913.278	-290
913.377	-286
913.477	-323
913.577	96
913.676	-197
913.776	-535
913.875	-101
913.975	-1177
914.074	-362
914.174	-863
914.273	-828
914.373	11
914.472	-193
914.572	-598
914.671	-1141
914.770	-470
914.870	-382
914.969	-503
915.068	-1059
915.167	-408
915.267	-17
915.366	-950
915.465	137
915.564	-595
915.663	306
915.763	238
915.862	-198
915.961	-374
916.060	-414
916.159	-578
916.258	-872
916.357	-668
916.456	42
916.555	-561
916.654	-759
916.752	-1476
916.851	-537
916.950	-467
917.049	37
917.148	-602
917.247	506
917.345	482
917.444	-943
917.543	-733
917.642	-442
917.740	-674
917.839	-359
917.937	-27
918.036	-884
918.135	-106
918.233	-281
918.332	-584
918.430	-515
918.529	-548
918.627	-1067
918.726	-695
918.824	-216
918.923	-670
919.021	263
919.119	-638
919.218	-1172
919.316	-601
919.414	-460
919.512	-463
919.611	-712
919.709	-951
919.807	-603
919.905	-225
920.003	-591
920.102	-333
920.200	-97
920.298	-435
920.396	-1061
920.494	-408
920.592	-276
920.690	-661
920.788	-892
920.886	-1200
920.984	-275
921.082	-881
921.180	43
921.277	-414
921.375	-643
921.473	-210
921.571	-1217
921.669	-179
921.766	-1102
921.864	91
921.962	769
922.060	611
922.157	-407
922.255	-536
922.352	-157
922.450	82
922.548	-1095
922.645	209
922.743	-96
922.840	-456
922.938	-535
923.035	436
923.133	-665
923.230	-1227
923.327	-324
923.425	-477
923.522	-701
923.619	-383
923.717	-400
923.814	-150
923.911	-483
924.008	-588
924.106	-559
924.203	-455
924.300	-37
924.397	-1005
924.494	307
924.591	31
924.688	-678
924.786	432
924.883	3
924.979	-637
925.077	-689
925.173	-490
925.270	-878
925.367	-424
925.464	-401
925.561	-1358
925.658	-745
925.755	-587
925.852	-256
925.948	273
926.045	-483
926.142	-226
926.239	-32
926.335	-102
926.432	-40
926.529	-374
926.625	21
926.722	-974
926.818	-920
926.915	-371
927.011	-209
927.108	-665
927.204	-118
927.301	-533
927.397	-770
927.494	-597
927.590	-480
927.687	-612
927.783	-394
927.879	-38
927.976	-925
928.072	-1206
928.168	-369
928.264	-458
928.361	-56
928.457	67
928.553	-183
928.649	-60
928.745	-76
928.841	-670
928.937	-47
929.033	-100
929.129	326
929.225	1
929.321	-88
929.417	-916
929.513	-66
929.609	-323
929.705	-860
929.801	-146
929.897	-490
929.993	-90
930.089	-702
930.184	162
930.280	-38
930.376	-447
930.471	-279
930.567	-110
930.663	-602
930.758	-624
930.854	-460
930.950	-455
931.045	-654
931.141	170
931.236	-679
931.332	-708
931.427	-115
931.523	-830
931.618	-142
931.714	-1135
931.809	-607
931.905	54
932.000	-724
932.095	-938
932.191	-449
932.286	-724
932.381	-487
932.476	-731
932.572	-168
932.667	-820
932.762	-732
932.857	-721
932.952	-477
933.047	331
933.142	-831
933.237	-866
933.332	-937
933.427	-454
933.522	-778
933.617	-399
933.712	-545
933.807	-320
933.902	-280
933.997	-572
934.092	114
934.187	-29
934.282	-490
934.376	278
934.471	-910
934.566	-738
934.661	-1261
934.755	-281
934.850	-1174
934.945	535
935.039	-54
935.134	-695
935.228	167
935.323	-317
935.417	-895
935.512	-369
935.606	-839
935.701	-70
935.795	-1054
935.890	-342
935.984	-218
936.079	-567
936.173	-477
936.267	-369
936.362	-693
936.456	-708
936.550	-1092
936.644	-740
936.738	-564
936.833	-337
936.927	-21
937.021	-844
937.115	-652
937.209	-1305
937.303	825
937.397	-211
937.491	-847
937.585	156
937.679	-369
937.773	-429
937.867	-192
937.961	-719
938.055	-859
938.149	-713
938.243	-236
938.337	-1265
938.430	-247
938.524	-187
938.618	-956
938.712	-705
938.805	-1533
938.899	-421
938.993	-762
939.086	-484
939.180	-468
939.274	-592
939.367	-706
939.461	331
939.554	-597
939.648	-287
939.741	-59
939.835	-618
939.928	-677
940.022	-310
940.115	-609
940.208	-785
940.302	-198
940.395	174
940.488	-969
940.582	689
940.675	-668
940.768	-578
940.861	-709
940.954	-393
941.048	-760
941.141	-1105
941.234	-1054
941.327	-420
941.420	149
941.513	-1339
941.606	-1440
941.699	-427
941.792	-453
941.885	-257
941.978	-447
942.071	-849
942.164	-1338
942.257	-364
942.349	-961
942.442	-1119
942.535	-1055
942.628	-451
942.721	-65
942.813	-2261
942.906	447
942.999	-475
943.091	-783
943.184	-1258
943.277	-1232
943.369	-278
943.462	-1287
943.554	-201
943.647	-857
943.739	-428
943.832	-365
943.924	-1247
944.017	117
944.109	-1248
944.201	-500
944.294	203
944.386	-653
944.478	-967
944.571	-840
944.663	-622
944.755	-901
944.847	-754
944.940	-633
945.032	-1252
945.124	-291
945.216	761
945.308	-350
945.400	-353
945.492	-1712
945.584	-391
945.676	-744
945.768	-751
945.860	-815
945.952	-1266
946.044	-32
946.136	-609
946.228	-384
946.320	-818
946.412	-1334
946.503	-1139
946.595	-490
946.687	-1095
946.779	-1063
946.870	-1130
946.962	-1054
947.054	-535
947.145	-560
947.237	-1480
947.329	-159
947.420	-1754
947.512	-1086
947.603	-597
947.695	-884
947.786	-975
947.878	-1187
947.969	-802
948.061	-1100
948.152	-1036
948.243	-1385
948.335	-642
948.426	-1154
948.517	-521
948.609	145
948.700	119
948.791	-595
948.882	-630
948.973	-784
949.065	4
949.156	-285
949.247	-1330
949.338	-689
949.429	-884
949.520	-839
949.611	-1482
949.702	-1279
949.793	-939
949.884	-469
949.975	-614
950.066	-604
950.157	-1347
950.247	-664
950.338	-852
950.429	-451
950.520	-1088
950.611	-1000
950.701	-391
950.792	-1281
950.883	-609
950.973	-200
951.064	-455
951.155	-1654
951.245	-388
951.336	-490
951.427	-1411
951.517	348
951.608	-127
951.698	-1394
951.788	-858
951.879	-882
951.969	-1903
952.060	-602
952.150	-588
952.240	-387
952.331	-2598
952.421	497
952.511	-906
952.602	-715
952.692	-506
952.782	-632
952.872	-1525
952.962	-706
953.052	-942
953.143	-458
953.233	-182
953.323	-332
953.413	-1047
953.503	-385
953.593	-187
953.683	-570
953.773	-962
953.863	-42
953.953	-1169
954.042	-227
954.132	-1032
954.222	161
954.312	-836
954.402	-592
954.492	-313
954.581	-910
954.671	-709
954.761	-2119
954.850	-276
954.940	-761
955.030	-1010
955.119	-970
955.209	-362
955.298	-587
955.388	557
955.477	870
955.567	-1585
955.656	-466
955.746	-445
955.835	-642
955.925	-1785
956.014	294
956.103	-166
956.193	-23
956.282	29
956.371	-483
956.461	-1058
956.550	-759
956.639	-745
956.728	-1001
956.817	-86
956.906	-551
956.995	-877
957.085	-793
957.174	-933
957.263	-352
957.352	-747
957.441	-585
957.530	-844
957.619	-592
957.708	-131
957.796	-1418
957.885	-927
957.974	-314
958.063	684
958.152	-1207
958.241	-31
958.329	-408
958.418	-927
958.507	-1331
958.596	210
958.684	-1356
958.773	97
958.861	-757
958.950	-800
959.039	222
959.127	-1072
959.216	-488
959.304	-744
959.393	-1777
959.481	-316
959.570	-856
959.658	-734
959.746	-1399
959.835	35
959.923	-1420
960.011	-894
960.100	301
960.188	51
960.276	-599
960.365	190
960.453	-965
960.541	-1462
960.629	-344
960.717	-464
960.805	-1680
960.893	-738
960.981	-740
961.069	-229
961.158	-813
961.245	-58
961.333	-1042
961.421	-578
961.509	-845
961.597	-541
961.685	-128
961.773	-263
961.861	-873
961.949	-265
962.036	-787
962.124	337
962.212	-230
962.299	-423
962.387	-699
962.475	-231
962.562	-1549
962.650	129
962.738	-565
962.825	-818
962.913	157
963.000	-243
963.088	-276
963.175	-250
963.263	110
963.350	-735
963.438	-1070
963.525	-1219
963.612	-225
963.700	-158
963.787	-413
963.874	-819
963.962	85
964.049	-686
964.136	-848
964.223	-1036
964.310	-87
964.398	-391
964.485	-583
964.572	-446
964.659	-227
964.746	-823
964.833	-537
964.920	-114
965.007	-223
965.094	-155
965.181	-1084
965.268	-943
965.355	-731
965.441	589
965.528	-1139
965.615	-246
965.702	-751
965.789	-722
965.875	-270
965.962	-17
966.049	-664
966.136	-713
966.222	-1220
966.309	-325
966.395	-384
966.482	-63
966.569	-1321
966.655	-646
966.742	-758
966.828	35
966.915	-979
967.001	-224
967.087	-953
967.174	-924
967.260	763
967.347	-529
967.433	-141
967.519	-737
967.605	-1633
967.692	-313
967.778	25
967.864	-278
967.950	-571
968.036	-1191
968.123	-590
968.209	-783
968.295	-1114
968.381	1761
968.467	-773
968.553	-1082
968.639	-368
968.725	-1498
968.811	-468
968.897	-998
968.983	-1317
969.069	-963
969.154	-98
969.240	376
969.326	-1078
969.412	-868
969.497	-467
969.583	-760
969.669	333
969.755	-565
969.840	-1523
969.926	-208
970.012	-1225
970.097	-612
970.183	-1112
970.268	-1571
970.354	-1227
970.439	-1938
970.525	-542
970.610	-977
970.696	521
970.781	-58
970.866	-1206
970.952	-435
971.037	-1495
971.122	-849
971.208	-770
971.293	-850
971.378	-1740
971.463	-216
971.549	260
971.634	-814
971.719	-216
971.804	-1153
971.889	219
971.974	-585
972.059	-629
972.144	-568
972.229	-1188
972.314	-644
972.399	-258
972.484	-658
972.569	-604
972.654	-946
972.739	50
972.824	-730
972.908	-612
972.993	-717
973.078	-4
973.163	-675
973.247	-402
973.332	-2308
973.417	-105
973.501	-1262
973.586	-679
973.671	-1011
973.755	-232
973.840	-321
973.924	-319
974.009	-1147
974.093	-1834
974.178	-217
974.262	-861
974.346	-1584
974.431	233
974.515	-944
974.600	-1545
974.684	-510
974.768	-1267
974.852	-17
974.937	-1649
975.021	51
975.105	-968
975.189	-1544
975.273	-133
975.358	-824
975.442	-690
975.526	-198
975.610	-935
975.694	-1096
975.778	-29
975.862	-609
975.946	-1446
976.030	324
976.114	-855
976.198	-352
976.281	-547
976.365	-709
976.449	-842
976.533	-873
976.617	-1380
976.700	-540
976.784	-938
976.868	-920
976.951	-490
977.035	-1091
977.119	-69
977.202	-762
977.286	-545
977.369	-841
977.453	-560
977.536	-856
977.620	-2042
977.703	-20
977.787	-1439
977.870	-813
977.953	-119
978.037	-1894
978.120	-164
978.203	-1338
978.287	-1069
978.370	-1290
978.453	-948
978.536	-1230
978.620	-640
978.703	-676
978.786	-1223
978.869	-1385
978.952	-1582
979.035	428
979.118	-521
979.201	-1068
979.284	-453
979.367	-1807
979.450	-1134
979.533	-1462
979.616	-926
979.699	-1961
979.782	-746
979.865	-1191
979.948	-1202
980.030	-1505
980.113	-628
980.196	-1638
980.279	-749
980.361	-1127
980.444	-1249
980.526	-638
980.609	-834
980.692	-1293
980.774	-577
980.857	-1823
980.939	-1031
981.022	-1032
981.104	-1514
981.187	-1590
981.269	-749
981.352	-1063
981.434	-1994
981.516	-1291
981.599	-457
981.681	217
981.763	-776
981.846	-529
981.928	-1634
982.010	-1520
982.092	-1785
982.174	-333
982.256	-1492
982.339	-505
982.421	-1078
982.503	-830
982.585	-2332
982.667	-621
982.749	-1229
982.831	-665
982.913	-2288
982.995	-193
983.077	-1558
983.158	-259
983.240	-1881
983.322	-598
983.404	-295
983.486	-779
983.568	-700
983.649	-1124
983.731	-1068
983.813	-1242
983.894	-957
983.976	-1397
984.058	-1395
984.139	-762
984.221	-1288
984.302	-852
984.384	-1926
984.465	-1301
984.547	-990
984.628	-1593
984.710	-886
984.791	-642
984.872	-1008
984.954	-1153
985.035	-837
985.116	-2436
985.198	-2263
985.279	532
985.360	-1769
985.441	-1519
985.522	-596
985.604	-2040
985.685	-3040
985.766	-363
985.847	614
985.928	-2333
986.009	-1066
986.090	-1331
986.171	-381
986.252	-1237
986.333	-1183
986.414	-1281
986.495	-798
986.576	-678
986.656	-1236
986.737	-679
986.818	-1012
986.899	-1700
986.980	-1447
987.060	-449
987.141	-1968
987.222	-1378
987.302	-1297
987.383	-673
987.464	-1274
987.544	-1025
987.625	-1403
987.705	-531
987.786	-1492
987.866	-1489
987.947	-1361
988.027	-1531
988.108	-1613
988.188	-852
988.268	-484
988.349	41
988.429	-1004
988.509	-813
988.589	-1147
988.670	-2956
988.750	-593
988.830	-1419
988.910	-793
988.990	-1571
989.070	-1365
989.151	-1371
989.231	-1397
989.311	-356
989.391	-941
989.471	-863
989.551	-1118
989.631	-1580
989.711	-583
989.791	-1867
989.870	-1801
989.950	-437
990.030	-1510
990.110	-1262
990.190	-1899
990.269	-1795
990.349	-2053
990.429	-852
990.509	-481
990.588	-1970
990.668	-230
990.747	-1154
990.827	-1533
990.907	-792
990.986	-1419
991.066	-911
991.145	-1299
991.225	-480
991.304	-1037
991.383	-1213
991.463	-2201
991.542	-1207
991.622	-1044
991.701	-1264
991.780	-1334
991.859	-909
991.939	-137
992.018	-1151
992.097	-988
992.176	-1939
992.256	-1689
992.335	-1185
992.414	-793
992.493	-327
992.572	-670
992.651	-888
992.730	-1232
992.809	-1278
992.888	-1356
992.967	-1913
993.046	-951
993.125	-1766
993.203	-740
993.282	-1082
993.361	-436
993.440	-1241
993.519	-1744
993.597	-767
993.676	-2262
993.755	-259
993.834	-636
993.912	-1388
993.991	-751
994.069	-1521
994.148	-1111
994.226	-1604
994.305	-1248
994.384	-1013
994.462	158
994.540	-2160
994.619	-1417
994.697	-1013
994.776	-1984
994.854	-692
994.932	-2200
995.011	-893
995.089	-1061
995.167	-1895
995.245	-1463
995.324	-1333
995.402	-78
995.480	-1641
995.558	-1260
995.636	-1722
995.714	-1303
995.792	-313
995.870	-1698
995.948	-1077
996.026	-674
996.104	-1678
996.182	-771
996.260	-1646
996.338	-917
996.416	-1713
996.494	-1775
996.572	-1095
996.649	-1246
996.727	-1719
996.805	-738
996.883	-1569
996.960	-967
997.038	-140
997.116	-560
997.193	-1502
997.271	-880
997.348	-1610
997.426	-1279
997.504	-1671
997.581	-847
997.658	-1176
997.736	-1290
997.813	-1326
997.891	77
997.968	-1948
998.046	-1494
998.123	-882
998.200	-674
998.277	-2152
998.355	-1068
998.432	-1746
998.509	-1178
998.586	-585
998.663	-591
998.741	-972
998.818	-1274
998.895	-1693
998.972	-1137
999.049	-1008
999.126	-502
999.203	-559
999.280	-1192
999.357	-2041
999.434	-1488
999.511	-1573
999.587	-1394
999.664	-1524
999.741	-1035
999.818	-949
999.895	-1251
999.971	-810
1000.048	-1471
1000.125	-694
1000.202	-1879
1000.278	-655
1000.355	-1160
1000.431	-854
1000.508	-1956
1000.584	-1016
1000.661	-852
1000.738	-2286
1000.814	-1866
1000.890	-1254
1000.967	-1911
1001.043	-1079
1001.120	-1818
1001.196	-1259
1001.272	-1396
1001.349	-718
1001.425	-1387
1001.501	-827
1001.577	-1646
1001.654	-927
1001.730	-1643
1001.806	-1235
1001.882	-1690
1001.958	-930
1002.034	-1361
1002.110	-779
1002.186	-1816
1002.262	-1358
1002.338	-1941
1002.414	-1878
1002.490	-1231
1002.566	-2288
1002.642	-2184
1002.718	-821
1002.794	-1001
1002.870	-1910
1002.945	-1592
1003.021	-1820
1003.097	-1817
1003.173	-1101
1003.248	-1195
1003.324	-1220
1003.400	-1191
1003.475	-2105
1003.551	-956
1003.626	-915
1003.702	-1491
1003.777	-1017
1003.853	-2077
1003.928	-1777
1004.004	-1191
1004.079	-932
1004.155	-238
1004.230	-1261
1004.305	-533
1004.381	-2146
1004.456	-1502
1004.531	-1404
1004.607	-1188
1004.682	-1391
1004.757	-956
1004.832	-1025
1004.907	-1864
1004.982	-743
1005.057	-1147
1005.133	-1260
1005.208	-1241
1005.283	-874
1005.358	-841
1005.433	-1261
1005.508	-1135
1005.583	-1356
1005.657	-2005
1005.732	-1179
1005.807	-2140
1005.882	-968
1005.957	-736
1006.032	-1548
1006.106	-1230
1006.181	-841
1006.256	-1755
1006.331	-1983
1006.405	-1667
1006.480	-747
1006.554	-1964
1006.629	-1177
1006.704	-1845
1006.778	-1038
1006.853	-1155
1006.927	-1763
1007.002	-2048
1007.076	-924
1007.150	-658
1007.225	-927
1007.299	-1551
1007.373	-1698
1007.448	-1195
1007.522	-1059
1007.596	-1348
1007.671	-1826
1007.745	-1225
1007.819	-2097
1007.893	-1600
1007.967	-1603
1008.041	-2545
1008.115	-1258
1008.190	-2270
1008.264	-1646
1008.338	-2211
1008.412	-1436
1008.486	-1325
1008.560	-1320
1008.633	-2363
1008.707	-689
1008.781	-318
1008.855	-1301
1008.929	-1746
1009.003	-1508
1009.076	-1297
1009.150	-2778
1009.224	-1899
1009.298	-1297
1009.371	-2217
1009.445	-1063
1009.519	-1051
1009.592	-1872
1009.666	-1557
1009.739	-1248
1009.813	-2068
1009.886	-619
1009.960	-2804
1010.033	-1092
1010.107	-960
1010.180	-2237
1010.253	-1694
1010.327	-1748
1010.400	-1391
1010.473	-1442
1010.547	-996
1010.620	-2422
1010.693	-1089
1010.766	-1490
1010.840	-796
1010.913	-1688
1010.986	-1976
1011.059	-2028
1011.132	-1823
1011.205	-1545
1011.278	-2481
1011.351	-1221
1011.424	-1541
1011.497	-1870
1011.570	-1997
1011.643	-1656
1011.716	-2432
1011.789	-1849
1011.862	-1461
1011.934	-734
1012.007	-2657
1012.080	-934
1012.153	-987
1012.225	-1247
1012.298	-2182
1012.371	-2140
1012.443	-729
1012.516	-1675
1012.588	-1129
1012.661	-1068
1012.733	-1838
1012.806	-729
1012.879	-1680
1012.951	-1990
1013.023	-1853
1013.096	-1615
1013.168	-1869
1013.241	-573
1013.313	-1891
1013.385	-1638
1013.458	-2218
1013.530	-1506
1013.602	-2143
1013.674	-1007
1013.746	-1118
1013.819	-1806
1013.891	-269
1013.963	-1879
1014.035	-1551
1014.107	-1727
1014.179	-1286
1014.251	-1663
1014.323	-1538
1014.395	-2076
1014.467	-1903
1014.539	-1666
1014.611	-2197
1014.683	-767
1014.754	-1890
1014.826	-2046
1014.898	-1777
1014.970	-2173
1015.042	-844
1015.113	-1605
1015.185	-1296
1015.257	-2327
1015.328	-871
1015.400	-1361
1015.471	-1419
1015.543	-2101
1015.615	-1214
1015.686	-1368
1015.757	-1520
1015.829	-1488
1015.901	-1700
1015.972	-1844
1016.043	-1741
1016.115	-1572
1016.186	-2130
1016.257	-2194
1016.328	-1525
1016.400	-715
1016.471	-1993
1016.542	-1863
1016.613	-893
1016.685	-800
1016.756	-1412
1016.827	-1695
1016.898	-2009
1016.969	-1703
1017.040	-1855
1017.111	-1820
1017.182	-1996
1017.253	-1425
1017.324	-1560
1017.395	-1540
1017.466	-1029
1017.537	-2010
1017.608	-630
1017.678	-1812
1017.749	-1281
1017.820	-1253
1017.891	-1288
1017.961	-1647
1018.032	-2102
1018.103	-1916
1018.173	-1989
1018.244	-1641
1018.315	-1532
1018.385	-1278
1018.456	-1696
1018.526	-2203
1018.597	-1955
1018.667	-1701
1018.738	-1456
1018.808	-1866
1018.878	-1405
1018.949	-1258
1019.019	-1947
1019.089	-1642
1019.160	-1913
1019.230	-2503
1019.300	-1060
1019.371	-3203
1019.441	-1641
1019.511	-1938
1019.581	-682
1019.651	-1100
1019.721	-1127
1019.791	-1437
1019.861	-1927
1019.931	-1501
1020.001	-1568
1020.071	-1631
1020.141	-1984
1020.211	-1343
1020.281	-1676
1020.351	-2013
1020.421	-1825
1020.491	-1620
1020.560	-2274
1020.630	-1045
1020.700	-1302
1020.770	-1972
1020.839	-1691
1020.909	-2144
1020.979	-1095
1021.048	-2266
1021.118	-2092
1021.187	-1395
1021.257	-1828
1021.326	-1847
1021.396	-1460
1021.465	-1658
1021.535	-1814
1021.604	-2740
1021.674	-1918
1021.743	-1437
1021.812	-2602
1021.882	-1819
1021.951	-2213
1022.020	-1444
1022.089	-1140
1022.159	-1720
1022.228	-1419
1022.297	-1868
1022.366	-1427
1022.435	-1618
1022.504	-2058
1022.573	-2185
1022.642	-1669
1022.711	-2640
1022.781	-1863
1022.849	-1719
1022.918	-1434
1022.987	-2130
1023.056	-1416
1023.125	-1850
1023.194	-627
1023.263	-1939
1023.331	-1277
1023.400	-2143
1023.469	-2387
1023.538	-1304
1023.606	-1590
1023.675	-1337
1023.744	-1684
1023.812	-1346
1023.881	-2148
1023.949	-1987
1024.018	-2063
1024.086	-1534
1024.155	-1240
1024.223	-1870
1024.292	-1359
1024.360	-1974
1024.429	-1859
1024.497	-2145
1024.565	-1426
1024.634	-1112
1024.702	-1796
1024.770	-1265
1024.838	-2042
1024.907	-2092
1024.975	-1531
1025.043	-709
1025.111	-1658
1025.179	-2010
1025.247	-1817
1025.315	-1996
1025.383	-2374
1025.451	-1989
1025.519	-1636
1025.587	-1500
1025.655	-1294
1025.723	-2147
1025.791	-1624
1025.859	-1004
1025.927	-766
1025.995	-1822
1026.062	-1127
1026.130	-1969
1026.198	-1628
1026.266	-1009
1026.333	-1065
1026.401	-1272
1026.469	-1675
1026.536	-1359
1026.604	-2047
1026.671	-2633
1026.739	-2133
1026.806	-2248
1026.874	-2203
1026.941	-1110
1027.009	-1687
1027.076	-1846
1027.144	-1032
1027.211	-2565
1027.278	-1989
1027.345	-2126
1027.413	-1634
1027.480	-2522
1027.547	-1980
1027.614	-1471
1027.682	-1083
1027.749	-1474
1027.816	-1573
1027.883	-1258
1027.950	-1233
1028.017	-2354
1028.084	-1268
1028.151	-2412
1028.218	-1359
1028.285	-1111
1028.352	-1895
1028.419	-1367
1028.486	-2170
1028.553	-2365
1028.619	-2485
1028.686	-1106
1028.753	-1902
1028.820	-1668
1028.886	-2266
1028.953	-1383
1029.020	-1751
1029.086	-2089
1029.153	-1778
1029.220	-1766
1029.286	-2181
1029.353	-1077
1029.419	-2842
1029.486	-2005
1029.552	-1799
1029.619	-1271
1029.685	-1922
1029.751	-2523
1029.818	-970
1029.884	-1408
1029.951	-922
1030.017	-2110
1030.083	-1597
1030.149	-2250
1030.216	-986
1030.282	-1321
1030.348	-1833
1030.414	-1479
1030.480	-1650
1030.546	-1903
1030.612	-1770
1030.678	-2291
1030.744	-1813
1030.810	-2281
1030.876	-1881
1030.942	-2332
1031.008	-2025
1031.074	-2685
1031.140	-1316
1031.206	-936
1031.272	-2680
1031.337	-1938
1031.403	-1550
1031.469	-2294
1031.534	-1508
1031.600	-1380
1031.666	-1637
1031.731	-2344
1031.797	-1866
1031.863	-2683
1031.928	-1572
1031.994	-1532
1032.059	-2504
1032.125	-1431
1032.190	-2149
1032.256	-1863
1032.321	-2907
1032.386	-2783
1032.452	-1799
1032.517	-2020
1032.582	-2111
1032.647	-1793
1032.713	-1930
1032.778	-1388
1032.843	-2209
1032.908	-1734
1032.974	-1889
1033.039	-2436
1033.104	-1572
1033.169	-1470
1033.234	-2045
1033.299	-1322
1033.364	-1737
1033.429	-2076
1033.494	-1576
1033.559	-1735
1033.624	-2230
1033.688	-1049
1033.753	-2789
1033.818	-1902
1033.883	-2223
1033.948	-1529
1034.013	-2121
1034.077	-2468
1034.142	-1971
1034.207	-2443
1034.271	-1559
1034.336	-1544
1034.400	-1626
1034.465	-1809
1034.530	-2127
1034.594	-2359
1034.658	-2488
1034.723	-1568
1034.787	-2226
1034.852	-1889
1034.916	-2433
1034.981	-2348
1035.045	-1859
1035.109	-2025
1035.173	-1253
1035.238	-2130
1035.302	-1803
1035.366	-2240
1035.430	-1684
1035.495	-2227
1035.559	-1813
1035.623	-1436
1035.687	-2184
1035.751	-1639
1035.815	-2050
1035.879	-1462
1035.943	-2006
1036.007	-2643
1036.071	-2254
1036.135	-2415
1036.198	-2054
1036.262	-2733
1036.326	-1368
1036.390	-2102
1036.454	-1925
1036.517	-2376
1036.581	-2800
1036.645	-1363
1036.709	-1751
1036.772	-2439
1036.836	-1047
1036.900	-1706
1036.963	-2374
1037.026	-2002
1037.090	-2132
1037.154	-1984
1037.217	-2421
1037.280	-2722
1037.344	-2094
1037.407	-2557
1037.471	-2345
1037.534	-2421
1037.597	-2500
1037.661	-1961
1037.724	-2204
1037.787	-1966
1037.850	-1705
1037.913	-2398
1037.977	-2299
1038.040	-1964
1038.103	-1856
1038.166	-2929
1038.229	-1675
1038.292	-2821
1038.355	-2156
1038.418	-1483
1038.481	-1969
1038.544	-2250
1038.607	-2946
1038.670	-1596
1038.732	-1629
1038.795	-2554
1038.858	-1874
1038.921	-1639
1038.984	-2112
1039.046	-2380
1039.109	-2016
1039.172	-2844
1039.234	-2311
1039.297	-2936
1039.360	-2084
1039.422	-2077
1039.485	-2021
1039.547	-2454
1039.610	-1996
1039.672	-1947
1039.734	-1942
1039.797	-1628
1039.859	-1919
1039.922	-1798
1039.984	-2398
1040.046	-1785
1040.109	-2092
1040.171	-2590
1040.233	-1645
1040.295	-2816
1040.358	-2745
1040.420	-1720
1040.482	-2150
1040.544	-1652
1040.606	-2166
1040.668	-2604
1040.730	-1945
1040.792	-1824
1040.854	-2076
1040.916	-1478
1040.978	-2524
1041.040	-1224
1041.102	-2283
1041.164	-1718
1041.225	-1751
1041.287	-2046
1041.349	-2949
1041.411	-2854
1041.472	-2439
1041.534	-2782
1041.596	-2571
1041.657	-2738
1041.719	-2520
1041.781	-2529
1041.842	-2483
1041.904	-1823
1041.965	-1777
1042.027	-1626
1042.088	-2792
1042.150	-2468
1042.211	-2441
1042.272	-1307
1042.334	-2691
1042.395	-2302
1042.456	-2374
1042.518	-2408
1042.579	-2070
1042.640	-3087
1042.701	-2482
1042.763	-2167
1042.824	-2862
1042.885	-2583
1042.946	-2922
1043.007	-2515
1043.068	-1937
1043.129	-2114
1043.190	-2116
1043.251	-1803
1043.312	-2209
1043.373	-2187
1043.434	-2906
1043.495	-2831
1043.556	-1586
1043.616	-1403
1043.677	-2668
1043.738	-2131
1043.799	-2666
1043.859	-1259
1043.920	-2599
1043.981	-1965
1044.041	-2351
1044.102	-2181
1044.162	-2192
1044.223	-2807
1044.284	-2418
1044.344	-2003
1044.405	-2505
1044.465	-2570
1044.525	-2250
1044.586	-2342
1044.646	-2240
1044.707	-1797
1044.767	-2316
1044.827	-2206
1044.887	-2294
1044.948	-1723
1045.008	-2092
1045.068	-2269
1045.128	-1684
1045.188	-2053
1045.249	-1623
1045.309	-2093
1045.369	-2665
1045.429	-2038
1045.489	-2026
1045.549	-1492
1045.609	-2586
1045.669	-1715
1045.729	-2339
1045.789	-2488
1045.848	-1862
1045.908	-2085
1045.968	-2129
1046.028	-1989
1046.088	-2129
1046.147	-1568
1046.207	-1550
1046.267	-1703
1046.326	-1929
1046.386	-1631
1046.446	-1372
1046.505	-1223
1046.565	-523
1046.624	-1207
1046.684	-1265
1046.743	-1089
1046.803	-774
1046.862	-599
1046.922	0
