'Start Wavelength	183.907
'End Wavelength	1046.922
'Gate Delay	5.000
'Gate Width (ms)	1.050
'Laser Output Level	0.000
'X Position	0.000
'Y Position	0.000
'Z Position	0.000
'Grid Point Number	1.000
'Shot Number	100.000
183.907	275.000
183.977	357.000
184.047	839
184.116	849
184.186	-245
184.256	712
184.325	145
184.395	-477
184.465	962
184.534	262
184.604	713
184.674	582
184.743	-481
184.813	893
184.883	-133
184.952	1096
185.022	1035
185.092	1380
185.161	167
185.231	1729
185.301	1570
185.370	610
185.440	-478
185.509	258
185.579	84
185.649	-129
185.718	-210
185.788	886
185.857	224
185.927	163
185.996	144
186.066	266
186.136	110
186.205	257
186.275	1795
186.344	1185
186.414	423
186.483	18
186.553	1876
186.622	6180
186.692	1697
186.761	777
186.831	720
186.900	202
186.970	835
187.039	1581
187.109	2800
187.178	1576
187.248	1120
187.317	1935
187.387	257
187.456	1332
187.526	2954
187.595	2067
187.664	1191
187.734	1600
187.803	891
187.873	1614
187.942	3366
188.012	1076
188.081	1499
188.150	2064
188.220	3029
188.289	4524
188.358	2068
188.428	1282
188.497	488
188.567	1936
188.636	910
188.705	1656
188.775	1413
188.844	1118
188.913	1791
188.983	1433
189.052	945
189.121	2243
189.191	1373
189.260	4055
189.329	4714
189.399	3060
189.468	2032
189.537	1438
189.606	2127
189.676	2081
189.745	1791
189.814	3012
189.883	2582
189.953	3758
190.022	7028
190.091	21403
190.161	31850
190.230	9969
190.299	2747
190.368	2207
190.437	1971
190.507	2659
190.576	2101
190.645	2323
190.714	1540
190.783	1875
190.853	1577
190.922	2088
190.991	2387
191.060	2177
191.129	585
191.198	2330
191.268	1277
191.337	2008
191.406	2153
191.475	1784
191.544	1124
191.613	2226
191.682	1642
191.752	1916
191.821	1708
191.890	2028
191.959	2202
192.028	1935
192.097	1656
192.166	1509
192.235	1491
192.304	2819
192.373	1670
192.442	1911
192.511	936
192.580	2545
192.650	1819
192.719	2098
192.788	3166
192.857	2586
192.926	2451
192.995	4588
193.064	12884
193.133	12112
193.202	11054
193.271	9663
193.340	7084
193.409	7349
193.478	7678
193.547	11656
193.615	17424
193.684	15204
193.753	8978
193.822	5272
193.891	3701
193.960	3675
194.029	3263
194.098	5172
194.167	2574
194.236	3025
194.305	2381
194.374	2544
194.443	2125
194.512	3671
194.580	2846
194.649	3992
194.718	3214
194.787	3232
194.856	1516
194.925	3228
194.994	3517
195.062	4023
195.131	3389
195.200	5211
195.269	5630
195.338	5001
195.407	2847
195.475	4678
195.544	4977
195.613	4856
195.682	3467
195.751	5393
195.819	5521
195.888	4371
195.957	5362
196.026	5459
196.094	4980
196.163	4700
196.232	4865
196.301	4679
196.369	4132
196.438	5175
196.507	4577
196.576	3666
196.644	3287
196.713	3337
196.782	3203
196.850	3967
196.919	2298
196.988	4201
197.056	3738
197.125	4692
197.194	4353
197.262	3833
197.331	3215
197.400	3355
197.468	3503
197.537	4799
197.606	5417
197.674	10809
197.743	33008
197.812	12362
197.880	30076
197.949	19397
198.017	25864
198.086	19833
198.155	7410
198.223	10175
198.292	37573
198.360	16513
198.429	8305
198.497	7667
198.566	19871
198.635	36445
198.703	10086
198.772	10452
198.840	42073
198.909	51503
198.977	13818
199.046	14591
199.114	8302
199.183	8175
199.251	5235
199.320	5808
199.388	5077
199.457	4802
199.525	4792
199.594	5394
199.662	4187
199.731	4732
199.799	4510
199.867	6540
199.936	4956
200.004	5189
200.073	5100
200.141	4577
200.210	3827
200.278	3442
200.346	3778
200.415	5510
200.483	5766
200.552	4617
200.620	3831
200.688	5184
200.757	3740
200.825	5223
200.893	4826
200.962	5526
201.030	4152
201.098	5410
201.167	5561
201.235	5287
201.303	5710
201.372	5282
201.440	4514
201.508	6468
201.577	6334
201.645	6018
201.713	4740
201.781	5217
201.850	6245
201.918	5972
201.986	4688
202.055	5900
202.123	4681
202.191	5083
202.259	4263
202.327	4549
202.396	5028
202.464	6325
202.532	7649
202.600	27047
202.669	16325
202.737	6796
202.805	5030
202.873	4752
202.941	5705
203.009	5059
203.078	4338
203.146	5501
203.214	4418
203.282	4938
203.350	5315
203.418	4999
203.487	5797
203.555	5362
203.623	4769
203.691	6000
203.759	5001
203.827	5791
203.895	5951
203.963	6431
204.031	5402
204.099	7526
204.168	5616
204.236	5870
204.304	5941
204.372	7076
204.440	6239
204.508	6948
204.576	5872
204.644	6187
204.712	5345
204.780	6441
204.848	5290
204.916	5740
204.984	4893
205.052	6118
205.120	6382
205.188	7128
205.256	6457
205.324	6659
205.392	6999
205.460	8813
205.528	10899
205.596	7892
205.664	7477
205.732	8309
205.799	35269
205.867	66943
205.935	17099
206.003	9504
206.071	7732
206.139	10743
206.207	8573
206.275	7774
206.343	6301
206.411	6696
206.478	6166
206.546	8069
206.614	8344
206.682	6728
206.750	6151
206.818	11242
206.885	12259
206.953	5781
207.021	6898
207.089	6636
207.157	6418
207.225	9465
207.292	8371
207.360	8131
207.428	8720
207.496	6814
207.563	6599
207.631	6807
207.699	6479
207.767	6935
207.834	6956
207.902	7472
207.970	7214
208.038	8219
208.105	7080
208.173	8387
208.241	13468
208.309	12287
208.376	10069
208.444	22477
208.512	14326
208.579	7492
208.647	10295
208.715	12034
208.782	8779
208.850	8054
208.918	7519
208.985	7678
209.053	7990
209.120	9056
209.188	6801
209.256	7401
209.323	7187
209.391	12458
209.459	10423
209.526	8182
209.594	7182
209.661	8070
209.729	8177
209.796	8430
209.864	8406
209.932	7654
209.999	9677
210.067	10192
210.134	9188
210.202	9499
210.269	11517
210.337	14902
210.404	11457
210.472	9372
210.539	9312
210.607	9974
210.674	12019
210.742	9614
210.809	8757
210.877	10200
210.944	11484
211.012	9810
211.079	11100
211.146	9646
211.214	10097
211.281	17009
211.349	15978
211.416	11154
211.484	11205
211.551	10229
211.618	10052
211.686	10715
211.753	9311
211.821	10615
211.888	10658
211.955	11856
212.023	10576
212.090	11934
212.157	12703
212.225	15883
212.292	31067
212.359	72402
212.427	259460
212.494	108652
212.561	29996
212.629	17791
212.696	15019
212.763	14642
212.831	11698
212.898	13298
212.965	11636
213.032	12468
213.100	12106
213.167	12459
213.234	13942
213.301	11194
213.369	11187
213.436	12206
213.503	10573
213.570	11311
213.638	11307
213.705	9678
213.772	8603
213.839	13978
213.906	15903
213.973	12166
214.041	10164
214.108	10166
214.175	9665
214.242	9355
214.309	9257
214.376	11688
214.444	10728
214.511	13471
214.578	12720
214.645	12164
214.712	12426
214.779	11577
214.846	11506
214.913	12417
214.980	14047
215.048	16379
215.115	16835
215.182	14352
215.249	12670
215.316	11918
215.383	10353
215.450	9514
215.517	9214
215.584	9254
215.651	7857
215.718	9566
215.785	11523
215.852	11346
215.919	11337
215.986	11787
216.053	9124
216.120	8515
216.187	10243
216.254	11320
216.321	10186
216.388	11386
216.455	12686
216.522	11852
216.589	15600
216.656	28068
216.722	31481
216.789	19640
216.856	20483
216.923	18671
216.990	14588
217.057	14538
217.124	15993
217.191	16821
217.258	20745
217.324	27104
217.391	31301
217.458	23089
217.525	17756
217.592	14577
217.659	12816
217.725	15869
217.792	25453
217.859	24118
217.926	10690
217.993	9405
218.059	9216
218.126	9069
218.193	8677
218.260	8859
218.327	7867
218.393	8557
218.460	8310
218.527	7894
218.594	9654
218.660	24608
218.727	25569
218.794	12038
218.860	8368
218.927	7653
218.994	7404
219.061	8503
219.127	11005
219.194	22768
219.261	11308
219.327	8287
219.394	7749
219.461	6749
219.527	8234
219.594	16524
219.661	12822
219.727	8378
219.794	9698
219.860	8915
219.927	10229
219.994	14124
220.060	27137
220.127	19139
220.193	13561
220.260	14713
220.326	20286
220.393	34123
220.460	52164
220.526	32904
220.593	20776
220.659	20843
220.726	25259
220.792	92821
220.859	70093
220.925	60456
220.992	91723
221.058	112360
221.125	136861
221.191	103865
221.258	35602
221.324	20404
221.391	17811
221.457	14781
221.524	14078
221.590	23719
221.657	131091
221.723	94605
221.789	75803
221.856	65595
221.922	28815
221.989	15925
222.055	13075
222.121	11804
222.188	12071
222.254	12004
222.321	9690
222.387	8052
222.453	7228
222.520	7180
222.586	6161
222.652	8095
222.719	6350
222.785	8266
222.851	7338
222.918	7654
222.984	5874
223.050	6147
223.116	6264
223.183	8798
223.249	5772
223.315	5427
223.382	6644
223.448	6391
223.514	5120
223.580	5218
223.647	5520
223.713	5534
223.779	5232
223.845	6300
223.911	6568
223.978	5391
224.044	7035
224.110	5798
224.176	5196
224.242	5906
224.309	4377
224.375	5513
224.441	4814
224.507	5526
224.573	5550
224.639	6751
224.705	4439
224.772	6206
224.838	4636
224.904	9334
224.970	6961
225.036	7553
225.102	7311
225.168	8029
225.234	7168
225.300	7937
225.366	7650
225.432	7274
225.499	6419
225.565	8035
225.631	8801
225.697	8706
225.763	10811
225.829	13226
225.895	13978
225.961	24852
226.027	21437
226.093	17380
226.159	19967
226.225	29923
226.291	74725
226.357	140888
226.423	65523
226.489	34376
226.554	22511
226.620	20705
226.686	26333
226.752	39585
226.818	66027
226.884	190733
226.950	175030
227.016	61444
227.082	31139
227.148	22338
227.214	21290
227.279	16000
227.345	11532
227.411	12890
227.477	12013
227.543	23647
227.609	28277
227.674	15071
227.740	10543
227.806	12810
227.872	12122
227.938	10338
228.003	16311
228.069	9765
228.135	7191
228.201	8703
228.267	7116
228.332	10279
228.398	15731
228.464	11492
228.530	7082
228.595	7753
228.661	7182
228.727	16726
228.792	12086
228.858	7801
228.924	10461
228.990	15018
229.055	11145
229.121	15477
229.187	8216
229.252	10064
229.318	6633
229.384	7358
229.449	11243
229.515	6334
229.581	4917
229.646	8627
229.712	8767
229.777	28719
229.843	34826
229.909	18139
229.974	15187
230.040	14721
230.105	11484
230.171	15131
230.236	21369
230.302	39546
230.368	30057
230.433	27349
230.499	15446
230.564	11205
230.630	8398
230.695	9504
230.761	8252
230.826	7825
230.892	15241
230.957	10340
231.023	7693
231.088	7763
231.154	7883
231.219	9593
231.284	16597
231.350	17659
231.415	8426
231.481	8662
231.546	6353
231.612	7131
231.677	6750
231.742	7233
231.808	8836
231.873	8253
231.939	7752
232.004	15849
232.069	18673
232.135	12353
232.200	11099
232.265	7130
232.331	6045
232.396	5933
232.461	5804
232.527	7131
232.592	7133
232.657	8519
232.723	28702
232.788	24143
232.853	9483
232.918	8034
232.984	7580
233.049	8142
233.114	27024
233.179	25537
233.245	41651
233.310	64614
233.375	15979
233.440	12432
233.506	23040
233.571	21360
233.636	10894
233.701	10196
233.766	32072
233.832	49081
233.897	15674
233.962	13623
234.027	14988
234.092	12368
234.157	10957
234.222	12845
234.288	27846
234.353	133279
234.418	105869
234.483	47106
234.548	24588
234.613	16988
234.678	16157
234.743	22383
234.808	110624
234.873	80942
234.938	23334
235.004	14984
235.069	14044
235.134	15623
235.199	13254
235.264	12256
235.329	10666
235.394	13490
235.459	20671
235.524	21405
235.589	14516
235.654	12418
235.719	10634
235.784	13113
235.849	17734
235.913	56373
235.978	63325
236.043	77072
236.108	26189
236.173	23238
236.238	24966
236.303	16758
236.368	17599
236.433	33937
236.498	79548
236.563	40304
236.627	61292
236.692	259701
236.757	218139
236.822	85699
236.887	67619
236.952	47100
237.017	39810
237.081	40766
237.146	45445
237.211	101394
237.276	255488
237.341	494170
237.405	224756
237.470	78813
237.535	58932
237.600	34264
237.664	25902
237.729	23194
237.794	29797
237.859	57668
237.923	53616
237.988	32144
238.053	45415
238.118	54012
238.182	182549
238.247	177832
238.312	69296
238.376	39588
238.441	32615
238.506	26470
238.570	15575
238.635	15967
238.700	14630
238.764	16284
238.829	63880
238.893	98474
238.958	32044
239.023	23233
239.087	16667
239.152	18777
239.216	14617
239.281	13215
239.346	12502
239.410	14800
239.475	23177
239.539	166965
239.604	162213
239.668	36200
239.733	18566
239.797	19696
239.862	46463
239.926	123111
239.991	52563
240.055	20431
240.120	15526
240.184	14518
240.249	14541
240.313	14651
240.378	17040
240.442	83340
240.507	178287
240.571	51314
240.635	66072
240.700	93909
240.764	28139
240.829	17214
240.893	12324
240.957	16580
241.022	78495
241.086	162724
241.151	75409
241.215	22702
241.279	29719
241.344	77144
241.408	31227
241.472	16413
241.537	16797
241.601	14510
241.665	12410
241.730	13400
241.794	17162
241.858	13300
241.922	13204
241.987	13677
242.051	12120
242.115	11455
242.179	10761
242.244	12317
242.308	14501
242.372	17666
242.436	26311
242.501	16415
242.565	13213
242.629	12896
242.693	12969
242.757	12072
242.822	14759
242.886	16993
242.950	18029
243.014	23040
243.078	19353
243.142	18066
243.206	19896
243.271	25663
243.335	25050
243.399	35686
243.463	175918
243.527	552748
243.591	172268
243.655	49848
243.719	27724
243.783	25602
243.847	42740
243.911	66141
243.975	60215
244.040	40004
244.104	20096
244.168	15580
244.232	23447
244.296	38681
244.360	51799
244.424	32316
244.488	30168
244.552	24564
244.615	18744
244.679	16343
244.743	19216
244.807	21607
244.871	12751
244.935	12993
244.999	12292
245.063	13903
245.127	15494
245.191	35237
245.255	36076
245.319	22164
245.383	19135
245.446	17175
245.510	13251
245.574	15534
245.638	15013
245.702	15748
245.766	44921
245.829	27796
245.893	26959
245.957	19318
246.021	18536
246.085	20116
246.149	28968
246.212	61068
246.276	112230
246.340	46652
246.404	27645
246.467	27501
246.531	47877
246.595	31358
246.659	27213
246.722	25077
246.786	24796
246.850	27198
246.913	38129
246.977	21492
247.041	20890
247.104	24462
247.168	20215
247.232	52122
247.295	153637
247.359	70220
247.423	27938
247.486	47944
247.550	30032
247.614	22857
247.677	28772
247.741	20965
247.804	20249
247.868	32442
247.932	54857
247.995	141418
248.059	54394
248.122	24993
248.186	28822
248.249	50766
248.313	235266
248.376	238985
248.440	154808
248.503	52486
248.567	34281
248.630	50633
248.694	61573
248.757	81158
248.821	260214
248.884	125492
248.948	117458
249.011	174896
249.075	300288
249.138	249810
249.202	80850
249.265	51887
249.328	103262
249.392	59578
249.455	36588
249.519	30087
249.582	34816
249.645	53665
249.709	44139
249.772	35392
249.835	34850
249.899	51809
249.962	35808
250.025	31776
250.089	87169
250.152	118606
250.215	54519
250.279	43576
250.342	45116
250.405	46197
250.468	40640
250.532	52785
250.595	85886
250.658	478330
250.721	903544
250.785	252951
250.848	101213
250.911	62838
250.974	54018
251.038	74610
251.101	162086
251.164	94319
251.227	82191
251.290	75737
251.354	119294
251.417	702197
251.480	719774
251.543	376801
251.606	1388947
251.669	1018270
251.732	298980
251.795	233723
251.859	257230
251.922	829010
251.985	452843
252.048	134593
252.111	89705
252.174	79768
252.237	126037
252.300	318849
252.363	370643
252.426	1059458
252.489	404874
252.552	166144
252.615	108599
252.678	100892
252.741	238461
252.804	379747
252.867	1104993
252.930	527344
252.993	222420
253.056	109945
253.119	76457
253.182	65569
253.245	138272
253.308	101167
253.371	88514
253.434	76496
253.497	64051
253.559	127608
253.622	83708
253.685	102119
253.748	92613
253.811	51422
253.874	83515
253.937	83948
254.000	44825
254.062	81239
254.125	144931
254.188	91975
254.251	84153
254.314	46682
254.376	76841
254.439	79453
254.502	64859
254.565	85942
254.628	153157
254.690	79291
254.753	45075
254.816	37731
254.878	47296
254.941	103281
255.004	114850
255.067	48151
255.129	38991
255.192	24091
255.255	19824
255.317	25398
255.380	19569
255.443	16255
255.505	17393
255.568	18493
255.631	17114
255.693	18492
255.756	16100
255.819	16517
255.881	16131
255.944	16274
256.006	19158
256.069	19463
256.132	16155
256.194	28299
256.257	124955
256.319	91383
256.382	80301
256.444	32272
256.507	22296
256.569	20330
256.632	24051
256.694	51452
256.757	111412
256.819	373270
256.882	149301
256.944	53825
257.007	34579
257.069	39274
257.132	27945
257.194	22090
257.257	22263
257.319	24897
257.381	29927
257.444	79663
257.506	447541
257.569	454632
257.631	198840
257.693	95393
257.756	52402
257.818	55122
257.880	30459
257.943	23766
258.005	21315
258.067	20199
258.130	18630
258.192	24322
258.254	66185
258.317	45236
258.379	24105
258.441	64272
258.503	66642
258.566	143090
258.628	216431
258.690	49577
258.753	28911
258.815	44557
258.877	27388
258.939	20094
259.001	17633
259.064	18953
259.126	32308
259.188	54997
259.250	29642
259.312	34383
259.375	81067
259.437	54297
259.499	23924
259.561	20460
259.623	21636
259.685	20451
259.747	26291
259.809	132676
259.872	294036
259.934	442234
259.996	348021
260.058	71248
260.120	34331
260.182	25349
260.244	21515
260.306	19322
260.368	19666
260.430	18696
260.492	25058
260.554	55859
260.616	61733
260.678	146354
260.740	280616
260.802	66674
260.864	34755
260.926	26858
260.988	25779
261.050	25770
261.112	38105
261.174	220543
261.236	246569
261.298	57920
261.359	106861
261.421	174825
261.483	44553
261.545	27761
261.607	20565
261.669	21584
261.731	59429
261.793	159900
261.854	55616
261.916	30198
261.978	20511
262.040	26427
262.102	26617
262.164	58364
262.225	48123
262.287	22571
262.349	49225
262.411	41674
262.472	22959
262.534	68995
262.596	182481
262.658	52934
262.719	26284
262.781	37257
262.843	166603
262.904	73583
262.966	43228
263.028	54240
263.090	306384
263.151	873136
263.213	254098
263.275	81464
263.336	40273
263.398	28776
263.459	21955
263.521	21348
263.583	43394
263.644	32987
263.706	17471
263.767	15410
263.829	13680
263.891	12057
263.952	11321
264.014	10750
264.075	11787
264.137	17251
264.198	17131
264.260	11414
264.321	10815
264.383	23152
264.444	35253
264.506	14833
264.567	12248
264.629	13893
264.690	15131
264.752	14945
264.813	13433
264.875	11206
264.936	11458
264.998	10893
265.059	11577
265.120	13417
265.182	24281
265.243	153537
265.305	153975
265.366	38865
265.427	19666
265.489	15461
265.550	11173
265.611	15368
265.673	14086
265.734	11628
265.795	11821
265.857	13251
265.918	15684
265.979	36085
266.040	280572
266.102	229052
266.163	55762
266.224	32942
266.286	19569
266.347	14999
266.408	14817
266.469	25106
266.530	19448
266.592	12333
266.653	27218
266.714	48283
266.775	16459
266.836	11497
266.898	10592
266.959	15813
267.020	10903
267.081	10860
267.142	9145
267.203	9434
267.264	9130
267.326	12895
267.387	9359
267.448	8363
267.509	9235
267.570	10587
267.631	8251
267.692	7948
267.753	8587
267.814	8446
267.875	22273
267.936	57161
267.997	20442
268.058	17584
268.119	12958
268.180	12316
268.241	9707
268.302	8545
268.363	8400
268.424	11795
268.485	15714
268.546	11238
268.607	7880
268.668	7895
268.729	7329
268.790	9522
268.851	8820
268.912	28259
268.972	38576
269.033	18932
269.094	10196
269.155	8952
269.216	9307
269.277	18955
269.338	12528
269.398	9866
269.459	12373
269.520	16297
269.581	21595
269.642	26170
269.702	17642
269.763	14033
269.824	11331
269.885	15463
269.945	23343
270.006	11970
270.067	9289
270.128	8847
270.188	9717
270.249	9455
270.310	8996
270.370	11701
270.431	18013
270.492	10965
270.553	11791
270.613	25494
270.674	52534
270.734	25492
270.795	13432
270.856	20286
270.916	19787
270.977	12840
271.038	14169
271.098	16267
271.159	24287
271.219	30844
271.280	15190
271.340	12310
271.401	20046
271.462	84377
271.522	37463
271.583	18619
271.643	21873
271.704	16817
271.764	18088
271.825	37448
271.885	178384
271.946	287978
272.006	74717
272.066	109500
272.127	227242
272.187	60403
272.248	30605
272.308	30153
272.369	142297
272.429	79317
272.489	45605
272.550	43780
272.610	38129
272.671	32486
272.731	44994
272.791	98520
272.852	38183
272.912	28524
272.972	18630
273.033	18739
273.093	41621
273.153	29670
273.214	19695
273.274	21985
273.334	74273
273.394	182653
273.455	65520
273.515	55769
273.575	134669
273.635	56982
273.696	98086
273.756	221541
273.816	77638
273.876	42322
273.936	148406
273.997	315886
274.057	72668
274.117	40254
274.177	43719
274.237	209257
274.297	223562
274.358	201797
274.418	157693
274.478	102537
274.538	43170
274.598	45215
274.658	238391
274.718	331347
274.778	114101
274.838	50341
274.898	118604
274.958	461931
275.018	291345
275.078	154433
275.138	55378
275.198	32763
275.258	25239
275.318	38447
275.378	60930
275.438	48439
275.498	38333
275.558	181528
275.618	395706
275.678	158653
275.738	70634
275.798	46264
275.858	24465
275.918	19415
275.978	21946
276.038	21816
276.098	18176
276.157	34015
276.217	96805
276.277	46345
276.337	32316
276.397	20588
276.457	23717
276.517	18967
276.576	15184
276.636	15892
276.696	24865
276.756	71317
276.815	58538
276.875	26477
276.935	33187
276.995	26295
277.055	17930
277.114	17341
277.174	24506
277.234	78862
277.293	38640
277.353	23900
277.413	17815
277.472	20762
277.532	22097
277.592	22588
277.651	82595
277.711	170376
277.771	56298
277.830	171506
277.890	145802
277.950	122214
278.009	409750
278.069	142276
278.128	111456
278.188	161573
278.248	64702
278.307	177130
278.367	120759
278.426	48795
278.486	30467
278.545	27125
278.605	24819
278.664	23781
278.724	26457
278.783	73343
278.843	220551
278.902	70554
278.962	40135
279.021	45568
279.081	115322
279.140	119850
279.199	55988
279.259	50461
279.318	55588
279.378	71545
279.437	116770
279.496	415700
279.556	1952198
279.615	1727455
279.675	419164
279.734	204600
279.793	274579
279.853	396469
279.912	135576
279.971	80531
280.031	66944
280.090	96627
280.149	159486
280.208	191180
280.268	1302286
280.327	1508608
280.386	337520
280.445	173000
280.505	119614
280.564	66548
280.623	51040
280.682	62008
280.742	86331
280.801	40149
280.860	30495
280.919	26136
280.978	26078
281.037	26189
281.097	23062
281.156	24256
281.215	23132
281.274	27677
281.333	115425
281.392	98720
281.451	29509
281.510	22641
281.569	21599
281.628	27805
281.688	24722
281.747	20457
281.806	18932
281.865	16151
281.924	15640
281.983	16673
282.042	13585
282.101	12732
282.160	13199
282.219	13686
282.278	15249
282.337	50865
282.396	37198
282.454	17179
282.513	19001
282.572	69952
282.631	43861
282.690	18501
282.749	15072
282.808	17975
282.867	17827
282.926	17949
282.985	11927
283.043	11985
283.102	12877
283.161	19668
283.220	40791
283.279	98612
283.338	33516
283.396	19461
283.455	17334
283.514	17432
283.573	26987
283.631	23405
283.690	16636
283.749	15123
283.808	31708
283.866	37965
283.925	17736
283.984	17199
284.043	23228
284.101	27081
284.160	18604
284.219	19484
284.277	18754
284.336	28599
284.395	101566
284.453	96926
284.512	34300
284.570	39334
284.629	33998
284.688	30315
284.746	33732
284.805	38959
284.863	48652
284.922	58472
284.981	63374
285.039	84297
285.098	143111
285.156	424358
285.215	1644091
285.273	1622892
285.332	572635
285.390	260290
285.449	145169
285.507	94983
285.566	71283
285.624	55204
285.683	45098
285.741	38871
285.799	33815
285.858	34679
285.916	29266
285.975	22874
286.033	20122
286.091	19432
286.150	18049
286.208	18629
286.267	20019
286.325	20464
286.383	29363
286.442	26039
286.500	16662
286.558	15330
286.616	15157
286.675	20266
286.733	18439
286.791	18129
286.850	19921
286.908	25514
286.966	39747
287.024	21831
287.083	16899
287.141	15934
287.199	16405
287.257	25494
287.315	19955
287.374	23517
287.432	43227
287.490	32830
287.548	23921
287.606	20890
287.664	20272
287.723	26889
287.781	32174
287.839	29332
287.897	35788
287.955	46285
288.013	69605
288.071	159449
288.129	839149
288.187	2672808
288.245	1165052
288.303	351357
288.361	180023
288.419	108506
288.477	72904
288.535	54072
288.593	41187
288.651	33281
288.709	27231
288.767	24372
288.825	22962
288.883	19204
288.941	18400
288.999	18155
289.057	16364
289.115	15753
289.173	15915
289.231	15870
289.289	17417
289.346	15158
289.404	16186
289.462	26704
289.520	28913
289.578	17213
289.636	11877
289.694	10805
289.751	10969
289.809	11616
289.867	10635
289.925	14218
289.983	17033
290.040	11146
290.098	9679
290.156	13888
290.214	15584
290.271	11058
290.329	8948
290.387	7894
290.444	8598
290.502	7557
290.560	8028
290.617	8510
290.675	9108
290.733	9014
290.790	12119
290.848	8842
290.906	11485
290.963	11859
291.021	9882
291.078	9958
291.136	10078
291.194	27638
291.251	65223
291.309	22690
291.366	9931
291.424	9536
291.481	8798
291.539	11298
291.596	12748
291.654	8403
291.711	6976
291.769	11430
291.826	27018
291.884	18471
291.941	10009
291.999	9991
292.056	11571
292.114	12559
292.171	9139
292.228	11135
292.286	12844
292.343	26402
292.401	32493
292.458	21923
292.515	14287
292.573	16147
292.630	17839
292.687	25780
292.745	16842
292.802	16484
292.859	40358
292.917	104370
292.974	60302
293.031	22325
293.089	13503
293.146	11018
293.203	9547
293.260	9954
293.318	16340
293.375	15033
293.432	9954
293.489	9867
293.546	10877
293.604	23008
293.661	102018
293.718	244990
293.775	100925
293.832	42747
293.889	32430
293.947	36594
294.004	24147
294.061	18868
294.118	34660
294.175	61461
294.232	41480
294.289	23100
294.346	16421
294.403	18409
294.460	25948
294.517	20016
294.574	14028
294.631	13023
294.688	15144
294.745	50724
294.802	210832
294.859	147223
294.916	62805
294.973	47380
295.030	31547
295.087	26362
295.144	17794
295.201	15424
295.258	13710
295.315	19315
295.372	84368
295.429	179699
295.486	69518
295.542	29031
295.599	27436
295.656	37304
295.713	61440
295.770	128166
295.827	50013
295.883	22198
295.940	19974
295.997	32431
296.054	33321
296.111	18408
296.167	13081
296.224	11511
296.281	9662
296.338	10500
296.394	11650
296.451	17380
296.508	55322
296.564	99590
296.621	61042
296.678	192162
296.734	291251
296.791	94250
296.848	42883
296.904	36345
296.961	73003
297.018	158453
297.074	122039
297.131	45903
297.187	30170
297.244	41041
297.301	197523
297.357	378275
297.414	132196
297.470	49641
297.527	28290
297.583	22278
297.640	21805
297.696	18031
297.753	13440
297.809	11977
297.866	10834
297.922	12663
297.979	12715
298.035	13849
298.092	25955
298.148	86859
298.204	82269
298.261	38871
298.317	74734
298.374	252175
298.430	150625
298.486	80005
298.543	60456
298.599	40944
298.656	30087
298.712	60451
298.768	198825
298.824	160335
298.881	50724
298.937	26638
298.993	21336
299.050	25119
299.106	21647
299.162	19456
299.218	17858
299.275	16384
299.331	17656
299.387	44303
299.443	217390
299.500	218609
299.556	77339
299.612	38225
299.668	28006
299.724	29758
299.780	29895
299.837	21036
299.893	32662
299.949	132068
300.005	150671
300.061	140245
300.117	278951
300.173	139326
300.229	56749
300.285	57762
300.341	56627
300.397	30409
300.453	20821
300.510	17274
300.566	17408
300.622	20386
300.678	55424
300.734	108550
300.790	136706
300.845	198516
300.901	109605
300.957	126574
301.013	99114
301.069	41981
301.125	27002
301.181	27464
301.237	19773
301.293	15750
301.349	12651
301.405	13246
301.461	11962
301.516	13042
301.572	16885
301.628	31359
301.684	30027
301.740	46978
301.796	76007
301.851	53380
301.907	83058
301.963	84751
302.019	202228
302.074	653983
302.130	635223
302.186	270117
302.242	105968
302.297	60273
302.353	50306
302.409	88193
302.464	74708
302.520	64917
302.576	184121
302.631	210410
302.687	106240
302.743	47504
302.798	27073
302.854	19596
302.910	17999
302.965	23346
303.021	43128
303.076	41404
303.132	53404
303.187	60685
303.243	33710
303.299	19844
303.354	15974
303.410	15110
303.465	14003
303.521	14395
303.576	14487
303.632	19478
303.687	53097
303.743	195928
303.798	160092
303.853	63707
303.909	30433
303.964	22614
304.020	29933
304.075	42421
304.130	37945
304.186	68352
304.241	69952
304.297	56632
304.352	31116
304.358	29942
304.407	20439
304.449	18212
304.463	17474
304.518	18488
304.539	17960
304.573	17274
304.629	18733
304.630	19112
304.684	37634
304.720	109430
304.739	144791
304.794	226101
304.811	190349
304.850	107031
304.902	49653
304.905	45967
304.960	30673
304.992	32242
305.015	33155
305.071	27093
305.083	24998
305.126	17692
305.173	13713
305.181	13102
305.236	11857
305.264	13051
305.292	14195
305.347	16219
305.354	16382
305.402	18030
305.445	24491
305.457	26077
305.512	33321
305.535	31001
305.567	29382
305.622	29945
305.626	31578
305.678	65069
305.716	152088
305.733	183637
305.788	192130
305.807	165215
305.843	123528
305.897	191482
305.898	192184
305.953	185153
305.988	118422
306.008	83509
306.063	42790
306.078	37958
306.118	26696
306.168	19760
306.173	19148
306.228	15945
306.259	15264
306.283	15099
306.338	14871
306.349	15824
306.393	19587
306.440	25563
306.448	26528
306.503	22703
306.530	22844
306.558	26627
306.613	49747
306.620	53725
306.668	79327
306.711	124486
306.723	131942
306.778	103250
306.801	77467
306.833	50044
306.888	27020
306.892	26259
306.943	18909
306.982	16162
306.997	15171
307.052	14533
307.072	14536
307.107	15124
307.162	16995
307.163	17054
307.217	21655
307.253	24297
307.272	25146
307.327	26572
307.343	25548
307.381	25956
307.434	27931
307.436	28555
307.491	51650
307.524	79729
307.546	87566
307.600	92261
307.614	81416
307.655	53586
307.704	33259
307.710	31913
307.765	30816
307.795	36409
307.819	40035
307.874	53524
307.885	53130
307.929	54401
307.975	57248
307.984	63372
308.038	111315
308.065	144608
308.093	280427
308.148	644481
308.156	734251
308.202	1029133
308.246	1111720
308.257	1083478
308.312	527408
308.336	338332
308.366	232708
308.421	131090
308.426	123933
308.475	79107
308.517	58391
308.530	53010
308.585	43914
308.607	41559
308.639	40476
308.694	42123
308.697	42549
308.748	51733
308.787	65285
308.803	67623
308.857	61194
308.877	57316
308.912	58438
308.967	66113
308.967	66305
309.021	106390
309.058	139276
309.076	193717
309.130	380286
309.148	457334
309.185	890760
309.238	1718824
309.239	1719847
309.293	1666999
309.328	1294895
309.348	1079652
309.402	447846
309.418	305847
309.457	198106
309.508	122550
309.511	119807
309.566	110306
309.598	114247
309.620	120900
309.674	153919
309.688	162597
309.729	144577
309.778	102630
309.783	100652
309.837	79061
309.868	70681
309.892	86173
309.946	134462
309.959	149799
310.001	155375
310.049	147780
310.055	143176
310.109	83785
310.139	50001
310.163	38672
310.218	25868
310.229	24233
310.272	19893
310.319	16719
310.326	16223
310.381	14267
310.409	13536
310.435	12849
310.489	11558
310.499	11412
310.543	11628
310.589	12450
310.598	12251
310.652	11192
310.679	10283
310.706	9572
310.760	8737
310.769	8624
310.814	8307
310.859	8285
310.868	8388
310.923	8986
310.948	9541
310.977	10469
311.031	12161
311.038	12425
311.085	11312
311.128	9758
311.139	9647
311.193	9560
311.218	9425
311.247	8749
311.301	7737
311.308	7615
311.356	7549
311.398	7662
311.410	7705
311.464	7832
311.488	7953
311.518	8909
311.572	10745
311.578	10971
311.626	12276
311.668	13405
311.680	13075
311.734	11272
311.758	10532
311.788	10123
311.842	9459
311.847	9406
311.896	11695
311.937	13789
311.950	13538
312.004	12402
312.027	11906
312.058	10506
312.112	8047
312.117	7820
312.165	7975
312.207	8156
312.297	8200
312.386	8054
312.476	16036
312.566	22254
312.656	9148
312.745	6367
312.835	8414
312.925	8868
313.015	10977
313.104	8667
313.194	9152
313.284	9617
313.374	12913
313.463	9190
313.553	8341
313.643	8213
313.732	6353
313.822	7444
313.912	9196
314.001	11244
314.091	9494
314.180	11418
314.270	13731
314.360	15071
314.449	12252
314.539	7412
314.628	7588
314.718	8781
314.808	9414
314.897	9036
314.987	11890
315.076	16147
315.166	15206
315.255	14774
315.345	14826
315.434	14034
315.524	15670
315.613	23128
315.703	42207
315.792	135611
315.881	375447
315.971	94325
316.060	30566
316.150	25630
316.239	19897
316.328	9281
316.418	9960
316.507	11151
316.597	15379
316.686	12469
316.775	18128
316.865	17778
316.954	8611
317.043	9337
317.133	11336
317.222	9268
317.311	10531
317.400	11142
317.490	21364
317.579	20064
317.668	25411
317.757	68453
317.847	283815
317.936	676534
318.025	158935
318.114	102939
318.203	39276
318.293	27571
318.382	31278
318.471	28986
318.560	32104
318.649	27725
318.738	12191
318.828	17787
318.917	12698
319.006	17317
319.095	40744
319.184	59497
319.273	55842
319.362	27042
319.451	12104
319.540	19237
319.629	53339
319.718	36551
319.807	15121
319.896	52367
319.985	72406
320.074	23904
320.163	11364
320.252	13494
320.341	10501
320.430	16744
320.519	26495
320.608	10445
320.697	10933
320.786	13603
320.875	21007
320.964	29654
321.053	48301
321.142	72323
321.230	43757
321.319	68466
321.408	79055
321.497	32265
321.586	34683
321.675	32541
321.764	23624
321.852	31514
321.941	59131
322.030	25531
322.119	66033
322.207	85742
322.296	28409
322.385	22254
322.474	73067
322.562	129434
322.651	39457
322.740	57344
322.829	45002
322.917	33861
323.006	31338
323.095	22956
323.183	15313
323.272	28213
323.361	64812
323.449	80624
323.538	35633
323.626	68754
323.715	22089
323.804	27439
323.892	71362
323.981	26653
324.069	13609
324.158	34231
324.246	19960
324.335	28609
324.424	27955
324.512	10949
324.601	15227
324.689	18173
324.778	25792
324.866	18978
324.954	8326
325.043	14686
325.131	20630
325.220	24867
325.308	24968
325.397	26551
325.485	10622
325.574	7794
325.662	9421
325.750	10158
325.839	7394
325.927	9158
326.015	10046
326.104	14097
326.192	12539
326.280	7446
326.369	9310
326.457	21729
326.545	28798
326.634	8016
326.722	6963
326.810	7539
326.898	6927
326.987	13436
327.075	31010
327.163	15007
327.251	6432
327.340	6105
327.428	8287
327.516	6220
327.604	8108
327.692	6656
327.781	9228
327.869	11053
327.957	12744
328.045	10517
328.133	7361
328.221	8752
328.309	7453
328.397	8736
328.485	12080
328.574	36562
328.662	72622
328.750	17929
328.838	8059
328.926	7243
329.014	7577
329.102	15028
329.190	26462
329.278	13871
329.366	6096
329.454	4898
329.542	5197
329.630	5117
329.718	8620
329.806	9863
329.893	8022
329.981	7249
330.069	21432
330.157	133624
330.245	249560
330.333	78851
330.421	14164
330.509	41149
330.597	96650
330.684	30307
330.772	10641
330.860	9967
330.948	10586
331.036	7385
331.123	5323
331.211	5200
331.299	5682
331.387	16290
331.475	16860
331.562	6033
331.650	6298
331.738	6788
331.825	5981
331.913	5319
332.001	6147
332.089	7930
332.176	13931
332.264	30457
332.352	18672
332.439	8565
332.527	6637
332.614	6091
332.702	6552
332.790	9117
332.877	23911
332.965	27034
333.052	11548
333.140	28876
333.228	32767
333.315	7807
333.403	9838
333.490	20573
333.578	36032
333.665	57170
333.753	15456
333.840	7167
333.928	10363
334.015	20265
334.103	45626
334.190	62860
334.278	15186
334.365	13868
334.452	11796
334.540	8295
334.627	9701
334.715	12894
334.802	38432
334.889	144774
334.977	83649
335.064	17837
335.151	10103
335.239	7923
335.326	13950
335.413	50688
335.501	28165
335.588	9406
335.675	8269
335.762	10051
335.850	13055
335.937	18407
336.024	59643
336.111	122829
336.199	43009
336.286	13442
336.373	8420
336.460	6497
336.547	6329
336.635	11102
336.722	7989
336.809	7133
336.896	17409
336.983	36367
337.070	70799
337.157	59342
337.245	73515
337.332	27045
337.419	6472
337.506	6080
337.593	7715
337.680	23112
337.767	26607
337.854	17940
337.941	22260
338.028	26374
338.115	11888
338.202	12049
338.289	34093
338.376	62984
338.463	16055
338.550	27774
338.637	14204
338.724	17144
338.811	14523
338.898	5764
338.984	5710
339.071	6477
339.158	18456
339.245	37078
339.332	14386
339.419	19207
339.506	10058
339.593	5416
339.679	8399
339.766	6443
339.853	19480
339.940	25559
340.027	7792
340.113	12735
340.200	14451
340.287	9124
340.374	22446
340.460	20297
340.547	11662
340.634	40703
340.720	106635
340.807	25864
340.894	7940
340.980	8516
341.067	8296
341.154	10424
341.240	31367
341.327	33687
341.414	10034
341.500	8810
341.587	7174
341.674	12267
341.760	35742
341.847	26448
341.933	7483
342.020	4625
342.106	6190
342.193	17536
342.279	18447
342.366	22442
342.452	24588
342.539	17473
342.625	67002
342.712	88904
342.798	31023
342.885	9725
342.971	5342
343.058	5344
343.144	7959
343.230	7541
343.317	7828
343.403	6065
343.490	6347
343.576	6331
343.662	9716
343.749	10400
343.835	15280
343.921	70967
344.008	479524
344.094	559521
344.180	70438
344.267	49632
344.353	168998
344.439	82694
344.525	35082
344.612	13248
344.698	14644
344.784	8125
344.870	7872
344.957	11587
345.043	15658
345.129	18431
345.215	23372
345.301	11988
345.387	7032
345.474	4915
345.560	5615
345.646	6781
345.732	7355
345.818	9955
345.904	10008
345.990	11503
346.076	9811
346.162	10866
346.249	8357
346.335	9100
346.421	27600
346.507	124620
346.593	183764
346.679	22799
346.765	8322
346.851	11301
346.937	8347
347.023	8439
347.108	12341
347.194	8104
347.280	9541
347.366	20373
347.452	122303
347.538	286939
347.624	160480
347.710	71748
347.796	9647
347.882	6636
347.967	6606
348.053	6560
348.139	7086
348.225	9309
348.311	7690
348.397	7515
348.482	14616
348.568	9955
348.654	8224
348.740	13645
348.825	12714
348.911	37847
348.997	199442
349.083	180833
349.168	17358
349.254	8494
349.340	6971
349.425	8976
349.511	14247
349.597	15827
349.682	59602
349.768	125220
349.854	27702
349.939	6867
350.025	8834
350.110	8249
350.196	6660
350.282	4939
350.367	6505
350.453	11483
350.538	10279
350.624	12177
350.709	8093
350.795	8083
350.880	8379
350.966	9753
351.051	10665
351.137	7708
351.222	14518
351.308	63646
351.393	79175
351.479	12586
351.564	6954
351.649	8079
351.735	6579
351.820	6433
351.906	8808
351.991	21229
352.076	95273
352.162	66107
352.247	13628
352.332	14143
352.418	21628
352.503	53342
352.588	166764
352.673	66508
352.759	20330
352.844	10060
352.929	18016
353.014	16515
353.100	12539
353.185	22847
353.270	40177
353.355	23066
353.441	9968
353.526	14502
353.611	41087
353.696	29429
353.781	17669
353.866	8018
353.952	16132
354.037	48033
354.122	75091
354.207	55726
354.292	14633
354.377	9200
354.462	10465
354.547	14842
354.632	10428
354.717	16102
354.802	16636
354.887	7307
354.972	7081
355.057	5819
355.142	6690
355.227	13829
355.312	28903
355.397	71567
355.482	117381
355.567	36855
355.652	43369
355.737	64783
355.822	186655
355.907	70068
355.991	13717
356.076	8840
356.161	8132
356.246	8793
356.331	16353
356.416	94717
356.501	400148
356.585	205379
356.670	23872
356.755	19949
356.840	61211
356.924	363863
357.009	763553
357.094	152708
357.179	36634
357.263	20599
357.348	26482
357.433	21910
357.517	23422
357.602	14228
357.687	13196
357.771	18765
357.856	26906
357.941	47881
358.025	321884
358.110	865792
358.195	224109
358.279	29117
358.364	40599
358.448	159068
358.533	275929
358.617	176611
358.702	168384
358.787	44345
358.871	36522
358.956	20693
359.040	9389
359.125	7664
359.209	10178
359.294	16310
359.378	21513
359.462	24152
359.547	12818
359.631	8377
359.716	6894
359.800	8267
359.885	12877
359.969	10354
360.053	7292
360.138	10579
360.222	24129
360.306	35769
360.391	21322
360.475	48100
360.559	80438
360.644	107422
360.728	72725
360.812	276289
360.896	423236
360.981	110818
361.065	36003
361.149	15943
361.233	15975
361.318	13348
361.402	13416
361.486	13566
361.570	13142
361.654	25993
361.739	107106
361.823	422854
361.907	369321
361.991	45576
362.075	45325
362.159	73401
362.243	41113
362.327	46017
362.411	44689
362.495	21724
362.580	11635
362.664	9943
362.748	10104
362.832	15963
362.916	35944
363.000	143259
363.084	460697
363.168	457495
363.252	67137
363.336	26017
363.420	41162
363.503	70801
363.587	42232
363.671	19874
363.755	23288
363.839	26930
363.923	18683
364.007	41256
364.091	29353
364.175	46140
364.258	104402
364.342	111295
364.426	159414
364.510	66546
364.594	41302
364.677	153796
364.761	469593
364.845	185607
364.929	65496
365.013	43435
365.096	49344
365.180	39074
365.264	46931
365.347	80030
365.431	21661
365.515	13694
365.598	10937
365.682	10822
365.766	11577
365.849	10336
365.933	14165
366.017	11783
366.100	5844
366.184	5854
366.267	9028
366.351	8272
366.435	7863
366.518	6364
366.602	7939
366.685	10363
366.769	12818
366.852	18842
366.936	31509
367.019	16934
367.103	9192
367.186	9930
367.270	7297
367.353	6957
367.436	9435
367.520	9255
367.603	16759
367.687	31293
367.770	39865
367.853	39868
367.937	137226
368.020	127111
368.104	28785
368.187	37628
368.270	41673
368.353	34782
368.437	38973
368.520	53864
368.603	60914
368.687	159173
368.770	163464
368.853	32572
368.936	32648
369.020	19083
369.103	11209
369.186	8437
369.269	13441
369.352	35258
369.436	33038
369.519	18600
369.602	8716
369.685	14817
369.768	12815
369.851	10572
369.934	9085
370.018	19914
370.101	36714
370.184	19543
370.267	16533
370.350	34629
370.433	84156
370.516	262806
370.599	262766
370.682	98434
370.765	114471
370.848	175831
370.931	243367
371.014	45699
371.097	14164
371.180	10873
371.263	8239
371.346	6415
371.429	9042
371.511	12733
371.594	25265
371.677	25234
371.760	24846
371.843	81301
371.926	420650
372.009	627408
372.091	132945
372.174	153879
372.257	257205
372.340	60083
372.423	36995
372.505	24898
372.588	31883
372.671	137797
372.754	268445
372.836	72040
372.919	36999
373.002	42658
373.085	27850
373.167	54173
373.250	157381
373.332	300456
373.415	561284
373.498	859094
373.580	295725
373.663	653598
373.746	577830
373.828	86104
373.911	30520
373.993	32485
374.076	53463
374.159	41608
374.241	101420
374.324	220965
374.406	131222
374.489	388618
374.571	661013
374.654	172467
374.736	192620
374.819	503271
374.901	686712
374.983	516158
375.066	60427
375.148	26438
375.231	58371
375.313	65093
375.395	26735
375.478	13402
375.560	16652
375.643	43007
375.725	227360
375.807	581943
375.890	232873
375.972	55692
376.054	38843
376.136	39952
376.219	51246
376.301	240442
376.383	417916
376.465	106877
376.548	88858
376.630	177074
376.712	347065
376.794	87274
376.877	12760
376.959	9266
377.041	11529
377.123	12146
377.205	9913
377.287	6829
377.369	8977
377.452	9028
377.534	9316
377.616	10135
377.698	10042
377.780	9132
377.862	11914
377.944	10277
378.026	7004
378.108	7903
378.190	7556
378.272	7895
378.354	6274
378.436	8342
378.518	18726
378.600	39636
378.682	72156
378.764	158805
378.846	71359
378.928	27730
379.010	34333
379.091	14768
379.173	10947
379.255	11873
379.337	31241
379.419	118820
379.501	197030
379.583	43642
379.664	28071
379.746	78125
379.828	165180
379.910	197307
379.991	122459
380.073	19939
380.155	17291
380.237	11396
380.318	10485
380.400	16320
380.482	39664
380.564	46019
380.645	43929
380.727	31516
380.809	19720
380.890	14897
380.972	11589
381.053	13578
381.135	24477
381.217	80081
381.298	135535
381.380	52523
381.461	140573
381.543	448645
381.624	326508
381.706	44312
381.787	26814
381.869	58681
381.951	316678
382.032	741851
382.113	281226
382.195	45165
382.276	49352
382.358	168664
382.439	357711
382.521	458776
382.602	577489
382.684	270636
382.765	469733
382.846	462704
382.928	554532
383.009	230824
383.090	391805
383.172	1130286
383.253	1063718
383.334	386560
383.416	480217
383.497	166745
383.578	114285
383.659	333837
383.741	1201716
383.822	1923545
383.903	633565
383.984	389791
384.066	530879
384.147	219254
384.228	48230
384.309	42914
384.390	28965
384.471	23557
384.553	29163
384.634	38601
384.715	31070
384.796	22937
384.877	59395
384.958	163652
385.039	123782
385.120	37941
385.201	23163
385.282	23857
385.363	24237
385.444	33616
385.525	110253
385.606	281484
385.687	154336
385.768	37003
385.849	104364
385.930	411571
386.011	490603
386.092	85233
386.173	21709
386.254	19245
386.335	19805
386.416	35608
386.496	110905
386.577	109796
386.658	30456
386.739	22446
386.820	15679
386.901	14522
386.981	16319
387.062	21981
387.143	71062
387.224	159817
387.304	86110
387.385	30377
387.466	16914
387.547	20830
387.627	29030
387.708	115091
387.789	332174
387.869	276809
387.950	48500
388.031	13260
388.111	12834
388.192	21569
388.273	26302
388.353	21845
388.434	29170
388.514	129805
388.595	383379
388.676	318192
388.756	125961
388.837	125682
388.917	47968
388.998	13248
389.078	17277
389.159	24203
389.239	22929
389.320	27288
389.400	27503
389.480	84305
389.561	148892
389.641	45717
389.722	30407
389.802	45690
389.883	105699
389.963	194735
390.043	65476
390.124	26467
390.204	85653
390.284	166735
390.365	84078
390.445	223460
390.525	659748
390.605	457719
390.686	78390
390.766	22947
390.846	15923
390.927	14551
391.007	14197
391.087	14737
391.167	12352
391.247	12480
391.328	19490
391.408	19728
391.488	14568
391.568	14430
391.648	25316
391.728	29778
391.808	31426
391.888	46786
391.969	110318
392.049	114577
392.129	46955
392.209	108755
392.289	180849
392.369	61453
392.449	38122
392.529	37643
392.609	48290
392.689	104825
392.769	217560
392.849	134420
392.929	147573
393.009	276163
393.089	221025
393.169	402548
393.248	1666104
393.328	4736563
393.408	4182526
393.488	801346
393.568	196802
393.648	100682
393.728	67528
393.807	51213
393.887	46491
393.967	45381
394.047	51242
394.127	68738
394.206	162985
394.286	787170
394.366	2354001
394.446	1818227
394.525	281187
394.605	70148
394.685	53514
394.764	64319
394.844	73723
394.924	51021
395.003	36885
395.083	33375
395.163	30370
395.242	30996
395.322	30200
395.402	25494
395.481	35580
395.561	64285
395.640	107813
395.720	99163
395.799	97557
395.879	100441
395.958	233884
396.038	1096690
396.117	3078133
396.197	2490230
396.276	451293
396.356	124573
396.435	87223
396.515	88488
396.594	142079
396.673	396977
396.753	1754956
396.832	4122310
396.912	2305319
396.991	351479
397.070	100917
397.150	58498
397.229	45440
397.308	58813
397.388	63741
397.467	31917
397.546	23610
397.625	22004
397.705	28693
397.784	25883
397.863	15640
397.942	13144
398.022	16493
398.101	32830
398.180	46547
398.259	19481
398.338	16288
398.417	14744
398.497	11842
398.576	12299
398.655	8762
398.734	8089
398.813	11575
398.892	31185
398.971	52347
399.050	16216
399.129	6661
399.208	7581
399.287	8633
399.366	7525
399.445	6866
399.524	8179
399.603	11236
399.682	26839
399.761	52096
399.840	67638
399.919	28677
399.998	7948
400.077	6322
400.156	6963
400.235	8741
400.313	8175
400.392	29990
400.471	100447
400.550	96292
400.629	19039
400.708	11466
400.786	8775
400.865	14544
400.944	15686
401.023	11437
401.102	4700
401.180	5009
401.259	5672
401.338	8629
401.416	12877
401.495	9275
401.574	6844
401.652	7098
401.731	10780
401.810	6820
401.888	5564
401.967	3625
402.046	5381
402.124	12185
402.203	12932
402.281	6707
402.360	8409
402.438	16547
402.517	8209
402.596	5669
402.674	4440
402.753	4084
402.831	5556
402.910	15971
402.988	62507
403.066	114951
403.145	43560
403.223	55033
403.302	91915
403.380	58779
403.459	52873
403.537	15204
403.615	7466
403.694	4001
403.772	5429
403.850	4933
403.929	5361
404.007	7552
404.085	16054
404.164	13015
404.242	7908
404.320	18534
404.398	50985
404.477	218455
404.555	556797
404.633	292915
404.711	36701
404.789	12055
404.868	8287
404.946	5214
405.024	4408
405.102	5455
405.180	5334
405.258	4525
405.336	5487
405.415	7294
405.493	12405
405.571	10487
405.649	5596
405.727	7077
405.805	10045
405.883	9224
405.961	8870
406.039	6936
406.117	9774
406.195	40357
406.273	201199
406.351	397374
406.429	122880
406.507	14540
406.585	8992
406.663	14145
406.740	16799
406.818	11896
406.896	7228
406.974	16583
407.052	86146
407.130	282314
407.208	230718
407.285	28930
407.363	11304
407.441	10046
407.519	12716
407.596	38282
407.674	204627
407.752	556185
407.830	300644
407.907	36825
407.985	11685
408.063	6990
408.141	5161
408.218	9197
408.296	8356
408.373	11393
408.451	13535
408.529	11030
408.606	4515
408.684	4334
408.762	3406
408.839	4160
408.917	4085
408.994	4988
409.072	4496
409.149	6756
409.227	11570
409.304	13296
409.382	11009
409.459	14787
409.537	19534
409.614	14674
409.692	10892
409.769	15038
409.846	22408
409.924	22766
410.001	12884
410.079	9206
410.156	8086
410.233	9892
410.311	10960
410.388	7589
410.465	7270
410.543	5391
410.620	6921
410.697	11062
410.775	10356
410.852	6557
410.929	11530
411.006	12348
411.083	8361
411.161	13373
411.238	9420
411.315	6619
411.392	6509
411.469	8596
411.547	7112
411.624	4674
411.701	6342
411.778	16492
411.855	26018
411.932	8698
412.009	5334
412.086	5997
412.163	6846
412.240	6175
412.317	7152
412.394	5636
412.471	4547
412.548	5550
412.625	5560
412.702	9316
412.779	12946
412.856	7347
412.933	6264
413.010	16220
413.087	43746
413.164	96374
413.241	75773
413.318	15997
413.395	15972
413.471	19608
413.548	6548
413.625	8096
413.702	6856
413.779	4567
413.855	2920
413.932	2461
414.009	3151
414.086	3544
414.162	6144
414.239	26554
414.316	108452
414.393	146747
414.469	27478
414.546	4717
414.623	3786
414.699	5736
414.776	7735
414.853	4742
414.929	6395
415.006	4865
415.082	4526
415.159	5167
415.236	5221
415.312	10110
415.389	21640
415.465	21601
415.542	8534
415.618	10965
415.695	15302
415.771	10306
415.848	8503
415.924	6597
416.000	4348
416.077	3777
416.153	3262
416.230	3067
416.306	3461
416.383	2936
416.459	2738
416.535	3620
416.612	4359
416.688	4900
416.764	5360
416.841	4136
416.917	4500
416.993	4912
417.069	8473
417.146	12158
417.222	13896
417.298	8427
417.374	4629
417.451	6992
417.527	12688
417.603	11931
417.679	8026
417.755	5166
417.831	3213
417.908	3495
417.984	3816
418.060	8934
418.136	25985
418.212	21697
418.288	6635
418.364	4672
418.440	7952
418.516	10969
418.592	14210
418.668	37230
418.744	47725
418.820	24014
418.896	5860
418.972	4594
419.048	10067
419.124	24462
419.200	11477
419.276	3790
419.352	1840
419.428	5124
419.504	9040
419.579	9705
419.655	8030
419.731	16295
419.807	46824
419.883	61507
419.959	28869
420.034	13235
420.110	48673
420.186	112560
420.262	47116
420.337	9918
420.413	8990
420.489	4914
420.565	5584
420.640	5959
420.716	6509
420.792	4146
420.867	6893
420.943	8141
421.019	15652
421.094	8447
421.170	5200
421.245	5307
421.321	10022
421.397	24639
421.472	134915
421.548	306457
421.623	118876
421.699	19545
421.774	13570
421.850	14115
421.925	22813
422.001	14719
422.076	13512
422.152	18354
422.227	27272
422.302	28973
422.378	48457
422.453	101830
422.529	341794
422.604	1108434
422.679	1661072
422.755	667046
422.830	141937
422.905	55281
422.981	31119
423.056	22753
423.131	16988
423.207	14117
423.282	22557
423.357	33664
423.432	18143
423.508	32295
423.583	53110
423.658	24453
423.733	10619
423.808	14649
423.883	16781
423.959	13257
424.034	10773
424.109	7632
424.184	3961
424.259	4641
424.334	4778
424.409	4570
424.484	6581
424.559	6831
424.634	7097
424.709	12762
424.784	12945
424.859	10566
424.934	30556
425.009	93784
425.084	101852
425.159	20072
425.234	3824
425.309	3702
425.384	6382
425.459	6005
425.534	4088
425.609	3030
425.683	2496
425.758	4413
425.833	6046
425.908	17060
425.983	73884
426.058	113465
426.132	24646
426.207	5609
426.282	6647
426.357	4937
426.431	3874
426.506	3863
426.581	4130
426.655	3719
426.730	5500
426.805	4824
426.879	5170
426.954	9368
427.029	43672
427.103	198067
427.178	316284
427.253	72622
427.327	8777
427.402	6789
427.476	8396
427.551	4186
427.625	3417
427.700	4025
427.774	2636
427.849	3637
427.923	2678
427.998	3809
428.072	6735
428.147	29746
428.221	137389
428.296	250287
428.370	73829
428.444	8976
428.519	8541
428.593	9698
428.667	8558
428.742	13751
428.816	45506
428.890	166894
428.965	164974
429.039	28869
429.113	10536
429.188	4817
429.262	6034
429.336	25771
429.410	48294
429.485	17022
429.559	9319
429.633	6035
429.707	8142
429.781	44692
429.855	164262
429.930	168014
430.004	49931
430.078	55995
430.152	159162
430.226	450643
430.300	280568
430.374	28356
430.448	14010
430.522	32290
430.596	53949
430.670	119785
430.744	414418
430.818	363303
430.892	45073
430.966	9601
431.040	4615
431.114	3196
431.188	3556
431.262	3019
431.336	4042
431.410	12545
431.484	23487
431.557	13486
431.631	5263
431.705	14597
431.779	92338
431.853	233878
431.927	91153
432.000	9438
432.074	3815
432.148	3578
432.222	3165
432.295	3977
432.369	6460
432.443	36074
432.516	199248
432.590	304845
432.664	55036
432.737	7737
432.811	3357
432.885	2080
432.958	2470
433.032	2101
433.106	1588
433.179	2068
433.253	2020
433.326	1990
433.400	1404
433.473	1679
433.547	2034
433.620	5376
433.694	12605
433.767	6793
433.841	1639
433.914	956
433.988	1670
434.061	1235
434.134	981
434.208	1399
434.281	1814
434.355	2047
434.428	2354
434.501	2286
434.575	1077
434.648	2086
434.721	1460
434.795	2400
434.868	1073
434.941	1748
435.014	2026
435.088	3215
435.161	8654
435.234	14400
435.307	12850
435.381	6551
435.454	7095
435.527	11397
435.600	9347
435.673	6430
435.746	3551
435.819	3873
435.892	1741
435.966	2136
436.039	2133
436.112	2214
436.185	1330
436.258	1454
436.331	536
436.404	1275
436.477	1447
436.550	1232
436.623	1626
436.696	2344
436.769	3186
436.842	2864
436.915	4059
436.987	4997
437.060	2383
437.133	1105
437.206	682
437.279	2277
437.352	2046
437.425	1722
437.498	4485
437.570	12233
437.643	6806
437.716	2101
437.789	2410
437.861	7777
437.934	12896
438.007	4387
438.080	3519
438.152	7808
438.225	49555
438.298	302871
438.370	474812
438.443	98748
438.516	13207
438.588	4067
438.661	2217
438.734	3646
438.806	4999
438.879	4972
438.951	6199
439.024	6864
439.096	2294
439.169	2719
439.241	1898
439.314	1510
439.386	2987
439.459	6231
439.531	6965
439.604	2069
439.676	2048
439.749	1164
439.821	424
439.893	1908
439.966	1836
440.038	3459
440.110	3428
440.183	3143
440.255	3793
440.327	14441
440.400	115732
440.472	287217
440.544	94529
440.617	9917
440.689	6726
440.761	10800
440.833	13130
440.905	5506
440.978	1836
441.050	1027
441.122	1727
441.194	2256
441.266	2175
441.338	3611
441.411	24157
441.483	97856
441.555	74030
441.627	9775
441.699	3990
441.771	3089
441.843	1708
441.915	2063
441.987	2683
442.059	2182
442.131	3414
442.203	6665
442.275	7817
442.347	7887
442.419	24555
442.491	121958
442.563	174214
442.635	39275
442.706	22141
442.778	11740
442.850	3078
442.922	3430
442.994	5259
443.066	6569
443.137	4919
443.209	5276
443.281	10576
443.353	32133
443.425	176173
443.496	439523
443.568	263394
443.640	60404
443.711	10983
443.783	4380
443.855	3699
443.926	2647
443.998	2914
444.070	3307
444.141	4929
444.213	12622
444.285	11173
444.356	7164
444.428	3689
444.499	2807
444.571	1947
444.642	2991
444.714	6231
444.785	9343
444.857	5859
444.928	7440
445.000	4999
445.071	8243
445.143	8707
445.214	9935
445.285	20212
445.357	79474
445.428	396783
445.500	586454
445.571	242802
445.642	99122
445.714	27042
445.785	15092
445.856	10356
445.928	13385
445.999	7719
446.070	5262
446.141	9343
446.213	8354
446.284	3140
446.355	2566
446.426	2186
446.497	3285
446.569	5842
446.640	13294
446.711	8877
446.782	2552
446.853	4171
446.924	6439
446.995	3982
447.066	3182
447.138	2782
447.209	1665
447.280	1008
447.351	1452
447.422	846
447.493	2335
447.564	8399
447.635	9562
447.706	2316
447.777	1621
447.847	840
447.918	1541
447.989	3380
448.060	3997
448.131	7492
448.202	10728
448.273	6392
448.344	2818
448.414	3175
448.485	2050
448.556	2664
448.627	1415
448.698	1831
448.768	1427
448.839	1422
448.910	3536
448.981	3067
449.051	2897
449.122	1305
449.193	1010
449.263	1691
449.334	2214
449.405	8880
449.475	14519
449.546	6181
449.616	5097
449.687	2599
449.758	1780
449.828	1413
449.899	1422
449.969	1847
450.040	1364
450.110	2782
450.181	3280
450.251	2509
450.322	1501
450.392	1815
450.463	981
450.533	1356
450.604	1487
450.674	901
450.744	2341
450.815	1222
450.885	1419
450.955	660
451.026	1184
451.096	607
451.166	949
451.237	3596
451.307	5773
451.377	2250
451.447	1121
451.518	1141
451.588	1483
451.658	2496
451.728	3745
451.799	8187
451.869	4883
451.939	1317
452.009	1450
452.079	609
452.149	1938
452.219	3688
452.289	9109
452.360	4253
452.430	2888
452.500	6961
452.570	6806
452.640	11422
452.710	23605
452.780	19780
452.850	28990
452.920	18507
452.990	4725
453.060	4094
453.129	5905
453.199	4897
453.269	19858
453.339	21950
453.409	24087
453.479	37636
453.549	41611
453.619	33210
453.688	6991
453.758	3262
453.828	2446
453.898	1663
453.968	1902
454.037	1496
454.087	1863
454.107	1936
454.168	1508
454.177	1351
454.247	1708
454.249	1820
454.316	2184
454.330	2593
454.386	3146
454.411	5090
454.456	6672
454.492	6634
454.525	6567
454.574	4179
454.595	3282
454.655	4394
454.665	4565
454.734	7373
454.736	7879
454.804	13322
454.817	14996
454.873	16000
454.898	15140
454.943	12148
454.979	10338
455.013	10277
455.060	10917
455.082	13179
455.141	23790
455.152	29083
455.221	77742
455.222	80793
455.291	173551
455.303	222727
455.360	384262
455.384	475109
455.430	534464
455.465	318603
455.499	154089
455.546	67802
455.569	32685
455.627	16863
455.638	14634
455.707	8237
455.708	8349
455.777	6734
455.789	6602
455.846	5714
455.869	5921
455.916	6427
455.950	6744
455.985	6702
456.031	6630
456.054	6336
456.112	6015
456.124	6017
456.193	6552
456.193	6464
456.262	8007
456.274	8509
456.332	9936
456.355	10307
456.401	8520
456.436	7525
456.470	7139
456.516	6289
456.540	5914
456.597	5436
456.609	5300
456.678	5486
456.678	5424
456.747	5359
456.759	5321
456.817	5253
456.840	5613
456.886	6101
456.920	6203
456.955	6775
457.001	8015
457.024	9497
457.082	13842
457.093	14410
457.162	19240
457.163	19413
457.232	13941
457.243	13121
457.301	10353
457.324	9076
457.370	8972
457.405	9695
457.439	9876
457.485	9755
457.508	10231
457.566	12108
457.577	12967
457.646	19759
457.647	19936
457.715	35692
457.727	39448
457.784	62583
457.808	75513
457.853	85678
457.889	88183
457.922	79234
457.969	64059
457.991	69626
458.050	92533
458.060	97348
458.129	149403
458.130	150793
458.198	102257
458.211	90014
458.267	49688
458.292	36765
458.336	38202
458.372	41209
458.405	58839
458.453	87207
458.474	106930
458.533	173740
458.543	176360
458.611	213234
458.614	213807
458.680	94707
458.694	71219
458.749	38667
458.775	27218
458.818	21512
458.855	17784
458.887	16874
458.936	16163
458.955	15941
459.016	14591
459.024	14619
459.093	17057
459.097	17155
459.162	18635
459.177	19478
459.230	23775
459.257	26071
459.299	23665
459.338	20522
459.368	20543
459.418	21518
459.437	20522
459.499	16720
459.505	16562
459.574	16034
459.579	16009
459.643	15215
459.659	14978
459.711	16366
459.740	17594
459.780	19076
459.820	20364
459.849	19710
459.900	18290
459.917	17829
459.981	16844
459.986	16799
460.054	16743
460.061	16743
460.123	21540
460.141	23180
460.191	30775
460.222	35589
460.260	37356
460.302	39594
460.328	33960
460.382	20820
460.397	21714
460.462	26700
460.465	28074
460.534	61645
460.543	66128
460.602	149372
460.623	181993
460.671	279307
460.703	363568
460.739	293969
460.783	158629
460.808	119818
460.864	27173
460.876	21627
460.944	19656
460.945	19655
461.013	23587
461.024	24343
461.081	30253
461.104	32887
461.150	27075
461.184	21972
461.218	21116
461.264	20026
461.286	19825
461.345	19389
461.355	19124
461.423	18497
461.425	18460
461.491	22892
461.505	23897
461.559	44708
461.585	54536
461.628	80366
461.665	103740
461.696	99428
461.745	92518
461.764	77349
461.825	26112
461.832	26351
461.901	30022
461.905	30332
461.969	22742
461.985	20563
462.037	19095
462.065	18416
462.105	23689
462.145	29152
462.173	38330
462.225	55409
462.241	59535
462.305	76285
462.310	73665
462.378	31944
462.385	27266
462.446	28176
462.465	28667
462.514	25729
462.545	23820
462.582	21942
462.625	19419
462.650	18825
462.705	17603
462.718	18664
462.785	24421
462.786	24605
462.854	34945
462.865	36625
462.922	39929
462.945	41092
462.990	29711
463.025	20814
463.058	19389
463.104	17298
463.126	18079
463.184	20641
463.194	21215
463.262	24888
463.264	25006
463.330	22313
463.344	21626
463.398	23744
463.424	24743
463.466	25195
463.504	25824
463.533	26912
463.583	28476
463.601	30808
463.663	38682
463.669	40450
463.737	60983
463.743	62783
463.805	75145
463.823	78556
463.873	106776
463.903	124120
463.940	115515
463.982	105192
464.008	81436
464.062	30750
464.076	29501
464.142	23547
464.144	23652
464.211	26510
464.221	26986
464.279	31929
464.301	33712
464.347	35013
464.381	35792
464.414	38054
464.461	41223
464.482	41325
464.540	41380
464.550	41362
464.617	40473
464.620	40397
464.685	53342
464.699	56172
464.753	50206
464.779	47019
464.820	43714
464.859	40471
464.888	40909
464.938	41374
464.956	40888
465.018	38705
465.023	38220
465.091	31175
465.098	30408
465.158	30927
465.177	31090
465.226	34074
465.257	35867
465.293	42618
465.336	50281
465.361	59092
465.416	78935
465.428	79749
465.495	83414
465.496	83714
465.563	107902
465.575	111996
465.631	112183
465.654	111951
465.698	70511
465.734	35931
465.765	34455
465.813	32271
465.833	32663
465.893	33752
465.900	33914
465.968	34883
465.972	34881
466.035	37420
466.052	37996
466.102	39215
466.131	39825
466.170	40436
466.210	40877
466.237	41288
466.290	41914
466.304	42596
466.369	45165
466.372	45401
466.439	49760
466.449	50278
466.506	59575
466.528	63011
466.573	90733
466.607	111244
466.641	151667
466.687	207429
466.708	213521
466.766	228828
466.775	213537
466.842	94786
466.845	88955
466.909	70477
466.925	65890
466.977	59027
467.004	55192
467.044	56523
467.083	57653
467.111	61500
467.163	68366
467.178	70033
467.242	76225
467.245	76278
467.312	73937
467.321	73466
467.379	67405
467.400	64986
467.446	68212
467.480	70285
467.559	58545
467.638	58418
467.717	68475
467.796	88324
467.875	106342
467.955	73551
468.034	107375
468.113	189902
468.192	225783
468.271	67667
468.350	67445
468.429	75234
468.508	73610
468.588	58451
468.667	55168
468.746	52290
468.825	51566
468.904	50577
468.983	70285
469.062	104535
469.141	112284
469.220	47928
469.299	47438
469.378	48384
469.456	52983
469.535	49747
469.614	50301
469.693	59066
469.772	73970
469.851	100456
469.930	67061
470.009	69474
470.088	82294
470.166	121593
470.245	201906
470.324	253130
470.403	180287
470.482	120726
470.560	93014
470.639	96627
470.718	113632
470.797	69915
470.875	82642
470.954	97685
471.033	84654
471.111	40224
471.190	37668
471.269	36031
471.347	39184
471.426	40759
471.505	42702
471.583	41575
471.662	38256
471.740	37048
471.819	36403
471.898	34828
471.976	36919
472.055	39542
472.133	48193
472.212	62422
472.290	53437
472.369	34380
472.447	34227
472.526	35647
472.604	47212
472.683	58229
472.761	60638
472.839	54222
472.918	41988
472.996	44321
473.075	49413
473.153	43419
473.231	41578
473.310	54899
473.388	49982
473.466	50334
473.545	81913
473.623	129392
473.701	107704
473.780	41973
473.858	39032
473.936	42023
474.014	44290
474.093	58963
474.171	82422
474.249	99140
474.327	51081
474.405	41262
474.484	46572
474.562	54596
474.640	46246
474.718	49053
474.796	45206
474.874	41559
474.952	39736
475.030	40896
475.108	44528
475.187	50754
475.265	63503
475.343	93206
475.421	87299
475.499	41162
475.577	44401
475.655	66487
475.733	132838
475.811	196177
475.889	176306
475.966	78404
476.044	44739
476.122	70938
476.200	91903
476.278	51129
476.356	34829
476.434	42413
476.512	63769
476.590	88643
476.667	58596
476.745	38414
476.823	44444
476.901	35034
476.979	34300
477.056	35122
477.134	37868
477.212	40611
477.290	39500
477.367	29414
477.445	28695
477.523	31066
477.601	33966
477.678	33768
477.756	40301
477.834	42536
477.911	32232
477.989	32582
478.066	31478
478.144	41500
478.222	64269
478.299	113324
478.377	76956
478.454	33527
478.532	34600
478.609	48526
478.687	48623
478.764	35718
478.842	50463
478.919	65715
478.997	44719
479.074	32134
479.152	40247
479.229	51356
479.307	28763
479.384	25325
479.461	25786
479.539	32404
479.616	38891
479.694	33373
479.771	40549
479.848	45440
479.926	62240
480.003	55628
480.080	34261
480.157	30554
480.235	35081
480.312	35456
480.389	40575
480.467	65484
480.544	67458
480.621	34986
480.698	39908
480.775	46401
480.853	41459
480.930	32273
481.007	37226
481.084	50444
481.161	60615
481.238	38789
481.315	27043
481.392	27355
481.470	27584
481.547	27985
481.624	28198
481.701	30071
481.778	32322
481.855	40396
481.932	63666
482.009	102343
482.086	53102
482.163	46981
482.240	84539
482.317	148039
482.393	80385
482.470	39707
482.547	39518
482.624	38393
482.701	41556
482.778	35649
482.855	32391
482.932	32403
483.009	34442
483.085	48654
483.162	63622
483.239	55996
483.316	40836
483.393	40233
483.469	38810
483.546	46066
483.623	41886
483.699	33961
483.776	39399
483.853	50323
483.930	81249
484.006	162157
484.083	212403
484.160	86552
484.236	118040
484.313	93620
484.389	76038
484.466	67657
484.543	68591
484.619	72743
484.696	75466
484.772	78531
484.849	77718
484.925	61712
485.002	61059
485.078	67401
485.155	67677
485.231	56930
485.308	56592
485.384	67249
485.461	98430
485.537	173823
485.614	154489
485.690	65024
485.766	68825
485.843	110999
485.919	216948
485.995	183019
486.072	60549
486.148	56623
486.224	59306
486.301	67959
486.377	83000
486.453	78660
486.530	67170
486.606	82866
486.682	97527
486.758	139093
486.835	150968
486.911	153363
486.987	300164
487.063	502184
487.139	694955
487.215	387485
487.292	103073
487.368	81960
487.444	103623
487.520	141384
487.596	164631
487.672	311100
487.748	760015
487.824	960273
487.900	301260
487.976	137236
488.052	119600
488.128	133298
488.204	97932
488.280	74398
488.356	104284
488.432	216371
488.508	266775
488.584	98766
488.660	87058
488.736	86348
488.812	108713
488.888	156599
488.964	319664
489.039	852265
489.115	1130275
489.191	411869
489.267	83846
489.343	64925
489.418	55054
489.494	50732
489.570	50429
489.646	54865
489.722	54642
489.797	66844
489.873	125499
489.949	251718
490.024	146393
490.100	57797
490.176	70948
490.251	130408
490.327	177298
490.403	60971
490.478	49062
490.554	44137
490.629	45465
490.705	52148
490.781	61557
490.856	65443
490.932	89986
491.007	97024
491.083	70474
491.158	61980
491.234	91323
491.309	171087
491.385	124631
491.460	61643
491.536	67605
491.611	72058
491.686	104864
491.762	207928
491.837	532491
491.913	797267
491.988	1215108
492.063	1184377
492.139	172183
492.214	79147
492.289	58901
492.365	73084
492.440	80967
492.515	68652
492.590	61673
492.666	62811
492.741	95232
492.816	112608
492.891	70660
492.967	78539
493.042	91498
493.117	123886
493.192	237381
493.267	813089
493.342	2637060
493.418	2504245
493.493	176888
493.568	65653
493.643	65319
493.718	87508
493.793	150213
493.868	178977
493.943	94865
494.018	53917
494.093	47521
494.168	47837
494.243	45090
494.318	38080
494.393	35713
494.468	39053
494.543	53882
494.618	72721
494.693	46345
494.768	44392
494.842	42965
494.917	44515
494.992	52367
495.067	44976
495.142	47102
495.217	56725
495.292	57765
495.366	69366
495.441	92421
495.516	141690
495.591	356876
495.665	1332930
495.740	2492729
495.815	530442
495.890	83996
495.964	56473
496.039	57733
496.114	58799
496.188	73657
496.263	60288
496.338	48357
496.412	60084
496.487	77229
496.561	119798
496.636	102122
496.710	68815
496.785	79484
496.860	76130
496.934	65560
497.009	72276
497.083	60625
497.158	62289
497.232	85687
497.307	103717
497.381	76696
497.455	96120
497.530	109879
497.604	82400
497.679	99310
497.753	151393
497.827	180681
497.902	169151
497.976	225711
498.050	594779
498.125	1679538
498.199	1032409
498.273	335949
498.348	288208
498.422	219749
498.496	229264
498.570	171658
498.645	112724
498.719	107822
498.793	127035
498.867	189906
498.941	269262
499.016	760658
499.090	1433373
499.164	239239
499.238	73600
499.312	79759
499.386	105130
499.460	71860
499.534	65679
499.609	78577
499.683	104072
499.757	124100
499.831	363002
499.905	1058473
499.979	542040
500.053	149563
500.127	221067
500.201	198207
500.275	84867
500.349	73781
500.422	101257
500.496	235517
500.570	533032
500.644	730770
500.718	808371
500.792	112140
500.866	64238
500.940	72759
501.013	60291
501.087	85489
501.161	181244
501.235	187030
501.309	376520
501.382	860764
501.456	488685
501.530	190064
501.603	224600
501.677	65926
501.751	56514
501.825	83052
501.898	141036
501.972	311821
502.046	113580
502.119	86775
502.193	215589
502.266	328970
502.340	107610
502.413	176423
502.487	251828
502.561	137113
502.634	69477
502.708	86072
502.781	73341
502.855	43482
502.928	34355
503.002	32345
503.075	33157
503.149	34303
503.222	34996
503.295	37562
503.369	51076
503.442	93621
503.516	312168
503.589	574566
503.662	256464
503.736	132418
503.809	294448
503.882	205435
503.956	348237
504.029	303345
504.102	429874
504.175	434726
504.249	151324
504.322	92825
504.395	69372
504.468	47688
504.542	39573
504.615	32681
504.688	35443
504.761	40869
504.834	61465
504.907	116418
504.980	157321
505.053	54302
505.127	96492
505.200	63641
505.273	54181
505.346	32811
505.419	28418
505.492	26690
505.565	24201
505.638	26134
505.711	24337
505.784	23530
505.857	21877
505.930	24762
506.003	24072
506.076	28577
506.149	41542
506.221	45022
506.294	58917
506.367	170293
506.440	410538
506.513	138564
506.586	54168
506.659	38794
506.731	41816
506.804	75851
506.877	104255
506.950	38612
507.022	32407
507.095	50066
507.168	56070
507.241	46733
507.313	46931
507.386	75298
507.459	96287
507.531	46684
507.604	37720
507.677	32009
507.749	33896
507.822	67127
507.894	119504
507.967	78992
508.040	36448
508.112	31814
508.185	32135
508.257	48529
508.330	68084
508.402	29600
508.475	29225
508.547	29983
508.620	35324
508.692	50412
508.765	28060
508.837	24313
508.909	27155
508.982	35079
509.054	48122
509.127	33848
509.199	25832
509.271	21855
509.344	23040
509.416	25314
509.488	27833
509.560	33775
509.633	53437
509.705	60565
509.777	59229
509.849	98088
509.922	40234
509.994	24716
510.066	25746
510.138	29420
510.210	47250
510.283	40532
510.355	36131
510.427	35748
510.499	31737
510.571	33074
510.643	47673
510.715	104684
510.787	64295
510.859	43178
510.931	58170
511.003	87015
511.076	50612
511.148	28142
511.219	34247
511.291	56253
511.363	46876
511.435	26658
511.507	25613
511.579	26562
511.651	26416
511.723	26855
511.795	27034
511.867	30551
511.939	45637
512.010	92429
512.082	52727
512.154	41024
512.226	38527
512.298	62740
512.369	84729
512.441	77912
512.513	93662
512.585	60667
512.656	57524
512.728	60655
512.800	38858
512.871	40624
512.943	40388
513.015	37964
513.086	52742
513.158	65453
513.230	89848
513.301	157199
513.373	133950
513.444	59568
513.516	46046
513.588	50610
513.659	72554
513.731	99198
513.802	105188
513.874	294208
513.945	396913
514.016	71616
514.088	49048
514.159	71435
514.231	96366
514.302	80214
514.374	47225
514.445	54215
514.516	94181
514.588	54775
514.659	57798
514.730	91246
514.802	85452
514.873	70900
514.944	61859
515.016	65745
515.087	73199
515.158	83313
515.229	75462
515.301	66437
515.372	82474
515.443	61991
515.514	53461
515.585	47751
515.656	49438
515.728	47473
515.799	49484
515.870	58067
515.941	60548
516.012	66066
516.083	80579
516.154	113575
516.225	163965
516.296	140930
516.367	125315
516.438	160707
516.509	245465
516.580	489660
516.651	1713557
516.722	4087911
516.793	901293
516.864	253411
516.935	234183
517.006	320888
517.077	615992
517.148	1748984
517.219	5537158
517.289	5163306
517.360	752747
517.431	201468
517.502	127397
517.573	117293
517.643	106674
517.714	114242
517.785	124809
517.856	142032
517.926	169766
517.997	216217
518.068	316871
518.138	526222
518.209	1218000
518.280	4487593
518.350	6368249
518.421	2434781
518.492	359034
518.562	205268
518.633	188059
518.703	202068
518.774	337863
518.845	605346
518.915	423333
518.986	186248
519.056	193652
519.127	377433
519.197	479632
519.268	535478
519.338	165990
519.408	113397
519.479	190970
519.549	105733
519.620	61673
519.690	44309
519.760	47155
519.831	60723
519.901	45911
519.971	35326
520.042	41343
520.112	52570
520.182	87560
520.253	75487
520.323	38415
520.393	47334
520.463	55471
520.534	48438
520.604	69840
520.674	41709
520.744	61340
520.814	127407
520.885	107111
520.955	178662
521.025	411032
521.095	73606
521.165	34814
521.235	33466
521.305	31688
521.375	37661
521.445	63208
521.515	103214
521.585	112580
521.655	80764
521.725	78170
521.795	43105
521.865	29271
521.935	47231
522.005	33672
522.075	29558
522.145	36146
522.215	46845
522.285	61246
522.355	91224
522.424	151890
522.494	118939
522.564	130869
522.634	421702
522.704	852648
522.774	144757
522.843	54966
522.913	70418
522.983	94902
523.053	59477
523.122	75885
523.192	194939
523.262	676542
523.331	354422
523.401	51859
523.471	39326
523.540	44613
523.610	26918
523.680	24851
523.749	27352
523.819	38416
523.888	31545
523.958	24427
524.027	26730
524.097	29417
524.166	37577
524.236	57761
524.305	32301
524.375	28804
524.444	23567
524.514	26181
524.583	29032
524.653	34837
524.722	37038
524.791	24817
524.861	27142
524.930	28016
524.999	44991
525.069	57771
525.138	34750
525.207	36535
525.277	31938
525.346	38490
525.415	32817
525.484	37553
525.554	44101
525.623	43860
525.692	48235
525.761	49089
525.830	55213
525.900	73153
525.969	126193
526.038	224504
526.107	552133
526.176	1159738
526.245	697978
526.314	359291
526.383	731402
526.452	811064
526.522	1580917
526.591	1033733
526.660	460395
526.729	207868
526.797	298940
526.867	844504
526.935	2677647
527.004	3337379
527.073	1037440
527.142	118249
527.211	72957
527.280	99582
527.349	78850
527.418	38462
527.487	38793
527.555	31475
527.624	28457
527.693	25191
527.762	28479
527.831	26592
527.899	27815
527.968	27618
528.037	36007
528.106	71431
528.174	137566
528.243	76117
528.312	168752
528.380	163825
528.449	35472
528.518	22167
528.586	17237
528.655	17708
528.723	18511
528.792	20950
528.861	24606
528.929	16641
528.998	16324
529.066	16431
529.135	16230
529.203	14546
529.272	15667
529.340	18313
529.409	20745
529.477	18529
529.545	25896
529.614	25514
529.682	32075
529.751	30484
529.819	35796
529.887	21823
529.956	19144
530.024	22043
530.092	23977
530.161	56836
530.229	95711
530.297	27755
530.365	17023
530.434	15616
530.502	14681
530.570	16399
530.638	15584
530.707	26728
530.775	19317
530.843	14721
530.911	15664
530.979	15720
531.047	13768
531.115	15167
531.183	14707
531.252	16530
531.320	15925
531.388	14582
531.456	17273
531.524	16775
531.592	20507
531.660	25520
531.728	17775
531.796	17728
531.864	18990
531.932	20741
532.000	23811
532.067	28046
532.135	32837
532.203	44845
532.271	64921
532.339	178721
532.407	436927
532.475	130801
532.542	60436
532.610	82955
532.678	184380
532.746	806314
532.814	1108159
532.881	155249
532.949	33162
533.017	27370
533.084	21822
533.152	21067
533.220	27863
533.287	34647
533.355	18719
533.423	17598
533.490	17086
533.558	18298
533.625	23079
533.693	24110
533.761	22754
533.828	29196
533.896	46277
533.963	131540
534.031	134740
534.098	157008
534.166	35830
534.233	22172
534.300	26319
534.368	27805
534.435	24013
534.503	25403
534.570	28400
534.637	32239
534.705	40920
534.772	68467
534.840	170365
534.907	651307
534.974	435600
535.041	49473
535.109	33758
535.176	22186
535.243	24107
535.310	34845
535.378	23698
535.445	18570
535.512	17955
535.579	20319
535.646	17627
535.714	22214
535.781	25152
535.848	22973
535.915	23224
535.982	23946
536.049	25020
536.116	28020
536.183	31218
536.250	36507
536.317	44441
536.384	71059
536.451	117764
536.518	102120
536.585	71170
536.652	105912
536.719	154463
536.786	92827
536.853	79001
536.920	151221
536.987	226099
537.053	239099
537.120	789028
537.187	299647
537.254	33548
537.321	31432
537.388	29061
537.454	22176
537.521	22178
537.588	22076
537.654	29409
537.721	32335
537.788	30074
537.855	26445
537.921	33588
537.988	31663
538.055	33834
538.121	42398
538.188	71594
538.254	161595
538.321	255754
538.388	87766
538.454	34781
538.521	26584
538.587	24210
538.654	23254
538.720	23886
538.787	24562
538.853	33389
538.920	47594
538.986	38129
539.053	30555
539.119	40144
539.185	39207
539.252	69793
539.318	109240
539.385	44138
539.451	38371
539.517	47012
539.583	74160
539.650	248170
539.716	382165
539.782	60549
539.849	37794
539.915	40629
539.981	54274
540.047	67257
540.114	49147
540.180	52411
540.246	70614
540.312	137840
540.378	269380
540.444	188390
540.510	280720
540.576	472441
540.643	68006
540.709	32229
540.775	31650
540.841	36932
540.907	54364
540.973	79519
541.039	119134
541.105	99308
541.171	43321
541.237	39444
541.303	48940
541.369	74779
541.435	139647
541.500	200906
541.566	79830
541.632	34408
541.698	29619
541.764	27130
541.830	25643
541.896	26457
541.961	29448
542.027	33170
542.093	37854
542.159	49146
542.224	72963
542.290	130795
542.356	237155
542.421	180616
542.487	65626
542.553	40137
542.618	36878
542.684	34661
542.750	41226
542.815	63885
542.881	156789
542.947	506177
543.012	159713
543.078	26296
543.143	26425
543.209	34021
543.274	40791
543.340	65457
543.405	206430
543.471	183844
543.536	28571
543.602	24173
543.667	23225
543.732	22536
543.798	20573
543.863	20896
543.928	20025
543.994	19915
544.059	22470
544.124	23600
544.190	24397
544.255	28844
544.320	35108
544.386	48688
544.451	84716
544.516	88898
544.581	108580
544.646	353863
544.712	291683
544.777	36245
544.842	28841
544.907	26916
544.972	24880
545.037	25858
545.102	28699
545.168	29590
545.233	33936
545.298	41450
545.363	58271
545.428	89587
545.493	215948
545.558	322692
545.623	61232
545.688	28515
545.753	26418
545.818	25484
545.883	26942
545.947	25889
546.012	31722
546.077	32802
546.142	38693
546.207	53386
546.272	86484
546.337	69820
546.401	39623
546.466	32560
546.531	29899
546.596	37795
546.661	38962
546.725	30870
546.790	27289
546.855	28018
546.919	27510
546.984	31972
547.049	37159
547.113	40312
547.178	39608
547.243	47929
547.307	56419
547.372	74070
547.436	63440
547.501	54193
547.565	68476
547.630	103897
547.695	76922
547.759	65024
547.823	53065
547.888	48065
547.952	51261
548.017	61253
548.081	83986
548.146	79150
548.210	59266
548.274	54511
548.339	50812
548.403	46208
548.468	44499
548.532	45967
548.596	49252
548.660	52727
548.725	63173
548.789	74671
548.853	64197
548.917	57081
548.982	69554
549.046	53620
549.110	41461
549.174	43677
549.238	47952
549.303	51224
549.367	53865
549.431	49683
549.495	45811
549.559	48660
549.623	58971
549.687	77472
549.751	98210
549.815	67243
549.879	63258
549.943	61908
550.007	67960
550.071	74707
550.135	90714
550.199	62158
550.263	60206
550.327	68641
550.391	79135
550.455	66414
550.519	69634
550.582	81722
550.646	125542
550.710	99840
550.774	77840
550.838	81162
550.901	84985
550.965	95230
551.029	108566
551.093	131076
551.156	173524
551.220	271663
551.284	247178
551.347	151815
551.411	200189
551.475	134876
551.538	81278
551.602	72867
551.666	70609
551.729	65650
551.793	65685
551.856	70589
551.920	75897
551.983	67082
552.047	61452
552.110	63941
552.174	66668
552.237	66287
552.301	58923
552.364	58689
552.428	59486
552.491	65654
552.554	72630
552.618	77546
552.681	93328
552.745	131138
552.808	249302
552.871	296967
552.934	154305
552.998	96907
553.061	81329
553.124	71247
553.187	71298
553.251	80665
553.314	89927
553.377	117574
553.440	214963
553.503	668957
553.567	597874
553.630	89784
553.693	62638
553.756	59354
553.819	56283
553.882	55032
553.945	55821
554.008	53871
554.071	53200
554.134	53315
554.197	51126
554.260	55774
554.323	59733
554.386	58264
554.449	53504
554.512	53201
554.575	51543
554.638	54271
554.701	52778
554.764	48543
554.827	47132
554.889	43233
554.952	41956
555.015	41880
555.078	42321
555.141	43537
555.203	43859
555.266	45239
555.329	47639
555.391	48397
555.454	58728
555.517	50079
555.580	44219
555.642	41151
555.705	42096
555.768	43811
555.830	40446
555.893	37783
555.955	38185
556.018	40270
556.080	39001
556.143	39801
556.206	43065
556.268	46316
556.330	51509
556.393	46227
556.455	46626
556.518	71514
556.580	56669
556.643	39059
556.705	39150
556.767	39905
556.830	46249
556.892	75865
556.955	128500
557.017	56990
557.079	42359
557.142	52665
557.204	92929
557.266	203236
557.328	95720
557.391	36091
557.453	35090
557.515	41991
557.577	71235
557.639	56908
557.701	35616
557.764	35023
557.826	39154
557.888	46414
557.950	55940
558.012	74982
558.074	129378
558.136	356597
558.198	566472
558.260	116482
558.322	62907
558.384	71700
558.446	87760
558.508	118250
558.570	183871
558.632	380510
558.694	498763
558.756	655691
558.818	2023162
558.880	2959732
558.942	645962
559.003	634935
559.065	185917
559.127	107319
559.189	125106
559.251	182811
559.312	334935
559.374	923325
559.436	2080246
559.498	508054
559.559	116990
559.621	122391
559.683	188868
559.744	367631
559.806	1189994
559.868	1010738
559.929	146007
559.991	139527
560.052	288183
560.114	643389
560.176	286298
560.237	458026
560.299	461031
560.360	64132
560.422	33881
560.483	28568
560.545	24361
560.606	24709
560.667	24172
560.729	22796
560.790	22027
560.852	22068
560.913	22683
560.974	21618
561.036	21342
561.097	22854
561.158	24647
561.220	27235
561.281	31458
561.342	39408
561.403	61659
561.465	115549
561.526	329031
561.587	260486
561.648	42248
561.709	26765
561.771	23615
561.832	24260
561.893	21929
561.954	20117
562.015	20854
562.076	20008
562.137	19908
562.198	20407
562.259	22685
562.320	28422
562.381	44976
562.442	73202
562.503	34031
562.564	21064
562.625	19244
562.686	20336
562.747	24070
562.808	17476
562.869	17749
562.930	18216
562.991	18627
563.051	17203
563.112	17239
563.173	17685
563.234	16986
563.294	18407
563.355	23106
563.416	23162
563.477	19519
563.537	21364
563.598	22259
563.659	22439
563.720	24203
563.780	28918
563.841	27633
563.901	18759
563.962	18570
564.023	19704
564.083	21672
564.144	22593
564.204	19915
564.265	22131
564.325	29815
564.386	56497
564.446	30111
564.507	17905
564.567	19695
564.628	18101
564.688	16931
564.749	18527
564.809	23964
564.869	24727
564.930	20467
564.990	20705
565.050	18821
565.111	19128
565.171	19136
565.231	19883
565.292	20550
565.352	19924
565.412	23467
565.472	28250
565.532	32105
565.593	24656
565.653	23642
565.713	27863
565.773	33570
565.833	60597
565.893	62340
565.953	26281
566.013	25474
566.074	28905
566.134	39299
566.194	64195
566.254	61958
566.314	35032
566.374	26416
566.434	27170
566.494	28305
566.554	29697
566.614	32088
566.673	33231
566.733	35728
566.793	36457
566.853	34981
566.913	35498
566.973	38906
567.033	39889
567.092	40464
567.152	36662
567.212	37849
567.272	38142
567.331	42259
567.391	43068
567.451	47724
567.511	57238
567.570	48221
567.630	38216
567.690	38415
567.749	39927
567.809	44977
567.868	53758
567.928	58060
567.988	69917
568.047	80755
568.107	102716
568.166	142100
568.226	221563
568.285	278149
568.345	231721
568.404	189650
568.464	168659
568.523	160890
568.582	170113
568.642	196043
568.701	242116
568.761	348616
568.820	495354
568.879	446757
568.939	332367
568.998	253127
569.057	203927
569.116	165577
569.176	137038
569.235	116663
569.294	100077
569.353	89023
569.413	75937
569.472	66969
569.531	60387
569.590	54637
569.649	50798
569.708	47749
569.767	47353
569.827	53691
569.886	41792
569.945	35816
570.004	35251
570.063	36593
570.122	42446
570.181	37117
570.240	34980
570.299	37001
570.358	35867
570.417	28472
570.475	29162
570.534	33746
570.593	35157
570.652	33345
570.711	32875
570.770	32624
570.829	38939
570.887	44702
570.946	43464
571.005	26292
571.064	28013
571.122	35131
571.181	32540
571.240	22639
571.299	19817
571.357	22347
571.416	22397
571.475	26554
571.533	22666
571.592	19895
571.650	21211
571.709	20878
571.768	24828
571.826	21199
571.885	16576
571.943	15785
572.002	17054
572.060	16533
572.119	14455
572.177	14505
572.236	13461
572.294	13693
572.352	14358
572.411	15027
572.469	14215
572.528	15876
572.586	16637
572.644	22513
572.703	26453
572.761	15377
572.819	12194
572.877	11852
572.936	12348
572.994	13754
573.052	14914
573.110	18932
573.169	18115
573.227	13991
573.285	13220
573.343	13291
573.401	13601
573.459	13701
573.517	13521
573.576	14044
573.634	15260
573.692	18000
573.750	15337
573.808	14236
573.866	15531
573.924	19734
573.982	16796
574.040	13488
574.098	14386
574.155	13345
574.213	13794
574.271	14786
574.329	15591
574.387	12566
574.445	12434
574.503	11707
574.560	11499
574.618	11786
574.676	11991
574.734	13387
574.792	13197
574.849	12233
574.907	10338
574.965	10701
575.022	11378
575.080	11984
575.138	13984
575.195	16349
575.253	19817
575.311	22481
575.368	13907
575.426	11307
575.483	11727
575.541	11724
575.598	11319
575.656	13342
575.713	12405
575.771	12716
575.828	11702
575.886	11974
575.943	13639
576.001	13008
576.058	13170
576.115	16488
576.173	20616
576.230	29518
576.287	39836
576.345	20824
576.402	13794
576.459	13117
576.517	13222
576.574	14877
576.631	13683
576.688	11874
576.746	11239
576.803	10743
576.860	10557
576.917	10941
576.974	10496
577.031	11091
577.089	10965
577.146	12381
577.203	14218
577.260	14666
577.317	15855
577.374	16231
577.431	16781
577.488	16882
577.545	14209
577.602	14664
577.659	17537
577.716	23955
577.773	27119
577.830	17201
577.886	14197
577.943	13136
578.000	14217
578.057	15460
578.114	13030
578.171	12928
578.227	13580
578.284	12764
578.341	14375
578.398	14187
578.454	16960
578.511	16299
578.568	15637
578.625	12233
578.681	11222
578.738	10449
578.794	9881
578.851	10641
578.908	10532
578.964	12054
579.021	10726
579.077	10896
579.134	11531
579.190	10703
579.247	11213
579.303	11559
579.360	11845
579.416	11195
579.473	10193
579.529	10154
579.586	10950
579.642	11303
579.698	10675
579.755	13714
579.811	14207
579.867	13103
579.924	12006
579.980	14500
580.036	15289
580.093	15605
580.149	16794
580.205	16775
580.261	15852
580.317	16194
580.374	17438
580.430	18621
580.486	17128
580.542	16488
580.598	15229
580.619	15207
580.654	15189
580.692	14443
580.710	14105
580.765	12132
580.767	12086
580.823	12736
580.838	12856
580.879	13226
580.911	12563
580.935	12101
580.984	11649
580.991	11604
581.047	12320
581.057	12146
581.103	11460
581.130	11552
581.159	11663
581.203	12881
581.215	13227
581.270	12295
581.276	12232
581.326	11724
581.349	11711
581.382	11708
581.422	12330
581.438	12614
581.494	12243
581.494	12241
581.550	13355
581.567	14026
581.606	15458
581.640	13912
581.661	13021
581.713	11588
581.717	11483
581.773	10472
581.786	10458
581.829	10410
581.859	10092
581.885	9893
581.932	10120
581.940	10161
581.996	10425
582.004	10341
582.052	9903
582.077	10302
582.107	10749
582.150	10700
582.163	10696
582.219	11271
582.223	11246
582.274	11113
582.296	11456
582.330	12007
582.368	12096
582.386	12156
582.441	12738
582.441	12744
582.497	13359
582.514	14267
582.552	16517
582.587	19000
582.608	20338
582.659	13798
582.663	13307
582.719	11386
582.732	11290
582.774	10964
582.805	11317
582.830	11617
582.877	11277
582.885	11235
582.941	10649
582.950	10749
582.996	11166
583.023	12059
583.052	13209
583.095	12519
583.107	12272
583.162	12690
583.168	12780
583.218	13795
583.240	12946
583.273	11458
583.313	11863
583.328	12134
583.384	12641
583.385	12628
583.439	12029
583.458	11768
583.494	11297
583.531	11481
583.549	11617
583.603	11344
583.605	11331
583.660	11626
583.676	11578
583.715	11364
583.748	11976
583.770	12536
583.820	12286
583.825	12222
583.881	11424
583.893	11348
583.936	11297
583.965	11217
583.991	11040
584.038	11684
584.046	11810
584.101	12252
584.110	12139
584.156	11567
584.183	11415
584.211	11360
584.255	11949
584.266	12062
584.321	12120
584.328	12167
584.376	12396
584.400	12602
584.431	12855
584.472	12458
584.486	12329
584.541	13257
584.545	13276
584.596	13481
584.617	13735
584.651	14348
584.689	14998
584.706	15116
584.761	15475
584.762	15482
584.816	15614
584.834	15743
584.871	15824
584.906	16309
584.926	16566
584.978	17535
584.980	17566
585.035	20034
585.051	20885
585.090	23061
585.123	25187
585.145	26709
585.195	32594
585.200	33248
585.254	44282
585.267	51631
585.309	77179
585.340	87665
585.364	92088
585.412	60380
585.419	55750
585.473	58303
585.484	61989
585.528	80306
585.556	99115
585.583	120058
585.628	180479
585.637	195014
585.692	413384
585.700	433194
585.747	513061
585.772	367801
585.801	187951
585.845	80551
585.856	59657
585.910	39229
585.917	37925
585.965	31072
585.989	29039
586.019	26538
586.061	25296
586.074	24941
586.128	25322
586.133	25451
586.183	26152
586.205	25579
586.237	25027
586.277	23673
586.292	22984
586.346	21486
586.349	21522
586.401	22421
586.421	23268
586.455	24001
586.493	25355
586.509	26211
586.564	30130
586.565	30436
586.618	41404
586.637	37860
586.672	30470
586.709	28681
586.727	27811
586.781	28637
586.781	28600
586.835	26700
586.853	26462
586.889	25720
586.925	24945
586.944	24736
586.996	26256
586.998	26259
587.052	26525
587.068	26791
587.106	27696
587.140	28323
587.161	28710
587.212	30231
587.215	30230
587.269	31033
587.284	31282
587.323	32355
587.356	33391
587.377	34115
587.427	35899
587.431	35992
587.485	38406
587.499	38887
587.539	39597
587.571	41150
587.593	42749
587.643	46530
587.648	46782
587.702	50265
587.715	51387
587.755	54762
587.786	56830
587.810	58728
587.858	63900
587.864	64420
587.917	71660
587.930	73626
587.971	80459
588.001	85230
588.025	89616
588.073	100613
588.079	102056
588.133	116922
588.145	120559
588.187	133358
588.217	144124
588.241	154103
588.288	176339
588.295	179447
588.348	211470
588.360	219033
588.402	249514
588.431	274885
588.456	297714
588.503	351881
588.510	359910
588.564	441548
588.575	464031
588.617	557261
588.646	640118
588.671	726341
588.718	935300
588.725	979168
588.778	1407731
588.789	1519638
588.832	2243245
588.861	2805560
588.886	3465585
588.932	4569640
588.939	4613482
588.993	4677201
589.004	4635882
589.047	3448294
589.075	2537127
589.100	1962159
589.147	1135858
589.154	1082339
589.207	821807
589.218	784774
589.261	747844
589.290	752085
589.314	794133
589.361	925187
589.368	966752
589.421	1400224
589.433	1520095
589.475	2388582
589.504	3055584
589.528	3570924
589.576	4309250
589.582	4192412
589.635	2745143
589.647	2419005
589.689	1369502
589.718	772210
589.742	611698
589.790	374629
589.795	359864
589.849	260578
589.861	241157
589.902	200982
589.932	173916
589.955	158319
590.004	131149
590.009	128887
590.062	111299
590.075	107625
590.115	97204
590.146	90051
590.168	85869
590.218	78253
590.222	77549
590.275	71437
590.289	69983
590.328	64777
590.360	60848
590.381	58785
590.431	54866
590.435	54445
590.488	49935
590.503	48840
590.541	46354
590.574	44523
590.594	43375
590.645	40599
590.647	40431
590.700	38971
590.716	38578
590.753	37536
590.787	36996
590.806	36104
590.859	33731
590.859	33641
590.912	32716
590.930	32560
590.965	31800
591.001	31177
591.018	30569
591.071	28965
591.072	29012
591.124	28523
591.143	28552
591.177	28240
591.214	27886
591.230	27923
591.283	28593
591.285	28685
591.336	27755
591.356	27448
591.389	27259
591.427	26717
591.442	25912
591.495	23303
591.498	23191
591.547	22945
591.569	22923
591.600	22533
591.640	22138
591.653	21928
591.706	21345
591.711	21318
591.759	21234
591.782	21362
591.811	21427
591.853	21518
591.864	21225
591.917	19852
591.924	19730
591.969	20485
591.995	20951
592.022	20413
592.066	19649
592.075	19687
592.127	20236
592.137	20408
592.180	20060
592.208	19729
592.233	19057
592.279	18061
592.285	18095
592.338	18811
592.350	19007
592.390	18499
592.421	18201
592.443	18264
592.491	18539
592.495	18506
592.548	18583
592.562	18650
592.600	18281
592.633	18017
592.653	17603
592.704	16550
592.705	16659
592.775	17467
592.846	17411
592.916	18330
592.987	18711
593.058	17970
593.128	16893
593.199	16930
593.270	16839
593.341	16444
593.411	17144
593.482	17297
593.553	17009
593.623	17235
593.694	16056
593.764	16862
593.835	17295
593.906	17456
593.976	17006
594.047	17421
594.117	17405
594.188	17493
594.258	17127
594.329	17257
594.399	18063
594.470	17815
594.540	18185
594.611	18033
594.681	18882
594.751	19505
594.822	23590
594.892	23517
594.963	19829
595.033	19942
595.103	19570
595.174	19827
595.244	21336
595.314	21337
595.384	20089
595.455	19774
595.525	20483
595.595	21116
595.665	21460
595.736	21421
595.806	20521
595.876	21010
595.946	20643
596.016	20484
596.087	21725
596.157	22342
596.227	21990
596.297	22058
596.367	23758
596.437	24211
596.507	25935
596.577	25612
596.647	24730
596.717	27110
596.787	27137
596.857	26947
596.927	26917
596.997	26856
597.067	28377
597.137	30613
597.207	28489
597.277	26758
597.347	26790
597.417	26044
597.487	26989
597.557	26529
597.626	27408
597.696	28609
597.766	27807
597.836	26777
597.906	26055
597.975	24801
598.045	24476
598.115	24542
598.185	27028
598.254	30001
598.324	31946
598.394	32807
598.464	32434
598.533	31209
598.603	28517
598.672	28098
598.742	27684
598.812	28763
598.881	29628
598.951	28249
599.020	29156
599.090	29569
599.159	30311
599.229	30056
599.299	28797
599.368	29629
599.437	29125
599.507	26526
599.576	26794
599.646	28947
599.715	27672
599.785	24311
599.854	23695
599.924	24551
599.993	24496
600.062	24109
600.132	24793
600.201	26884
600.270	30824
600.340	30762
600.409	30135
600.478	29331
600.547	29910
600.617	27061
600.686	23153
600.755	21730
600.824	21317
600.894	21320
600.963	20606
601.032	19901
601.101	18940
601.170	17210
601.239	17305
601.308	18335
601.378	18203
601.447	18267
601.516	17754
601.585	18560
601.654	18899
601.723	18458
601.792	19160
601.861	19959
601.930	24296
601.999	22927
602.068	19955
602.137	20444
602.206	21705
602.275	21696
602.343	22653
602.412	22463
602.481	20707
602.550	21278
602.619	21031
602.688	21790
602.756	22239
602.825	22137
602.894	21730
602.963	22084
603.032	23094
603.100	22965
603.169	22855
603.238	22382
603.307	23927
603.375	23094
603.444	23289
603.513	23997
603.581	24497
603.650	24014
603.719	23839
603.787	24271
603.856	25366
603.924	25994
603.993	27192
604.061	27627
604.130	28739
604.198	29835
604.267	29574
604.335	30522
604.404	31325
604.472	30937
604.541	31298
604.609	31607
604.678	31962
604.746	31240
604.815	32407
604.883	33349
604.951	34292
605.020	33974
605.088	34078
605.156	33999
605.225	35285
605.293	35592
605.361	35667
605.429	36481
605.498	37488
605.566	39225
605.634	39128
605.702	40323
605.771	41878
605.839	41933
605.907	40211
605.975	38997
606.043	39095
606.111	40688
606.180	39406
606.248	42736
606.316	43679
606.384	38063
606.452	40045
606.520	43005
606.588	41904
606.656	39747
606.724	38476
606.792	37340
606.860	33627
606.928	30088
606.996	28951
607.064	30590
607.132	29562
607.200	31813
607.267	33230
607.335	32497
607.403	34755
607.471	31421
607.539	32231
607.607	32821
607.674	28150
607.742	29575
607.810	29994
607.878	28659
607.946	29312
608.013	29778
608.081	31262
608.149	31600
608.216	32242
608.284	33268
608.352	33587
608.419	32212
608.487	34020
608.555	31787
608.622	32867
608.690	34400
608.757	38085
608.825	38799
608.893	37425
608.960	35605
609.028	35007
609.095	34634
609.163	33536
609.230	29972
609.298	28320
609.365	29377
609.432	32668
609.500	34518
609.567	38704
609.635	46608
609.702	47127
609.769	45630
609.837	35374
609.904	31058
609.971	34027
610.039	39612
610.106	52928
610.173	95892
610.241	216317
610.308	110714
610.375	45004
610.442	33194
610.509	30863
610.577	32085
610.644	33354
610.711	33233
610.778	34671
610.845	35833
610.912	39885
610.980	42792
611.047	48386
611.114	43020
611.181	37700
611.248	36854
611.315	40099
611.382	39081
611.449	40572
611.516	43272
611.583	41941
611.650	42765
611.717	43074
611.784	44764
611.851	49033
611.918	55081
611.984	70140
612.051	102207
612.118	210139
612.185	528824
612.252	267105
612.319	65445
612.386	54993
612.452	50991
612.519	47820
612.586	46677
612.653	47259
612.719	49472
612.786	46496
612.853	43915
612.919	41877
612.986	43141
613.053	40609
613.120	37601
613.186	35707
613.253	37763
613.319	37495
613.386	36949
613.453	37825
613.519	39086
613.586	41511
613.652	47232
613.719	44291
613.785	44250
613.852	44740
613.918	47022
613.985	62530
614.051	108418
614.118	250993
614.184	214220
614.250	54124
614.317	42280
614.383	41346
614.449	41119
614.516	40343
614.582	40402
614.648	38741
614.715	37676
614.781	38069
614.847	37552
614.914	37655
614.980	36445
615.046	37441
615.112	39645
615.179	39184
615.245	42191
615.311	46293
615.377	62753
615.443	61331
615.509	46830
615.575	44324
615.642	44324
615.708	48053
615.774	51711
615.840	58771
615.906	71565
615.972	102196
616.038	181282
616.104	311637
616.170	722643
616.236	506400
616.302	99175
616.368	70514
616.434	51844
616.500	50002
616.565	54080
616.631	65124
616.697	52086
616.763	57317
616.829	84441
616.895	143755
616.961	121541
617.026	52508
617.092	38971
617.158	39014
617.224	37535
617.289	34242
617.355	32632
617.421	31396
617.487	33657
617.552	30419
617.618	29559
617.684	29539
617.749	32370
617.815	28472
617.880	29032
617.946	28176
618.012	29136
618.077	29821
618.143	28772
618.208	28592
618.274	30449
618.339	29882
618.405	24610
618.470	26276
618.536	24208
618.601	26698
618.667	22797
618.732	22610
618.798	21582
618.863	21730
618.928	20667
618.994	23270
619.059	23197
619.124	26903
619.190	23811
619.255	22116
619.320	22299
619.386	22355
619.451	21202
619.516	20116
619.581	21086
619.647	20925
619.712	21168
619.777	20183
619.842	20658
619.907	20776
619.972	21038
620.038	21637
620.103	19113
620.168	19183
620.233	21020
620.298	20244
620.363	20877
620.428	21971
620.493	21651
620.558	21749
620.623	23031
620.688	22066
620.753	23414
620.818	21619
620.883	22836
620.948	22792
621.013	21933
621.078	22280
621.143	20932
621.207	24764
621.272	21197
621.337	21727
621.402	22023
621.467	22746
621.532	21297
621.596	21576
621.661	21345
621.726	20220
621.791	20816
621.855	21960
621.920	21833
621.985	21673
622.049	21120
622.114	20334
622.179	21529
622.243	22363
622.308	21394
622.373	24915
622.437	22282
622.502	21573
622.566	21028
622.631	20186
622.695	23505
622.760	22442
622.824	22261
622.889	22898
622.953	23386
623.018	29044
623.082	28155
623.147	23602
623.211	22888
623.276	23812
623.340	21499
623.404	20840
623.469	21042
623.533	21196
623.597	20186
623.662	21374
623.726	18686
623.790	18779
623.854	17249
623.919	18190
623.983	18609
624.047	19155
624.111	18668
624.176	19293
624.240	19199
624.304	21618
624.368	19390
624.432	20222
624.496	20301
624.560	22513
624.625	23586
624.689	22220
624.753	20845
624.817	20795
624.881	19400
624.945	19032
625.009	17248
625.073	19075
625.137	18528
625.201	21650
625.265	22323
625.329	20067
625.393	19920
625.456	19423
625.520	20434
625.584	19817
625.648	20258
625.712	22311
625.776	24191
625.839	24246
625.903	17379
625.967	15928
626.031	19202
626.095	21482
626.158	18438
626.222	13368
626.286	14262
626.349	12132
626.413	11233
626.477	13704
626.540	11674
626.604	11867
626.668	13192
626.731	11296
626.795	11590
626.858	12801
626.922	10827
626.986	12058
627.049	10579
627.113	12898
627.176	12244
627.240	11549
627.303	10374
627.366	11608
627.430	11874
627.493	11956
627.557	9776
627.620	12781
627.684	12256
627.747	12413
627.810	9605
627.874	10519
627.937	9248
628.000	12277
628.064	9378
628.127	8107
628.190	9675
628.253	9498
628.317	8501
628.380	8169
628.443	8074
628.506	8416
628.569	8156
628.632	6575
628.696	8050
628.759	7567
628.822	6045
628.885	6605
628.948	6522
629.011	7778
629.074	6874
629.137	6302
629.200	5720
629.263	6872
629.326	5443
629.389	6229
629.452	6903
629.515	6488
629.578	5632
629.641	7591
629.704	5492
629.767	5949
629.830	6070
629.892	5636
629.955	5461
630.018	8380
630.081	6804
630.144	8802
630.207	5488
630.269	8058
630.332	5173
630.395	5614
630.458	6215
630.520	4347
630.583	6132
630.646	6283
630.708	5391
630.771	5248
630.834	6031
630.896	5424
630.959	5763
631.021	4147
631.084	5286
631.146	6326
631.209	7151
631.272	5685
631.334	6158
631.397	5361
631.459	4910
631.522	7200
631.584	6772
631.646	7473
631.709	8149
631.771	8675
631.834	8617
631.896	7713
631.958	6160
632.021	6759
632.083	4456
632.145	6441
632.208	5430
632.270	6860
632.332	5393
632.395	4527
632.457	6210
632.519	5360
632.581	7038
632.643	4302
632.706	5550
632.768	4767
632.830	5467
632.892	6009
632.954	5093
633.016	5658
633.078	4989
633.141	5732
633.203	4668
633.265	6459
633.327	5223
633.389	4449
633.451	5731
633.513	6850
633.575	6637
633.637	6531
633.698	6208
633.760	6014
633.822	6810
633.884	6634
633.946	6581
634.008	6923
634.070	7792
634.132	10372
634.193	8865
634.255	9480
634.317	8958
634.379	10466
634.441	8956
634.502	10126
634.564	13474
634.626	22383
634.687	27749
634.749	11974
634.811	7894
634.873	5890
634.934	5780
634.996	6777
635.057	4672
635.119	4522
635.181	6461
635.242	6823
635.304	3987
635.365	7492
635.427	4416
635.488	5540
635.550	4982
635.611	6395
635.673	3810
635.734	6982
635.796	6112
635.857	8099
635.918	6510
635.980	8958
636.041	7069
636.102	9761
636.164	9323
636.225	10052
636.286	5802
636.348	7076
636.409	6568
636.470	5521
636.531	5042
636.593	4454
636.654	5285
636.715	4836
636.776	6107
636.838	5250
636.899	6078
636.960	7240
637.021	8916
637.082	14397
637.143	11563
637.204	5058
637.265	4348
637.326	5267
637.387	4810
637.448	3424
637.509	5377
637.570	4302
637.631	5963
637.692	3812
637.753	2928
637.814	4854
637.875	3400
637.936	5097
637.997	3798
638.058	3703
638.119	4083
638.179	3578
638.240	3560
638.301	3928
638.362	2968
638.423	3398
638.483	5383
638.544	1953
638.605	4865
638.666	3389
638.726	4024
638.787	4773
638.848	3854
638.908	3411
638.969	4079
639.030	3042
639.090	3274
639.151	3412
639.211	4256
639.272	5736
639.332	7362
639.393	5098
639.453	2888
639.514	4345
639.574	4025
639.635	3060
639.695	5102
639.756	2441
639.816	4533
639.877	5240
639.937	8595
639.997	10015
640.058	3829
640.118	3451
640.178	4431
640.239	3898
640.299	4038
640.359	3629
640.420	4591
640.480	4944
640.540	4970
640.600	5259
640.661	4416
640.721	4451
640.781	8588
640.841	6138
640.901	5433
640.961	4675
641.021	4359
641.082	4885
641.142	6499
641.202	5789
641.262	2334
641.322	4181
641.382	2049
641.442	4841
641.502	3354
641.562	3970
641.622	3385
641.682	4539
641.742	3877
641.802	4655
641.861	4621
641.921	4689
641.981	4710
642.041	5046
642.101	4241
642.161	2569
642.221	2590
642.280	2926
642.340	3371
642.400	2545
642.460	4510
642.519	3123
642.579	3243
642.639	5207
642.698	1022
642.758	5140
642.818	3295
642.877	3180
642.937	3084
642.997	4986
643.056	5899
643.116	3451
643.175	5472
643.235	3139
643.294	3883
643.354	5848
643.414	5998
643.473	8932
643.532	11682
643.592	18288
643.651	30392
643.711	51286
643.770	96708
643.830	228257
643.889	490250
643.948	105504
644.008	16077
644.067	9700
644.126	6986
644.186	6463
644.245	5834
644.304	4230
644.363	5931
644.423	3612
644.482	4496
644.541	4817
644.600	3326
644.659	6893
644.719	7101
644.778	11344
644.837	17708
644.896	36685
644.955	83534
645.014	27543
645.073	7560
645.132	4874
645.191	5106
645.250	4015
645.309	4966
645.368	5187
645.427	7264
645.486	9417
645.545	15974
645.604	5799
645.663	6536
645.722	5917
645.781	7346
645.840	7487
645.898	10890
645.957	17088
646.016	24628
646.075	43077
646.134	79577
646.192	215147
646.251	314808
646.310	42716
646.369	10489
646.427	8833
646.486	4851
646.545	4674
646.603	4550
646.662	4062
646.721	4681
646.779	3340
646.838	2995
646.896	6018
646.955	6353
647.014	10850
647.072	18549
647.131	52106
647.189	24097
647.248	4179
647.306	3907
647.365	4926
647.423	2001
647.481	3946
647.540	2289
647.598	3202
647.657	2770
647.715	3458
647.773	1985
647.832	3776
647.890	2225
647.948	2806
648.007	3675
648.065	2011
648.123	2909
648.181	5582
648.240	6913
648.298	4590
648.356	4069
648.414	4270
648.472	3961
648.531	4789
648.589	4355
648.647	4042
648.705	3390
648.763	3282
648.821	4095
648.879	4430
648.937	5258
648.995	5690
649.053	7545
649.111	11755
649.169	18073
649.227	29446
649.285	60501
649.343	170219
649.401	86663
649.459	25248
649.516	24932
649.574	32786
649.632	89935
649.690	106524
649.748	20247
649.806	15319
649.863	25665
649.921	37836
649.979	25261
650.037	4952
650.094	2807
650.152	3325
650.210	2356
650.268	3952
650.325	2975
650.383	3988
650.440	1789
650.498	2688
650.556	2032
650.613	927
650.671	1583
650.728	2128
650.786	2201
650.843	1760
650.901	53
650.958	2545
651.016	1145
651.073	1869
651.131	1557
651.188	1590
651.246	2248
651.303	980
651.360	1739
651.418	1323
651.475	1642
651.532	326
651.590	1802
651.647	1217
651.704	2087
651.762	1122
651.819	1808
651.876	1399
651.933	1369
651.990	2125
652.048	130
652.105	1180
652.162	1323
652.219	643
652.276	1801
652.333	1861
652.390	484
652.448	2008
652.505	1521
652.562	1526
652.619	2209
652.676	5558
652.733	6482
652.790	1622
652.847	689
652.904	1550
652.961	219
653.017	-7
653.074	1573
653.131	1415
653.188	-305
653.245	1242
653.302	1311
653.359	994
653.415	2206
653.472	1118
653.529	1903
653.586	1009
653.642	581
653.699	1390
653.756	306
653.813	743
653.869	1595
653.926	918
653.983	826
654.039	2174
654.096	445
654.152	2235
654.209	613
654.266	1531
654.322	73
654.379	1925
654.435	1098
654.492	1706
654.548	2508
654.605	3076
654.661	3314
654.717	2230
654.774	1995
654.830	1814
654.887	1661
654.943	1856
655.000	2723
655.056	1671
655.112	1781
655.168	1361
655.225	2065
655.281	3392
655.337	2667
655.394	2424
655.450	2483
655.506	3697
655.562	4394
655.618	5043
655.675	3785
655.731	5506
655.787	4895
655.843	7537
655.899	6556
655.955	9251
656.011	10809
656.067	12261
656.123	16315
656.179	19364
656.235	21699
656.291	19037
656.347	16775
656.403	12891
656.459	10280
656.515	9022
656.571	7288
656.627	6434
656.683	5449
656.739	4795
656.795	3672
656.850	4855
656.906	4004
656.962	5303
657.018	1340
657.074	3291
657.129	2968
657.185	3377
657.241	5362
657.297	4144
657.352	2022
657.408	1246
657.464	2006
657.519	2041
657.575	1277
657.630	1941
657.686	1307
657.742	530
657.797	639
657.853	973
657.908	1935
657.964	370
658.019	1104
658.075	1357
658.130	1987
658.186	-62
658.241	839
658.297	12
658.352	447
658.407	912
658.463	-11
658.518	707
658.573	1035
658.629	795
658.684	894
658.739	2174
658.795	37
658.850	984
658.905	584
658.960	1318
659.016	182
659.071	955
659.126	715
659.181	986
659.236	3067
659.291	4783
659.346	1241
659.401	1175
659.457	3422
659.512	4208
659.567	2975
659.622	1070
659.677	405
659.732	351
659.787	321
659.842	369
659.897	1745
659.952	632
660.007	52
660.061	1015
660.116	-106
660.171	344
660.226	734
660.281	1966
660.336	141
660.391	951
660.445	-418
660.500	473
660.555	1571
660.610	371
660.664	1125
660.719	248
660.774	236
660.828	991
660.883	361
660.938	739
660.992	-543
661.047	533
661.101	436
661.156	656
661.211	-787
661.265	405
661.320	272
661.374	719
661.429	-211
661.483	1251
661.538	317
661.592	242
661.647	1056
661.701	1949
661.755	1058
661.810	1408
661.864	396
661.919	152
661.973	821
662.027	1207
662.081	-255
662.136	114
662.190	902
662.244	725
662.299	401
662.353	1324
662.407	128
662.461	-132
662.515	324
662.569	-113
662.624	778
662.678	374
662.732	860
662.786	504
662.840	365
662.894	1435
662.948	46
663.002	485
663.056	915
663.110	459
663.164	201
663.218	524
663.272	1285
663.326	616
663.380	711
663.434	701
663.488	109
663.542	1115
663.595	587
663.649	-70
663.703	1200
663.757	1012
663.811	640
663.864	99
663.918	605
663.972	-55
664.026	337
664.079	410
664.133	528
664.187	695
664.240	384
664.294	186
664.348	1548
664.401	948
664.455	254
664.508	1152
664.562	1181
664.615	973
664.669	1031
664.722	1361
664.776	406
664.829	886
664.883	625
664.936	304
664.990	868
665.043	1534
665.097	583
665.150	1694
665.203	196
665.257	1010
665.310	633
665.363	1721
665.417	1748
665.470	557
665.523	1435
665.576	1477
665.630	1370
665.683	1733
665.736	729
665.789	598
665.842	233
665.895	1211
665.949	1093
666.002	1172
666.055	-596
666.108	2229
666.161	912
666.214	1124
666.267	675
666.320	1931
666.373	1210
666.426	812
666.479	3
666.532	700
666.585	1280
666.638	1271
666.691	218
666.744	1274
666.796	1251
666.849	1081
666.902	1192
666.955	643
667.008	-34
667.060	937
667.113	647
667.166	360
667.219	817
667.271	987
667.324	438
667.377	1985
667.430	1182
667.482	2876
667.535	3430
667.587	1364
667.640	1558
667.693	1211
667.745	3946
667.798	6785
667.850	1366
667.903	2021
667.955	702
668.008	606
668.060	1414
668.113	-167
668.165	475
668.218	856
668.270	1708
668.322	1213
668.375	254
668.427	805
668.479	924
668.532	1665
668.584	585
668.636	1377
668.689	691
668.741	1271
668.793	868
668.845	522
668.898	1000
668.950	340
669.002	819
669.054	768
669.106	669
669.158	809
669.211	1653
669.263	1102
669.315	4125
669.367	4909
669.419	3475
669.471	3317
669.523	4234
669.575	7380
669.627	5551
669.679	2862
669.731	1812
669.783	2808
669.835	3092
669.886	3129
669.938	1727
669.990	1396
670.042	1603
670.094	2243
670.146	1751
670.197	2789
670.249	2221
670.301	3323
670.353	5619
670.404	8202
670.456	11752
670.508	16473
670.560	23823
670.611	36665
670.663	64157
670.715	172616
670.766	352144
670.818	137039
670.869	18394
670.921	9170
670.972	5898
671.024	4592
671.075	3495
671.127	2617
671.178	2166
671.230	2011
671.281	2185
671.333	2471
671.384	2326
671.436	2455
671.487	4534
671.538	5296
671.590	7301
671.641	11005
671.692	21027
671.744	47278
671.795	39394
671.846	14822
671.897	6853
671.949	4383
672.000	3686
672.051	2495
672.102	2899
672.153	2033
672.204	1959
672.256	2168
672.307	2004
672.358	1815
672.409	1616
672.460	1378
672.511	1265
672.562	1543
672.613	909
672.664	1929
672.715	984
672.766	784
672.817	699
672.868	1030
672.919	863
672.970	1778
673.021	1267
673.071	824
673.122	1530
673.173	2157
673.224	1216
673.275	1050
673.326	920
673.376	508
673.427	917
673.478	1419
673.528	922
673.579	1031
673.630	1738
673.680	1254
673.731	485
673.782	33
673.832	591
673.883	1450
673.934	780
673.984	885
674.035	1307
674.085	1394
674.136	1187
674.186	1306
674.237	1940
674.287	2541
674.338	1572
674.388	997
674.438	843
674.489	1437
674.539	1131
674.589	1622
674.640	1466
674.690	2063
674.740	609
674.791	1239
674.841	1384
674.891	1226
674.942	1995
674.992	1944
675.042	1785
675.092	785
675.142	1635
675.193	707
675.243	1078
675.293	656
675.343	450
675.393	1009
675.443	220
675.493	1224
675.543	266
675.593	460
675.643	356
675.693	1014
675.743	661
675.793	1409
675.843	215
675.893	752
675.943	1129
675.993	580
676.043	492
676.093	1299
676.142	137
676.192	915
676.242	677
676.292	815
676.341	57
676.391	708
676.441	531
676.491	834
676.540	1024
676.590	753
676.640	859
676.689	935
676.739	-50
676.789	635
676.838	809
676.888	1190
676.937	599
676.987	492
677.037	712
677.086	280
677.136	584
677.185	625
677.235	-27
677.284	138
677.333	92
677.383	703
677.432	52
677.482	-140
677.531	390
677.580	734
677.630	-76
677.679	1053
677.728	741
677.778	904
677.827	391
677.876	751
677.925	460
677.975	803
678.024	324
678.073	914
678.122	46
678.171	894
678.220	966
678.269	1026
678.319	1509
678.368	1507
678.417	1351
678.466	1159
678.515	1410
678.564	27
678.613	519
678.662	775
678.711	1200
678.760	1030
678.809	1075
678.857	45
678.906	1142
678.955	381
679.004	1098
679.053	813
679.102	809
679.151	1185
679.199	13
679.248	529
679.297	294
679.346	265
679.394	29
679.443	326
679.492	103
679.540	767
679.589	757
679.638	13
679.686	1070
679.735	240
679.784	509
679.832	924
679.881	790
679.929	372
679.978	542
680.026	721
680.075	409
680.123	80
680.172	1316
680.220	470
680.268	220
680.317	311
680.365	733
680.414	-5
680.462	570
680.510	1099
680.559	144
680.607	451
680.655	57
680.703	753
680.752	1097
680.800	740
680.848	386
680.896	589
680.945	606
680.993	862
681.041	-192
681.089	1052
681.137	757
681.185	1051
681.233	-7
681.258	306
681.281	596
681.329	179
681.377	397
681.380	363
681.425	-377
681.473	1089
681.502	426
681.521	-49
681.569	251
681.617	-38
681.624	53
681.665	581
681.713	1511
681.745	853
681.761	531
681.809	333
681.857	1155
681.867	964
681.904	288
681.952	595
681.989	481
682.000	441
682.048	1373
682.096	697
682.111	427
682.143	-179
682.191	761
682.233	804
682.239	800
682.286	-42
682.334	626
682.354	702
682.382	814
682.430	718
682.476	680
682.477	675
682.525	545
682.572	587
682.598	502
682.620	417
682.667	490
682.715	511
682.720	598
682.763	1324
682.810	1244
682.841	932
682.857	761
682.905	1132
682.952	1056
682.963	1042
683.000	971
683.047	423
683.085	988
683.095	1135
683.142	450
683.190	931
683.206	908
683.237	823
683.284	1552
683.328	734
683.332	663
683.379	738
683.426	816
683.449	538
683.473	290
683.521	820
683.568	763
683.571	767
683.615	704
683.662	1650
683.693	984
683.709	617
683.757	1072
683.804	1201
683.814	1211
683.851	1154
683.898	1616
683.936	925
683.945	768
683.992	1444
684.039	1659
684.057	1866
684.086	2156
684.133	1919
684.179	645
684.180	598
684.227	1657
684.274	1434
684.300	2284
684.321	2951
684.368	651
684.415	1695
684.422	1586
684.462	963
684.509	857
684.543	1270
684.556	1391
684.603	1500
684.649	855
684.665	1074
684.696	1601
684.743	751
684.786	1243
684.790	1277
684.837	1131
684.883	1877
684.908	1638
684.930	1385
684.977	1079
685.023	1146
685.029	1145
685.070	1122
685.117	879
685.150	1182
685.164	1286
685.210	1160
685.257	2201
685.272	2149
685.303	2063
685.350	2062
685.393	1432
685.396	1391
685.443	2094
685.490	3015
685.514	2870
685.536	2592
685.583	1865
685.629	1644
685.636	1579
685.675	1335
685.722	1753
685.757	1497
685.768	1420
685.815	1625
685.861	1613
685.878	1731
685.908	1921
685.954	1006
686.000	1522
686.000	1526
686.047	1791
686.093	2011
686.121	1904
686.139	1875
686.185	1884
686.232	1180
686.242	1294
686.278	1616
686.324	1392
686.363	1256
686.370	1252
686.416	1302
686.463	1215
686.484	1598
686.509	1993
686.555	2383
686.601	1451
686.606	1486
686.647	1703
686.693	1278
686.727	1267
686.739	1298
686.785	1655
686.831	1572
686.848	1536
686.877	1418
686.923	1484
686.969	1722
686.969	1723
687.015	1564
687.061	1567
687.090	1455
687.107	1379
687.153	1819
687.199	1294
687.211	1382
687.245	1640
687.291	1172
687.332	1861
687.336	1945
687.382	2031
687.428	2203
687.453	2071
687.474	1785
687.520	1983
687.565	1797
687.574	1696
687.611	1587
687.657	2285
687.695	2030
687.702	2001
687.748	3063
687.794	3909
687.816	3786
687.839	3410
687.885	2500
687.931	2281
687.937	2175
687.976	1711
688.022	1876
688.058	1938
688.067	1970
688.113	1491
688.158	1657
688.179	1856
688.204	2116
688.249	1752
688.295	2300
688.300	2284
688.340	2031
688.386	2277
688.421	1948
688.431	1882
688.477	1872
688.522	1830
688.542	2019
688.567	2370
688.613	1948
688.658	2572
688.663	2515
688.703	1889
688.749	2321
688.784	2423
688.794	2432
688.839	2262
688.884	2422
688.905	2276
688.930	2221
688.975	2225
689.020	2397
689.026	2410
689.065	2421
689.110	2438
689.146	2192
689.155	2136
689.201	2359
689.246	2762
689.267	2565
689.291	2376
689.336	2416
689.381	2114
689.388	2144
689.426	2251
689.471	2400
689.509	2049
689.516	2006
689.561	2182
689.606	1941
689.630	2112
689.651	2194
689.696	2093
689.741	2144
689.750	2173
689.785	2486
689.830	2341
689.871	2468
689.875	2465
689.920	2687
689.965	2555
689.992	2497
690.010	2436
690.054	1906
690.099	2065
690.112	1899
690.144	1736
690.189	2142
690.233	2166
690.233	2170
690.278	2292
690.323	2703
690.354	2513
690.367	2434
690.412	2796
690.457	2238
690.474	2434
690.501	2692
690.546	2295
690.590	2270
690.595	2284
690.635	2588
690.680	2401
690.716	2529
690.724	2553
690.769	2586
690.813	2959
690.836	2848
690.857	2897
690.902	3394
690.946	3575
690.957	3731
690.991	4535
691.035	5708
691.077	6775
691.080	6788
691.124	5708
691.168	5245
691.198	4818
691.213	4599
691.257	4176
691.301	3814
691.318	3618
691.346	3579
691.390	3516
691.434	3495
691.439	3479
691.478	3355
691.522	3308
691.559	3270
691.567	3280
691.611	3492
691.655	3206
691.680	3397
691.699	3522
691.743	3145
691.787	3333
691.800	3265
691.831	3154
691.875	3300
691.919	2913
691.921	2912
691.964	3057
692.008	2969
692.041	2929
692.052	2957
692.096	2817
692.139	3499
692.162	3478
692.183	3417
692.227	3125
692.271	3090
692.282	3175
692.315	3385
692.359	2695
692.402	2478
692.403	2486
692.447	2991
692.490	3274
692.523	3265
692.534	3257
692.578	3071
692.622	3340
692.643	3590
692.666	3852
692.709	3715
692.753	3614
692.763	3613
692.797	3617
692.840	3762
692.884	3706
692.884	3712
692.928	3540
692.971	2965
693.004	2956
693.015	3067
693.059	3077
693.102	3320
693.124	3431
693.146	3628
693.189	3772
693.233	4088
693.245	4141
693.276	3918
693.320	3602
693.363	3527
693.365	3505
693.407	3573
693.450	3960
693.485	3889
693.493	3854
693.537	4112
693.580	4158
693.605	4256
693.624	4596
693.667	5160
693.710	5771
693.725	6108
693.753	7181
693.797	8790
693.840	10839
693.845	10933
693.883	9938
693.926	8553
693.966	7598
693.970	7484
694.013	6326
694.056	5280
694.086	4459
694.099	4380
694.142	4303
694.185	3990
694.206	3903
694.229	4030
694.272	4265
694.315	4262
694.326	4367
694.358	4647
694.401	4680
694.444	4982
694.446	4980
694.487	5189
694.530	5142
694.566	5103
694.573	5054
694.616	4957
694.659	4698
694.686	4703
694.702	4802
694.745	4757
694.787	4680
694.806	4655
694.830	4593
694.873	4311
694.916	4315
694.926	4285
694.959	4430
695.002	4768
695.044	4743
695.046	4741
695.087	4904
695.130	4900
695.166	4955
695.172	4946
695.215	4457
695.258	4589
695.286	4256
695.301	4209
695.343	4436
695.386	4660
695.406	4665
695.428	4633
695.471	4637
695.514	4674
695.526	4639
695.556	4582
695.599	4692
695.641	4597
695.646	4588
695.684	4428
695.726	4146
695.766	3790
695.769	3803
695.811	3959
695.854	4142
695.886	4230
695.896	4285
695.938	4473
695.981	4732
696.005	4772
696.023	4755
696.065	4594
696.108	4612
696.125	4590
696.150	4726
696.192	5235
696.235	5361
696.245	5408
696.277	5194
696.319	4764
696.361	4697
696.365	4639
696.404	4587
696.446	4735
696.485	4890
696.488	4931
696.530	5239
696.572	5524
696.604	5818
696.614	5758
696.656	5378
696.698	4964
696.724	4654
696.740	4646
696.783	4578
696.825	4707
696.844	4728
696.867	4793
696.909	4677
696.951	4753
696.964	4768
696.992	4852
697.034	4848
697.076	4894
697.083	4890
697.118	5283
697.160	5660
697.202	6143
697.203	6139
697.244	5925
697.286	5576
697.323	5327
697.327	5332
697.369	5195
697.411	5050
697.442	4985
697.453	5036
697.494	5084
697.536	5238
697.562	5250
697.578	5180
697.620	5003
697.661	4809
697.682	4716
697.703	5014
697.744	5574
697.786	6228
697.801	6398
697.828	6279
697.869	6071
697.911	5882
697.921	5833
697.952	5841
697.994	5743
698.035	5709
698.040	5690
698.077	5619
698.118	5441
698.160	5317
698.160	5301
698.201	5645
698.243	5871
698.279	6101
698.284	6105
698.325	5967
698.367	5895
698.399	5714
698.408	5747
698.449	5905
698.491	6070
698.518	6137
698.532	6139
698.573	6067
698.614	6055
698.638	6021
698.656	6030
698.697	5994
698.738	5981
698.757	5952
698.779	5996
698.820	6050
698.862	6103
698.877	6105
698.903	6287
698.944	6551
698.985	6815
698.996	6871
699.026	6565
699.067	6118
699.116	5570
699.235	5174
699.354	5235
699.474	5226
699.593	5648
699.713	7015
699.832	6464
699.951	7069
700.070	6439
700.190	7751
700.309	7626
700.428	8309
700.547	8435
700.667	7163
700.786	6726
700.905	6565
701.024	6091
701.143	6132
701.262	6115
701.381	5884
701.500	5553
701.619	6220
701.738	5697
701.857	5833
701.976	5635
702.095	6558
702.214	6238
702.333	6042
702.452	5068
702.571	5373
702.690	5264
702.809	5429
702.928	5209
703.047	5854
703.165	5864
703.284	5593
703.403	5787
703.522	6134
703.640	6560
703.759	6314
703.878	5686
703.997	5775
704.115	6777
704.234	7153
704.353	5237
704.471	5404
704.590	4719
704.708	5255
704.827	4913
704.946	4555
705.064	4510
705.183	5421
705.301	4618
705.420	4721
705.538	5154
705.656	6932
705.775	7335
705.893	14812
706.012	14753
706.130	5480
706.249	5329
706.367	5301
706.485	5078
706.604	5543
706.722	5761
706.840	6221
706.958	8542
707.077	6283
707.195	4250
707.313	5232
707.431	4221
707.549	4414
707.668	4463
707.786	5408
707.904	4059
708.022	4405
708.140	4797
708.258	4608
708.376	5460
708.494	4206
708.612	5099
708.730	4783
708.848	5017
708.966	4250
709.084	4668
709.202	5308
709.320	4520
709.438	4501
709.556	3983
709.674	5098
709.791	4665
709.909	4662
710.027	4174
710.145	4342
710.263	4433
710.380	4937
710.498	4223
710.616	4926
710.733	4081
710.851	4893
710.969	4041
711.086	4697
711.204	4667
711.322	3667
711.439	4265
711.557	4407
711.674	4621
711.792	4153
711.909	5858
712.027	6143
712.144	4371
712.262	4356
712.379	3430
712.497	4921
712.614	4120
712.732	4429
712.849	4639
712.966	4485
713.084	5519
713.201	4463
713.318	4960
713.436	4274
713.553	3577
713.670	4320
713.787	4346
713.905	4264
714.022	4862
714.139	4094
714.256	6402
714.373	7658
714.490	13277
714.608	38882
714.725	168474
714.842	120110
714.959	8343
715.076	4872
715.193	5490
715.310	5819
715.427	5948
715.544	7713
715.661	14306
715.778	7074
715.895	5267
716.011	5297
716.128	4504
716.245	3532
716.362	6394
716.479	5889
716.596	5658
716.713	5176
716.829	4452
716.946	4686
717.063	4057
717.180	4240
717.296	3886
717.413	3335
717.530	4333
717.646	4512
717.763	3740
717.880	2988
717.996	3678
718.113	4683
718.229	3837
718.346	3940
718.462	4512
718.579	4625
718.695	8862
718.812	5031
718.928	3665
719.045	2595
719.161	3660
719.277	4312
719.394	4935
719.510	4320
719.626	4105
719.743	5224
719.859	5646
719.975	11030
720.092	43701
720.208	74666
720.324	8431
720.440	3795
720.557	4580
720.673	6257
720.789	5779
720.905	5946
721.021	2957
721.137	3288
721.253	3248
721.369	2725
721.486	2848
721.602	3651
721.718	3535
721.834	3291
721.950	2532
722.066	2898
722.181	2785
722.297	3975
722.413	3734
722.529	3359
722.645	3481
722.761	3266
722.877	3173
722.993	3342
723.108	3856
723.224	3678
723.340	3138
723.456	4284
723.571	3512
723.687	3519
723.803	3626
723.918	2672
724.034	2348
724.150	2555
724.265	3304
724.381	3533
724.497	3729
724.612	2923
724.728	3106
724.843	3077
724.959	3424
725.074	4354
725.190	4796
725.305	2606
725.421	3116
725.536	3751
725.651	3930
725.767	3299
725.882	4132
725.997	2416
726.113	3082
726.228	3501
726.343	2204
726.459	2558
726.574	3519
726.689	2841
726.804	3426
726.920	2449
727.035	2760
727.150	2801
727.265	3583
727.380	4132
727.495	3505
727.610	2954
727.725	3335
727.841	4490
727.956	10540
728.071	5685
728.186	3146
728.301	2203
728.416	3491
728.531	3480
728.645	3445
728.760	4311
728.875	6042
728.990	6016
729.105	3842
729.220	3497
729.335	3680
729.449	3152
729.564	2895
729.679	2869
729.794	2810
729.908	2408
730.023	2606
730.138	2551
730.253	2135
730.367	2505
730.482	3010
730.596	1948
730.711	2768
730.826	3521
730.940	3894
731.055	2608
731.169	2640
731.284	2362
731.398	2406
731.513	2661
731.627	2929
731.742	3201
731.856	1990
731.970	2706
732.085	3344
732.199	4991
732.313	5892
732.428	15989
732.542	48165
732.656	20929
732.771	4803
732.885	3837
732.999	3305
733.113	3999
733.227	3673
733.342	4045
733.456	3122
733.570	3396
733.684	2397
733.798	3398
733.912	3882
734.026	3941
734.140	2505
734.254	3217
734.368	3011
734.482	3985
734.596	3081
734.710	3121
734.824	3260
734.938	2937
735.052	2976
735.166	2377
735.280	2838
735.393	3300
735.507	3184
735.621	3770
735.735	3938
735.849	3762
735.962	2623
736.076	3811
736.190	2780
736.303	3248
736.417	3460
736.531	3246
736.644	2947
736.758	3333
736.872	2666
736.985	2998
737.099	3048
737.212	3010
737.326	3139
737.439	2642
737.553	2985
737.666	3389
737.780	3097
737.893	3158
738.007	3377
738.120	3286
738.233	3254
738.347	3622
738.460	4045
738.573	2775
738.687	2614
738.800	3147
738.913	3675
739.026	3498
739.140	2699
739.253	3217
739.366	2634
739.479	2005
739.592	2593
739.705	3074
739.818	3929
739.932	2232
740.045	2785
740.158	3648
740.271	3619
740.384	3309
740.497	4606
740.610	5349
740.723	4336
740.836	5043
740.949	4871
741.062	4659
741.174	4068
741.287	3314
741.400	3598
741.513	6200
741.626	5584
741.739	4002
741.851	3742
741.964	5046
742.077	4786
742.189	9240
742.302	28772
742.415	23163
742.527	6139
742.640	3919
742.753	2551
742.865	2688
742.978	2342
743.090	2620
743.203	2983
743.316	3017
743.428	2928
743.541	3013
743.653	3531
743.766	2699
743.878	4197
743.990	7952
744.103	23140
744.215	60594
744.327	17352
744.440	6310
744.552	4384
744.664	3032
744.777	2714
744.889	1739
745.001	3275
745.113	1965
745.226	2396
745.338	2095
745.450	2263
745.562	2005
745.674	1965
745.786	2595
745.898	2126
746.010	2390
746.122	2736
746.234	2887
746.347	2796
746.459	4989
746.570	8621
746.682	25641
746.794	86974
746.906	40072
747.018	6660
747.130	4502
747.242	3486
747.354	2557
747.466	3623
747.577	2247
747.689	3565
747.801	3512
747.913	3304
748.024	2259
748.136	1062
748.248	1396
748.359	2807
748.471	1573
748.583	2177
748.694	3013
748.806	1984
748.918	1087
749.029	1790
749.141	2123
749.252	2617
749.364	2303
749.475	4429
749.587	2112
749.698	1844
749.809	1767
749.921	1373
750.032	1221
750.144	680
750.255	1509
750.366	1851
750.478	1796
750.589	2432
750.700	2280
750.811	2712
750.923	1867
751.034	4425
751.145	4328
751.256	827
751.367	1420
751.479	1763
751.590	787
751.701	1970
751.812	1259
751.923	1830
752.034	1445
752.145	1227
752.256	1470
752.367	1691
752.478	1485
752.589	1307
752.700	1196
752.811	548
752.922	1752
753.032	1363
753.143	2009
753.254	1174
753.365	1791
753.476	1293
753.586	2160
753.697	1946
753.808	1701
753.919	395
754.029	1426
754.140	1860
754.251	1742
754.361	733
754.472	1129
754.582	1788
754.693	1454
754.804	1518
754.914	1154
755.025	991
755.135	1181
755.246	1563
755.356	1055
755.466	1623
755.577	2195
755.687	1828
755.798	928
755.908	1548
756.018	1500
756.129	1363
756.239	1320
756.349	1475
756.460	978
756.570	2301
756.680	1277
756.790	1377
756.900	1837
757.011	1160
757.121	785
757.231	1445
757.341	736
757.451	1087
757.561	1013
757.671	1343
757.781	234
757.891	1662
758.001	382
758.111	2323
758.221	2197
758.331	1055
758.441	2098
758.551	2277
758.661	1362
758.771	2217
758.880	1963
758.990	509
759.100	1926
759.210	1575
759.320	1756
759.429	1817
759.539	1668
759.649	1558
759.758	1776
759.868	2008
759.978	1248
760.087	2089
760.197	2217
760.307	1105
760.416	1817
760.526	675
760.635	1665
760.745	1721
760.854	2531
760.964	1992
761.073	1945
761.182	2573
761.292	1778
761.401	1679
761.511	1887
761.620	2126
761.729	2389
761.839	943
761.948	1523
762.057	1372
762.166	871
762.276	724
762.385	2372
762.494	597
762.603	1339
762.712	1821
762.822	1032
762.931	1918
763.040	602
763.149	734
763.258	1310
763.367	2669
763.476	2184
763.585	2632
763.694	1354
763.803	1472
763.912	2470
764.021	2376
764.130	1162
764.238	2130
764.347	1443
764.456	1723
764.565	2654
764.674	1343
764.783	1724
764.891	1926
765.000	2653
765.109	3033
765.217	3771
765.326	3889
765.435	4545
765.543	5962
765.652	5752
765.761	8307
765.869	13846
765.978	22602
766.086	45915
766.195	101512
766.303	305794
766.412	882286
766.520	521862
766.629	86606
766.737	32825
766.846	20911
766.954	14782
767.062	12482
767.171	10695
767.279	7254
767.387	5572
767.496	5457
767.604	4363
767.712	4450
767.820	4380
767.928	4075
768.037	4061
768.145	4070
768.253	3550
768.361	1660
768.469	2690
768.577	3624
768.685	4600
768.793	2683
768.901	4052
769.009	4338
769.117	4813
769.225	7283
769.333	10100
769.441	19261
769.549	42452
769.657	106470
769.765	391216
769.873	649670
769.981	127047
770.088	25752
770.196	14045
770.304	10394
770.412	8389
770.519	5644
770.627	4673
770.735	3491
770.842	3424
770.950	2946
771.058	2596
771.165	3223
771.273	2842
771.380	2016
771.488	2016
771.595	3197
771.703	2506
771.810	2656
771.918	2531
772.025	2268
772.133	2711
772.240	2194
772.348	2909
772.455	3296
772.562	2071
772.670	1763
772.777	2341
772.884	2613
772.991	1813
773.099	2358
773.206	2110
773.313	2183
773.420	1401
773.528	1253
773.635	1596
773.742	1740
773.849	2391
773.956	2279
774.063	1626
774.170	1090
774.277	1788
774.384	1050
774.491	1751
774.598	1481
774.705	1635
774.812	2581
774.919	1505
775.026	1118
775.133	1981
775.239	1766
775.346	1746
775.453	1163
775.560	1639
775.667	1244
775.773	1835
775.880	2849
775.987	1645
776.093	2107
776.200	2732
776.307	1665
776.413	2608
776.520	1295
776.627	3559
776.733	4532
776.840	6849
776.946	17987
777.053	50929
777.159	165214
777.266	97076
777.372	125775
777.478	115898
777.585	55123
777.691	10540
777.798	5642
777.904	5033
778.010	4594
778.117	3414
778.223	1810
778.329	2597
778.435	2238
778.542	1699
778.648	1738
778.754	481
778.860	1269
778.966	1896
779.072	1038
779.178	1490
779.284	1082
779.391	1063
779.497	43
779.603	2997
779.708	-282
779.815	2638
779.920	5963
780.026	6359
780.132	1536
780.238	296
780.344	1476
780.450	1990
780.556	695
780.661	679
780.767	1244
780.873	759
780.979	1091
781.085	699
781.190	1054
781.296	1058
781.402	255
781.507	477
781.613	980
781.719	849
781.824	1481
781.930	2023
782.035	765
782.141	1643
782.246	338
782.352	821
782.457	388
782.563	1141
782.668	1149
782.773	264
782.879	269
782.984	1423
783.090	1708
783.195	1034
783.300	1436
783.405	1273
783.511	435
783.616	1785
783.721	2042
783.826	1317
783.932	1194
784.037	836
784.142	898
784.247	1381
784.352	1064
784.457	676
784.562	1007
784.667	896
784.772	235
784.877	-13
784.982	1218
785.087	1166
785.192	1320
785.297	142
785.402	812
785.507	911
785.611	1147
785.716	941
785.821	493
785.926	-21
786.031	1149
786.135	786
786.240	-125
786.345	-1078
786.450	415
786.554	-109
786.659	-308
786.763	-762
786.868	658
786.973	1640
787.077	-123
787.182	-416
787.286	510
787.391	499
787.495	-217
787.600	1128
787.704	-66
787.809	269
787.913	87
788.017	257
788.122	878
788.226	424
788.330	-314
788.435	401
788.539	92
788.643	1081
788.747	-35
788.852	-258
788.956	96
789.060	505
789.164	105
789.268	-178
789.372	1625
789.476	304
789.580	254
789.684	-160
789.788	1065
789.892	888
789.996	895
790.100	1104
790.204	1759
790.308	891
790.412	501
790.516	1737
790.620	639
790.724	951
790.828	88
790.931	-9
791.035	1840
791.139	1118
791.242	-739
791.346	1232
791.450	1067
791.554	-66
791.657	-90
791.761	2581
791.864	1796
791.968	1263
792.072	885
792.175	382
792.279	593
792.382	615
792.486	1045
792.589	1150
792.693	1431
792.796	162
792.899	928
793.003	1546
793.106	-257
793.209	1964
793.313	1967
793.416	-1472
793.519	1698
793.623	1746
793.726	1721
793.829	-65
793.932	924
794.035	274
794.138	2032
794.242	1799
794.345	1480
794.448	1700
794.551	2452
794.654	6292
794.757	9961
794.860	2529
794.963	2566
795.066	3595
795.169	4660
795.272	1529
795.375	1131
795.477	546
795.580	1355
795.683	-1249
795.786	-662
795.889	-563
795.991	1447
796.094	1319
796.197	-1236
796.300	209
796.402	203
796.505	-203
796.608	-472
796.710	1822
796.813	-219
796.915	-160
797.018	947
797.120	565
797.223	-1196
797.326	1286
797.428	261
797.530	-165
797.633	-150
797.735	496
797.838	-368
797.940	822
798.042	-580
798.145	-868
798.247	112
798.349	-1201
798.452	795
798.554	-578
798.656	-782
798.758	1153
798.860	467
798.962	-291
799.065	-1032
799.167	-844
799.269	835
799.371	928
799.473	554
799.575	-189
799.677	-468
799.779	1865
799.881	242
799.983	-17
800.085	299
800.187	750
800.289	-878
800.390	-68
800.492	402
800.594	2359
800.696	-1097
800.798	-164
800.899	77
801.001	-400
801.103	589
801.205	-253
801.306	283
801.408	-925
801.509	-6
801.611	-148
801.713	-54
801.814	-112
801.916	534
802.017	-213
802.119	-47
802.220	365
802.322	-1810
802.423	1662
802.525	-1281
802.626	-271
802.727	256
802.829	129
802.930	-2619
803.031	1016
803.133	-994
803.234	-235
803.335	773
803.436	-1398
803.538	-135
803.639	-812
803.740	207
803.841	-327
803.942	-667
804.043	562
804.144	-336
804.245	533
804.346	-831
804.447	-245
804.548	131
804.649	1113
804.750	-432
804.851	-665
804.952	110
805.053	-538
805.154	-1632
805.255	448
805.355	275
805.456	218
805.557	-329
805.658	-706
805.758	-302
805.859	1
805.960	-657
806.061	-1096
806.161	-575
806.262	-501
806.362	-1125
806.463	-854
806.564	-513
806.664	277
806.765	-1264
806.865	-502
806.966	-1201
807.066	-674
807.166	-5
807.267	696
807.367	-753
807.468	88
807.568	-2543
807.668	976
807.769	247
807.869	-1101
807.969	394
808.069	384
808.170	-315
808.270	-994
808.370	168
808.470	114
808.570	-1063
808.670	-161
808.770	-662
808.870	-1200
808.970	-548
809.070	-759
809.170	-1544
809.271	0
809.370	-483
809.470	-371
809.570	-609
809.670	-271
809.770	-445
809.870	-115
809.970	-685
810.070	-586
810.169	340
810.269	-703
810.369	490
810.469	-784
810.568	-694
810.668	-725
810.768	-219
810.867	65
810.967	-1056
811.066	-447
811.166	-907
811.265	601
811.365	-1142
811.464	-282
811.564	614
811.663	623
811.763	-1721
811.862	66
811.962	222
812.061	-1032
812.160	-366
812.260	-551
812.359	-117
812.458	-1166
812.557	692
812.657	-706
812.756	31
812.855	55
812.954	-477
813.053	-83
813.153	-639
813.252	-902
813.351	-676
813.450	-569
813.549	-669
813.648	-169
813.747	-389
813.846	-417
813.945	-427
814.044	-312
814.143	-259
814.242	327
814.341	-128
814.439	319
814.538	353
814.637	-538
814.736	343
814.835	915
814.933	-873
815.032	131
815.131	-161
815.229	552
815.328	968
815.427	-317
815.525	121
815.624	878
815.722	-107
815.821	837
815.919	-336
816.018	598
816.116	346
816.215	321
816.313	232
816.412	468
816.510	974
816.609	2718
816.707	1548
816.805	1114
816.904	606
817.002	1582
817.100	2289
817.198	2126
817.296	1716
817.395	2283
817.493	3473
817.591	3182
817.689	5615
817.787	6754
817.885	14996
817.983	29634
818.081	70064
818.179	176163
818.277	389195
818.375	190065
818.473	63196
818.571	29546
818.669	22487
818.767	35230
818.865	26018
818.963	19022
819.061	31522
819.158	60898
819.256	145635
819.354	365654
819.452	638434
819.549	230920
819.647	55277
819.745	26426
819.842	19230
819.940	14467
820.038	12642
820.135	8705
820.233	7316
820.330	5175
820.428	3615
820.525	4995
820.623	3229
820.720	2391
820.818	4148
820.915	6164
821.012	10946
821.110	8213
821.207	5550
821.304	4918
821.402	10553
821.499	23806
821.596	58060
821.693	33309
821.791	7449
821.888	4426
821.985	6894
822.082	6952
822.179	12176
822.276	25075
822.373	14517
822.470	3087
822.567	674
822.664	739
822.761	3052
822.858	1002
822.955	2663
823.052	2337
823.149	1413
823.246	1139
823.343	1278
823.440	734
823.536	290
823.633	848
823.730	-108
823.827	738
823.923	1609
824.020	5352
824.117	10227
824.213	22083
824.310	10608
824.407	1765
824.503	949
824.600	823
824.696	269
824.793	1668
824.889	987
824.986	914
825.082	800
825.179	1001
825.275	187
825.371	-1022
825.468	11
825.564	-291
825.660	109
825.757	260
825.853	110
825.949	-788
826.045	-427
826.142	-182
826.238	143
826.334	614
826.430	-1268
826.526	270
826.622	-356
826.718	785
826.814	-258
826.910	709
827.006	-854
827.102	-801
827.198	670
827.294	-100
827.390	-503
827.486	-196
827.582	-968
827.678	-70
827.774	425
827.869	-1059
827.965	1393
828.061	-943
828.157	-761
828.252	-1246
828.348	-847
828.444	297
828.539	-1018
828.635	-557
828.731	-394
828.826	-801
828.922	-92
829.017	-125
829.113	1039
829.208	-1017
829.304	-567
829.399	566
829.495	-924
829.590	490
829.685	-1158
829.781	249
829.876	-595
829.971	-251
830.066	-585
830.162	-570
830.257	-308
830.352	-311
830.447	614
830.543	-1114
830.638	-1466
830.733	48
830.828	-647
830.923	563
831.018	33
831.113	423
831.208	-742
831.303	-691
831.398	-782
831.493	-1269
831.588	117
831.683	-1361
831.778	-560
831.873	-357
831.967	427
832.062	-547
832.157	-812
832.252	1099
832.346	-605
832.441	250
832.536	1436
832.631	3902
832.725	969
832.820	38
832.914	-485
833.009	-773
833.104	225
833.198	262
833.293	-749
833.387	-98
833.482	-1461
833.576	-1013
833.670	370
833.765	-255
833.859	-1341
833.954	662
834.048	-650
834.142	-427
834.237	-1339
834.331	-950
834.425	-602
834.519	-1930
834.613	283
834.708	-573
834.802	569
834.896	-712
834.990	-355
835.084	-660
835.178	-593
835.272	-1241
835.366	-1800
835.460	341
835.554	-597
835.648	36
835.742	-170
835.836	-362
835.930	-1638
836.024	-120
836.117	465
836.211	-906
836.305	-511
836.399	494
836.493	-1699
836.586	-217
836.680	-631
836.774	-299
836.867	549
836.961	-783
837.055	-1336
837.148	-719
837.242	-1109
837.335	-986
837.429	-862
837.522	-1334
837.616	-754
837.709	136
837.803	-1393
837.896	-59
837.989	-1020
838.083	-400
838.176	105
838.269	-928
838.363	-357
838.456	-675
838.549	685
838.642	1232
838.735	3705
838.829	1046
838.922	-1192
839.015	-216
839.108	-1551
839.201	-236
839.294	-840
839.387	-62
839.480	-1301
839.573	-661
839.666	-1654
839.759	-762
839.852	-827
839.945	189
840.038	-850
840.131	-1269
840.223	-572
840.316	-254
840.409	-399
840.502	-970
840.594	15
840.687	-1485
840.780	46
840.873	-987
840.965	-1042
841.058	-365
841.150	171
841.243	-1372
841.336	506
841.428	-507
841.521	-31
841.613	-1207
841.706	-820
841.798	-901
841.890	-628
841.983	-1385
842.075	-450
842.167	-506
842.260	-835
842.352	-396
842.444	352
842.537	442
842.629	153
842.721	-648
842.813	-366
842.905	-656
842.997	57
843.090	-667
843.182	16
843.274	-186
843.366	2539
843.458	3614
843.550	397
843.642	-741
843.734	-189
843.826	-36
843.918	307
844.009	661
844.101	941
844.193	1984
844.285	3746
844.377	9354
844.469	22516
844.560	44839
844.652	43495
844.744	13380
844.835	2314
844.927	921
845.019	143
845.110	5
845.202	-110
845.293	25
845.385	-442
845.476	-306
845.568	-763
845.659	-78
845.751	-291
845.842	-1475
845.934	-1560
846.025	-1300
846.116	-791
846.208	-549
846.299	-1283
846.390	-305
846.482	214
846.573	553
846.664	-225
846.755	554
846.846	187
846.937	-1630
847.029	-633
847.120	-835
847.211	-591
847.302	454
847.393	-1715
847.484	-1016
847.575	-720
847.666	-1170
847.757	157
847.847	-796
847.938	-250
848.029	-609
848.120	-102
848.211	-1043
848.302	-713
848.392	-490
848.483	285
848.574	-1028
848.664	-338
848.755	58
848.846	-68
848.936	-1025
849.027	237
849.118	226
849.208	271
849.299	3397
849.389	5876
849.480	13473
849.570	27320
849.661	57761
849.751	73443
849.841	16498
849.932	1394
850.022	996
850.112	1046
850.203	-1009
850.293	-588
850.383	186
850.474	-924
850.564	-331
850.654	-954
850.744	379
850.834	-970
850.924	-581
851.014	13
851.104	-412
851.194	-504
851.284	294
851.374	574
851.464	-510
851.554	137
851.644	-221
851.734	-192
851.824	-296
851.914	-1185
852.004	341
852.094	-116
852.183	-105
852.273	358
852.363	-1022
852.452	-225
852.542	219
852.632	-488
852.721	-341
852.811	3
852.901	-133
852.990	-214
853.080	564
853.169	321
853.259	1005
853.348	1730
853.438	3656
853.527	6393
853.617	10589
853.706	24540
853.795	48457
853.885	104824
853.974	184811
854.063	367428
854.152	452868
854.242	118233
854.331	19448
854.420	8104
854.509	6725
854.598	3596
854.687	2832
854.777	2218
854.866	1581
854.955	1247
855.044	451
855.133	1250
855.222	297
855.311	824
855.400	533
855.488	738
855.577	265
855.666	1190
855.755	1294
855.844	1819
855.933	859
856.021	277
856.110	-146
856.199	-356
856.288	-332
856.376	-406
856.465	90
856.554	1026
856.642	2714
856.731	3247
856.819	1597
856.908	-579
856.996	-377
857.085	-1063
857.173	-518
857.262	-489
857.350	-543
857.438	-799
857.527	-477
857.615	-1445
857.703	482
857.792	-1432
857.880	-1111
857.968	-479
858.056	-393
858.145	-957
858.233	-1153
858.321	-930
858.409	190
858.497	-898
858.585	-484
858.673	-763
858.761	-895
858.849	-1141
858.937	-802
859.025	300
859.113	2163
859.201	3004
859.289	6160
859.377	7079
859.465	2958
859.552	-68
859.640	-885
859.728	-245
859.816	-794
859.903	-669
859.991	-1503
860.079	-398
860.166	-956
860.254	-863
860.342	123
860.429	-409
860.517	-348
860.604	15
860.692	-521
860.779	-925
860.867	-711
860.954	-151
861.042	-416
861.129	-1002
861.216	-446
861.304	-130
861.391	-472
861.478	-382
861.565	308
861.653	17
861.740	-2000
861.827	-838
861.914	-216
862.001	-80
862.089	-1041
862.176	-958
862.263	-475
862.350	-509
862.437	937
862.524	838
862.611	4362
862.698	7549
862.785	13938
862.871	19182
862.958	8541
863.045	861
863.132	601
863.219	-222
863.306	-720
863.392	188
863.479	-626
863.566	-143
863.652	-18
863.739	-1164
863.826	-381
863.912	256
863.999	-857
864.086	-650
864.172	577
864.259	-446
864.345	-647
864.432	531
864.518	71
864.604	-450
864.691	416
864.777	528
864.863	960
864.950	1039
865.036	629
865.122	1411
865.209	1643
865.295	2731
865.381	4064
865.467	6723
865.553	10354
865.639	15416
865.726	26202
865.812	54264
865.898	97253
865.984	139913
866.070	290247
866.156	218775
866.242	43635
866.328	9510
866.414	5631
866.499	4063
866.585	3335
866.671	1413
866.757	2332
866.843	2025
866.928	919
867.014	861
867.100	1480
867.186	1242
867.271	1727
867.357	2674
867.442	3157
867.528	3512
867.614	7809
867.699	14936
867.785	24299
867.870	39381
867.956	53799
868.041	29696
868.127	18996
868.212	29903
868.297	29148
868.383	13244
868.468	13369
868.553	16928
868.639	9111
868.724	10946
868.809	5640
868.894	1235
868.979	1109
869.065	959
869.150	-48
869.235	-304
869.320	497
869.405	163
869.490	11
869.575	139
869.660	491
869.745	1684
869.830	663
869.915	1837
870.000	3199
870.085	4786
870.169	8792
870.254	10374
870.339	2970
870.424	52
870.509	1069
870.593	1503
870.678	1612
870.763	1766
870.847	4267
870.932	6135
871.016	10113
871.101	11967
871.186	4378
871.270	1567
871.355	715
871.439	1818
871.523	2722
871.608	3055
871.692	5110
871.777	10970
871.861	5675
871.945	673
872.030	-57
872.114	-67
872.198	-252
872.282	-182
872.367	-501
872.451	29
872.535	912
872.619	75
872.703	1184
872.787	1729
872.871	533
872.955	426
873.039	-441
873.123	-660
873.207	-10
873.291	-228
873.375	189
873.459	214
873.543	-280
873.627	-368
873.711	-1270
873.794	209
873.878	-109
873.962	-458
874.045	463
874.129	503
874.137	442
874.213	-174
874.245	178
874.296	753
874.352	435
874.380	279
874.460	591
874.464	602
874.547	35
874.568	185
874.631	628
874.676	480
874.714	348
874.784	507
874.798	547
874.881	868
874.892	737
874.965	-186
874.999	140
875.048	561
875.107	336
875.131	244
875.215	699
875.215	698
875.298	9
875.323	82
875.381	238
875.430	-49
875.465	-226
875.538	576
875.548	675
875.631	-205
875.646	-291
875.714	-735
875.753	-542
875.798	-203
875.861	-288
875.881	-374
875.964	-590
875.968	-561
876.047	31
876.076	-34
876.130	-21
876.183	460
876.213	668
876.291	1026
876.296	1042
876.379	-404
876.398	-284
876.462	195
876.506	518
876.545	843
876.613	352
876.628	229
876.711	190
876.721	241
876.794	812
876.828	718
876.877	528
876.935	810
876.960	946
877.043	2035
877.043	2036
877.125	2528
877.150	2653
877.208	2946
877.258	3005
877.291	3002
877.365	3434
877.374	3477
877.456	2812
877.472	2738
877.539	2432
877.579	2649
877.622	2885
877.687	2541
877.704	2429
877.787	2103
877.794	2107
877.869	2369
877.901	2258
877.952	1984
878.008	1733
878.034	1597
878.115	944
878.117	940
878.199	1065
878.222	1201
878.282	1260
878.329	1180
878.364	1268
878.437	1921
878.447	1973
878.529	325
878.544	360
878.611	802
878.651	848
878.694	802
878.758	1163
878.776	1331
878.858	1311
878.865	1301
878.941	935
878.972	868
879.023	933
879.078	883
879.105	957
879.185	2206
879.187	2222
879.269	944
879.292	911
879.351	783
879.399	882
879.433	1176
879.506	726
879.516	646
879.598	514
879.613	529
879.680	914
879.720	1181
879.762	1346
879.827	1211
879.844	1170
879.926	1362
879.933	1419
880.007	2044
880.040	2032
880.089	2157
880.147	3637
880.171	4459
880.253	7283
880.254	7297
880.335	11538
880.360	12784
880.417	19889
880.467	31400
880.499	40292
880.574	47340
880.580	45493
880.662	16820
880.680	12057
880.744	5605
880.787	2476
880.825	2155
880.893	1131
880.907	1008
880.989	584
881.000	538
881.070	823
881.106	993
881.152	916
881.213	645
881.233	668
881.315	641
881.319	686
881.396	1319
881.426	1147
881.478	1001
881.532	1086
881.559	1027
881.639	532
881.641	528
881.722	886
881.745	741
881.803	719
881.852	1177
881.885	1279
881.958	1348
881.966	1395
882.047	1859
882.064	1817
882.129	2322
882.171	3386
882.210	4941
882.277	6843
882.291	6629
882.372	3680
882.383	3470
882.454	1929
882.489	1045
882.535	806
882.596	876
882.616	1049
882.697	729
882.702	757
882.778	813
882.808	696
882.859	759
882.914	943
882.940	865
883.020	639
883.021	644
883.102	813
883.127	638
883.183	362
883.233	114
883.264	84
883.339	1208
883.345	1270
883.426	667
883.445	743
883.507	946
883.551	775
883.587	752
883.657	997
883.668	1156
883.749	2265
883.763	2311
883.830	1395
883.869	1061
883.910	765
883.975	521
883.991	570
884.072	699
884.081	697
884.152	1027
884.187	1240
884.233	1190
884.292	922
884.314	967
884.394	1236
884.398	1226
884.475	751
884.504	748
884.555	994
884.610	993
884.636	950
884.716	1215
884.716	1223
884.797	1153
884.821	1111
884.877	958
884.927	886
884.958	879
885.033	817
885.038	803
885.118	324
885.139	253
885.199	650
885.244	1074
885.279	1398
885.350	1424
885.359	1416
885.439	1984
885.456	1925
885.520	1043
885.561	774
885.600	850
885.667	935
885.680	1012
885.760	1328
885.773	1382
885.840	1230
885.878	1027
885.920	1049
885.984	1158
886.000	1180
886.080	1271
886.089	1290
886.160	1700
886.195	1714
886.240	1470
886.300	1471
886.320	1603
886.400	1820
886.406	1844
886.480	2251
886.511	2251
886.560	3310
886.616	4590
886.640	4122
886.720	2344
886.722	2294
886.800	1243
886.827	813
886.879	939
886.932	913
886.959	1209
887.038	2190
887.039	2195
887.119	1428
887.143	1292
887.198	1491
887.248	1467
887.278	1304
887.354	869
887.358	877
887.437	916
887.459	920
887.517	1509
887.564	2068
887.596	1903
887.669	1318
887.676	1308
887.755	1116
887.774	1078
887.835	1355
887.880	1550
887.914	1619
887.985	1686
887.994	1677
888.073	1473
888.090	1434
888.153	1698
888.195	1932
888.232	1829
888.300	1418
888.311	1394
888.391	1327
888.405	1282
888.470	1363
888.510	1428
888.549	1459
888.615	1512
888.628	1457
888.708	1122
888.720	1046
888.787	1067
888.825	1071
888.866	1288
888.930	1649
888.945	1704
889.024	1961
889.035	1986
889.103	1662
889.140	1459
889.182	1659
889.245	1970
889.261	1960
889.340	1851
889.349	1830
889.419	2271
889.454	2495
889.498	2208
889.559	1768
889.577	1811
889.656	1984
889.664	1994
889.735	1818
889.768	1726
889.814	1496
889.873	1180
889.978	1634
890.083	2148
890.187	1523
890.292	1346
890.397	1856
890.501	1826
890.606	1747
890.710	2320
890.815	2953
890.919	3131
891.024	3732
891.128	5078
891.233	3071
891.337	2422
891.442	2344
891.546	1429
891.650	1319
891.755	2080
891.859	2873
891.963	2684
892.068	2725
892.172	2848
892.276	2718
892.380	2557
892.484	4621
892.589	5857
892.693	6402
892.797	2534
892.901	2157
893.005	1271
893.109	2003
893.213	2715
893.317	1278
893.421	1314
893.525	626
893.629	1697
893.733	938
893.837	1275
893.941	1245
894.045	1591
894.148	474
894.252	1612
894.356	1527
894.460	2792
894.564	1126
894.667	857
894.771	1549
894.875	1062
894.978	1505
895.082	1214
895.186	832
895.289	1430
895.393	1621
895.496	1645
895.600	189
895.703	922
895.807	1417
895.910	1110
896.014	1206
896.117	1438
896.221	1050
896.324	1126
896.427	821
896.531	992
896.634	1190
896.737	991
896.840	1498
896.944	1573
897.047	1699
897.150	1005
897.253	422
897.356	614
897.460	1388
897.563	1250
897.666	1521
897.769	2042
897.872	1161
897.975	896
898.078	532
898.181	1336
898.284	1680
898.387	2188
898.490	872
898.593	1239
898.695	839
898.798	399
898.901	1132
899.004	1483
899.107	1506
899.209	1172
899.312	1284
899.415	636
899.518	943
899.620	1522
899.723	1727
899.826	6327
899.928	9325
900.031	1923
900.133	1359
900.236	798
900.338	1444
900.441	1716
900.543	476
900.646	951
900.748	1338
900.851	2114
900.953	1761
901.055	2496
901.158	2907
901.260	1873
901.362	1031
901.465	795
901.567	1217
901.669	1367
901.771	1063
901.873	903
901.976	889
902.078	1141
902.180	1687
902.282	1599
902.384	1834
902.486	1708
902.588	1675
902.690	1852
902.792	1636
902.894	2088
902.996	1730
903.098	519
903.200	1020
903.302	1017
903.404	497
903.505	811
903.607	1579
903.709	1611
903.811	1172
903.913	531
904.014	714
904.116	165
904.218	1198
904.319	1441
904.421	1878
904.523	3373
904.624	1601
904.726	1098
904.827	994
904.929	2541
905.030	1320
905.132	1756
905.233	1116
905.335	826
905.436	6
905.537	1844
905.639	1126
905.740	1368
905.841	1422
905.943	1629
906.044	2153
906.145	2007
906.247	833
906.348	1184
906.449	1751
906.550	1730
906.651	1191
906.752	698
906.854	1502
906.955	639
907.056	1135
907.157	927
907.258	872
907.359	739
907.460	-37
907.561	1007
907.662	980
907.762	1331
907.863	1788
907.964	2021
908.065	1496
908.166	1328
908.267	1111
908.367	1774
908.468	594
908.569	1364
908.670	1618
908.770	3232
908.871	3667
908.971	2742
909.072	1436
909.173	1041
909.273	1619
909.374	330
909.474	895
909.575	795
909.675	262
909.776	2200
909.876	1307
909.977	1507
910.077	1893
910.177	1542
910.278	755
910.378	1157
910.478	2116
910.579	815
910.679	110
910.779	1368
910.879	1378
910.980	929
911.080	563
911.180	933
911.280	1090
911.380	831
911.480	939
911.580	213
911.680	1020
911.780	2029
911.880	1646
911.980	1268
912.080	780
912.180	984
912.280	713
912.380	1216
912.480	1242
912.580	1661
912.679	814
912.779	339
912.879	975
912.979	625
913.078	1065
913.178	1038
913.278	781
913.377	654
913.477	597
913.577	911
913.676	836
913.776	874
913.875	1109
913.975	1493
914.074	927
914.174	689
914.273	205
914.373	1649
914.472	359
914.572	859
914.671	708
914.770	689
914.870	848
914.969	860
915.068	958
915.167	164
915.267	312
915.366	704
915.465	544
915.564	1470
915.663	1029
915.763	1041
915.862	1142
915.961	948
916.060	1060
916.159	542
916.258	-619
916.357	1385
916.456	1418
916.555	1113
916.654	48
916.752	219
916.851	333
916.950	867
917.049	973
917.148	579
917.247	1059
917.345	605
917.444	712
917.543	1385
917.642	578
917.740	881
917.839	901
917.937	956
918.036	904
918.135	1234
918.233	607
918.332	799
918.430	349
918.529	718
918.627	480
918.726	1537
918.824	707
918.923	68
919.021	1146
919.119	734
919.218	224
919.316	1287
919.414	588
919.512	1261
919.611	985
919.709	753
919.807	287
919.905	1892
920.003	1298
920.102	1273
920.200	961
920.298	132
920.396	713
920.494	756
920.592	631
920.690	1520
920.788	701
920.886	1255
920.984	1311
921.082	1755
921.180	1737
921.277	1646
921.375	2246
921.473	1538
921.571	1274
921.669	1494
921.766	2106
921.864	2258
921.962	2168
922.060	1274
922.157	599
922.255	1195
922.352	1219
922.450	1863
922.548	692
922.645	1238
922.743	2047
922.840	2214
922.938	1925
923.035	2917
923.133	3361
923.230	2855
923.327	3930
923.425	3044
923.522	3723
923.619	2164
923.717	2398
923.814	2689
923.911	2430
924.008	3527
924.106	2178
924.203	2453
924.300	2205
924.397	2034
924.494	3761
924.591	3259
924.688	2531
924.786	2746
924.883	3000
924.979	3277
925.077	3287
925.173	2745
925.270	2705
925.367	3575
925.464	4645
925.561	4280
925.658	3890
925.755	5899
925.852	5752
925.948	5573
926.045	5852
926.142	5968
926.239	6809
926.335	5996
926.432	6394
926.529	6093
926.625	6556
926.722	5513
926.818	3869
926.915	3668
927.011	3311
927.108	2905
927.204	2163
927.301	2284
927.397	2714
927.494	2767
927.590	1792
927.687	2370
927.783	2909
927.879	3061
927.976	1822
928.072	1604
928.168	1763
928.264	1923
928.361	2438
928.457	2577
928.553	1494
928.649	3125
928.745	2350
928.841	1696
928.937	2130
929.033	2633
929.129	2326
929.225	2239
929.321	2639
929.417	1630
929.513	1893
929.609	2153
929.705	1634
929.801	1729
929.897	1892
929.993	2352
930.089	1466
930.184	2300
930.280	1670
930.376	2990
930.471	1500
930.567	1461
930.663	1743
930.758	1756
930.854	819
930.950	1455
931.045	1621
931.141	2082
931.236	2882
931.332	2190
931.427	1644
931.523	2663
931.618	1872
931.714	1257
931.809	1536
931.905	2415
932.000	1541
932.095	1653
932.191	1825
932.286	2495
932.381	1678
932.476	1059
932.572	1776
932.667	1982
932.762	1507
932.857	1571
932.952	1870
933.047	1571
933.142	903
933.237	1250
933.332	1483
933.427	1788
933.522	1826
933.617	1010
933.712	1632
933.807	2050
933.902	2343
933.997	2000
934.092	1746
934.187	1548
934.282	1464
934.376	2355
934.471	1549
934.566	1277
934.661	1625
934.755	1237
934.850	2090
934.945	1340
935.039	1454
935.134	2015
935.228	1490
935.323	2043
935.417	598
935.512	1272
935.606	552
935.701	1888
935.795	2086
935.890	1463
935.984	1183
936.079	845
936.173	1196
936.267	1562
936.362	274
936.456	1808
936.550	1629
936.644	1498
936.738	2072
936.833	1593
936.927	2331
937.021	3320
937.115	1907
937.209	1504
937.303	2198
937.397	842
937.491	2243
937.585	1471
937.679	1621
937.773	1465
937.867	286
937.961	1536
938.055	1405
938.149	2096
938.243	1911
938.337	1596
938.430	2231
938.524	3405
938.618	5489
938.712	5123
938.805	1770
938.899	2203
938.993	2501
939.086	3605
939.180	7004
939.274	8672
939.367	4518
939.461	2732
939.554	1571
939.648	936
939.741	823
939.835	1847
939.928	1827
940.022	2566
940.115	1542
940.208	749
940.302	1177
940.395	1018
940.488	1247
940.582	2051
940.675	695
940.768	1171
940.861	2089
940.954	3163
941.048	1590
941.141	4356
941.234	6109
941.327	11738
941.420	12149
941.513	6381
941.606	3837
941.699	3853
941.792	2517
941.885	2127
941.978	2245
942.071	2002
942.164	389
942.257	1325
942.349	1463
942.442	1227
942.535	1118
942.628	1431
942.721	985
942.813	291
942.906	2332
942.999	1515
943.091	1263
943.184	1316
943.277	368
943.369	2147
943.462	869
943.554	1705
943.647	809
943.739	1743
943.832	1670
943.924	365
944.017	1246
944.109	270
944.201	1246
944.294	713
944.386	1427
944.478	865
944.571	1683
944.663	1391
944.755	426
944.847	1068
944.940	1165
945.032	771
945.124	1114
945.216	2283
945.308	1743
945.400	1975
945.492	1523
945.584	1648
945.676	1384
945.768	565
945.860	2011
945.952	1553
946.044	2303
946.136	1275
946.228	851
946.320	438
946.412	1477
946.503	1242
946.595	1964
946.687	711
946.779	469
946.870	456
946.962	674
947.054	794
947.145	844
947.237	1365
947.329	1176
947.420	354
947.512	238
947.603	346
947.695	89
947.786	759
947.878	1437
947.969	1592
948.061	582
948.152	77
948.243	790
948.335	350
948.426	-90
948.517	788
948.609	950
948.700	1351
948.791	287
948.882	253
948.973	663
949.065	194
949.156	648
949.247	126
949.338	1042
949.429	435
949.520	951
949.611	-505
949.702	1861
949.793	86
949.884	313
949.975	314
950.066	171
950.157	-5
950.247	582
950.338	919
950.429	899
950.520	471
950.611	1086
950.701	852
950.792	1471
950.883	2110
950.973	1182
951.064	852
951.155	461
951.245	2106
951.336	580
951.427	466
951.517	1107
951.608	1128
951.698	944
951.788	930
951.879	546
951.969	508
952.060	739
952.150	1145
952.240	956
952.331	-379
952.421	2398
952.511	640
952.602	1
952.692	664
952.782	1244
952.872	715
952.962	1418
953.052	228
953.143	-111
953.233	731
953.323	1258
953.413	738
953.503	1173
953.593	581
953.683	-114
953.773	-526
953.863	644
953.953	917
954.042	1131
954.132	1200
954.222	1256
954.312	721
954.402	1001
954.492	1237
954.581	1356
954.671	635
954.761	44
954.850	1163
954.940	534
955.030	1455
955.119	1178
955.209	1156
955.298	132
955.388	1026
955.477	1130
955.567	594
955.656	998
955.746	774
955.835	-603
955.925	-950
956.014	821
956.103	995
956.193	375
956.282	649
956.371	865
956.461	1212
956.550	463
956.639	741
956.728	219
956.817	156
956.906	513
956.995	1782
957.085	395
957.174	471
957.263	1467
957.352	389
957.441	-70
957.530	1117
957.619	234
957.708	-167
957.796	449
957.885	521
957.974	267
958.063	751
958.152	-475
958.241	915
958.329	572
958.418	968
958.507	8
958.596	849
958.684	-25
958.773	782
958.861	678
958.950	702
959.039	305
959.127	481
959.216	847
959.304	805
959.393	-177
959.481	1537
959.570	327
959.658	26
959.746	1586
959.835	1408
959.923	1952
960.011	-243
960.100	990
960.188	837
960.276	229
960.365	798
960.453	643
960.541	-858
960.629	-71
960.717	-559
960.805	799
960.893	724
960.981	39
961.069	1086
961.158	397
961.245	1411
961.333	598
961.421	-81
961.509	530
961.597	804
961.685	651
961.773	218
961.861	-286
961.949	520
962.036	-502
962.124	-20
962.212	192
962.299	-113
962.387	-470
962.475	352
962.562	33
962.650	1451
962.738	563
962.825	268
962.913	-508
963.000	-424
963.088	-809
963.175	-391
963.263	174
963.350	797
963.438	979
963.525	689
963.612	2136
963.700	3267
963.787	8834
963.874	3952
963.962	-160
964.049	115
964.136	-176
964.223	344
964.310	-212
964.398	33
964.485	-982
964.572	32
964.659	425
964.746	1340
964.833	45
964.920	-688
965.007	-149
965.094	-122
965.181	632
965.268	1357
965.355	246
965.441	-394
965.528	-1
965.615	653
965.702	-473
965.789	-615
965.875	-79
965.962	512
966.049	-782
966.136	797
966.222	-193
966.309	806
966.395	278
966.482	685
966.569	-488
966.655	-163
966.742	-477
966.828	-622
966.915	-261
967.001	432
967.087	-1082
967.174	209
967.260	766
967.347	493
967.433	2310
967.519	5552
967.605	2271
967.692	-541
967.778	8
967.864	-206
967.950	-415
968.036	-567
968.123	663
968.209	-961
968.295	-1159
968.381	939
968.467	-108
968.553	-980
968.639	56
968.725	-475
968.811	1728
968.897	2248
968.983	-10
969.069	-581
969.154	280
969.240	352
969.326	-1077
969.412	-199
969.497	-740
969.583	-776
969.669	48
969.755	-200
969.840	-256
969.926	1194
970.012	865
970.097	3795
970.183	1846
970.268	713
970.354	1243
970.439	394
970.525	3029
970.610	-562
970.696	36
970.781	-605
970.866	-1347
970.952	20
971.037	-648
971.122	-221
971.208	-124
971.293	-590
971.378	-1696
971.463	-338
971.549	-603
971.634	-463
971.719	-1598
971.804	-511
971.889	539
971.974	-618
972.059	-976
972.144	-141
972.229	-532
972.314	-305
972.399	-884
972.484	-550
972.569	-10
972.654	-737
972.739	765
972.824	841
972.908	-1129
972.993	-475
973.078	-712
973.163	-683
973.247	-715
973.332	-2201
973.417	647
973.501	-1238
973.586	170
973.671	453
973.755	786
973.840	1415
973.924	545
974.009	651
974.093	-1112
974.178	1292
974.262	409
974.346	749
974.431	231
974.515	-498
974.600	-779
974.684	68
974.768	-806
974.852	643
974.937	-1057
975.021	-495
975.105	-1650
975.189	-524
975.273	-26
975.358	-366
975.442	-1253
975.526	249
975.610	-1120
975.694	-812
975.778	-618
975.862	-898
975.946	-2199
976.030	162
976.114	-774
976.198	-658
976.281	-249
976.365	312
976.449	102
976.533	1244
976.617	-1010
976.700	-1165
976.784	-313
976.868	-964
976.951	535
977.035	-108
977.119	-1063
977.202	-849
977.286	-447
977.369	-296
977.453	-102
977.536	-432
977.620	-983
977.703	-143
977.787	-1463
977.870	-435
977.953	-136
978.037	-1508
978.120	407
978.203	149
978.287	1544
978.370	-276
978.453	-1100
978.536	-128
978.620	853
978.703	747
978.786	-756
978.869	-898
978.952	-1531
979.035	-13
979.118	-863
979.201	-1174
979.284	35
979.367	-436
979.450	-933
979.533	-1406
979.616	-699
979.699	-1159
979.782	-591
979.865	-206
979.948	386
980.030	-1430
980.113	-698
980.196	-1470
980.279	-95
980.361	-1365
980.444	-815
980.526	-1186
980.609	-1194
980.692	-674
980.774	-374
980.857	-1640
980.939	109
981.022	-714
981.104	-570
981.187	-988
981.269	-143
981.352	250
981.434	-1337
981.516	-683
981.599	-109
981.681	-34
981.763	-935
981.846	-462
981.928	-58
982.010	-1323
982.092	-1033
982.174	40
982.256	-197
982.339	220
982.421	-793
982.503	-272
982.585	-1632
982.667	-723
982.749	-631
982.831	-503
982.913	-1020
982.995	656
983.077	-993
983.158	185
983.240	-1779
983.322	-411
983.404	37
983.486	-854
983.568	316
983.649	-414
983.731	-70
983.813	-1251
983.894	-455
983.976	-113
984.058	-176
984.139	728
984.221	-2143
984.302	14
984.384	-844
984.465	-1589
984.547	-221
984.628	-1194
984.710	-531
984.791	-364
984.872	-1330
984.954	-1256
985.035	-1333
985.116	-29
985.198	-1330
985.279	762
985.360	-517
985.441	-642
985.522	172
985.604	-962
985.685	-2077
985.766	-234
985.847	673
985.928	-1156
986.009	-110
986.090	499
986.171	716
986.252	297
986.333	-353
986.414	-543
986.495	-178
986.576	248
986.656	-322
986.737	346
986.818	89
986.899	-878
986.980	-1274
987.060	-576
987.141	-472
987.222	-685
987.302	-224
987.383	582
987.464	-957
987.544	317
987.625	-387
987.705	18
987.786	-212
987.866	-539
987.947	-244
988.027	-98
988.108	-510
988.188	528
988.268	137
988.349	336
988.429	-855
988.509	303
988.589	127
988.670	-1687
988.750	1030
988.830	362
988.910	8
988.990	-256
989.070	-788
989.151	-617
989.231	-748
989.311	-168
989.391	-25
989.471	-194
989.551	-1479
989.631	-857
989.711	138
989.791	-1213
989.870	-281
989.950	-245
990.030	11
990.110	-481
990.190	-621
990.269	-1139
990.349	-423
990.429	577
990.509	-499
990.588	-1116
990.668	-407
990.747	-807
990.827	-1156
990.907	-278
990.986	56
991.066	149
991.145	-1572
991.225	937
991.304	-1317
991.383	-605
991.463	-108
991.542	-293
991.622	-774
991.701	-626
991.780	-1224
991.859	-507
991.939	-550
992.018	-349
992.097	-632
992.176	-799
992.256	-890
992.335	-446
992.414	136
992.493	-1565
992.572	-1486
992.651	830
992.730	-1157
992.809	-112
992.888	-1398
992.967	-770
993.046	-492
993.125	-690
993.203	-695
993.282	-161
993.361	-563
993.440	-1303
993.519	-1321
993.597	-790
993.676	-508
993.755	-252
993.834	69
993.912	-866
993.991	-101
994.069	-673
994.148	-1607
994.226	-1312
994.305	-786
994.384	-677
994.462	276
994.540	-1037
994.619	-682
994.697	-368
994.776	-862
994.854	-81
994.932	-1313
995.011	22
995.089	-737
995.167	-761
995.245	-192
995.324	-580
995.402	-1139
995.480	-596
995.558	-627
995.636	-1047
995.714	-1701
995.792	-403
995.870	-1373
995.948	-618
996.026	-1079
996.104	-1819
996.182	-468
996.260	-824
996.338	-391
996.416	-1549
996.494	-1175
996.572	-178
996.649	-887
996.727	-675
996.805	-356
996.883	-1383
996.960	-1368
997.038	-818
997.116	-584
997.193	-601
997.271	-1855
997.348	-995
997.426	-875
997.504	-1469
997.581	432
997.658	-382
997.736	-2150
997.813	-1437
997.891	-520
997.968	-1526
998.046	-240
998.123	-1368
998.200	-587
998.277	-2060
998.355	-730
998.432	-1877
998.509	-1598
998.586	133
998.663	-427
998.741	-285
998.818	-613
998.895	-1116
998.972	-903
999.049	-846
999.126	-1176
999.203	359
999.280	-1019
999.357	-576
999.434	-761
999.511	-386
999.587	6
999.664	-1103
999.741	55
999.818	275
999.895	-1355
999.971	-1099
1000.048	-902
1000.125	-375
1000.202	-1922
1000.278	-1264
1000.355	-1202
1000.431	-1108
1000.508	-798
1000.584	-552
1000.661	-554
1000.738	-1302
1000.814	-1214
1000.890	-829
1000.967	-735
1001.043	-849
1001.120	-1566
1001.196	-1328
1001.272	-1276
1001.349	-745
1001.425	-1403
1001.501	-1290
1001.577	-1388
1001.654	-1683
1001.730	-1487
1001.806	-1021
1001.882	-1409
1001.958	-541
1002.034	-1089
1002.110	-1293
1002.186	-1772
1002.262	-1743
1002.338	-2104
1002.414	-251
1002.490	-1150
1002.566	-1144
1002.642	-1041
1002.718	-834
1002.794	-1313
1002.870	-1254
1002.945	-751
1003.021	-266
1003.097	-1275
1003.173	-395
1003.248	-2129
1003.324	-1703
1003.400	-267
1003.475	-990
1003.551	-666
1003.626	-775
1003.702	-1596
1003.777	-985
1003.853	-653
1003.928	-1061
1004.004	-1375
1004.079	-738
1004.155	-1417
1004.230	-1945
1004.305	-458
1004.381	-1859
1004.456	-1643
1004.531	-1338
1004.607	-2069
1004.682	-1716
1004.757	-1319
1004.832	-1001
1004.907	-1435
1004.982	-991
1005.057	-1158
1005.133	-840
1005.208	-1313
1005.283	-1277
1005.358	-874
1005.433	-2074
1005.508	-964
1005.583	-2304
1005.657	-2212
1005.732	-864
1005.807	-1536
1005.882	-1541
1005.957	-1296
1006.032	-683
1006.106	-1646
1006.181	-1359
1006.256	-1326
1006.331	-1754
1006.405	-1111
1006.480	-1509
1006.554	-1533
1006.629	23
1006.704	-1499
1006.778	-1648
1006.853	-1218
1006.927	-1336
1007.002	-1420
1007.076	-1392
1007.150	-1553
1007.225	-1651
1007.299	-1112
1007.373	-2045
1007.448	-1428
1007.522	-540
1007.596	-1406
1007.671	-1652
1007.745	-1097
1007.819	-1604
1007.893	-2065
1007.967	-493
1008.041	-2188
1008.115	-876
1008.190	-1511
1008.264	-859
1008.338	-2572
1008.412	-1968
1008.486	-1405
1008.560	-1438
1008.633	-2018
1008.707	-1237
1008.781	-901
1008.855	-1428
1008.929	-1458
1009.003	-1655
1009.076	-1631
1009.150	-1483
1009.224	-1267
1009.298	-731
1009.371	-2155
1009.445	-1021
1009.519	-1943
1009.592	-2615
1009.666	-1870
1009.739	-1520
1009.813	-1478
1009.886	-618
1009.960	-2292
1010.033	-724
1010.107	-952
1010.180	-1609
1010.253	-1120
1010.327	-1177
1010.400	-1413
1010.473	-743
1010.547	-267
1010.620	-981
1010.693	-1275
1010.766	-1840
1010.840	-1056
1010.913	-95
1010.986	-1386
1011.059	-337
1011.132	-714
1011.205	-309
1011.278	-1131
1011.351	-1222
1011.424	-667
1011.497	-517
1011.570	-1916
1011.643	-1103
1011.716	-1918
1011.789	-1298
1011.862	-950
1011.934	-674
1012.007	-2212
1012.080	-1394
1012.153	-1364
1012.225	-1233
1012.298	-1608
1012.371	-1534
1012.443	-927
1012.516	-1801
1012.588	-2120
1012.661	-980
1012.733	-1975
1012.806	-1566
1012.879	-1708
1012.951	-1359
1013.023	-1966
1013.096	-1123
1013.168	-1728
1013.241	-1067
1013.313	-1271
1013.385	-2483
1013.458	-1515
1013.530	-899
1013.602	-2484
1013.674	-1117
1013.746	-1982
1013.819	-1452
1013.891	-1548
1013.963	-2841
1014.035	-1648
1014.107	-1336
1014.179	-1622
1014.251	-2350
1014.323	-1224
1014.395	-831
1014.467	-1406
1014.539	-891
1014.611	-1816
1014.683	-1208
1014.754	-1731
1014.826	-2110
1014.898	-1032
1014.970	-2152
1015.042	-958
1015.113	-995
1015.185	-1063
1015.257	-1325
1015.328	-1259
1015.400	-1315
1015.471	-973
1015.543	-2250
1015.615	-1508
1015.686	-1469
1015.757	-2393
1015.829	-1405
1015.901	-2298
1015.972	-1456
1016.043	-1302
1016.115	-958
1016.186	-1793
1016.257	-2347
1016.328	-1756
1016.400	-981
1016.471	-1942
1016.542	-1616
1016.613	-1456
1016.685	-1508
1016.756	-1427
1016.827	-2416
1016.898	-2462
1016.969	-1523
1017.040	-1946
1017.111	-868
1017.182	-2055
1017.253	-1503
1017.324	-1827
1017.395	-1890
1017.466	-1315
1017.537	-1416
1017.608	-2259
1017.678	-1013
1017.749	-2419
1017.820	-2052
1017.891	-1098
1017.961	-1651
1018.032	-1721
1018.103	-1851
1018.173	-1979
1018.244	-1931
1018.315	-1421
1018.385	-471
1018.456	-2308
1018.526	-1463
1018.597	-1658
1018.667	-1161
1018.738	-1718
1018.808	-888
1018.878	-2569
1018.949	-1848
1019.019	-1632
1019.089	-2138
1019.160	-1571
1019.230	-2169
1019.300	-1173
1019.371	-2622
1019.441	-697
1019.511	-1101
1019.581	-1315
1019.651	-2018
1019.721	-1684
1019.791	-1481
1019.861	-2462
1019.931	-1231
1020.001	-1855
1020.071	-1501
1020.141	-2017
1020.211	-1686
1020.281	-1529
1020.351	-1709
1020.421	-1420
1020.491	-1099
1020.560	-2066
1020.630	-1602
1020.700	-1283
1020.770	-1716
1020.839	-1305
1020.909	-1484
1020.979	-2512
1021.048	-1393
1021.118	-2047
1021.187	-2004
1021.257	-1589
1021.326	-1031
1021.396	-1576
1021.465	-1254
1021.535	-1480
1021.604	-1294
1021.674	-1754
1021.743	-1686
1021.812	-1892
1021.882	-2407
1021.951	-2290
1022.020	-1801
1022.089	-1129
1022.159	-881
1022.228	-1392
1022.297	-1367
1022.366	-1935
1022.435	-1722
1022.504	-2264
1022.573	-1513
1022.642	-1305
1022.711	-1473
1022.781	-2110
1022.849	-1545
1022.918	-2030
1022.987	-1132
1023.056	-2139
1023.125	-2283
1023.194	-1744
1023.263	-857
1023.331	-1016
1023.400	-1956
1023.469	-1828
1023.538	-838
1023.606	-1496
1023.675	-1428
1023.744	-1911
1023.812	-1947
1023.881	-1744
1023.949	-977
1024.018	-1943
1024.086	-2059
1024.155	-2121
1024.223	-1784
1024.292	-1277
1024.360	-2533
1024.429	-1489
1024.497	-1677
1024.565	-1412
1024.634	-1872
1024.702	-2234
1024.770	-1449
1024.838	-1467
1024.907	-715
1024.975	-2031
1025.043	-1645
1025.111	-1864
1025.179	-879
1025.247	-1939
1025.315	-2388
1025.383	-1656
1025.451	-1661
1025.519	-1104
1025.587	-1008
1025.655	-1276
1025.723	-2350
1025.791	-1444
1025.859	-1725
1025.927	-1399
1025.995	-1263
1026.062	-1037
1026.130	-1324
1026.198	-2037
1026.266	-2260
1026.333	-1611
1026.401	-1206
1026.469	-2244
1026.536	-1435
1026.604	-1595
1026.671	-1991
1026.739	-1132
1026.806	-1437
1026.874	-2119
1026.941	-2265
1027.009	-1970
1027.076	-2053
1027.144	-1365
1027.211	-1599
1027.278	-2270
1027.345	-1814
1027.413	-1685
1027.480	-1812
1027.547	-2464
1027.614	-1804
1027.682	-1532
1027.749	-1598
1027.816	-1291
1027.883	-1532
1027.950	-658
1028.017	-1891
1028.084	-2113
1028.151	-1078
1028.218	-2055
1028.285	-1941
1028.352	-1198
1028.419	-2320
1028.486	-2473
1028.553	-1609
1028.619	-1588
1028.686	-1328
1028.753	-1787
1028.820	-1358
1028.886	-2238
1028.953	-1733
1029.020	-1558
1029.086	-1512
1029.153	-2692
1029.220	-2225
1029.286	-1705
1029.353	-795
1029.419	-2244
1029.486	-2197
1029.552	-2029
1029.619	-2625
1029.685	-2252
1029.751	-2021
1029.818	-1782
1029.884	-1506
1029.951	-1258
1030.017	-1106
1030.083	-2004
1030.149	-1658
1030.216	-1806
1030.282	-1699
1030.348	-2418
1030.414	-1677
1030.480	-1876
1030.546	-2051
1030.612	-1357
1030.678	-1424
1030.744	-2549
1030.810	-1968
1030.876	-2023
1030.942	-1789
1031.008	-1730
1031.074	-2292
1031.140	-1723
1031.206	-1449
1031.272	-2257
1031.337	-1543
1031.403	-1743
1031.469	-2479
1031.534	-2208
1031.600	-1441
1031.666	-2564
1031.731	-2260
1031.797	-1688
1031.863	-2052
1031.928	-2173
1031.994	-1790
1032.059	-1814
1032.125	-2237
1032.190	-1746
1032.256	-2434
1032.321	-2061
1032.386	-2585
1032.452	-1040
1032.517	-1276
1032.582	-1314
1032.647	-1450
1032.713	-1235
1032.778	-2041
1032.843	-2282
1032.908	-2021
1032.974	-1369
1033.039	-2043
1033.104	-1331
1033.169	-2137
1033.234	-1739
1033.299	-351
1033.364	155
1033.429	-629
1033.494	-38
1033.559	-1691
1033.624	-1568
1033.688	-907
1033.753	-2528
1033.818	-696
1033.883	-1808
1033.948	-1456
1034.013	-809
1034.077	-663
1034.142	799
1034.207	604
1034.271	2266
1034.336	3863
1034.400	3188
1034.465	2954
1034.530	2016
1034.594	-667
1034.658	-832
1034.723	-2025
1034.787	-1940
1034.852	-1731
1034.916	-1783
1034.981	-2203
1035.045	-1891
1035.109	-1966
1035.173	-2119
1035.238	-1979
1035.302	-1471
1035.366	-2315
1035.430	-1751
1035.495	-2072
1035.559	-1549
1035.623	-1598
1035.687	-2247
1035.751	-1751
1035.815	-1974
1035.879	-1671
1035.943	-2061
1036.007	-1846
1036.071	-1824
1036.135	-1352
1036.198	-1265
1036.262	-976
1036.326	-444
1036.390	-128
1036.454	-878
1036.517	1020
1036.581	1768
1036.645	3617
1036.709	3579
1036.772	243
1036.836	-2250
1036.900	-1238
1036.963	-842
1037.026	-2118
1037.090	-857
1037.154	-2215
1037.217	-2084
1037.280	-2103
1037.344	-2660
1037.407	-1755
1037.471	-1619
1037.534	-1804
1037.597	-2891
1037.661	-1133
1037.724	-2012
1037.787	-1900
1037.850	-1962
1037.913	-2389
1037.977	-1062
1038.040	-1502
1038.103	-2375
1038.166	-2210
1038.229	-2407
1038.292	-2092
1038.355	-1437
1038.418	-1551
1038.481	-1269
1038.544	-2240
1038.607	-2588
1038.670	-2257
1038.732	-1815
1038.795	-2594
1038.858	-2034
1038.921	-1543
1038.984	-2036
1039.046	-2565
1039.109	-2466
1039.172	-1426
1039.234	-2217
1039.297	-2452
1039.360	-1810
1039.422	-2299
1039.485	-2534
1039.547	-2447
1039.610	-1727
1039.672	-2088
1039.734	-2547
1039.797	-2747
1039.859	-2217
1039.922	-2108
1039.984	-2333
1040.046	-1901
1040.109	-2473
1040.171	-2557
1040.233	-2275
1040.295	-3161
1040.358	-2514
1040.420	-1872
1040.482	-3053
1040.544	-2735
1040.606	-2000
1040.668	-2395
1040.730	-2780
1040.792	-2757
1040.854	-2058
1040.916	-2330
1040.978	-2322
1041.040	-1469
1041.102	-1848
1041.164	-2927
1041.225	-2413
1041.287	-1902
1041.349	-2162
1041.411	-1797
1041.472	-2713
1041.534	-2177
1041.596	-2282
1041.657	-2093
1041.719	-2715
1041.781	-2030
1041.842	-3016
1041.904	-2286
1041.965	-2062
1042.027	-2355
1042.088	-2583
1042.150	-2300
1042.211	-2123
1042.272	-2301
1042.334	-2283
1042.395	-2618
1042.456	-2654
1042.518	-1862
1042.579	-1842
1042.640	-2041
1042.701	-2313
1042.763	-2739
1042.824	-2651
1042.885	-2356
1042.946	-2261
1043.007	-2235
1043.068	-2684
1043.129	-2659
1043.190	-2829
1043.251	-2040
1043.312	-2010
1043.373	-1774
1043.434	-2759
1043.495	-1561
1043.556	-1626
1043.616	-1675
1043.677	-2381
1043.738	-2582
1043.799	-2465
1043.859	-1404
1043.920	-1798
1043.981	-2178
1044.041	-2721
1044.102	-2362
1044.162	-2692
1044.223	-2704
1044.284	-2152
1044.344	-1697
1044.405	-2386
1044.465	-1825
1044.525	-2412
1044.586	-2519
1044.646	-2525
1044.707	-2370
1044.767	-1779
1044.827	-2404
1044.887	-2440
1044.948	-1939
1045.008	-2432
1045.068	-1647
1045.128	-2988
1045.188	-1984
1045.249	-1656
1045.309	-1704
1045.369	-1187
1045.429	-1615
1045.489	-1702
1045.549	-1410
1045.609	-2338
1045.669	-1848
1045.729	-2050
1045.789	-1026
1045.848	-2183
1045.908	-2230
1045.968	-1912
1046.028	-1221
1046.088	-1790
1046.147	-1462
1046.207	-2128
1046.267	-1835
1046.326	-1086
1046.386	-1782
1046.446	-1171
1046.505	-1375
1046.565	-827
1046.624	-777
1046.684	-437
1046.743	-742
1046.803	-308
1046.862	-344
1046.922	0
