'Start Wavelength	183.907
'End Wavelength	1046.922
'Gate Delay	5.000
'Gate Width (ms)	1.050
'Laser Output Level	0.000
'X Position	0.000
'Y Position	0.000
'Z Position	0.000
'Grid Point Number	1.000
'Shot Number	100.000
183.907	-235.000
183.977	-513.000
184.047	-215
184.116	285
184.186	-867
184.256	-214
184.325	-174
184.395	-943
184.465	379
184.534	296
184.604	80
184.674	21
184.743	-501
184.813	518
184.883	121
184.952	-713
185.022	171
185.092	990
185.161	-56
185.231	-694
185.301	471
185.370	289
185.440	22
185.509	-346
185.579	-882
185.649	480
185.718	97
185.788	-43
185.857	-550
185.927	244
185.996	266
186.066	642
186.136	-338
186.205	-416
186.275	-334
186.344	242
186.414	107
186.483	-464
186.553	666
186.622	-49
186.692	242
186.761	-199
186.831	-24
186.900	-437
186.970	1093
187.039	293
187.109	740
187.178	312
187.248	106
187.317	465
187.387	-455
187.456	-171
187.526	-322
187.595	-720
187.664	-143
187.734	-244
187.803	-51
187.873	370
187.942	-452
188.012	-644
188.081	-253
188.150	-30
188.220	-411
188.289	355
188.358	-440
188.428	-91
188.497	-101
188.567	1093
188.636	-516
188.705	-13
188.775	84
188.844	-759
188.913	870
188.983	155
189.052	-130
189.121	-185
189.191	-541
189.260	-32
189.329	-474
189.399	-49
189.468	-81
189.537	-41
189.606	-38
189.676	826
189.745	216
189.814	86
189.883	-547
189.953	374
190.022	-1
190.091	-107
190.161	602
190.230	376
190.299	-412
190.368	49
190.437	-466
190.507	-759
190.576	-288
190.645	63
190.714	-89
190.783	-102
190.853	-316
190.922	422
190.991	462
191.060	681
191.129	-950
191.198	405
191.268	-46
191.337	-36
191.406	350
191.475	166
191.544	-646
191.613	134
191.682	59
191.752	13
191.821	76
191.890	-431
191.959	57
192.028	-331
192.097	-476
192.166	545
192.235	-593
192.304	788
192.373	-482
192.442	-373
192.511	69
192.580	313
192.650	225
192.719	-797
192.788	700
192.857	-226
192.926	-614
192.995	-362
193.064	433
193.133	-42
193.202	-340
193.271	189
193.340	-177
193.409	624
193.478	491
193.547	821
193.615	392
193.684	780
193.753	-489
193.822	762
193.891	-290
193.960	376
194.029	-392
194.098	-227
194.167	-687
194.236	500
194.305	-62
194.374	-29
194.443	74
194.512	314
194.580	328
194.649	384
194.718	121
194.787	222
194.856	-404
194.925	822
194.994	-63
195.062	358
195.131	327
195.200	249
195.269	513
195.338	614
195.407	89
195.475	-659
195.544	707
195.613	229
195.682	230
195.751	886
195.819	-28
195.888	66
195.957	869
196.026	624
196.094	518
196.163	172
196.232	400
196.301	744
196.369	617
196.438	-117
196.507	80
196.576	-598
196.644	138
196.713	-44
196.782	172
196.850	769
196.919	107
196.988	518
197.056	6
197.125	-536
197.194	-38
197.262	-233
197.331	36
197.400	-6
197.468	-640
197.537	-846
197.606	-185
197.674	571
197.743	319
197.812	-154
197.880	-4
197.949	23
198.017	463
198.086	-323
198.155	604
198.223	1108
198.292	-13
198.360	183
198.429	-640
198.497	-944
198.566	-694
198.635	263
198.703	39
198.772	223
198.840	639
198.909	1276
198.977	-312
199.046	10
199.114	-216
199.183	21
199.251	230
199.320	-229
199.388	304
199.457	84
199.525	-102
199.594	359
199.662	-892
199.731	-355
199.799	-343
199.867	193
199.936	-897
200.004	821
200.073	134
200.141	411
200.210	-728
200.278	-557
200.346	19
200.415	681
200.483	116
200.552	107
200.620	-81
200.688	391
200.757	69
200.825	183
200.893	-490
200.962	-122
201.030	134
201.098	177
201.167	275
201.235	-169
201.303	45
201.372	137
201.440	21
201.508	556
201.577	568
201.645	502
201.713	-142
201.781	-419
201.850	1047
201.918	391
201.986	34
202.055	114
202.123	57
202.191	245
202.259	399
202.327	-956
202.396	-334
202.464	-93
202.532	-324
202.600	1565
202.669	902
202.737	159
202.805	59
202.873	740
202.941	-303
203.009	-443
203.078	-1162
203.146	-95
203.214	-553
203.282	-317
203.350	372
203.418	129
203.487	174
203.555	609
203.623	-29
203.691	-535
203.759	-436
203.827	-275
203.895	402
203.963	258
204.031	197
204.099	-613
204.168	-386
204.236	321
204.304	893
204.372	-60
204.440	303
204.508	-202
204.576	-393
204.644	-346
204.712	-671
204.780	89
204.848	-12
204.916	-54
204.984	-450
205.052	221
205.120	-223
205.188	251
205.256	-306
205.324	-144
205.392	-166
205.460	-70
205.528	-913
205.596	-29
205.664	603
205.732	538
205.799	823
205.867	1418
205.935	-681
206.003	841
206.071	-368
206.139	-45
206.207	-408
206.275	-282
206.343	-211
206.411	195
206.478	10
206.546	129
206.614	368
206.682	-51
206.750	-354
206.818	195
206.885	204
206.953	-724
207.021	632
207.089	485
207.157	-730
207.225	327
207.292	-29
207.360	433
207.428	-456
207.496	420
207.563	-283
207.631	398
207.699	-208
207.767	286
207.834	-211
207.902	81
207.970	-431
208.038	36
208.105	-410
208.173	309
208.241	-12
208.309	441
208.376	138
208.444	416
208.512	-686
208.579	-739
208.647	65
208.715	561
208.782	167
208.850	653
208.918	-658
208.985	-455
209.053	817
209.120	700
209.188	-169
209.256	-65
209.323	-450
209.391	73
209.459	1158
209.526	237
209.594	-182
209.661	-344
209.729	-775
209.796	153
209.864	624
209.932	-622
209.999	1602
210.067	303
210.134	-76
210.202	83
210.269	1335
210.337	328
210.404	-378
210.472	-4
210.539	49
210.607	300
210.674	915
210.742	456
210.809	47
210.877	10
210.944	762
211.012	-403
211.079	906
211.146	410
211.214	43
211.281	-7
211.349	1393
211.416	279
211.484	-52
211.551	171
211.618	269
211.686	801
211.753	-665
211.821	584
211.888	-488
211.955	387
212.023	-226
212.090	-500
212.157	-210
212.225	-55
212.292	766
212.359	1491
212.427	4099
212.494	1614
212.561	53
212.629	444
212.696	801
212.763	329
212.831	-742
212.898	568
212.965	-278
213.032	220
213.100	-309
213.167	325
213.234	1299
213.301	431
213.369	370
213.436	-30
213.503	-49
213.570	528
213.638	432
213.705	267
213.772	-395
213.839	213
213.906	1333
213.973	674
214.041	189
214.108	687
214.175	854
214.242	-266
214.309	485
214.376	-19
214.444	138
214.511	548
214.578	70
214.645	419
214.712	1332
214.779	402
214.846	-42
214.913	435
214.980	299
215.048	974
215.115	805
215.182	782
215.249	586
215.316	489
215.383	453
215.450	651
215.517	-575
215.584	844
215.651	359
215.718	255
215.785	579
215.852	857
215.919	1715
215.986	1605
216.053	340
216.120	535
216.187	467
216.254	670
216.321	716
216.388	1241
216.455	1510
216.522	1310
216.589	1851
216.656	2511
216.722	2669
216.789	1078
216.856	656
216.923	767
216.990	959
217.057	781
217.124	1847
217.191	706
217.258	962
217.324	872
217.391	1189
217.458	220
217.525	956
217.592	522
217.659	-383
217.725	1712
217.792	1518
217.859	2582
217.926	1041
217.993	996
218.059	621
218.126	913
218.193	634
218.260	791
218.327	612
218.393	1186
218.460	376
218.527	189
218.594	73
218.660	1513
218.727	2256
218.794	-141
218.860	826
218.927	-14
218.994	-23
219.061	933
219.127	712
219.194	2338
219.261	901
219.327	-39
219.394	1148
219.461	-88
219.527	780
219.594	1516
219.661	165
219.727	-656
219.794	-18
219.860	-82
219.927	2
219.994	1097
220.060	2086
220.127	1427
220.193	802
220.260	320
220.326	518
220.393	1340
220.460	1447
220.526	147
220.593	-217
220.659	1525
220.726	-177
220.792	2093
220.859	1419
220.925	1813
220.992	1696
221.058	2508
221.125	2698
221.191	1976
221.258	-81
221.324	793
221.391	115
221.457	405
221.524	315
221.590	1317
221.657	2752
221.723	1678
221.789	1278
221.856	2520
221.922	-94
221.989	1413
222.055	384
222.121	-892
222.188	993
222.254	1384
222.321	277
222.387	-268
222.453	582
222.520	-789
222.586	-532
222.652	-96
222.719	900
222.785	1545
222.851	734
222.918	282
222.984	663
223.050	434
223.116	-444
223.183	787
223.249	-954
223.315	206
223.382	-175
223.448	857
223.514	213
223.580	640
223.647	167
223.713	-174
223.779	-200
223.845	617
223.911	781
223.978	-290
224.044	255
224.110	-64
224.176	-102
224.242	791
224.309	-1039
224.375	352
224.441	531
224.507	-116
224.573	-195
224.639	1164
224.705	-215
224.772	326
224.838	-305
224.904	1315
224.970	-316
225.036	369
225.102	31
225.168	1303
225.234	143
225.300	902
225.366	16
225.432	802
225.499	-551
225.565	663
225.631	113
225.697	266
225.763	722
225.829	738
225.895	479
225.961	1519
226.027	1064
226.093	1135
226.159	1680
226.225	633
226.291	2046
226.357	5238
226.423	2913
226.489	2384
226.554	1703
226.620	1039
226.686	2137
226.752	3291
226.818	1820
226.884	5535
226.950	5916
227.016	1995
227.082	1804
227.148	1261
227.214	1812
227.279	1531
227.345	536
227.411	1547
227.477	765
227.543	2834
227.609	2530
227.674	1815
227.740	1432
227.806	1700
227.872	357
227.938	810
228.003	1822
228.069	900
228.135	-128
228.201	1160
228.267	488
228.332	2184
228.398	758
228.464	395
228.530	388
228.595	315
228.661	376
228.727	1113
228.792	2686
228.858	399
228.924	-573
228.990	3160
229.055	366
229.121	1304
229.187	1345
229.252	1084
229.318	303
229.384	1550
229.449	1817
229.515	-747
229.581	479
229.646	1882
229.712	1015
229.777	2150
229.843	2271
229.909	2861
229.974	1511
230.040	1957
230.105	1676
230.171	939
230.236	1886
230.302	2453
230.368	2829
230.433	-296
230.499	1004
230.564	1249
230.630	932
230.695	914
230.761	842
230.826	-93
230.892	2544
230.957	590
231.023	-100
231.088	1259
231.154	945
231.219	1151
231.284	1040
231.350	2496
231.415	132
231.481	1186
231.546	730
231.612	472
231.677	408
231.742	219
231.808	2179
231.873	-510
231.939	-690
232.004	2688
232.069	2615
232.135	964
232.200	34
232.265	1029
232.331	-189
232.396	442
232.461	232
232.527	507
232.592	228
232.657	985
232.723	1740
232.788	1089
232.853	1198
232.918	532
232.984	157
233.049	676
233.114	-289
233.179	863
233.245	2428
233.310	2984
233.375	308
233.440	1547
233.506	404
233.571	330
233.636	783
233.701	854
233.766	1184
233.832	2842
233.897	1716
233.962	1140
234.027	2679
234.092	1531
234.157	184
234.222	629
234.288	138
234.353	3746
234.418	5987
234.483	4546
234.548	2772
234.613	2140
234.678	1781
234.743	915
234.808	5706
234.873	2603
234.938	3033
235.004	1206
235.069	537
235.134	1086
235.199	903
235.264	967
235.329	-135
235.394	2266
235.459	1898
235.524	1029
235.589	1723
235.654	492
235.719	-798
235.784	1968
235.849	821
235.913	2424
235.978	2471
236.043	3749
236.108	1432
236.173	95
236.238	2169
236.303	-466
236.368	-291
236.433	2044
236.498	2329
236.563	2091
236.627	1808
236.692	8284
236.757	6990
236.822	3117
236.887	2218
236.952	2814
237.017	242
237.081	2064
237.146	2220
237.211	4413
237.276	7042
237.341	16540
237.405	7124
237.470	4396
237.535	2143
237.600	1360
237.664	1575
237.729	430
237.794	1071
237.859	2531
237.923	2226
237.988	1778
238.053	2101
238.118	2021
238.182	4610
238.247	6451
238.312	2031
238.376	2770
238.441	-442
238.506	2422
238.570	-875
238.635	1601
238.700	847
238.764	554
238.829	1998
238.893	2090
238.958	2316
239.023	2022
239.087	1184
239.152	2411
239.216	-268
239.281	1232
239.346	1057
239.410	639
239.475	309
239.539	5015
239.604	4149
239.668	2156
239.733	495
239.797	1492
239.862	3798
239.926	5201
239.991	1506
240.055	1667
240.120	880
240.184	629
240.249	478
240.313	957
240.378	509
240.442	2530
240.507	5433
240.571	1955
240.635	1423
240.700	4764
240.764	2573
240.829	859
240.893	586
240.957	1240
241.022	2933
241.086	5673
241.151	2775
241.215	601
241.279	2531
241.344	2598
241.408	2417
241.472	1763
241.537	2862
241.601	2045
241.665	936
241.730	935
241.794	2145
241.858	968
241.922	1351
241.987	1550
242.051	958
242.115	115
242.179	1025
242.244	660
242.308	2095
242.372	1559
242.436	1161
242.501	2951
242.565	1294
242.629	684
242.693	1979
242.757	65
242.822	1037
242.886	1794
242.950	1213
243.014	756
243.078	2426
243.142	2273
243.206	1589
243.271	2868
243.335	761
243.399	1457
243.463	5241
243.527	16442
243.591	5988
243.655	3980
243.719	2211
243.783	2786
243.847	3682
243.911	4826
243.975	6074
244.040	4703
244.104	3899
244.168	1739
244.232	2728
244.296	5199
244.360	3727
244.424	1693
244.488	1449
244.552	2456
244.615	-260
244.679	1996
244.743	2103
244.807	2802
244.871	1838
244.935	2187
244.999	320
245.063	847
245.127	2560
245.191	3238
245.255	3025
245.319	3019
245.383	2355
245.446	2679
245.510	16
245.574	2247
245.638	2824
245.702	1126
245.766	4969
245.829	4031
245.893	1685
245.957	1451
246.021	1684
246.085	2533
246.149	2292
246.212	7810
246.276	12329
246.340	5740
246.404	3691
246.467	4349
246.531	3286
246.595	3736
246.659	4489
246.722	2691
246.786	4930
246.850	4000
246.913	5318
246.977	1678
247.041	2140
247.104	2718
247.168	3011
247.232	7139
247.295	16410
247.359	9650
247.423	3534
247.486	6912
247.550	4842
247.614	4048
247.677	5299
247.741	3176
247.804	2584
247.868	2208
247.932	6027
247.995	16843
248.059	6415
248.122	2285
248.186	4813
248.249	7443
248.313	22956
248.376	28152
248.440	18349
248.503	6774
248.567	6342
248.630	7279
248.694	10923
248.757	14541
248.821	26774
248.884	20216
248.948	15031
249.011	21532
249.075	29854
249.138	28352
249.202	12187
249.265	7171
249.328	6652
249.392	5181
249.455	5650
249.519	3282
249.582	4025
249.645	8266
249.709	6016
249.772	2765
249.835	3229
249.899	4358
249.962	3283
250.025	3116
250.089	8856
250.152	15069
250.215	8160
250.279	4707
250.342	4005
250.405	3568
250.468	2731
250.532	4917
250.595	7264
250.658	15163
250.721	29881
250.785	12414
250.848	7890
250.911	4554
250.974	4935
251.038	6222
251.101	15397
251.164	7230
251.227	7702
251.290	6746
251.354	7185
251.417	22235
251.480	25147
251.543	15140
251.606	40163
251.669	34675
251.732	14265
251.795	18496
251.859	17417
251.922	26536
251.985	19375
252.048	8586
252.111	6711
252.174	7246
252.237	13900
252.300	30757
252.363	26650
252.426	40440
252.489	20206
252.552	11107
252.615	5879
252.678	8363
252.741	20084
252.804	21167
252.867	38106
252.930	31749
252.993	17623
253.056	11834
253.119	7384
253.182	5215
253.245	8403
253.308	8069
253.371	8086
253.434	8139
253.497	7396
253.559	15433
253.622	11535
253.685	14372
253.748	17451
253.811	7694
253.874	7850
253.937	7301
254.000	6228
254.062	10075
254.125	16838
254.188	13602
254.251	12458
254.314	6075
254.376	9841
254.439	14268
254.502	13236
254.565	11190
254.628	20536
254.690	15401
254.753	7810
254.816	6854
254.878	5998
254.941	10599
255.004	12055
255.067	5706
255.129	6451
255.192	2735
255.255	1865
255.317	4194
255.380	3115
255.443	1895
255.505	1334
255.568	2160
255.631	1882
255.693	1967
255.756	442
255.819	2018
255.881	2048
255.944	1747
256.006	965
256.069	791
256.132	1155
256.194	2628
256.257	6246
256.319	4349
256.382	3118
256.444	2208
256.507	1373
256.569	1398
256.632	1424
256.694	1835
256.757	4661
256.819	13074
256.882	5607
256.944	3139
257.007	4098
257.069	3437
257.132	1817
257.194	2076
257.257	1540
257.319	1403
257.381	1078
257.444	3221
257.506	14673
257.569	20563
257.631	12504
257.693	9374
257.756	3481
257.818	2544
257.880	1381
257.943	2640
258.005	1569
258.067	1338
258.130	2418
258.192	2988
258.254	7491
258.317	4616
258.379	2565
258.441	6234
258.503	7139
258.566	6356
258.628	8596
258.690	2696
258.753	3335
258.815	8969
258.877	3021
258.939	2327
259.001	1746
259.064	1411
259.126	1307
259.188	3928
259.250	2088
259.312	2423
259.375	5780
259.437	6071
259.499	1637
259.561	1751
259.623	1854
259.685	1538
259.747	1626
259.809	4627
259.872	10930
259.934	16001
259.996	17439
260.058	5499
260.120	1206
260.182	1871
260.244	1044
260.306	790
260.368	1852
260.430	790
260.492	3035
260.554	5502
260.616	4540
260.678	9714
260.740	13015
260.802	3693
260.864	3919
260.926	2457
260.988	4014
261.050	1899
261.112	3008
261.174	9527
261.236	9203
261.298	3691
261.359	5137
261.421	8247
261.483	2684
261.545	2266
261.607	558
261.669	1794
261.731	2130
261.793	11362
261.854	6218
261.916	4312
261.978	1341
262.040	2051
262.102	1438
262.164	3011
262.225	3404
262.287	2034
262.349	6996
262.411	6194
262.472	1788
262.534	2397
262.596	7533
262.658	3645
262.719	391
262.781	2270
262.843	6496
262.904	3437
262.966	3188
263.028	2648
263.090	9161
263.151	29228
263.213	10691
263.275	8548
263.336	3074
263.398	2611
263.459	951
263.521	1792
263.583	7384
263.644	5282
263.706	2006
263.767	938
263.829	1051
263.891	163
263.952	-54
264.014	1011
264.075	705
264.137	2615
264.198	3022
264.260	226
264.321	-163
264.383	3070
264.444	7539
264.506	1874
264.567	1410
264.629	1729
264.690	453
264.752	2774
264.813	2230
264.875	274
264.936	1448
264.998	443
265.059	-287
265.120	778
265.182	1090
265.243	4795
265.305	5579
265.366	1756
265.427	545
265.489	1795
265.550	-746
265.611	1143
265.673	1757
265.734	1338
265.795	714
265.857	417
265.918	49
265.979	1288
266.040	8680
266.102	8192
266.163	3686
266.224	4225
266.286	2337
266.347	869
266.408	2116
266.469	1982
266.530	1128
266.592	1186
266.653	4300
266.714	10182
266.775	2717
266.836	1618
266.898	175
266.959	1868
267.020	1007
267.081	1860
267.142	698
267.203	390
267.264	130
267.326	2134
267.387	878
267.448	-263
267.509	1113
267.570	1645
267.631	630
267.692	-63
267.753	760
267.814	585
267.875	3380
267.936	11114
267.997	2785
268.058	2782
268.119	2168
268.180	2642
268.241	1072
268.302	1337
268.363	648
268.424	2507
268.485	805
268.546	1093
268.607	799
268.668	1194
268.729	695
268.790	879
268.851	512
268.912	5411
268.972	9886
269.033	4604
269.094	1926
269.155	623
269.216	880
269.277	1392
269.338	-91
269.398	1254
269.459	1571
269.520	3755
269.581	4933
269.642	8311
269.702	4519
269.763	2471
269.824	1955
269.885	2587
269.945	6183
270.006	1647
270.067	-201
270.128	430
270.188	447
270.249	494
270.310	72
270.370	1452
270.431	528
270.492	149
270.553	723
270.613	5296
270.674	12083
270.734	4820
270.795	1838
270.856	2914
270.916	3824
270.977	1276
271.038	2547
271.098	2974
271.159	4679
271.219	5092
271.280	1591
271.340	1578
271.401	583
271.462	4609
271.522	3401
271.583	2139
271.643	1703
271.704	1711
271.764	2251
271.825	7215
271.885	25370
271.946	37978
272.006	13611
272.066	14223
272.127	27907
272.187	8913
272.248	3587
272.308	3402
272.369	15626
272.429	10068
272.489	6670
272.550	8527
272.610	8880
272.671	7609
272.731	3466
272.791	6190
272.852	5708
272.912	5110
272.972	1493
273.033	1612
273.093	3671
273.153	4304
273.214	1950
273.274	2263
273.334	8595
273.394	25039
273.455	12154
273.515	9204
273.575	21173
273.635	9829
273.696	10632
273.756	23743
273.816	11933
273.876	5281
273.936	6857
273.997	13383
274.057	3752
274.117	3020
274.177	5616
274.237	28048
274.297	27056
274.358	14910
274.418	18628
274.478	17841
274.538	6095
274.598	2726
274.658	10130
274.718	15113
274.778	7534
274.838	3277
274.898	3983
274.958	18113
275.018	21831
275.078	16840
275.138	8219
275.198	3083
275.258	1771
275.318	3142
275.378	8514
275.438	11645
275.498	6428
275.558	7996
275.618	19331
275.678	17512
275.738	11569
275.798	7861
275.858	2928
275.918	1600
275.978	2418
276.038	3676
276.098	1307
276.157	4291
276.217	19799
276.277	9945
276.337	8397
276.397	3667
276.457	5173
276.517	2032
276.576	1288
276.636	1245
276.696	4450
276.756	10570
276.815	8395
276.875	3584
276.935	3761
276.995	4496
277.055	2244
277.114	1888
277.174	2481
277.234	15825
277.293	7770
277.353	2908
277.413	2188
277.472	2229
277.532	3446
277.592	3386
277.651	7995
277.711	18626
277.771	4985
277.830	22697
277.890	20708
277.950	10330
278.009	30111
278.069	12578
278.128	12001
278.188	19866
278.248	7164
278.307	17747
278.367	11661
278.426	3375
278.486	1758
278.545	1017
278.605	1033
278.664	1107
278.724	1348
278.783	6909
278.843	23349
278.902	6674
278.962	3779
279.021	4240
279.081	2722
279.140	3568
279.199	3741
279.259	2537
279.318	3031
279.378	3636
279.437	5356
279.496	23363
279.556	56509
279.615	49946
279.675	13840
279.734	7627
279.793	12896
279.853	21490
279.912	8031
279.971	3873
280.031	3204
280.090	7054
280.149	15153
280.208	8712
280.268	33647
280.327	42243
280.386	11137
280.445	9897
280.505	11576
280.564	4035
280.623	2512
280.682	5265
280.742	13166
280.801	3712
280.860	1588
280.919	1394
280.978	896
281.037	1518
281.097	897
281.156	1320
281.215	1505
281.274	1357
281.333	12431
281.392	11221
281.451	1201
281.510	1742
281.569	1072
281.628	612
281.688	368
281.747	1498
281.806	1782
281.865	830
281.924	50
281.983	1489
282.042	-162
282.101	196
282.160	586
282.219	902
282.278	407
282.337	8368
282.396	7106
282.454	1406
282.513	1976
282.572	15016
282.631	10304
282.690	2300
282.749	1155
282.808	2857
282.867	2362
282.926	3311
282.985	1525
283.043	-212
283.102	431
283.161	802
283.220	4083
283.279	14953
283.338	4569
283.396	1854
283.455	1092
283.514	2982
283.573	5720
283.631	3734
283.690	1179
283.749	909
283.808	5875
283.866	9356
283.925	1869
283.984	1328
284.043	4616
284.101	4447
284.160	1541
284.219	2306
284.277	1939
284.336	4142
284.395	19453
284.453	17595
284.512	5124
284.570	7962
284.629	6684
284.688	5509
284.746	5906
284.805	6889
284.863	8913
284.922	13006
284.981	14064
285.039	18941
285.098	31706
285.156	70587
285.215	103789
285.273	106207
285.332	82909
285.390	44644
285.449	26796
285.507	16984
285.566	11643
285.624	9183
285.683	6500
285.741	5022
285.799	4807
285.858	4457
285.916	4682
285.975	3113
286.033	2901
286.091	2249
286.150	1323
286.208	1862
286.267	1962
286.325	3416
286.383	6407
286.442	5851
286.500	1835
286.558	1765
286.616	619
286.675	2779
286.733	2844
286.791	2121
286.850	2110
286.908	3133
286.966	9069
287.024	2675
287.083	1267
287.141	293
287.199	1043
287.257	4644
287.315	1811
287.374	1363
287.432	9851
287.490	6323
287.548	2252
287.606	1109
287.664	438
287.723	2187
287.781	3918
287.839	1766
287.897	1499
287.955	2100
288.013	1680
288.071	5464
288.129	24384
288.187	82227
288.245	39165
288.303	11345
288.361	5881
288.419	3198
288.477	1841
288.535	867
288.593	649
288.651	388
288.709	-300
288.767	988
288.825	624
288.883	-70
288.941	-122
288.999	-421
289.057	200
289.115	-614
289.173	-93
289.231	626
289.289	1077
289.346	-229
289.404	565
289.462	3911
289.520	4744
289.578	1375
289.636	35
289.694	-1077
289.751	-383
289.809	-788
289.867	-608
289.925	1369
289.983	2748
290.040	-229
290.098	205
290.156	724
290.214	1817
290.271	921
290.329	-105
290.387	-472
290.444	-1039
290.502	-1060
290.560	-216
290.617	-1238
290.675	-676
290.733	-186
290.790	1028
290.848	-26
290.906	503
290.963	311
291.021	613
291.078	255
291.136	-136
291.194	3744
291.251	12763
291.309	2889
291.366	427
291.424	496
291.481	-335
291.539	-318
291.596	-318
291.654	-209
291.711	-305
291.769	361
291.826	4725
291.884	3403
291.941	533
291.999	570
292.056	1485
292.114	1786
292.171	-894
292.228	1073
292.286	712
292.343	4918
292.401	6386
292.458	2311
292.515	1131
292.573	1745
292.630	1600
292.687	1793
292.745	827
292.802	225
292.859	3637
292.917	16248
292.974	10146
293.031	2327
293.089	547
293.146	274
293.203	45
293.260	-47
293.318	389
293.375	213
293.432	-1151
293.489	-644
293.546	-121
293.604	154
293.661	5854
293.718	24293
293.775	11732
293.832	6327
293.889	3148
293.947	2552
294.004	867
294.061	1835
294.118	5051
294.175	12991
294.232	6742
294.289	2816
294.346	786
294.403	910
294.460	1545
294.517	1082
294.574	-106
294.631	54
294.688	149
294.745	4015
294.802	21779
294.859	18667
294.916	6561
294.973	3850
295.030	5063
295.087	4403
295.144	1446
295.201	1368
295.258	211
295.315	1625
295.372	8050
295.429	19864
295.486	7884
295.542	2747
295.599	1960
295.656	5162
295.713	8070
295.770	17978
295.827	5551
295.883	2199
295.940	1474
295.997	6441
296.054	6004
296.111	2874
296.167	1149
296.224	519
296.281	81
296.338	-392
296.394	475
296.451	939
296.508	6231
296.564	15501
296.621	8583
296.678	21931
296.734	34324
296.791	11083
296.848	4585
296.904	4758
296.961	16520
297.018	22886
297.074	14862
297.131	4117
297.187	2313
297.244	4730
297.301	16888
297.357	37346
297.414	13589
297.470	4653
297.527	2556
297.583	1367
297.640	1899
297.696	1390
297.753	48
297.809	582
297.866	-17
297.922	-16
297.979	-408
298.035	1360
298.092	2281
298.148	11708
298.204	13256
298.261	4827
298.317	7763
298.374	25907
298.430	16080
298.486	6032
298.543	3048
298.599	2173
298.656	2708
298.712	6947
298.768	17335
298.824	9920
298.881	2917
298.937	1728
298.993	788
299.050	2797
299.106	2720
299.162	1668
299.218	2311
299.275	1035
299.331	1146
299.387	4196
299.443	22617
299.500	26606
299.556	7796
299.612	4171
299.668	2660
299.724	2923
299.780	3078
299.837	1525
299.893	3619
299.949	17697
300.005	22931
300.061	17288
300.117	31357
300.173	15307
300.229	6909
300.285	9708
300.341	13239
300.397	6748
300.453	2795
300.510	1625
300.566	2291
300.622	2615
300.678	6865
300.734	19946
300.790	19469
300.845	23156
300.901	12769
300.957	20061
301.013	16202
301.069	5103
301.125	4047
301.181	5161
301.237	3293
301.293	1299
301.349	689
301.405	14
301.461	1032
301.516	259
301.572	1627
301.628	7083
301.684	5608
301.740	8054
301.796	14416
301.851	9138
301.907	16081
301.963	15455
302.019	21413
302.074	62889
302.130	66418
302.186	30436
302.242	11639
302.297	6116
302.353	5369
302.409	13137
302.464	11261
302.520	7704
302.576	24337
302.631	29299
302.687	17154
302.743	6390
302.798	2430
302.854	1919
302.910	1446
302.965	1425
303.021	7122
303.076	6722
303.132	10258
303.187	13903
303.243	6138
303.299	1966
303.354	932
303.410	1045
303.465	117
303.521	916
303.576	1152
303.632	1252
303.687	4286
303.743	19763
303.798	17907
303.853	6840
303.909	2125
303.964	1915
304.020	4682
304.075	10095
304.130	6809
304.186	18205
304.241	19516
304.297	14514
304.352	5308
304.358	5081
304.407	3245
304.449	3083
304.463	3027
304.518	2804
304.539	2439
304.573	1841
304.629	1339
304.630	1384
304.684	3792
304.720	11625
304.739	15453
304.794	24056
304.811	20498
304.850	11766
304.902	4801
304.905	4375
304.960	2221
304.992	1671
305.015	1306
305.071	2034
305.083	2247
305.126	2842
305.173	1438
305.181	1233
305.236	-177
305.264	488
305.292	1165
305.347	2171
305.354	2172
305.402	2135
305.445	2489
305.457	2609
305.512	3428
305.535	4165
305.567	5045
305.622	2694
305.626	2787
305.678	6592
305.716	16072
305.733	19151
305.788	24079
305.807	20325
305.843	14628
305.897	21583
305.898	21637
305.953	21377
305.988	13200
306.008	9026
306.063	4974
306.078	4425
306.118	3438
306.168	2177
306.173	2071
306.228	1459
306.259	1017
306.283	771
306.338	1355
306.349	1307
306.393	1162
306.440	1419
306.448	1431
306.503	942
306.530	1028
306.558	1623
306.613	3896
306.620	4468
306.668	11340
306.711	21831
306.723	22956
306.778	18933
306.801	14178
306.833	8848
306.888	3702
306.892	3471
306.943	2178
306.982	1684
306.997	1580
307.052	825
307.072	790
307.107	804
307.162	990
307.163	991
307.217	1384
307.253	1772
307.272	1915
307.327	1444
307.343	1473
307.381	2020
307.434	2408
307.436	2568
307.491	6944
307.524	11563
307.546	13225
307.600	17440
307.614	16128
307.655	9395
307.704	3413
307.710	3173
307.765	2633
307.795	3134
307.819	3399
307.874	3788
307.885	3672
307.929	3511
307.975	3945
307.984	4075
308.038	4688
308.065	5401
308.093	10685
308.148	23364
308.156	26623
308.202	43596
308.246	54230
308.257	52960
308.312	29232
308.336	22785
308.366	20206
308.421	16214
308.426	15450
308.475	8619
308.517	4720
308.530	4127
308.585	3149
308.607	2959
308.639	3151
308.694	3299
308.697	3324
308.748	3890
308.787	4424
308.803	4495
308.857	4208
308.877	4002
308.912	4335
308.967	5412
308.967	5426
309.021	9795
309.058	12841
309.076	16578
309.130	30553
309.148	35263
309.185	54309
309.238	84204
309.239	84478
309.293	95315
309.328	88974
309.348	75540
309.402	33884
309.418	23414
309.457	17266
309.508	12356
309.511	12401
309.566	14457
309.598	16250
309.620	22706
309.674	41908
309.688	46799
309.729	41605
309.778	29719
309.783	28915
309.837	19328
309.868	14178
309.892	19507
309.946	34967
309.959	39352
310.001	50335
310.049	60228
310.055	58127
310.109	32838
310.139	18985
310.163	14825
310.218	8115
310.229	6857
310.272	5223
310.319	4000
310.326	3829
310.381	2676
310.409	2088
310.435	1909
310.489	1636
310.499	1611
310.543	2014
310.589	2365
310.598	2352
310.652	2259
310.679	2184
310.706	2025
310.760	1702
310.769	1618
310.814	1990
310.859	2557
310.868	2539
310.923	2190
310.948	2079
310.977	2543
311.031	3366
311.038	3482
311.085	3024
311.128	2338
311.139	2344
311.193	2589
311.218	2569
311.247	2562
311.301	2712
311.308	2707
311.356	2515
311.398	2458
311.410	2397
311.464	1814
311.488	1627
311.518	2217
311.572	3235
311.578	3346
311.626	5950
311.668	8219
311.680	7677
311.734	4935
311.758	3692
311.788	3297
311.842	2647
311.847	2571
311.896	3756
311.937	4783
311.950	4806
312.004	4788
312.027	4780
312.058	4440
312.112	3792
312.117	3717
312.165	2901
312.207	2190
312.297	1753
312.386	2900
312.476	4141
312.566	13994
312.656	5028
312.745	2107
312.835	2344
312.925	4429
313.015	2590
313.104	1672
313.194	2735
313.284	3294
313.374	8287
313.463	6442
313.553	3217
313.643	2461
313.732	2203
313.822	2504
313.912	2433
314.001	4581
314.091	3034
314.180	3470
314.270	6351
314.360	5011
314.449	5526
314.539	2535
314.628	2577
314.718	3392
314.808	3079
314.897	2705
314.987	2838
315.076	5282
315.166	6429
315.255	4570
315.345	5976
315.434	2969
315.524	3650
315.613	6174
315.703	8668
315.792	7871
315.881	10061
315.971	5024
316.060	11333
316.150	6727
316.239	5087
316.328	2595
316.418	3135
316.507	4390
316.597	6751
316.686	4342
316.775	3623
316.865	3032
316.954	2287
317.043	2209
317.133	4009
317.222	2854
317.311	3375
317.400	2204
317.490	7471
317.579	7408
317.668	3718
317.757	6297
317.847	10202
317.936	18936
318.025	21815
318.114	8966
318.203	7026
318.293	7812
318.382	14325
318.471	16539
318.560	11863
318.649	8497
318.738	3626
318.828	6599
318.917	6288
319.006	3928
319.095	9302
319.184	22941
319.273	28997
319.362	22535
319.451	6514
319.540	6017
319.629	18785
319.718	30044
319.807	6633
319.896	12072
319.985	28997
320.074	17400
320.163	3769
320.252	3727
320.341	3502
320.430	3995
320.519	13522
320.608	5708
320.697	4408
320.786	4930
320.875	8862
320.964	11758
321.053	21144
321.142	32007
321.230	27242
321.319	18547
321.408	49318
321.497	15242
321.586	18915
321.675	11164
321.764	12691
321.852	8533
321.941	31078
322.030	17425
322.119	16736
322.207	49152
322.296	11673
322.385	7496
322.474	17142
322.562	60822
322.651	23154
322.740	21024
322.829	24221
322.917	11862
323.006	15047
323.095	14349
323.183	4959
323.272	10011
323.361	15242
323.449	17030
323.538	8303
323.626	17366
323.715	7070
323.804	3858
323.892	14965
323.981	17210
324.069	3922
324.158	4306
324.246	5069
324.335	10102
324.424	21091
324.512	7525
324.601	15569
324.689	49176
324.778	84070
324.866	16008
324.954	4270
325.043	5548
325.131	6272
325.220	4562
325.308	5894
325.397	8211
325.485	5013
325.574	3140
325.662	3477
325.750	5629
325.839	3912
325.927	2390
326.015	4867
326.104	3475
326.192	3314
326.280	3376
326.369	3952
326.457	9652
326.545	19246
326.634	5961
326.722	2586
326.810	2945
326.898	3879
326.987	4656
327.075	14975
327.163	10504
327.251	6729
327.340	43359
327.428	60498
327.516	6184
327.604	3537
327.692	3858
327.781	2231
327.869	3457
327.957	4077
328.045	6009
328.133	3129
328.221	2641
328.309	3840
328.397	3312
328.485	5547
328.574	8429
328.662	35499
328.750	11075
328.838	3049
328.926	3186
329.014	2621
329.102	5065
329.190	11372
329.278	9486
329.366	2911
329.454	1525
329.542	2393
329.630	2146
329.718	2782
329.806	4734
329.893	3124
329.981	1626
330.069	3069
330.157	10918
330.245	34464
330.333	15337
330.421	4221
330.509	9697
330.597	44906
330.684	21304
330.772	4145
330.860	3257
330.948	3429
331.036	3140
331.123	2247
331.211	2159
331.299	1845
331.387	3779
331.475	6300
331.562	3131
331.650	2042
331.738	3137
331.825	2089
331.913	2162
332.001	2712
332.089	2676
332.176	2955
332.264	3982
332.352	4522
332.439	4435
332.527	2904
332.614	1301
332.702	2919
332.790	2073
332.877	5076
332.965	7535
333.052	4109
333.140	6280
333.228	15414
333.315	4034
333.403	2818
333.490	3018
333.578	7090
333.665	23567
333.753	9021
333.840	3326
333.928	3564
334.015	3855
334.103	5218
334.190	13950
334.278	5777
334.365	4934
334.452	4423
334.540	3199
334.627	2927
334.715	3797
334.802	4960
334.889	9232
334.977	12991
335.064	7122
335.151	4026
335.239	3185
335.326	2735
335.413	8968
335.501	12237
335.588	4257
335.675	3238
335.762	2404
335.850	3980
335.937	5062
336.024	8645
336.111	18190
336.199	15679
336.286	6020
336.373	2854
336.460	2670
336.547	2992
336.635	5448
336.722	4514
336.809	2305
336.896	6259
336.983	13242
337.070	18663
337.157	16388
337.245	5918
337.332	4406
337.419	2377
337.506	1830
337.593	2177
337.680	3875
337.767	8890
337.854	7464
337.941	7068
338.028	11012
338.115	4502
338.202	3315
338.289	4119
338.376	11907
338.463	5575
338.550	4668
338.637	4515
338.724	3007
338.811	3730
338.898	2676
338.984	1915
339.071	2775
339.158	6297
339.245	23187
339.332	12662
339.419	5566
339.506	5856
339.593	2680
339.679	5017
339.766	3077
339.853	5988
339.940	16540
340.027	4695
340.113	6131
340.200	8866
340.287	3783
340.374	8429
340.460	19495
340.547	9769
340.634	10694
340.720	40233
340.807	19493
340.894	5669
340.980	4435
341.067	3870
341.154	6886
341.240	15586
341.327	24245
341.414	11388
341.500	15790
341.587	4732
341.674	4675
341.760	16627
341.847	18527
341.933	4281
342.020	1109
342.106	1987
342.193	5408
342.279	12237
342.366	10539
342.452	16263
342.539	5543
342.625	20651
342.712	45550
342.798	18534
342.885	6222
342.971	1632
343.058	2489
343.144	3822
343.230	4771
343.317	8175
343.403	4708
343.490	1616
343.576	2529
343.662	4702
343.749	5221
343.835	5197
343.921	9982
344.008	69427
344.094	145689
344.180	31619
344.267	15454
344.353	45168
344.439	36992
344.525	21787
344.612	13903
344.698	10504
344.784	5183
344.870	5623
344.957	7769
345.043	10057
345.129	7155
345.215	18703
345.301	16072
345.387	13458
345.474	3230
345.560	2719
345.646	1639
345.732	4025
345.818	10026
345.904	6721
345.990	5624
346.076	3896
346.162	10719
346.249	7256
346.335	4627
346.421	3222
346.507	18645
346.593	58269
346.679	13160
346.765	5085
346.851	4641
346.937	5131
347.023	3810
347.108	6247
347.194	5817
347.280	5784
347.366	7805
347.452	19238
347.538	69985
347.624	53708
347.710	38691
347.796	5143
347.882	2971
347.967	3129
348.053	3172
348.139	2821
348.225	3399
348.311	5334
348.397	3993
348.482	6625
348.568	7698
348.654	3087
348.740	5234
348.825	4046
348.911	9641
348.997	33853
349.083	60894
349.168	9087
349.254	9128
349.340	9470
349.425	3725
349.511	7148
349.597	7115
349.682	15645
349.768	49075
349.854	20271
349.939	3551
350.025	2933
350.110	5118
350.196	7553
350.282	6616
350.367	2421
350.453	3780
350.538	5473
350.624	9881
350.709	6501
350.795	2664
350.880	3984
350.966	7268
351.051	8941
351.137	3765
351.222	7143
351.308	20144
351.393	47551
351.479	16751
351.564	8121
351.649	4983
351.735	3471
351.820	4312
351.906	4137
351.991	5715
352.076	28073
352.162	42051
352.247	9360
352.332	9223
352.418	21182
352.503	22500
352.588	75124
352.673	61335
352.759	13478
352.844	6303
352.929	10282
353.014	12779
353.100	6272
353.185	9351
353.270	18273
353.355	18590
353.441	5310
353.526	4336
353.611	15777
353.696	18703
353.781	11649
353.866	4670
353.952	6024
354.037	17324
354.122	37656
354.207	33162
354.292	10582
354.377	4848
354.462	5658
354.547	8287
354.632	6685
354.717	7059
354.802	11002
354.887	5439
354.972	3394
355.057	3645
355.142	3591
355.227	5678
355.312	10272
355.397	24403
355.482	56776
355.567	24731
355.652	19332
355.737	19031
355.822	50724
355.907	38663
355.991	8047
356.076	5108
356.161	5125
356.246	4700
356.331	5725
356.416	11041
356.501	71646
356.585	74631
356.670	15338
356.755	9540
356.840	12604
356.924	57631
357.009	179675
357.094	68758
357.179	19684
357.263	12348
357.348	11561
357.433	11845
357.517	14332
357.602	9727
357.687	6918
357.771	9659
357.856	19115
357.941	14864
358.025	44415
358.110	174339
358.195	84320
358.279	16224
358.364	11593
358.448	42054
358.533	107336
358.617	75624
358.702	71720
358.787	27275
358.871	21040
358.956	17280
359.040	5012
359.125	3887
359.209	4802
359.294	8789
359.378	14343
359.462	13880
359.547	8120
359.631	3439
359.716	4125
359.800	4882
359.885	6143
359.969	4854
360.053	3557
360.138	3379
360.222	9505
360.306	16954
360.391	11631
360.475	15183
360.559	36729
360.644	37687
360.728	25509
360.812	40622
360.896	103228
360.981	47029
361.065	26031
361.149	8227
361.233	8857
361.318	6140
361.402	7464
361.486	6796
361.570	4862
361.654	7644
361.739	19169
361.823	74449
361.907	108834
361.991	23962
362.075	13966
362.159	32425
362.243	21697
362.327	18140
362.411	21264
362.495	11980
362.580	6227
362.664	4683
362.748	4122
362.832	5956
362.916	8156
363.000	31739
363.084	95563
363.168	125929
363.252	31530
363.336	11973
363.420	12701
363.503	17504
363.587	14938
363.671	9007
363.755	9987
363.839	15193
363.923	7250
364.007	17125
364.091	14880
364.175	7020
364.258	23984
364.342	33477
364.426	64906
364.510	34537
364.594	16349
364.677	21377
364.761	92382
364.845	66475
364.929	31906
365.013	26137
365.096	19168
365.180	21064
365.264	8955
365.347	19184
365.431	8824
365.515	6562
365.598	6452
365.682	6325
365.766	4006
365.849	4600
365.933	7302
366.017	7116
366.100	2428
366.184	2597
366.267	4547
366.351	4591
366.435	4275
366.518	3769
366.602	3704
366.685	4816
366.769	5410
366.852	6779
366.936	14856
367.019	11022
367.103	3787
367.186	4630
367.270	3371
367.353	2263
367.436	5505
367.520	3969
367.603	7263
367.687	10874
367.770	19518
367.853	11430
367.937	32293
368.020	52669
368.104	12432
368.187	15129
368.270	27343
368.353	22926
368.437	14532
368.520	8849
368.603	18390
368.687	36433
368.770	67627
368.853	16536
368.936	15353
369.020	10192
369.103	5812
369.186	2676
369.269	4080
369.352	13438
369.436	16959
369.519	9479
369.602	3854
369.685	6389
369.768	6908
369.851	4939
369.934	3845
370.018	5070
370.101	17437
370.184	12994
370.267	6288
370.350	12458
370.433	19069
370.516	50091
370.599	58303
370.682	20594
370.765	51373
370.848	53999
370.931	77139
371.014	26085
371.097	7315
371.180	6536
371.263	4992
371.346	2867
371.429	4805
371.511	5490
371.594	11458
371.677	14827
371.760	11005
371.843	15990
371.926	76047
372.009	161919
372.091	60001
372.174	35227
372.257	74006
372.340	31373
372.423	19428
372.505	15587
372.588	9075
372.671	29300
372.754	79992
372.836	38652
372.919	11095
373.002	15659
373.085	12336
373.167	17974
373.250	42982
373.332	77534
373.415	102092
373.498	192892
373.580	78378
373.663	92992
373.746	126651
373.828	33774
373.911	14486
373.993	9972
374.076	13022
374.159	10914
374.241	20448
374.324	70747
374.406	47667
374.489	60822
374.571	163806
374.654	69783
374.736	34852
374.819	96927
374.901	139349
374.983	139175
375.066	27514
375.148	8816
375.231	11133
375.313	20402
375.395	15355
375.478	4932
375.560	6154
375.643	8332
375.725	29351
375.807	110655
375.890	72065
375.972	16348
376.054	15037
376.136	8463
376.219	6476
376.301	33818
376.383	97348
376.465	39672
376.548	27723
376.630	31499
376.712	84655
376.794	40213
376.877	6774
376.959	3633
377.041	5327
377.123	2696
377.205	4432
377.287	1483
377.369	4189
377.452	4357
377.534	4180
377.616	4461
377.698	4504
377.780	3003
377.862	5117
377.944	5094
378.026	2859
378.108	3465
378.190	2802
378.272	3874
378.354	3048
378.436	2611
378.518	4094
378.600	15130
378.682	22282
378.764	52054
378.846	39575
378.928	11736
379.010	22932
379.091	11550
379.173	4116
379.255	3751
379.337	7566
379.419	25362
379.501	68944
379.583	25883
379.664	7319
379.746	19880
379.828	56317
379.910	72568
379.991	58685
380.073	9365
380.155	6698
380.237	5811
380.318	3097
380.400	4182
380.482	11744
380.564	18930
380.645	17052
380.727	19024
380.809	11697
380.890	7827
380.972	3575
381.053	5001
381.135	7283
381.217	19238
381.298	57292
381.380	27731
381.461	21382
381.543	82328
381.624	101635
381.706	20105
381.787	9440
381.869	11150
381.951	42575
382.032	148068
382.113	98473
382.195	20868
382.276	14070
382.358	31331
382.439	83335
382.521	92810
382.602	133422
382.684	62293
382.765	103656
382.846	115166
382.928	172557
383.009	91869
383.090	55266
383.172	200878
383.253	300579
383.334	111772
383.416	114641
383.497	60895
383.578	25909
383.659	46591
383.741	162279
383.822	385052
383.903	211442
383.984	87205
384.066	145643
384.147	90786
384.228	19516
384.309	16546
384.390	13288
384.471	8962
384.553	11057
384.634	13690
384.715	14215
384.796	6811
384.877	10139
384.958	46767
385.039	63837
385.120	26658
385.201	9964
385.282	9880
385.363	6984
385.444	7338
385.525	16695
385.606	61125
385.687	54568
385.768	11174
385.849	16624
385.930	80216
386.011	131144
386.092	38681
386.173	8645
386.254	4688
386.335	5356
386.416	7340
386.496	32280
386.577	52346
386.658	14902
386.739	8418
386.820	5895
386.901	2971
386.981	4946
387.062	4379
387.143	12375
387.224	51450
387.304	48646
387.385	16503
387.466	6261
387.547	6519
387.627	6182
387.708	18834
387.789	86661
387.869	104029
387.950	26656
388.031	3836
388.111	1498
388.192	4175
388.273	5753
388.353	5720
388.434	6979
388.514	16878
388.595	76726
388.676	107359
388.756	57507
388.837	53534
388.917	33449
388.998	3644
389.078	4864
389.159	5220
389.239	3996
389.320	10515
389.400	9592
389.480	17763
389.561	51545
389.641	26147
389.722	10605
389.802	19643
389.883	22902
389.963	58313
390.043	31242
390.124	5286
390.204	16347
390.284	58205
390.365	35483
390.445	12748
390.525	34952
390.605	50626
390.686	33791
390.766	11793
390.846	5663
390.927	3003
391.007	3055
391.087	4833
391.167	6069
391.247	3987
391.328	3889
391.408	3885
391.488	2673
391.568	1848
391.648	7680
391.728	15058
391.808	11466
391.888	12118
391.969	30215
392.049	48719
392.129	15262
392.209	19095
392.289	57634
392.369	27309
392.449	5586
392.529	6147
392.609	10504
392.689	14010
392.769	52399
392.849	44196
392.929	21917
393.009	58686
393.089	47157
393.169	22918
393.248	70811
393.328	262083
393.408	282010
393.488	76387
393.568	23005
393.648	11670
393.728	8030
393.807	4501
393.887	4863
393.967	3748
394.047	7014
394.127	7407
394.206	8766
394.286	24793
394.366	118930
394.446	128498
394.525	24095
394.605	5900
394.685	5926
394.764	10541
394.844	15034
394.924	13569
395.003	9314
395.083	6590
395.163	6045
395.242	5264
395.322	5749
395.402	1326
395.481	4082
395.561	7574
395.640	26476
395.720	27286
395.799	14050
395.879	9226
395.958	7357
396.038	31631
396.117	151652
396.197	168536
396.276	37331
396.356	10662
396.435	7699
396.515	8518
396.594	15909
396.673	27477
396.753	80248
396.832	249132
396.912	216541
396.991	63872
397.070	15244
397.150	8145
397.229	6673
397.308	8905
397.388	18249
397.467	8978
397.546	3753
397.625	1516
397.705	7728
397.784	9303
397.863	3429
397.942	2619
398.022	1621
398.101	3540
398.180	8972
398.259	4701
398.338	4782
398.417	4872
398.497	3047
398.576	2469
398.655	1469
398.734	1946
398.813	797
398.892	3084
398.971	9534
399.050	5079
399.129	313
399.208	1047
399.287	2397
399.366	905
399.445	2453
399.524	3670
399.603	2060
399.682	7615
399.761	15163
399.840	15699
399.919	8470
399.998	1806
400.077	781
400.156	1256
400.235	4007
400.313	1067
400.392	3432
400.471	29459
400.550	49337
400.629	12451
400.708	4479
400.786	1534
400.865	2556
400.944	5439
401.023	7007
401.102	1354
401.180	1245
401.259	469
401.338	1796
401.416	4038
401.495	3488
401.574	2065
401.652	1542
401.731	3565
401.810	1825
401.888	2026
401.967	1680
402.046	3058
402.124	4727
402.203	4888
402.281	3269
402.360	3411
402.438	5021
402.517	2591
402.596	1532
402.674	818
402.753	208
402.831	1134
402.910	3239
402.988	14954
403.066	54395
403.145	31527
403.223	18014
403.302	48363
403.380	37295
403.459	37211
403.537	13153
403.615	2748
403.694	246
403.772	1611
403.850	1152
403.929	424
404.007	1356
404.085	6066
404.164	7078
404.242	2290
404.320	6402
404.398	20329
404.477	32002
404.555	102812
404.633	91060
404.711	20758
404.789	8424
404.868	2870
404.946	2387
405.024	1356
405.102	1225
405.180	525
405.258	959
405.336	1653
405.415	1126
405.493	5138
405.571	4679
405.649	1722
405.727	408
405.805	2886
405.883	3475
405.961	2588
406.039	1075
406.117	533
406.195	5833
406.273	26586
406.351	90478
406.429	51342
406.507	5349
406.585	2570
406.663	4704
406.740	6784
406.818	4236
406.896	1704
406.974	2572
407.052	7790
407.130	55146
407.208	76359
407.285	14515
407.363	2756
407.441	3021
407.519	2149
407.596	3170
407.674	6188
407.752	9224
407.830	8078
407.907	4336
407.985	2755
408.063	1882
408.141	-181
408.218	1802
408.296	1882
408.373	2977
408.451	4333
408.529	4027
408.606	1582
408.684	731
408.762	590
408.839	619
408.917	375
408.994	1300
409.072	432
409.149	765
409.227	3256
409.304	3381
409.382	3055
409.459	2514
409.537	5314
409.614	5987
409.692	3379
409.769	2895
409.846	5801
409.924	6202
410.001	3160
410.079	3913
410.156	2629
410.233	1676
410.311	847
410.388	933
410.465	1683
410.543	1558
410.620	1352
410.697	3387
410.775	3597
410.852	515
410.929	3290
411.006	4574
411.083	2076
411.161	2919
411.238	3105
411.315	1547
411.392	723
411.469	3762
411.547	2452
411.624	116
411.701	839
411.778	2713
411.855	9199
411.932	4497
412.009	1040
412.086	1789
412.163	3391
412.240	1656
412.317	1157
412.394	1141
412.471	221
412.548	1052
412.625	1465
412.702	2144
412.779	4495
412.856	2864
412.933	-155
413.010	544
413.087	4004
413.164	28434
413.241	42353
413.318	8568
413.395	4941
413.471	7758
413.548	3385
413.625	1765
413.702	1969
413.779	1539
413.855	694
413.932	-405
414.009	224
414.086	433
414.162	255
414.239	3016
414.316	25738
414.393	62442
414.469	21329
414.546	1890
414.623	797
414.699	2252
414.776	3442
414.853	750
414.929	1351
415.006	1179
415.082	503
415.159	1264
415.236	2091
415.312	2503
415.389	7085
415.465	9091
415.542	4073
415.618	1675
415.695	5433
415.771	3558
415.848	2578
415.924	1633
416.000	819
416.077	1242
416.153	-611
416.230	-391
416.306	-59
416.383	-182
416.459	-386
416.535	-4
416.612	101
416.688	206
416.764	699
416.841	818
416.917	626
416.993	59
417.069	1503
417.146	2911
417.222	5894
417.298	3731
417.374	1244
417.451	2664
417.527	4949
417.603	5541
417.679	2677
417.755	2835
417.831	796
417.908	677
417.984	345
418.060	828
418.136	8019
418.212	11260
418.288	2465
418.364	1137
418.440	2025
418.516	4062
418.592	2388
418.668	12391
418.744	24349
418.820	15740
418.896	2709
418.972	365
419.048	1451
419.124	10867
419.200	7532
419.276	1188
419.352	-401
419.428	593
419.504	1541
419.579	4315
419.655	1814
419.731	2893
419.807	14630
419.883	24964
419.959	15859
420.034	3595
420.110	9657
420.186	40696
420.262	30279
420.337	4157
420.413	3063
420.489	1471
420.565	1886
420.640	2219
420.716	3427
420.792	809
420.867	1453
420.943	1588
421.019	6308
421.094	4376
421.170	1253
421.245	721
421.321	2129
421.397	1437
421.472	2729
421.548	6827
421.623	10166
421.699	5514
421.774	3779
421.850	3044
421.925	7212
422.001	6641
422.076	4587
422.152	6295
422.227	11827
422.302	12003
422.378	16172
422.453	30112
422.529	72228
422.604	191692
422.679	287901
422.755	214260
422.830	81301
422.905	30992
422.981	17375
423.056	10895
423.131	8528
423.207	6421
423.282	7201
423.357	15986
423.432	10708
423.508	9279
423.583	23660
423.658	16971
423.733	4527
423.808	4188
423.883	6744
423.959	4603
424.034	3771
424.109	2818
424.184	1083
424.259	1117
424.334	1159
424.409	943
424.484	1403
424.559	1808
424.634	1365
424.709	3937
424.784	5278
424.859	2247
424.934	6128
425.009	31559
425.084	50647
425.159	17349
425.234	1252
425.309	176
425.384	2846
425.459	4447
425.534	1233
425.609	-63
425.683	-115
425.758	617
425.833	922
425.908	2565
425.983	17405
426.058	49657
426.132	18688
426.207	1436
426.282	1542
426.357	-251
426.431	678
426.506	433
426.581	-59
426.655	844
426.730	1162
426.805	768
426.879	2167
426.954	1104
427.029	5893
427.103	42108
427.178	87563
427.253	35188
427.327	3280
427.402	957
427.476	4139
427.551	1687
427.625	1002
427.700	524
427.774	403
427.849	840
427.923	181
427.998	540
428.072	298
428.147	4312
428.221	23606
428.296	59409
428.370	28827
428.444	2906
428.519	231
428.593	973
428.667	1163
428.742	1580
428.816	5261
428.890	27016
428.965	49168
429.039	11375
429.113	2699
429.188	1542
429.262	1801
429.336	6384
429.410	24466
429.485	12651
429.559	2243
429.633	1444
429.707	774
429.781	3424
429.855	31170
429.930	57060
430.004	17223
430.078	7469
430.152	15646
430.226	65859
430.300	69617
430.374	8646
430.448	2034
430.522	2706
430.596	7952
430.670	12635
430.744	72351
430.818	107367
430.892	19932
430.966	2902
431.040	944
431.114	-11
431.188	-397
431.262	163
431.336	-155
431.410	2418
431.484	7806
431.557	7631
431.631	659
431.705	1696
431.779	9686
431.853	47793
431.927	31266
432.000	2543
432.074	371
432.148	302
432.222	-276
432.295	346
432.369	513
432.443	3322
432.516	30187
432.590	77250
432.664	27381
432.737	2372
432.811	605
432.885	-374
432.958	508
433.032	-276
433.106	-555
433.179	-627
433.253	-129
433.326	-123
433.400	-339
433.473	573
433.547	-686
433.620	578
433.694	6290
433.767	4191
433.841	-3
433.914	14
433.988	-735
434.061	-483
434.134	-299
434.208	-896
434.281	-1163
434.355	-734
434.428	-19
434.501	-662
434.575	-144
434.648	-216
434.721	-243
434.795	-268
434.868	-361
434.941	-645
435.014	-750
435.088	111
435.161	1401
435.234	4754
435.307	5985
435.381	580
435.454	285
435.527	2469
435.600	1912
435.673	1227
435.746	251
435.819	208
435.892	132
435.966	-536
436.039	-575
436.112	-278
436.185	-116
436.258	-372
436.331	11
436.404	-771
436.477	-277
436.550	-895
436.623	-296
436.696	-309
436.769	548
436.842	617
436.915	568
436.987	1772
437.060	201
437.133	-307
437.206	-1080
437.279	-227
437.352	-220
437.425	-89
437.498	1191
437.570	8668
437.643	8563
437.716	109
437.789	278
437.861	1382
437.934	4629
438.007	1962
438.080	39
438.152	1075
438.225	5433
438.298	41493
438.370	103095
438.443	38494
438.516	6117
438.588	2021
438.661	-526
438.734	-128
438.806	1300
438.879	1795
438.951	1597
439.024	2542
439.096	244
439.169	-315
439.241	-1004
439.314	-799
439.386	-514
439.459	84
439.531	930
439.604	-267
439.676	527
439.749	-191
439.821	-1195
439.893	-359
439.966	56
440.038	360
440.110	1670
440.183	623
440.255	-188
440.327	1384
440.400	16151
440.472	69634
440.544	42109
440.617	3777
440.689	2933
440.761	3047
440.833	5560
440.905	3312
440.978	-453
441.050	-211
441.122	-143
441.194	-1106
441.266	-467
441.338	-166
441.411	3768
441.483	29653
441.555	40657
441.627	5326
441.699	797
441.771	-326
441.843	-476
441.915	-589
441.987	-1160
442.059	-479
442.131	335
442.203	1325
442.275	2227
442.347	865
442.419	2513
442.491	22596
442.563	55516
442.635	18802
442.706	9049
442.778	10454
442.850	964
442.922	-136
442.994	134
443.066	2697
443.137	1195
443.209	87
443.281	1340
443.353	5416
443.425	26584
443.496	102943
443.568	92602
443.640	27986
443.711	3194
443.783	1284
443.855	210
443.926	-67
443.998	206
444.070	8
444.141	337
444.213	4700
444.285	5967
444.356	2413
444.428	1656
444.499	-22
444.571	-740
444.642	-120
444.714	1043
444.785	4156
444.857	1611
444.928	284
445.000	-91
445.071	828
445.143	1356
445.214	2997
445.285	3441
445.357	10987
445.428	62202
445.500	143748
445.571	77344
445.642	40919
445.714	8642
445.785	3791
445.856	2929
445.928	6515
445.999	2580
446.070	1578
446.141	6179
446.213	6887
446.284	541
446.355	-527
446.426	-301
446.497	-238
446.569	-77
446.640	3882
446.711	4278
446.782	-229
446.853	-581
446.924	510
446.995	197
447.066	598
447.138	-795
447.209	-118
447.280	-1444
447.351	-872
447.422	-892
447.493	502
447.564	2589
447.635	3972
447.706	250
447.777	-946
447.847	-1003
447.918	-1213
447.989	-410
448.060	-256
448.131	580
448.202	4464
448.273	5068
448.344	305
448.414	659
448.485	-181
448.556	216
448.627	-614
448.698	-213
448.768	-616
448.839	-952
448.910	-614
448.981	1396
449.051	1143
449.122	-657
449.193	-175
449.263	-1012
449.334	-726
449.405	1449
449.475	7590
449.546	1876
449.616	-688
449.687	-573
449.758	-411
449.828	-878
449.899	-1050
449.969	-1271
450.040	-360
450.110	-647
450.181	-326
450.251	-768
450.322	-21
450.392	-560
450.463	-570
450.533	-572
450.604	-966
450.674	-803
450.744	-692
450.815	-395
450.885	-624
450.955	-654
451.026	-717
451.096	-1116
451.166	-304
451.237	-451
451.307	376
451.377	594
451.447	-894
451.518	-946
451.588	-1415
451.658	-1265
451.728	-1178
451.799	-98
451.869	231
451.939	-536
452.009	-589
452.079	-1065
452.149	-867
452.219	-477
452.289	415
452.360	95
452.430	-712
452.500	410
452.570	1677
452.640	1876
452.710	4195
452.780	5636
452.850	12517
452.920	11754
452.990	936
453.060	154
453.129	3372
453.199	1179
453.269	1031
453.339	3212
453.409	5415
453.479	4680
453.549	7268
453.619	6582
453.688	2252
453.758	-72
453.828	-1419
453.898	-1018
453.968	-1168
454.037	-871
454.087	-981
454.107	-1029
454.168	-973
454.177	-973
454.247	-1258
454.249	-1252
454.316	-1246
454.330	-1153
454.386	-796
454.411	-973
454.456	-1352
454.492	-834
454.525	-353
454.574	-259
454.595	-231
454.655	-404
454.665	-435
454.734	-1101
454.736	-1069
454.804	43
454.817	133
454.873	458
454.898	460
454.943	481
454.979	-143
455.013	-764
455.060	-328
455.082	-104
455.141	-226
455.152	-250
455.221	716
455.222	732
455.291	1499
455.303	2347
455.360	5800
455.384	10440
455.430	19046
455.465	13042
455.499	7326
455.546	2569
455.569	363
455.627	712
455.638	769
455.707	50
455.708	51
455.777	-617
455.789	-703
455.846	-1261
455.869	-1429
455.916	-1630
455.950	-1054
455.985	-570
456.031	-743
456.054	-793
456.112	-617
456.124	-596
456.193	-822
456.193	-827
456.262	-749
456.274	-723
456.332	-704
456.355	-682
456.401	-581
456.436	-597
456.470	-717
456.516	-614
456.540	-526
456.597	-411
456.609	-379
456.678	-568
456.678	-575
456.747	-805
456.759	-838
456.817	-970
456.840	-1129
456.886	-1371
456.920	-940
456.955	-576
457.001	-366
457.024	-361
457.082	-641
457.093	-634
457.162	-421
457.163	-418
457.232	-615
457.243	-583
457.301	-416
457.324	-733
457.370	-1165
457.405	-340
457.439	234
457.485	-315
457.508	-491
457.566	23
457.577	101
457.646	-389
457.647	-382
457.715	433
457.727	553
457.784	1191
457.808	2302
457.853	4125
457.889	5155
457.922	5754
457.969	2997
457.991	2195
458.050	2722
458.060	2705
458.129	7102
458.130	7188
458.198	10313
458.211	8872
458.267	2701
458.292	1479
458.336	122
458.372	522
458.405	1153
458.453	1673
458.474	1981
458.533	4926
458.543	5316
458.611	14267
458.614	14205
458.680	8897
458.694	7038
458.749	1868
458.775	1364
458.818	348
458.855	-64
458.887	-173
458.936	-172
458.955	-171
459.016	-307
459.024	-325
459.093	442
459.097	388
459.162	-294
459.177	-35
459.230	533
459.257	894
459.299	1323
459.338	916
459.368	533
459.418	314
459.437	301
459.499	-97
459.505	-123
459.574	100
459.579	103
459.643	335
459.659	419
459.711	280
459.740	-33
459.780	-299
459.820	33
459.849	204
459.900	113
459.917	131
459.981	45
459.986	-25
460.054	-259
460.061	-318
460.123	468
460.141	743
460.191	1303
460.222	1678
460.260	1940
460.302	2771
460.328	2703
460.382	675
460.397	448
460.462	540
460.465	547
460.534	705
460.543	722
460.602	2182
460.623	3067
460.671	4757
460.703	7254
460.739	8337
460.783	6778
460.808	5854
460.864	1027
460.876	360
460.944	134
460.945	126
461.013	76
461.024	38
461.081	353
461.104	677
461.150	498
461.184	102
461.218	116
461.264	51
461.286	12
461.345	-257
461.355	-302
461.423	266
461.425	253
461.491	-337
461.505	-326
461.559	331
461.585	647
461.628	563
461.665	519
461.696	781
461.745	1357
461.764	1283
461.825	264
461.832	283
461.901	990
461.905	1026
461.969	-65
461.985	-276
462.037	673
462.065	946
462.105	114
462.145	-339
462.173	120
462.225	739
462.241	544
462.305	-267
462.310	-258
462.378	451
462.385	430
462.446	87
462.465	164
462.514	1076
462.545	1629
462.582	1282
462.625	646
462.650	412
462.705	24
462.718	-9
462.785	-128
462.786	-125
462.854	-352
462.865	-260
462.922	383
462.945	474
462.990	579
463.025	779
463.058	681
463.104	288
463.126	379
463.184	860
463.194	873
463.262	770
463.264	779
463.330	717
463.344	610
463.398	886
463.424	1010
463.466	566
463.504	278
463.533	470
463.583	770
463.601	824
463.663	757
463.669	755
463.737	1120
463.743	1152
463.805	1325
463.823	1313
463.873	762
463.903	387
463.940	921
463.982	1636
464.008	1283
464.062	423
464.076	550
464.142	1115
464.144	1109
464.211	767
464.221	745
464.279	962
464.301	1030
464.347	922
464.381	749
464.414	803
464.461	937
464.482	863
464.540	693
464.550	735
464.617	919
464.620	925
464.685	1142
464.699	1210
464.753	1839
464.779	2093
464.820	1441
464.859	713
464.888	533
464.938	552
464.956	815
465.018	1424
465.023	1435
465.091	1524
465.098	1572
465.158	1376
465.177	1186
465.226	1371
465.257	1566
465.293	1589
465.336	1596
465.361	1720
465.416	2040
465.428	2129
465.495	2720
465.496	2715
465.563	1122
465.575	881
465.631	1516
465.654	1791
465.698	1617
465.734	1443
465.765	1127
465.813	554
465.833	564
465.893	779
465.900	822
465.968	1123
465.972	1134
466.035	829
466.052	781
466.102	425
466.131	201
466.170	377
466.210	514
466.237	851
466.290	1631
466.304	1612
466.369	1351
466.372	1352
466.439	1381
466.449	1381
466.506	1276
466.528	1214
466.573	2101
466.607	2760
466.641	3102
466.687	3603
466.708	3813
466.766	4397
466.775	4228
466.842	2882
466.845	2813
466.909	1308
466.925	957
466.977	1331
467.004	1534
467.044	1435
467.083	1334
467.111	1819
467.163	2746
467.178	2518
467.242	1538
467.245	1548
467.312	1756
467.321	1782
467.379	1408
467.400	1271
467.446	2318
467.480	3072
467.559	1454
467.638	1754
467.717	1855
467.796	2838
467.875	2791
467.955	1310
468.034	2532
468.113	2081
468.192	4255
468.271	2366
468.350	1812
468.429	2634
468.508	2997
468.588	2341
468.667	724
468.746	1533
468.825	1273
468.904	2643
468.983	1713
469.062	2634
469.141	2614
469.220	1903
469.299	505
469.378	451
469.456	2991
469.535	1336
469.614	973
469.693	971
469.772	2094
469.851	1450
469.930	1077
470.009	1968
470.088	961
470.166	3111
470.245	4279
470.324	6019
470.403	3174
470.482	3166
470.560	1406
470.639	2985
470.718	3790
470.797	2551
470.875	2009
470.954	2624
471.033	1873
471.111	1381
471.190	1046
471.269	2461
471.347	270
471.426	1586
471.505	1554
471.583	1563
471.662	1816
471.740	2550
471.819	321
471.898	1114
471.976	1197
472.055	1412
472.133	831
472.212	1833
472.290	1697
472.369	1321
472.447	882
472.526	1261
472.604	1492
472.683	2342
472.761	2320
472.839	1310
472.918	1294
472.996	1310
473.075	1749
473.153	2108
473.231	1883
473.310	2883
473.388	2688
473.466	1592
473.545	3140
473.623	4464
473.701	4049
473.780	2367
473.858	-11
473.936	4142
474.014	1615
474.093	2662
474.171	2229
474.249	2176
474.327	2179
474.405	2072
474.484	2121
474.562	998
474.640	1232
474.718	1208
474.796	935
474.874	2150
474.952	1715
475.030	1488
475.108	716
475.187	1831
475.265	2477
475.343	3108
475.421	3669
475.499	1259
475.577	1651
475.655	2011
475.733	1666
475.811	2315
475.889	1921
475.966	2933
476.044	849
476.122	2377
476.200	2743
476.278	2063
476.356	910
476.434	1907
476.512	1879
476.590	2632
476.667	2791
476.745	1655
476.823	1724
476.901	1520
476.979	1143
477.056	1628
477.134	1424
477.212	2696
477.290	2327
477.367	1334
477.445	1159
477.523	1678
477.601	1358
477.678	1777
477.756	1332
477.834	2170
477.911	1660
477.989	2026
478.066	855
478.144	1788
478.222	2706
478.299	3924
478.377	3848
478.454	1650
478.532	1400
478.609	2519
478.687	2596
478.764	632
478.842	1324
478.919	2507
478.997	2895
479.074	2068
479.152	913
479.229	2095
479.307	714
479.384	1474
479.461	1352
479.539	1538
479.616	1465
479.694	2048
479.771	1531
479.848	1666
479.926	2
480.003	2807
480.080	1368
480.157	1084
480.235	510
480.312	1495
480.389	1310
480.467	1524
480.544	937
480.621	1049
480.698	1237
480.775	1680
480.853	1428
480.930	1746
481.007	1164
481.084	785
481.161	1197
481.238	2416
481.315	747
481.392	1888
481.470	437
481.547	1701
481.624	1316
481.701	1632
481.778	706
481.855	962
481.932	1393
482.009	1541
482.086	1406
482.163	2466
482.240	3842
482.317	6129
482.393	3589
482.470	1915
482.547	1257
482.624	1587
482.701	1222
482.778	1519
482.855	887
482.932	2288
483.009	800
483.085	2067
483.162	1717
483.239	2382
483.316	442
483.393	2055
483.469	1125
483.546	1474
483.623	1387
483.699	1707
483.776	1052
483.853	1755
483.930	2659
484.006	2207
484.083	4603
484.160	3729
484.236	5186
484.313	4462
484.389	2793
484.466	4162
484.543	2716
484.619	2796
484.696	3699
484.772	2484
484.849	3027
484.925	2154
485.002	3183
485.078	2966
485.155	2131
485.231	2588
485.308	1868
485.384	3212
485.461	2638
485.537	3448
485.614	3924
485.690	2893
485.766	2992
485.843	4864
485.919	8447
485.995	10941
486.072	3308
486.148	2438
486.224	2568
486.301	2617
486.377	3641
486.453	3072
486.530	2953
486.606	4051
486.682	3253
486.758	4189
486.835	4669
486.911	3437
486.987	8394
487.063	21601
487.139	34150
487.215	19968
487.292	6048
487.368	3615
487.444	2714
487.520	5242
487.596	3800
487.672	10131
487.748	25598
487.824	40123
487.900	10825
487.976	3997
488.052	3413
488.128	4448
488.204	3172
488.280	3578
488.356	3305
488.432	4448
488.508	4754
488.584	3734
488.660	3949
488.736	3604
488.812	3161
488.888	6834
488.964	12503
489.039	35019
489.115	54160
489.191	30710
489.267	4277
489.343	2883
489.418	2778
489.494	2455
489.570	136
489.646	4615
489.722	1448
489.797	2145
489.873	2855
489.949	3649
490.024	3465
490.100	2828
490.176	2716
490.251	5633
490.327	8773
490.403	3342
490.478	1993
490.554	2351
490.629	2439
490.705	2420
490.781	2990
490.856	1769
490.932	3740
491.007	5237
491.083	2906
491.158	1890
491.234	2355
491.309	4153
491.385	2761
491.460	2839
491.536	3566
491.611	2731
491.686	4910
491.762	7775
491.837	21873
491.913	39986
491.988	49139
492.063	69754
492.139	9326
492.214	4250
492.289	2705
492.365	2527
492.440	3853
492.515	2634
492.590	2056
492.666	3155
492.741	3205
492.816	2460
492.891	1574
492.967	3167
493.042	2839
493.117	2304
493.192	2545
493.267	6886
493.342	18413
493.418	27353
493.493	4200
493.568	2236
493.643	1916
493.718	3395
493.793	4550
493.868	10109
493.943	7345
494.018	3725
494.093	2081
494.168	2575
494.243	1167
494.318	2590
494.393	2321
494.468	2172
494.543	3137
494.618	3874
494.693	1823
494.768	2030
494.842	1774
494.917	2979
494.992	2071
495.067	2474
495.142	2410
495.217	2439
495.292	2741
495.366	3573
495.441	3852
495.516	6525
495.591	13290
495.665	56369
495.740	122870
495.815	50460
495.890	3992
495.964	685
496.039	4050
496.114	2837
496.188	3127
496.263	3311
496.338	2701
496.412	1897
496.487	3766
496.561	5918
496.636	4893
496.710	3284
496.785	2627
496.860	2942
496.934	2727
497.009	3517
497.083	2533
497.158	2522
497.232	2329
497.307	4775
497.381	3633
497.455	3086
497.530	2435
497.604	2689
497.679	2828
497.753	3205
497.827	4346
497.902	3199
497.976	4702
498.050	8968
498.125	23133
498.199	28183
498.273	10326
498.348	9876
498.422	8149
498.496	7419
498.570	8493
498.645	3396
498.719	677
498.793	3819
498.867	4760
498.941	4348
499.016	10591
499.090	23283
499.164	10524
499.238	3996
499.312	3840
499.386	7514
499.460	4821
499.534	2605
499.609	2565
499.683	2544
499.757	3456
499.831	4267
499.905	14418
499.979	15833
500.053	3832
500.127	8161
500.201	8617
500.275	4065
500.349	2906
500.422	4168
500.496	8642
500.570	21619
500.644	23700
500.718	17837
500.792	5950
500.866	3201
500.940	2587
501.013	3400
501.087	4091
501.161	12949
501.235	12933
501.309	7229
501.382	12143
501.456	15968
501.530	6824
501.603	4151
501.677	2423
501.751	1661
501.825	3612
501.898	4387
501.972	5069
502.046	4553
502.119	1277
502.193	6461
502.266	6784
502.340	3087
502.413	2907
502.487	5335
502.561	2558
502.634	3192
502.708	4542
502.781	3090
502.855	3647
502.928	1360
503.002	2508
503.075	1939
503.149	813
503.222	2160
503.295	937
503.369	2967
503.442	2035
503.516	4986
503.589	8042
503.662	6291
503.736	3116
503.809	5904
503.882	4967
503.956	8058
504.029	10870
504.102	23141
504.175	29871
504.249	8393
504.322	3497
504.395	3230
504.468	2197
504.542	1842
504.615	1070
504.688	1688
504.761	623
504.834	4532
504.907	5888
504.980	13210
505.053	4955
505.127	6645
505.200	9845
505.273	2514
505.346	1356
505.419	910
505.492	2426
505.565	1192
505.638	2150
505.711	1270
505.784	339
505.857	701
505.930	2946
506.003	933
506.076	2488
506.149	1365
506.221	-492
506.294	3139
506.367	2087
506.440	8682
506.513	7954
506.586	2233
506.659	1085
506.731	2609
506.804	3787
506.877	6387
506.950	3109
507.022	2635
507.095	404
507.168	3476
507.241	2964
507.313	2030
507.386	2131
507.459	6755
507.531	2942
507.604	1128
507.677	2835
507.749	1417
507.822	4489
507.894	7399
507.967	8516
508.040	2788
508.112	2629
508.185	3386
508.257	2693
508.330	9907
508.402	2686
508.475	1560
508.547	2144
508.620	2198
508.692	1589
508.765	2029
508.837	639
508.909	1450
508.982	2213
509.054	2881
509.127	2270
509.199	1267
509.271	-196
509.344	571
509.416	987
509.488	1342
509.560	2263
509.633	1703
509.705	3258
509.777	4040
509.849	6163
509.922	3654
509.994	1810
510.066	2767
510.138	-17
510.210	4034
510.283	2089
510.355	3213
510.427	2901
510.499	5143
510.571	7770
510.643	3620
510.715	10008
510.787	7766
510.859	3735
510.931	3457
511.003	9704
511.076	9862
511.148	1120
511.219	1544
511.291	1620
511.363	2761
511.435	2264
511.507	926
511.579	2330
511.651	2852
511.723	1401
511.795	1494
511.867	1628
511.939	2114
512.010	1821
512.082	2842
512.154	1627
512.226	2077
512.298	4265
512.369	7812
512.441	5079
512.513	5811
512.585	1986
512.656	4817
512.728	5025
512.800	2358
512.871	2276
512.943	2529
513.015	1112
513.086	3712
513.158	3787
513.230	2596
513.301	4975
513.373	11610
513.444	2620
513.516	2625
513.588	2097
513.659	4588
513.731	5527
513.802	4520
513.874	14833
513.945	31159
514.016	6228
514.088	3954
514.159	2332
514.231	6726
514.302	7238
514.374	4566
514.445	843
514.516	4576
514.588	1604
514.659	2146
514.730	2326
514.802	5980
514.873	1183
514.944	5511
515.016	3760
515.087	6444
515.158	4221
515.229	6044
515.301	2584
515.372	3749
515.443	1629
515.514	2600
515.585	1392
515.656	3253
515.728	3131
515.799	2442
515.870	3320
515.941	3530
516.012	1417
516.083	4814
516.154	4116
516.225	10305
516.296	8602
516.367	5894
516.438	6139
516.509	9405
516.580	16912
516.651	65143
516.722	207700
516.793	108776
516.864	14490
516.935	12736
517.006	10861
517.077	22794
517.148	63723
517.219	186182
517.289	281141
517.360	38334
517.431	10079
517.502	4677
517.573	5133
517.643	4676
517.714	4338
517.785	5130
517.856	4632
517.926	7362
517.997	7778
518.068	9045
518.138	15886
518.209	27776
518.280	121093
518.350	393620
518.421	165043
518.492	14938
518.562	6155
518.633	6112
518.703	5085
518.774	12769
518.845	26649
518.915	29537
518.986	7917
519.056	8298
519.127	19921
519.197	26605
519.268	25329
519.338	9767
519.408	6454
519.479	15936
519.549	10964
519.620	6131
519.690	3076
519.760	2868
519.831	3406
519.901	4500
519.971	2693
520.042	2013
520.112	1533
520.182	6397
520.253	8185
520.323	3032
520.393	3203
520.463	8264
520.534	746
520.604	6725
520.674	4182
520.744	3178
520.814	7347
520.885	8670
520.955	4099
521.025	10585
521.095	5253
521.165	3773
521.235	1140
521.305	1800
521.375	3567
521.445	4284
521.515	6145
521.585	10783
521.655	8801
521.725	7130
521.795	6112
521.865	1293
521.935	3694
522.005	2355
522.075	1136
522.145	3076
522.215	1428
522.285	4024
522.355	3216
522.424	5516
522.494	3729
522.564	7916
522.634	24987
522.704	82902
522.774	32741
522.843	4825
522.913	4126
522.983	6390
523.053	4621
523.122	5034
523.192	8863
523.262	40563
523.331	39137
523.401	5446
523.471	3096
523.540	3449
523.610	1883
523.680	2756
523.749	2419
523.819	3266
523.888	716
523.958	2548
524.027	2453
524.097	2008
524.166	2521
524.236	2861
524.305	3765
524.375	2026
524.444	1130
524.514	4145
524.583	1458
524.653	1634
524.722	3369
524.791	1228
524.861	3711
524.930	1775
524.999	2215
525.069	6708
525.138	1641
525.207	1976
525.277	3136
525.346	2553
525.415	3182
525.484	3113
525.554	1293
525.623	3582
525.692	3319
525.761	4024
525.830	3579
525.900	4349
525.969	5561
526.038	10646
526.107	18710
526.176	58092
526.245	46746
526.314	19392
526.383	32653
526.452	42892
526.522	70203
526.591	76377
526.660	36482
526.729	15229
526.797	16766
526.867	48838
526.935	204474
527.004	244095
527.073	113232
527.142	8954
527.211	4954
527.280	6525
527.349	7235
527.418	1854
527.487	4209
527.555	2377
527.624	1391
527.693	2417
527.762	3536
527.831	874
527.899	2481
527.968	2622
528.037	1889
528.106	5244
528.174	10588
528.243	7324
528.312	9027
528.380	15482
528.449	3129
528.518	4075
528.586	936
528.655	4192
528.723	2037
528.792	2029
528.861	547
528.929	786
528.998	3336
529.066	1364
529.135	2663
529.203	1938
529.272	929
529.340	2855
529.409	4004
529.477	1786
529.545	583
529.614	4259
529.682	1522
529.751	3039
529.819	5203
529.887	3342
529.956	1499
530.024	3516
530.092	2260
530.161	5189
530.229	8734
530.297	4465
530.365	4339
530.434	3551
530.502	1831
530.570	4153
530.638	1571
530.707	5176
530.775	5669
530.843	2242
530.911	2532
530.979	3135
531.047	2446
531.115	3281
531.183	2932
531.252	3850
531.320	2206
531.388	2474
531.456	3050
531.524	1851
531.592	3708
531.660	5030
531.728	2570
531.796	2543
531.864	2786
531.932	4327
532.000	2818
532.067	4632
532.135	4938
532.203	6453
532.271	4822
532.339	13447
532.407	35424
532.475	20116
532.542	7638
532.610	8659
532.678	13721
532.746	67580
532.814	174287
532.881	44678
532.949	5802
533.017	4435
533.084	3940
533.152	3832
533.220	4357
533.287	5177
533.355	3192
533.423	4601
533.490	2989
533.558	4522
533.625	2931
533.693	2829
533.761	4132
533.828	4163
533.896	3027
533.963	11382
534.031	14835
534.098	22689
534.166	9023
534.233	2726
534.300	4578
534.368	4049
534.435	2730
534.503	4056
534.570	3378
534.637	3430
534.705	4818
534.772	4775
534.840	7034
534.907	29542
534.974	37600
535.041	5490
535.109	3744
535.176	3220
535.243	3616
535.310	4164
535.378	3420
535.445	3052
535.512	2504
535.579	3450
535.646	1389
535.714	2665
535.781	3931
535.848	3576
535.915	3948
535.982	2986
536.049	2501
536.116	4406
536.183	2122
536.250	3693
536.317	2618
536.384	4252
536.451	8405
536.518	10068
536.585	4526
536.652	6936
536.719	11872
536.786	9830
536.853	5532
536.920	10316
536.987	18372
537.053	23578
537.120	94523
537.187	83275
537.254	5397
537.321	3997
537.388	5027
537.454	2853
537.521	2827
537.588	2538
537.654	4058
537.721	3878
537.788	3888
537.855	3166
537.921	3254
537.988	3664
538.055	4166
538.121	3049
538.188	4456
538.254	8446
538.321	20106
538.388	11724
538.454	3828
538.521	4366
538.587	3173
538.654	3223
538.720	3065
538.787	4904
538.853	3908
538.920	5634
538.986	4626
539.053	3857
539.119	4161
539.185	5673
539.252	7506
539.318	12978
539.385	8030
539.451	3838
539.517	6220
539.583	8751
539.650	26548
539.716	77466
539.782	19091
539.849	4702
539.915	5406
539.981	4154
540.047	7045
540.114	5381
540.180	6133
540.246	5413
540.312	7647
540.378	18323
540.444	22016
540.510	29151
540.576	87729
540.643	25467
540.709	3513
540.775	4411
540.841	4325
540.907	5556
540.973	5970
541.039	7753
541.105	11456
541.171	4882
541.237	3568
541.303	4828
541.369	7082
541.435	8485
541.500	17819
541.566	10913
541.632	5081
541.698	3740
541.764	4566
541.830	4292
541.896	2985
541.961	5046
542.027	3728
542.093	5141
542.159	4678
542.224	4540
542.290	8088
542.356	17129
542.421	22663
542.487	9220
542.553	4846
542.618	4646
542.684	4831
542.750	5554
542.815	8246
542.881	17431
542.947	75651
543.012	57915
543.078	5766
543.143	4079
543.209	6031
543.274	4751
543.340	8785
543.405	28598
543.471	48080
543.536	8638
543.602	5258
543.667	3090
543.732	5971
543.798	2445
543.863	3995
543.928	3736
543.994	2939
544.059	4493
544.124	3801
544.190	3636
544.255	4518
544.320	6084
544.386	5311
544.451	9015
544.516	11883
544.581	12692
544.646	46300
544.712	78409
544.777	10886
544.842	4993
544.907	3707
544.972	4473
545.037	3232
545.102	6032
545.168	4545
545.233	5757
545.298	5875
545.363	5809
545.428	8818
545.493	24856
545.558	65257
545.623	21853
545.688	4895
545.753	5533
545.818	3089
545.883	5087
545.947	4095
546.012	5497
546.077	4085
546.142	6234
546.207	5358
546.272	10037
546.337	9300
546.401	5889
546.466	5417
546.531	4963
546.596	6184
546.661	6895
546.725	5921
546.790	5640
546.855	5999
546.919	5253
546.984	5876
547.049	6637
547.113	7757
547.178	6616
547.243	8864
547.307	9260
547.372	9516
547.436	10108
547.501	9498
547.565	11423
547.630	12943
547.695	12868
547.759	8806
547.823	9027
547.888	9230
547.952	10465
548.017	9485
548.081	11744
548.146	10546
548.210	11174
548.274	10640
548.339	10720
548.403	10642
548.468	8734
548.532	9376
548.596	9660
548.660	8535
548.725	11905
548.789	11684
548.853	12502
548.917	10434
548.982	10869
549.046	10399
549.110	7846
549.174	9181
549.238	9894
549.303	9346
549.367	12289
549.431	10558
549.495	10204
549.559	9673
549.623	12967
549.687	15132
549.751	23568
549.815	16536
549.879	14230
549.943	11894
550.007	15558
550.071	14423
550.135	19929
550.199	15336
550.263	12901
550.327	11605
550.391	12269
550.455	12475
550.519	14186
550.582	15370
550.646	23533
550.710	24718
550.774	15580
550.838	14516
550.901	16760
550.965	16838
551.029	16955
551.093	18682
551.156	21173
551.220	24993
551.284	30812
551.347	21300
551.411	19572
551.475	17309
551.538	16925
551.602	14762
551.666	14868
551.729	13328
551.793	14217
551.856	12558
551.920	13427
551.983	13135
552.047	13516
552.110	14486
552.174	12084
552.237	13923
552.301	13614
552.364	12780
552.428	12473
552.491	13102
552.554	14451
552.618	12866
552.681	15190
552.745	14613
552.808	22929
552.871	27881
552.934	17127
552.998	13164
553.061	12489
553.124	13649
553.187	13323
553.251	13798
553.314	14457
553.377	13928
553.440	18558
553.503	32571
553.567	44679
553.630	16143
553.693	13260
553.756	13312
553.819	13820
553.882	12518
553.945	12927
554.008	13203
554.071	12812
554.134	12084
554.197	11983
554.260	12459
554.323	13968
554.386	13701
554.449	12612
554.512	13334
554.575	12505
554.638	12437
554.701	12282
554.764	11965
554.827	12320
554.889	11518
554.952	11339
555.015	9701
555.078	10197
555.141	10959
555.203	10847
555.266	11068
555.329	11869
555.391	10889
555.454	11546
555.517	10989
555.580	10324
555.642	9561
555.705	8938
555.768	10298
555.830	9017
555.893	8466
555.955	9538
556.018	8985
556.080	9084
556.143	8872
556.206	9485
556.268	9296
556.330	9852
556.393	9727
556.455	9243
556.518	9406
556.580	9918
556.643	8359
556.705	8664
556.767	8350
556.830	9152
556.892	10564
556.955	17875
557.017	12657
557.079	9267
557.142	9086
557.204	12142
557.266	24728
557.328	18116
557.391	7354
557.453	7492
557.515	8310
557.577	10906
557.639	11634
557.701	8702
557.764	6356
557.826	7885
557.888	7908
557.950	8663
558.012	9408
558.074	11672
558.136	24438
558.198	55249
558.260	20020
558.322	8865
558.384	10757
558.446	11111
558.508	12305
558.570	16905
558.632	32269
558.694	50720
558.756	41810
558.818	115084
558.880	261068
558.942	74200
559.003	57476
559.065	28062
559.127	12454
559.189	13507
559.251	14166
559.312	22949
559.374	53105
559.436	168478
559.498	74793
559.559	13579
559.621	12388
559.683	16009
559.744	25160
559.806	80489
559.868	111746
559.929	20484
559.991	13936
560.052	21037
560.114	53447
560.176	34375
560.237	34316
560.299	52622
560.360	12060
560.422	7112
560.483	6856
560.545	6783
560.606	5438
560.667	5641
560.729	5918
560.790	6352
560.852	5716
560.913	5802
560.974	6656
561.036	5940
561.097	5523
561.158	5865
561.220	6837
561.281	6578
561.342	7473
561.403	10517
561.465	14153
561.526	36737
561.587	44347
561.648	10295
561.709	6877
561.771	6556
561.832	6256
561.893	7301
561.954	6880
562.015	6783
562.076	6941
562.137	6222
562.198	6015
562.259	7906
562.320	6700
562.381	8596
562.442	13587
562.503	9895
562.564	6053
562.625	7565
562.686	6964
562.747	7238
562.808	6549
562.869	6038
562.930	7480
562.991	6910
563.051	6360
563.112	6815
563.173	6471
563.234	6310
563.294	6980
563.355	7231
563.416	7456
563.477	6396
563.537	6508
563.598	7083
563.659	7014
563.720	6399
563.780	7623
563.841	7701
563.901	6713
563.962	6720
564.023	6449
564.083	6923
564.144	6684
564.204	5884
564.265	7348
564.325	7187
564.386	6510
564.446	6851
564.507	6425
564.567	6624
564.628	6123
564.688	6678
564.749	5926
564.809	7702
564.869	7365
564.930	7009
564.990	7692
565.050	8103
565.111	7450
565.171	6855
565.231	6906
565.292	8483
565.352	5796
565.412	8210
565.472	7420
565.532	7927
565.593	6651
565.653	7365
565.713	7062
565.773	9053
565.833	10562
565.893	14442
565.953	6756
566.013	7097
566.074	7892
566.134	7663
566.194	8747
566.254	10405
566.314	8304
566.374	6832
566.434	7099
566.494	7497
566.554	8241
566.614	7953
566.673	6575
566.733	7768
566.793	7061
566.853	7293
566.913	7301
566.973	8081
567.033	6849
567.092	7964
567.152	7317
567.212	8232
567.272	6665
567.331	6815
567.391	5914
567.451	7327
567.511	7534
567.570	8299
567.630	7105
567.690	6615
567.749	6626
567.809	8075
567.868	7861
567.928	7176
567.988	7142
568.047	7579
568.107	8662
568.166	9746
568.226	9903
568.285	14158
568.345	10944
568.404	10323
568.464	7952
568.523	8465
568.582	8745
568.642	10144
568.701	10996
568.761	12546
568.820	17383
568.879	17037
568.939	12698
568.998	9657
569.057	7299
569.116	8972
569.176	7528
569.235	6586
569.294	6489
569.353	7672
569.413	7112
569.472	8166
569.531	6292
569.590	6836
569.649	7088
569.708	5858
569.767	6922
569.827	8497
569.886	6266
569.945	6622
570.004	6833
570.063	7659
570.122	7639
570.181	8399
570.240	6548
570.299	6930
570.358	7820
570.417	6586
570.475	7007
570.534	8353
570.593	7943
570.652	7370
570.711	7536
570.770	6859
570.829	6652
570.887	8698
570.946	8902
571.005	7008
571.064	7182
571.122	7521
571.181	5946
571.240	6492
571.299	5546
571.357	6311
571.416	6571
571.475	7038
571.533	6657
571.592	6473
571.650	5835
571.709	6298
571.768	6277
571.826	6737
571.885	5873
571.943	7177
572.002	5683
572.060	6318
572.119	6072
572.177	5548
572.236	5145
572.294	5606
572.352	6008
572.411	6263
572.469	5830
572.528	5310
572.586	5897
572.644	6305
572.703	7235
572.761	7220
572.819	4986
572.877	5082
572.936	5791
572.994	5703
573.052	5342
573.110	5398
573.169	5813
573.227	6134
573.285	5508
573.343	5431
573.401	5339
573.459	5989
573.517	5165
573.576	5852
573.634	6054
573.692	6128
573.750	5182
573.808	5468
573.866	5358
573.924	4721
573.982	5095
574.040	5633
574.098	4717
574.155	5523
574.213	4769
574.271	5143
574.329	4968
574.387	5251
574.445	4262
574.503	4076
574.560	3830
574.618	5172
574.676	4779
574.734	5175
574.792	5012
574.849	5085
574.907	3707
574.965	4331
575.022	5092
575.080	5452
575.138	5222
575.195	5263
575.253	5255
575.311	5409
575.368	5028
575.426	4656
575.483	5022
575.541	5058
575.598	4571
575.656	5348
575.713	4791
575.771	4658
575.828	3883
575.886	4614
575.943	5325
576.001	4393
576.058	4772
576.115	5346
576.173	5528
576.230	6449
576.287	6687
576.345	6459
576.402	4961
576.459	4687
576.517	3875
576.574	4969
576.631	4925
576.688	4595
576.746	3667
576.803	4946
576.860	4157
576.917	4510
576.974	4405
577.031	5337
577.089	4827
577.146	4181
577.203	3761
577.260	4858
577.317	4030
577.374	4957
577.431	3953
577.488	4957
577.545	3751
577.602	5693
577.659	4278
577.716	4902
577.773	5536
577.830	4218
577.886	4220
577.943	4970
578.000	4266
578.057	4633
578.114	4930
578.171	7217
578.227	6697
578.284	5464
578.341	5015
578.398	3826
578.454	5298
578.511	5081
578.568	5557
578.625	4138
578.681	4033
578.738	4911
578.794	4104
578.851	6022
578.908	5435
578.964	7251
579.021	6965
579.077	6164
579.134	5608
579.190	5058
579.247	5138
579.303	5215
579.360	4970
579.416	5479
579.473	4964
579.529	5160
579.586	5226
579.642	5457
579.698	4720
579.755	5824
579.811	5007
579.867	5012
579.924	4608
579.980	4496
580.036	6064
580.093	5843
580.149	6422
580.205	5397
580.261	5111
580.317	5669
580.374	5319
580.430	5897
580.486	5588
580.542	5639
580.598	4762
580.619	5498
580.654	6771
580.692	6080
580.710	5728
580.765	6496
580.767	6516
580.823	5336
580.838	5481
580.879	5815
580.911	5898
580.935	5952
580.984	5665
580.991	5621
581.047	5732
581.057	5699
581.103	5466
581.130	5605
581.159	5747
581.203	6713
581.215	6957
581.270	5134
581.276	5224
581.326	6030
581.349	5573
581.382	4864
581.422	6046
581.438	6518
581.494	6316
581.494	6326
581.550	6512
581.567	6518
581.606	6497
581.640	6576
581.661	6621
581.713	7530
581.717	7589
581.773	6132
581.786	6156
581.829	6264
581.859	7087
581.885	7798
581.932	6899
581.940	6712
581.996	8304
582.004	8187
582.052	7336
582.077	7400
582.107	7564
582.150	7062
582.163	6863
582.219	7777
582.223	7784
582.274	7948
582.296	8262
582.330	8673
582.368	8173
582.386	7974
582.441	8835
582.441	8829
582.497	8042
582.514	8140
582.552	8549
582.587	8506
582.608	8220
582.659	8305
582.663	8334
582.719	9604
582.732	9444
582.774	8794
582.805	8837
582.830	8882
582.877	9346
582.885	9451
582.941	9998
582.950	10008
582.996	10008
583.023	10398
583.052	10820
583.095	10681
583.107	10635
583.162	10368
583.168	10480
583.218	10876
583.240	11086
583.273	11690
583.313	11789
583.328	11765
583.384	10938
583.385	10940
583.439	11006
583.458	10951
583.494	10855
583.531	10496
583.549	10435
583.603	10914
583.605	10926
583.660	12092
583.676	11873
583.715	11310
583.748	11656
583.770	11912
583.820	12031
583.825	12056
583.881	12336
583.893	12191
583.936	11605
583.965	11937
583.991	12249
584.038	12290
584.046	12282
584.101	11985
584.110	11994
584.156	12640
584.183	12820
584.211	12738
584.255	12977
584.266	13117
584.321	13182
584.328	13244
584.376	13791
584.400	14038
584.431	14346
584.472	14089
584.486	14057
584.541	14405
584.545	14401
584.596	14522
584.617	14563
584.651	15010
584.689	15298
584.706	15336
584.761	16013
584.762	15987
584.816	15784
584.834	16142
584.871	16842
584.906	16497
584.926	16322
584.978	16833
584.980	16900
585.035	17837
585.051	18094
585.090	18797
585.123	19137
585.145	19218
585.195	19280
585.200	19400
585.254	19823
585.267	20297
585.309	22075
585.340	22370
585.364	22075
585.412	22846
585.419	23119
585.473	25012
585.484	25373
585.528	28492
585.556	31877
585.583	39446
585.628	54726
585.637	60748
585.692	109765
585.700	117490
585.747	138140
585.772	119911
585.801	76495
585.845	33389
585.856	30317
585.910	26124
585.917	25553
585.965	24125
585.989	23077
586.019	22968
586.061	23869
586.074	23998
586.128	23710
586.133	23680
586.183	24282
586.205	24051
586.237	23591
586.277	23334
586.292	23583
586.346	23596
586.349	23592
586.401	24348
586.421	24219
586.455	24068
586.493	24497
586.509	24865
586.564	24619
586.565	24572
586.618	25997
586.637	26228
586.672	27161
586.709	27841
586.727	28269
586.781	29942
586.781	30027
586.835	29665
586.853	29350
586.889	28562
586.925	27914
586.944	28114
586.996	28778
586.998	28900
587.052	29911
587.068	30127
587.106	30596
587.140	30824
587.161	30863
587.212	30235
587.215	30391
587.269	32692
587.284	32937
587.323	32546
587.356	32368
587.377	33219
587.427	35047
587.431	35174
587.485	35186
587.499	34963
587.539	35806
587.571	36273
587.593	36369
587.643	37125
587.648	37350
587.702	37469
587.715	37521
587.755	39340
587.786	40479
587.810	40820
587.858	40923
587.864	41344
587.917	44273
587.930	44867
587.971	45919
588.001	46242
588.025	47505
588.073	49336
588.079	49851
588.133	53478
588.145	54128
588.187	57777
588.217	59915
588.241	62810
588.288	68219
588.295	69343
588.348	77052
588.360	78313
588.402	84795
588.431	89039
588.456	94345
588.503	103911
588.510	106240
588.564	122832
588.575	126134
588.617	145096
588.646	157505
588.671	176515
588.718	213281
588.725	226725
588.778	331961
588.789	353888
588.832	587046
588.861	750532
588.886	1001266
588.932	1491073
588.939	1514469
588.993	1610739
589.004	1605752
589.047	1116194
589.075	791767
589.100	622429
589.147	324986
589.154	315453
589.207	238224
589.218	221723
589.261	210891
589.290	203589
589.314	216723
589.361	242417
589.368	258690
589.421	390005
589.433	418136
589.475	732791
589.504	959412
589.528	1157696
589.576	1529800
589.582	1484969
589.635	953776
589.647	837478
589.689	490696
589.718	254544
589.742	215516
589.790	136885
589.795	134253
589.849	105635
589.861	98769
589.902	89614
589.932	81862
589.955	78815
590.004	71697
590.009	71657
590.062	68246
590.075	67069
590.115	64636
590.146	62285
590.168	62025
590.218	60711
590.222	60968
590.275	61075
590.289	60772
590.328	59251
590.360	57634
590.381	57682
590.431	56729
590.435	56914
590.488	56185
590.503	55740
590.541	56745
590.574	57102
590.594	57055
590.645	56046
590.647	56283
590.700	56272
590.716	55911
590.753	55989
590.787	55874
590.806	56092
590.859	55512
590.859	55759
590.912	56097
590.930	55951
590.965	56784
591.001	57098
591.018	57888
591.071	59496
591.072	59248
591.124	59516
591.143	59190
591.177	60045
591.214	60599
591.230	61469
591.283	63234
591.285	63026
591.336	61876
591.356	61019
591.389	60694
591.427	59539
591.442	59904
591.495	60317
591.498	60084
591.547	58772
591.569	57783
591.600	58489
591.640	58696
591.653	59057
591.706	59614
591.711	59411
591.759	60375
591.782	60305
591.811	61092
591.853	61756
591.864	62336
591.917	63734
591.924	63641
591.969	64001
591.995	63774
592.022	64159
592.066	63965
592.075	64073
592.127	62908
592.137	62403
592.180	62510
592.208	62114
592.233	62605
592.279	62718
592.285	63213
592.338	64887
592.350	64968
592.390	64546
592.421	63709
592.443	63781
592.491	62963
592.495	63307
592.548	63986
592.562	63872
592.600	63796
592.633	63184
592.653	63717
592.704	63971
592.705	64333
592.775	63803
592.846	64192
592.916	66506
592.987	66039
593.058	64064
593.128	62009
593.199	64718
593.270	63281
593.341	64286
593.411	64067
593.482	65811
593.553	65961
593.623	64167
593.694	65009
593.764	64178
593.835	64132
593.906	64392
593.976	64762
594.047	64885
594.117	65877
594.188	65159
594.258	64877
594.329	65042
594.399	65919
594.470	64798
594.540	66108
594.611	66613
594.681	65957
594.751	64396
594.822	67557
594.892	67700
594.963	67085
595.033	69479
595.103	71223
595.174	69293
595.244	70530
595.314	70868
595.384	70351
595.455	71042
595.525	72554
595.595	75238
595.665	75763
595.736	74732
595.806	74876
595.876	74982
595.946	74658
596.016	75142
596.087	77382
596.157	76743
596.227	77991
596.297	80347
596.367	82564
596.437	85276
596.507	83761
596.577	84395
596.647	86467
596.717	88935
596.787	89331
596.857	88978
596.927	90302
596.997	89713
597.067	91108
597.137	95542
597.207	95213
597.277	94073
597.347	91842
597.417	92482
597.487	95150
597.557	96155
597.626	95534
597.696	95758
597.766	95281
597.836	93482
597.906	88885
597.975	88538
598.045	88944
598.115	90052
598.185	94437
598.254	102141
598.324	108166
598.394	109486
598.464	106907
598.533	104769
598.603	101750
598.672	99275
598.742	100916
598.812	101318
598.881	103262
598.951	102530
599.020	102499
599.090	106808
599.159	108338
599.229	105977
599.299	104056
599.368	108221
599.437	106419
599.507	100646
599.576	102314
599.646	103322
599.715	103787
599.785	98384
599.854	98728
599.924	98036
599.993	98078
600.062	101800
600.132	102040
600.201	106687
600.270	118543
600.340	121419
600.409	119935
600.478	118947
600.547	121931
600.617	117801
600.686	106064
600.755	103783
600.824	102104
600.894	101216
600.963	101768
601.032	103667
601.101	103261
601.170	102492
601.239	101569
601.308	105381
601.378	106418
601.447	105852
601.516	108138
601.585	112203
601.654	115138
601.723	114614
601.792	117603
601.861	121762
601.930	127264
601.999	130471
602.068	126556
602.137	129309
602.206	128893
602.275	128319
602.343	133001
602.412	133599
602.481	130985
602.550	132074
602.619	134171
602.688	134817
602.756	137618
602.825	135713
602.894	137702
602.963	135660
603.032	137803
603.100	138780
603.169	136610
603.238	141217
603.307	136140
603.375	137451
603.444	144574
603.513	135879
603.581	139678
603.650	145722
603.719	126018
603.787	121504
603.856	125834
603.924	129331
603.993	131534
604.061	134644
604.130	137896
604.198	142415
604.267	144632
604.335	145055
604.404	144705
604.472	149259
604.541	149990
604.609	152523
604.678	156972
604.746	160121
604.815	166342
604.883	160680
604.951	157797
605.020	162678
605.088	151573
605.156	147623
605.225	147955
605.293	147317
605.361	148560
605.429	146778
605.498	150268
605.566	150065
605.634	157029
605.702	155008
605.771	158362
605.839	164392
605.907	151608
605.975	156816
606.043	150909
606.111	147551
606.180	158649
606.248	148240
606.316	148365
606.384	154743
606.452	134856
606.520	129461
606.588	124359
606.656	122391
606.724	118089
606.792	115161
606.860	103229
606.928	95418
606.996	92663
607.064	92516
607.132	94871
607.200	99781
607.267	102073
607.335	104418
607.403	106178
607.471	101793
607.539	99995
607.607	101986
607.674	91601
607.742	92396
607.810	90164
607.878	90267
607.946	93316
608.013	95323
608.081	97782
608.149	98704
608.216	99064
608.284	103191
608.352	101652
608.419	99506
608.487	100052
608.555	97216
608.622	99555
608.690	105319
608.757	111371
608.825	114808
608.893	111489
608.960	108023
609.028	104259
609.095	103225
609.163	102368
609.230	93700
609.298	88192
609.365	93349
609.432	99892
609.500	107594
609.567	120371
609.635	136623
609.702	139085
609.769	133578
609.837	104332
609.904	93997
609.971	93173
610.039	102261
610.106	122067
610.173	197772
610.241	400881
610.308	241512
610.375	125792
610.442	99457
610.509	94109
610.577	95597
610.644	98267
610.711	101338
610.778	105021
610.845	108386
610.912	115316
610.980	119351
611.047	125434
611.114	116158
611.181	108905
611.248	108704
611.315	114567
611.382	115097
611.449	119831
611.516	121682
611.583	119506
611.650	120516
611.717	122692
611.784	123540
611.851	127834
611.918	133045
611.984	148719
612.051	195388
612.118	351340
612.185	783256
612.252	457052
612.319	161628
612.386	146796
612.452	138933
612.519	133046
612.586	130793
612.653	133754
612.719	138745
612.786	133271
612.853	124841
612.919	122223
612.986	124192
613.053	117851
613.120	112460
613.186	107094
613.253	110247
613.319	109304
613.386	109412
613.453	111603
613.519	117239
613.586	121937
613.652	138554
613.719	127060
613.785	121205
613.852	114320
613.918	110160
613.985	115502
614.051	124628
614.118	139271
614.184	131236
614.250	111948
614.317	114696
614.383	111876
614.449	114952
614.516	114202
614.582	114404
614.648	111836
614.715	113135
614.781	108412
614.847	110189
614.914	109082
614.980	107674
615.046	106927
615.112	109120
615.179	108917
615.245	110945
615.311	111672
615.377	114241
615.443	115023
615.509	113285
615.575	115419
615.642	114149
615.708	117550
615.774	121516
615.840	125182
615.906	131399
615.972	155916
616.038	220141
616.104	417020
616.170	926738
616.236	710364
616.302	201128
616.368	161321
616.434	131189
616.500	126522
616.565	134177
616.631	151035
616.697	131171
616.763	135350
616.829	179247
616.895	274578
616.961	248534
617.026	133602
617.092	113051
617.158	113471
617.224	113282
617.289	106965
617.355	101304
617.421	100276
617.487	102706
617.552	98511
617.618	98255
617.684	97891
617.749	100233
617.815	95579
617.880	94852
617.946	96318
618.012	100483
618.077	100924
618.143	97116
618.208	98409
618.274	103963
618.339	104915
618.405	90237
618.470	88705
618.536	89844
618.601	89383
618.667	83787
618.732	82988
618.798	80792
618.863	81326
618.928	82502
618.994	83279
619.059	86628
619.124	100369
619.190	86645
619.255	78470
619.320	80176
619.386	80289
619.451	78225
619.516	78130
619.581	79555
619.647	80820
619.712	79710
619.777	79959
619.842	79217
619.907	80274
619.972	82188
620.038	80082
620.103	78477
620.168	77440
620.233	80094
620.298	78585
620.363	81039
620.428	83145
620.493	85399
620.558	83683
620.623	85323
620.688	85594
620.753	83658
620.818	85110
620.883	85998
620.948	85118
621.013	84627
621.078	82987
621.143	81387
621.207	85844
621.272	86138
621.337	82494
621.402	82574
621.467	83741
621.532	81570
621.596	81022
621.661	80285
621.726	78390
621.791	81764
621.855	85775
621.920	85685
621.985	83664
622.049	84095
622.114	82889
622.179	86200
622.243	86137
622.308	88593
622.373	90322
622.437	90806
622.502	86901
622.566	85852
622.631	84777
622.695	89202
622.760	88267
622.824	89585
622.889	89491
622.953	94193
623.018	111472
623.082	107199
623.147	93356
623.211	91989
623.276	91516
623.340	86658
623.404	85426
623.469	85639
623.533	86496
623.597	84767
623.662	85084
623.726	80317
623.790	76502
623.854	76074
623.919	77358
623.983	76759
624.047	76913
624.111	79042
624.176	80699
624.240	81367
624.304	85293
624.368	79799
624.432	79793
624.496	80281
624.560	87035
624.625	86478
624.689	83689
624.753	86153
624.817	82227
624.881	80248
624.945	75680
625.009	73752
625.073	75741
625.137	79220
625.201	89967
625.265	89461
625.329	78653
625.393	80266
625.456	77691
625.520	78513
625.584	79798
625.648	83339
625.712	81367
625.776	80739
625.839	79316
625.903	70001
625.967	66054
626.031	72112
626.095	77332
626.158	73031
626.222	61497
626.286	61346
626.349	57961
626.413	57468
626.477	59811
626.540	57793
626.604	55911
626.668	56807
626.731	56133
626.795	55168
626.858	54730
626.922	53857
626.986	54774
627.049	53659
627.113	54996
627.176	54876
627.240	53283
627.303	53441
627.366	51889
627.430	54123
627.493	52889
627.557	52656
627.620	54537
627.684	53717
627.747	52224
627.810	50084
627.874	48389
627.937	45905
628.000	50329
628.064	49927
628.127	41812
628.190	44482
628.253	42547
628.317	41331
628.380	41492
628.443	40374
628.506	41209
628.569	41329
628.632	38256
628.696	37834
628.759	38419
628.822	39113
628.885	37036
628.948	37856
629.011	37866
629.074	36933
629.137	35430
629.200	35294
629.263	35972
629.326	34474
629.389	35081
629.452	35341
629.515	33619
629.578	34992
629.641	34400
629.704	34504
629.767	37726
629.830	35808
629.892	34190
629.955	34644
630.018	36426
630.081	36844
630.144	39816
630.207	34946
630.269	36154
630.332	34326
630.395	32687
630.458	34352
630.520	32248
630.583	32393
630.646	32631
630.708	32129
630.771	31451
630.834	33894
630.896	32953
630.959	32804
631.021	31645
631.084	31584
631.146	33036
631.209	32955
631.272	30456
631.334	31493
631.397	30994
631.459	31511
631.522	31652
631.584	32409
631.646	32194
631.709	34369
631.771	37281
631.834	33495
631.896	32348
631.958	30721
632.021	33571
632.083	29882
632.145	30868
632.208	31050
632.270	32660
632.332	29434
632.395	28929
632.457	30332
632.519	28746
632.581	31015
632.643	28346
632.706	29704
632.768	29163
632.830	30160
632.892	29109
632.954	29216
633.016	30913
633.078	30162
633.141	28596
633.203	28898
633.265	31039
633.327	29559
633.389	29366
633.451	32741
633.513	34699
633.575	31002
633.637	31320
633.698	31405
633.760	29351
633.822	30231
633.884	29686
633.946	29905
634.008	29718
634.070	29517
634.132	32956
634.193	30367
634.255	30763
634.317	30618
634.379	32317
634.441	28792
634.502	28710
634.564	28636
634.626	27161
634.687	27472
634.749	27208
634.811	28151
634.873	26188
634.934	25805
634.996	27817
635.057	26209
635.119	26219
635.181	26370
635.242	28057
635.304	25879
635.365	29231
635.427	26780
635.488	26801
635.550	25062
635.611	26274
635.673	24821
635.734	28108
635.796	27174
635.857	28412
635.918	27272
635.980	28999
636.041	27637
636.102	28884
636.164	29339
636.225	29180
636.286	25248
636.348	25908
636.409	25486
636.470	25018
636.531	26154
636.593	24502
636.654	25501
636.715	24413
636.776	24554
636.838	24166
636.899	23576
636.960	23586
637.021	24117
637.082	24264
637.143	24657
637.204	21581
637.265	22229
637.326	23609
637.387	23730
637.448	21888
637.509	23941
637.570	22765
637.631	24111
637.692	22347
637.753	21473
637.814	23044
637.875	23033
637.936	23730
637.997	22040
638.058	22283
638.119	22411
638.179	22047
638.240	22494
638.301	22986
638.362	20944
638.423	21088
638.483	22630
638.544	20116
638.605	21958
638.666	20064
638.726	21456
638.787	20969
638.848	22011
638.908	20549
638.969	21316
639.030	20960
639.090	19893
639.151	20849
639.211	23381
639.272	26029
639.332	37165
639.393	23986
639.453	20036
639.514	20387
639.574	20310
639.635	18911
639.695	21262
639.756	19052
639.816	20859
639.877	22054
639.937	30259
639.997	32722
640.058	20019
640.118	19079
640.178	20174
640.239	18683
640.299	18620
640.359	18307
640.420	18757
640.480	19919
640.540	19560
640.600	20152
640.661	20161
640.721	18909
640.781	23086
640.841	18596
640.901	19847
640.961	19459
641.021	20230
641.082	20250
641.142	25225
641.202	21292
641.262	16226
641.322	19433
641.382	17086
641.442	19854
641.502	18539
641.562	18292
641.622	17944
641.682	17969
641.742	18393
641.802	18437
641.861	17980
641.921	17501
641.981	18917
642.041	20253
642.101	23889
642.161	18267
642.221	16087
642.280	16629
642.340	16525
642.400	15971
642.460	18409
642.519	16444
642.579	17109
642.639	18612
642.698	15093
642.758	20218
642.818	17421
642.877	17428
642.937	18065
642.997	22190
643.056	27612
643.116	18757
643.175	19328
643.235	18124
643.294	17619
643.354	18913
643.414	18841
643.473	20268
643.532	21783
643.592	26044
643.651	36279
643.711	57468
643.770	105345
643.830	247567
643.889	485299
643.948	106519
644.008	28030
644.067	21207
644.126	18586
644.186	17907
644.245	17578
644.304	15229
644.363	18505
644.423	14840
644.482	15999
644.541	15762
644.600	14997
644.659	18301
644.719	19100
644.778	24065
644.837	34383
644.896	64169
644.955	129472
645.014	45363
645.073	21170
645.132	17002
645.191	16782
645.250	15746
645.309	18480
645.368	17270
645.427	19240
645.486	22769
645.545	33078
645.604	17037
645.663	16003
645.722	15454
645.781	16369
645.840	17665
645.898	19604
645.957	24078
646.016	30763
646.075	53246
646.134	97433
646.192	256579
646.251	340196
646.310	51342
646.369	22070
646.427	19346
646.486	17310
646.545	16122
646.603	16243
646.662	15506
646.721	15459
646.779	13911
646.838	14747
646.896	17177
646.955	18617
647.014	23836
647.072	36531
647.131	85242
647.189	40425
647.248	14857
647.306	14981
647.365	13586
647.423	12120
647.481	13618
647.540	11345
647.598	12605
647.657	12558
647.715	12992
647.773	12069
647.832	13230
647.890	11104
647.948	11928
648.007	11936
648.065	11330
648.123	12600
648.181	13724
648.240	14989
648.298	12967
648.356	11603
648.414	11695
648.472	12022
648.531	12216
648.589	11464
648.647	11595
648.705	10960
648.763	10539
648.821	11466
648.879	11263
648.937	12615
648.995	12887
649.053	13541
649.111	19024
649.169	27795
649.227	43301
649.285	83597
649.343	223404
649.401	99599
649.459	43800
649.516	28060
649.574	16061
649.632	25094
649.690	25442
649.748	18694
649.806	23365
649.863	38410
649.921	62683
649.979	38035
650.037	12987
650.094	10442
650.152	11337
650.210	10751
650.268	10827
650.325	10987
650.383	11097
650.440	9743
650.498	10140
650.556	10090
650.613	9643
650.671	10253
650.728	9597
650.786	10511
650.843	11140
650.901	9215
650.958	9386
651.016	9248
651.073	9485
651.131	9105
651.188	7885
651.246	9787
651.303	8971
651.360	9524
651.418	9188
651.475	9831
651.532	8181
651.590	9565
651.647	8260
651.704	9155
651.762	9819
651.819	10188
651.876	8826
651.933	9794
651.990	9585
652.048	8087
652.105	8413
652.162	9163
652.219	8229
652.276	8957
652.333	8164
652.390	7938
652.448	8959
652.505	9357
652.562	8910
652.619	10228
652.676	13065
652.733	13961
652.790	9591
652.847	7520
652.904	9313
652.961	8009
653.017	7822
653.074	9139
653.131	8247
653.188	7880
653.245	8919
653.302	9012
653.359	8487
653.415	9629
653.472	8432
653.529	8809
653.586	7249
653.642	7996
653.699	9584
653.756	8270
653.813	8282
653.869	8682
653.926	7018
653.983	7752
654.039	8147
654.096	7594
654.152	8754
654.209	7465
654.266	8404
654.322	7817
654.379	8314
654.435	9139
654.492	8156
654.548	10384
654.605	12071
654.661	9603
654.717	7896
654.774	8359
654.830	8300
654.887	8291
654.943	7895
655.000	7692
655.056	7740
655.112	8027
655.168	6702
655.225	7995
655.281	8501
655.337	7933
655.394	6580
655.450	7007
655.506	7520
655.562	7072
655.618	8397
655.675	6864
655.731	8539
655.787	6957
655.843	7190
655.899	7000
655.955	7436
656.011	7835
656.067	6541
656.123	8512
656.179	6984
656.235	8903
656.291	5885
656.347	7949
656.403	6656
656.459	6578
656.515	7228
656.571	8000
656.627	7965
656.683	8243
656.739	8787
656.795	8283
656.850	8206
656.906	8827
656.962	8703
657.018	7399
657.074	7660
657.129	9432
657.185	11319
657.241	16526
657.297	10815
657.352	8781
657.408	7025
657.464	8735
657.519	7645
657.575	7106
657.630	7713
657.686	7482
657.742	7315
657.797	7671
657.853	6003
657.908	7528
657.964	6723
658.019	7761
658.075	7485
658.130	8047
658.186	7078
658.241	8324
658.297	6711
658.352	7180
658.407	7194
658.463	6679
658.518	7493
658.573	7931
658.629	6583
658.684	6991
658.739	7692
658.795	7582
658.850	7214
658.905	7348
658.960	8013
659.016	6575
659.071	7517
659.126	8526
659.181	8104
659.236	13597
659.291	12911
659.346	9043
659.401	8101
659.457	9476
659.512	10214
659.567	8859
659.622	7260
659.677	6903
659.732	5879
659.787	7102
659.842	6450
659.897	6965
659.952	6691
660.007	7386
660.061	7279
660.116	6331
660.171	6955
660.226	7656
660.281	7199
660.336	6448
660.391	7775
660.445	6849
660.500	7665
660.555	7944
660.610	6728
660.664	7376
660.719	5751
660.774	7067
660.828	6776
660.883	7752
660.938	7422
660.992	6867
661.047	7419
661.101	6255
661.156	6267
661.211	5953
661.265	6260
661.320	7019
661.374	6749
661.429	6346
661.483	8098
661.538	6494
661.592	6505
661.647	7355
661.701	6885
661.755	6932
661.810	7315
661.864	6128
661.919	6435
661.973	7204
662.027	6876
662.081	5334
662.136	6289
662.190	7238
662.244	6923
662.299	6928
662.353	6742
662.407	6041
662.461	6567
662.515	7275
662.569	5738
662.624	7483
662.678	6947
662.732	6784
662.786	5777
662.840	6210
662.894	6635
662.948	7114
663.002	5858
663.056	6672
663.110	5255
663.164	6246
663.218	7146
663.272	7044
663.326	7233
663.380	6525
663.434	6463
663.488	6098
663.542	6462
663.595	5307
663.649	5471
663.703	5504
663.757	6415
663.811	5955
663.864	5744
663.918	6895
663.972	5968
664.026	6516
664.079	6443
664.133	6284
664.187	5622
664.240	6072
664.294	5381
664.348	7031
664.401	6042
664.455	6388
664.508	5589
664.562	5464
664.615	5985
664.669	6194
664.722	6025
664.776	6033
664.829	6379
664.883	5913
664.936	5146
664.990	6409
665.043	5942
665.097	5933
665.150	7213
665.203	5997
665.257	6788
665.310	5097
665.363	6534
665.417	6006
665.470	5675
665.523	5976
665.576	5578
665.630	4956
665.683	6146
665.736	5929
665.789	5839
665.842	4644
665.895	5957
665.949	7019
666.002	5539
666.055	4817
666.108	6337
666.161	5755
666.214	6041
666.267	7058
666.320	6312
666.373	6568
666.426	5961
666.479	5363
666.532	5809
666.585	5483
666.638	5498
666.691	5991
666.744	5360
666.796	4026
666.849	5828
666.902	6062
666.955	5729
667.008	5293
667.060	5222
667.113	5515
667.166	5917
667.219	5971
667.271	5730
667.324	6437
667.377	6440
667.430	6028
667.482	6839
667.535	6628
667.587	6241
667.640	6246
667.693	7495
667.745	11395
667.798	10757
667.850	6235
667.903	6191
667.955	5195
668.008	5223
668.060	5657
668.113	5333
668.165	5790
668.218	5856
668.270	5843
668.322	5068
668.375	6106
668.427	5837
668.479	5183
668.532	5479
668.584	5293
668.636	4946
668.689	5591
668.741	4763
668.793	5690
668.845	4729
668.898	5707
668.950	5527
669.002	5247
669.054	4580
669.106	4831
669.158	5804
669.211	5035
669.263	5756
669.315	7248
669.367	6133
669.419	5053
669.471	6062
669.523	5575
669.575	6170
669.627	4556
669.679	5059
669.731	5513
669.783	5573
669.835	5949
669.886	5172
669.938	5657
669.990	5100
670.042	4837
670.094	5949
670.146	5767
670.197	6469
670.249	7245
670.301	7363
670.353	9532
670.404	12509
670.456	16885
670.508	26228
670.560	44274
670.611	76738
670.663	138343
670.715	345161
670.766	486149
670.818	109090
670.869	22030
670.921	13531
670.972	11267
671.024	8963
671.075	7285
671.127	6653
671.178	6656
671.230	5994
671.281	6742
671.333	6030
671.384	5113
671.436	5886
671.487	8604
671.538	7898
671.590	10177
671.641	13656
671.692	21304
671.744	37525
671.795	20638
671.846	8507
671.897	6802
671.949	5655
672.000	4810
672.051	5494
672.102	6472
672.153	5161
672.204	4723
672.256	4926
672.307	5168
672.358	5453
672.409	4754
672.460	4686
672.511	4738
672.562	4150
672.613	4325
672.664	4615
672.715	5146
672.766	3990
672.817	4707
672.868	4502
672.919	4281
672.970	3951
673.021	4232
673.071	4087
673.122	5030
673.173	4166
673.224	4688
673.275	4123
673.326	4430
673.376	3382
673.427	3954
673.478	3688
673.528	4319
673.579	4564
673.630	4722
673.680	3852
673.731	3840
673.782	3539
673.832	3593
673.883	3843
673.934	3961
673.984	4042
674.035	3246
674.085	3624
674.136	3833
674.186	3572
674.237	3978
674.287	3596
674.338	4028
674.388	3453
674.438	3739
674.489	3918
674.539	4220
674.589	3776
674.640	3928
674.690	3272
674.740	3377
674.791	4563
674.841	3439
674.891	3821
674.942	3998
674.992	3611
675.042	3329
675.092	3077
675.142	3050
675.193	2755
675.243	3522
675.293	3498
675.343	3545
675.393	3727
675.443	4099
675.493	3663
675.543	4252
675.593	3536
675.643	3568
675.693	4123
675.743	3375
675.793	3622
675.843	3740
675.893	3443
675.943	4282
675.993	3486
676.043	3522
676.093	3988
676.142	3283
676.192	3737
676.242	3148
676.292	2782
676.341	3034
676.391	3024
676.441	2759
676.491	3197
676.540	3276
676.590	3344
676.640	3452
676.689	3317
676.739	2948
676.789	3201
676.838	3400
676.888	3102
676.937	3868
676.987	3318
677.037	3573
677.086	2854
677.136	3200
677.185	2886
677.235	3360
677.284	3245
677.333	3109
677.383	2493
677.432	2626
677.482	2892
677.531	3330
677.580	2681
677.630	2995
677.679	3465
677.728	3024
677.778	3331
677.827	4017
677.876	2977
677.925	2660
677.975	2840
678.024	2794
678.073	2934
678.122	2910
678.171	3068
678.220	2643
678.269	3781
678.319	2689
678.368	1761
678.417	2712
678.466	2745
678.515	2434
678.564	2517
678.613	2456
678.662	3119
678.711	3674
678.760	2981
678.809	3354
678.857	2554
678.906	2823
678.955	2573
679.004	3414
679.053	2407
679.102	2396
679.151	2054
679.199	2407
679.248	2544
679.297	3174
679.346	3473
679.394	1938
679.443	2902
679.492	2882
679.540	2882
679.589	2762
679.638	2487
679.686	2772
679.735	2539
679.784	2090
679.832	1971
679.881	2344
679.929	2878
679.978	2977
680.026	2923
680.075	2865
680.123	2362
680.172	2412
680.220	2710
680.268	2731
680.317	2876
680.365	2783
680.414	1706
680.462	2537
680.510	2616
680.559	2380
680.607	2592
680.655	2295
680.703	1793
680.752	2901
680.800	2367
680.848	2064
680.896	2551
680.945	2220
680.993	2150
681.041	2181
681.089	2567
681.137	2560
681.185	2505
681.233	2670
681.258	2138
681.281	1619
681.329	2164
681.377	1825
681.380	1872
681.425	2425
681.473	2600
681.502	2583
681.521	2545
681.569	2536
681.617	2856
681.624	2744
681.665	1905
681.713	3115
681.745	3256
681.761	3306
681.809	1964
681.857	3128
681.867	3055
681.904	2724
681.952	2605
681.989	2951
682.000	3041
682.048	2711
682.096	2808
682.111	2816
682.143	2769
682.191	2533
682.233	3204
682.239	3285
682.286	2580
682.334	3285
682.354	3039
682.382	2714
682.430	3276
682.476	3290
682.477	3274
682.525	2214
682.572	3325
682.598	3166
682.620	3036
682.667	2779
682.715	2732
682.720	2756
682.763	2806
682.810	3841
682.841	3125
682.857	2739
682.905	3254
682.952	3730
682.963	3536
683.000	2760
683.047	3692
683.085	4040
683.095	4121
683.142	3656
683.190	3380
683.206	3477
683.237	3640
683.284	3506
683.328	3047
683.332	2993
683.379	3668
683.426	2952
683.449	3322
683.473	3729
683.521	3699
683.568	3890
683.571	3917
683.615	3992
683.662	3868
683.693	3783
683.709	3745
683.757	3519
683.804	4898
683.814	4668
683.851	3762
683.898	4161
683.936	4155
683.945	4153
683.992	4567
684.039	4333
684.057	4296
684.086	4239
684.133	4275
684.179	4546
684.180	4538
684.227	4014
684.274	4533
684.300	4660
684.321	4752
684.368	4326
684.415	4984
684.422	4846
684.462	3990
684.509	4528
684.543	4225
684.556	4106
684.603	4703
684.649	3485
684.665	3805
684.696	4438
684.743	5017
684.786	4472
684.790	4422
684.837	4454
684.883	4945
684.908	5024
684.930	5049
684.977	4810
685.023	4847
685.029	4822
685.070	4545
685.117	4526
685.150	4434
685.164	4418
685.210	5457
685.257	5170
685.272	5078
685.303	4803
685.350	4758
685.393	5272
685.396	5322
685.443	4984
685.490	6175
685.514	6001
685.536	5695
685.583	5782
685.629	5255
685.636	5289
685.675	5556
685.722	5337
685.757	5378
685.768	5359
685.815	5420
685.861	5385
685.878	5398
685.908	5511
685.954	5278
686.000	5614
686.000	5613
686.047	5288
686.093	5315
686.121	5410
686.139	5443
686.185	5544
686.232	5096
686.242	5094
686.278	5208
686.324	5889
686.363	5036
686.370	4872
686.416	5657
686.463	5756
686.484	5614
686.509	5460
686.555	5972
686.601	5892
686.606	5878
686.647	5546
686.693	5521
686.727	5510
686.739	5567
686.785	5895
686.831	5646
686.848	5798
686.877	6048
686.923	5227
686.969	5410
686.969	5410
687.015	6473
687.061	6287
687.090	6357
687.107	6286
687.153	6596
687.199	5587
687.211	5582
687.245	5841
687.291	5512
687.332	6448
687.336	6529
687.382	6414
687.428	6122
687.453	6334
687.474	6462
687.520	6569
687.565	6147
687.574	6074
687.611	5771
687.657	6095
687.695	5845
687.702	5838
687.748	6498
687.794	6896
687.816	6884
687.839	6843
687.885	7291
687.931	6953
687.937	6963
687.976	6774
688.022	6580
688.058	6538
688.067	6587
688.113	6450
688.158	6316
688.179	6521
688.204	6689
688.249	7277
688.295	6495
688.300	6494
688.340	6697
688.386	6924
688.421	6481
688.431	6346
688.477	7048
688.522	6807
688.542	7041
688.567	7329
688.613	7234
688.658	6912
688.663	6947
688.703	7157
688.749	6997
688.784	7133
688.794	7209
688.839	7001
688.884	7116
688.905	7288
688.930	7375
688.975	7063
689.020	7095
689.026	6970
689.065	6520
689.110	7068
689.146	7346
689.155	7383
689.201	7446
689.246	7386
689.267	7390
689.291	7429
689.336	7554
689.381	7736
689.388	7719
689.426	7699
689.471	7835
689.509	7946
689.516	7945
689.561	7980
689.606	7348
689.630	7441
689.651	7522
689.696	7431
689.741	7412
689.750	7396
689.785	7684
689.830	7198
689.871	8067
689.875	8119
689.920	7646
689.965	7403
689.992	7407
690.010	7572
690.054	7457
690.099	7309
690.112	7433
690.144	7737
690.189	7824
690.233	7957
690.233	7967
690.278	8123
690.323	8077
690.354	8030
690.367	8088
690.412	8353
690.457	8009
690.474	8275
690.501	8561
690.546	8206
690.590	8083
690.595	8056
690.635	8138
690.680	8257
690.716	8437
690.724	8485
690.769	8728
690.813	9088
690.836	9018
690.857	9329
690.902	10302
690.946	11439
690.957	11672
690.991	13177
691.035	16253
691.077	18081
691.080	18047
691.124	15460
691.168	13711
691.198	12496
691.213	11956
691.257	11064
691.301	9382
691.318	8959
691.346	9058
691.390	9328
691.434	9270
691.439	9260
691.478	9131
691.522	8939
691.559	8680
691.567	8733
691.611	9378
691.655	9810
691.680	9973
691.699	9838
691.743	9396
691.787	8973
691.800	8862
691.831	9005
691.875	9265
691.919	9582
691.921	9569
691.964	9388
692.008	9390
692.041	9092
692.052	9076
692.096	9410
692.139	9490
692.162	9522
692.183	9548
692.227	9773
692.271	9597
692.282	9604
692.315	9485
692.359	9488
692.402	8967
692.403	8985
692.447	9368
692.490	9951
692.523	10184
692.534	10101
692.578	9437
692.622	9213
692.643	9072
692.666	9170
692.709	9281
692.753	8864
692.763	8942
692.797	9353
692.840	9990
692.884	9666
692.884	9682
692.928	9551
692.971	9714
693.004	9656
693.015	9672
693.059	9896
693.102	9993
693.124	9946
693.146	9836
693.189	9684
693.233	9464
693.245	9451
693.276	9736
693.320	9790
693.363	10122
693.365	10104
693.407	10342
693.450	10891
693.485	11304
693.493	11437
693.537	11536
693.580	12210
693.605	12402
693.624	13078
693.667	14967
693.710	16692
693.725	17438
693.753	20520
693.797	25483
693.840	30592
693.845	30892
693.883	26940
693.926	22718
693.966	19376
693.970	19101
694.013	16155
694.056	13175
694.086	11065
694.099	10988
694.142	10861
694.185	10656
694.206	10491
694.229	10689
694.272	11039
694.315	11502
694.326	11614
694.358	11733
694.401	11604
694.444	11827
694.446	11799
694.487	11899
694.530	12056
694.566	12319
694.573	12264
694.616	11117
694.659	10553
694.686	10115
694.702	10176
694.745	10263
694.787	10102
694.806	10156
694.830	10251
694.873	10471
694.916	10234
694.926	10208
694.959	10539
695.002	10830
695.044	11263
695.046	11256
695.087	11377
695.130	11562
695.166	11461
695.172	11443
695.215	10997
695.258	11008
695.286	10651
695.301	10608
695.343	10790
695.386	10941
695.406	10902
695.428	10861
695.471	10839
695.514	10922
695.526	10869
695.556	10983
695.599	11227
695.641	11298
695.646	11307
695.684	11481
695.726	11257
695.766	11289
695.769	11314
695.811	11359
695.854	11160
695.886	11204
695.896	11353
695.938	11686
695.981	11938
696.005	12084
696.023	12064
696.065	11930
696.108	11914
696.125	11770
696.150	11690
696.192	11854
696.235	11898
696.245	11840
696.277	11823
696.319	11735
696.361	12022
696.365	11995
696.404	12057
696.446	12123
696.485	12201
696.488	12239
696.530	12264
696.572	12309
696.604	12326
696.614	12306
696.656	12097
696.698	11854
696.724	11704
696.740	11872
696.783	12129
696.825	12625
696.844	12726
696.867	12566
696.909	12251
696.951	11859
696.964	11776
696.992	12089
697.034	12215
697.076	12552
697.083	12566
697.118	12836
697.160	13223
697.202	13464
697.203	13437
697.244	13202
697.286	12939
697.323	12702
697.327	12725
697.369	12574
697.411	12474
697.442	12351
697.453	12459
697.494	12846
697.536	13106
697.562	13284
697.578	13279
697.620	13169
697.661	13013
697.682	12923
697.703	13203
697.744	13713
697.786	14222
697.801	14348
697.828	14480
697.869	14646
697.911	14762
697.921	14778
697.952	14495
697.994	14054
698.035	13509
698.040	13420
698.077	13299
698.118	13056
698.160	12885
698.160	12851
698.201	13007
698.243	13186
698.279	13310
698.284	13352
698.325	13433
698.367	13461
698.399	13472
698.408	13550
698.449	13722
698.491	13929
698.518	14013
698.532	14029
698.573	13980
698.614	13903
698.638	13845
698.656	13922
698.697	13998
698.738	14074
698.757	14067
698.779	14046
698.820	13964
698.862	13856
698.877	13785
698.903	13929
698.944	14091
698.985	14262
698.996	14271
699.026	14231
699.067	14128
699.116	13968
699.235	13687
699.354	13848
699.474	14176
699.593	14394
699.713	14768
699.832	14216
699.951	15292
700.070	14857
700.190	13148
700.309	13354
700.428	13671
700.547	13838
700.667	13726
700.786	14034
700.905	13178
701.024	13115
701.143	12698
701.262	12752
701.381	13460
701.500	13629
701.619	16075
701.738	14709
701.857	13544
701.976	12672
702.095	13284
702.214	14614
702.333	14490
702.452	13957
702.571	13408
702.690	13592
702.809	13674
702.928	12435
703.047	12504
703.165	12475
703.284	13086
703.403	13778
703.522	13442
703.640	12900
703.759	12976
703.878	14429
703.997	12057
704.115	11708
704.234	13665
704.353	12338
704.471	12273
704.590	12314
704.708	13201
704.827	12937
704.946	12392
705.064	11658
705.183	12390
705.301	12895
705.420	13717
705.538	13120
705.656	12482
705.775	13644
705.893	18883
706.012	20319
706.130	12133
706.249	12631
706.367	12044
706.485	12882
706.604	12357
706.722	13693
706.840	13540
706.958	13732
707.077	13627
707.195	12940
707.313	12991
707.431	13171
707.549	11462
707.668	12014
707.786	12529
707.904	11982
708.022	12299
708.140	12197
708.258	11923
708.376	12014
708.494	11799
708.612	12596
708.730	13523
708.848	12977
708.966	13903
709.084	13188
709.202	12182
709.320	12734
709.438	11594
709.556	12426
709.674	12160
709.791	11295
709.909	12263
710.027	12157
710.145	11844
710.263	11698
710.380	11390
710.498	11605
710.616	11545
710.733	11793
710.851	12721
710.969	11484
711.086	11212
711.204	12292
711.322	11427
711.439	12025
711.557	11221
711.674	11444
711.792	11715
711.909	11738
712.027	12552
712.144	11459
712.262	11554
712.379	11046
712.497	12519
712.614	13016
712.732	12611
712.849	12326
712.966	12785
713.084	13462
713.201	13185
713.318	12502
713.436	12028
713.553	11968
713.670	12485
713.787	12586
713.905	12217
714.022	12202
714.139	11793
714.256	13556
714.373	15396
714.490	22978
714.608	50896
714.725	201383
714.842	179000
714.959	18987
715.076	13100
715.193	12219
715.310	11995
715.427	11612
715.544	11505
715.661	11490
715.778	11777
715.895	11242
716.011	11896
716.128	10764
716.245	11991
716.362	13403
716.479	12957
716.596	12044
716.713	11193
716.829	11482
716.946	10610
717.063	10968
717.180	10888
717.296	10618
717.413	10982
717.530	11292
717.646	10185
717.763	9922
717.880	10226
717.996	10385
718.113	10798
718.229	10366
718.346	10915
718.462	9826
718.579	13824
718.695	19224
718.812	12021
718.928	11080
719.045	10553
719.161	10676
719.277	9682
719.394	10556
719.510	10186
719.626	10206
719.743	11994
719.859	13447
719.975	20176
720.092	60019
720.208	115177
720.324	17191
720.440	11584
720.557	11401
720.673	15612
720.789	13879
720.905	12728
721.021	10687
721.137	9594
721.253	10026
721.369	10139
721.486	9377
721.602	10825
721.718	10238
721.834	9600
721.950	9796
722.066	9936
722.181	9199
722.297	10252
722.413	9560
722.529	9052
722.645	9828
722.761	9208
722.877	9492
722.993	9463
723.108	9345
723.224	9037
723.340	9268
723.456	9279
723.571	9348
723.687	8231
723.803	8747
723.918	8900
724.034	9274
724.150	8509
724.265	8790
724.381	9747
724.497	10024
724.612	9164
724.728	8030
724.843	8130
724.959	8345
725.074	9401
725.190	10155
725.305	9026
725.421	8227
725.536	8589
725.651	8768
725.767	8629
725.882	8698
725.997	9636
726.113	8568
726.228	8493
726.343	8441
726.459	8922
726.574	8610
726.689	8708
726.804	8273
726.920	8915
727.035	9122
727.150	8254
727.265	8062
727.380	7226
727.495	8884
727.610	7451
727.725	8486
727.841	10201
727.956	13415
728.071	10456
728.186	8473
728.301	8252
728.416	8408
728.531	8252
728.645	7982
728.760	8311
728.875	8498
728.990	9040
729.105	9222
729.220	8601
729.335	8256
729.449	7539
729.564	7229
729.679	8385
729.794	7888
729.908	9020
730.023	7655
730.138	8027
730.253	8519
730.367	8213
730.482	7903
730.596	8128
730.711	8799
730.826	9313
730.940	9197
731.055	8655
731.169	8447
731.284	8473
731.398	8137
731.513	8732
731.627	8780
731.742	9435
731.856	9053
731.970	8909
732.085	9591
732.199	10447
732.313	13082
732.428	25087
732.542	68781
732.656	37171
732.771	10920
732.885	9808
732.999	9745
733.113	9811
733.227	9331
733.342	10128
733.456	8576
733.570	8642
733.684	8899
733.798	8128
733.912	8817
734.026	9703
734.140	9302
734.254	9270
734.368	8166
734.482	9863
734.596	9191
734.710	9082
734.824	9518
734.938	9156
735.052	9235
735.166	9653
735.280	8830
735.393	8787
735.507	8701
735.621	8527
735.735	8898
735.849	9205
735.962	8396
736.076	8569
736.190	8416
736.303	8068
736.417	9146
736.531	7836
736.644	8299
736.758	7629
736.872	7494
736.985	8073
737.099	7910
737.212	7732
737.326	7838
737.439	8397
737.553	7862
737.666	8307
737.780	7365
737.893	7618
738.007	8261
738.120	8115
738.233	8368
738.347	7466
738.460	8588
738.573	8735
738.687	8602
738.800	8340
738.913	10072
739.026	8308
739.140	8498
739.253	8507
739.366	8151
739.479	7666
739.592	6972
739.705	7284
739.818	7310
739.932	8501
740.045	8373
740.158	8075
740.271	7841
740.384	7534
740.497	7149
740.610	8596
740.723	7253
740.836	8235
740.949	8304
741.062	9789
741.174	8073
741.287	7540
741.400	6986
741.513	7820
741.626	7265
741.739	7129
741.851	7054
741.964	7180
742.077	7268
742.189	7651
742.302	7295
742.415	7413
742.527	7374
742.640	7785
742.753	6813
742.865	7403
742.978	7103
743.090	7745
743.203	7174
743.316	7486
743.428	7129
743.541	7118
743.653	7249
743.766	7394
743.878	7446
743.990	6949
744.103	7428
744.215	7333
744.327	7305
744.440	8255
744.552	10674
744.664	7135
744.777	7280
744.889	6273
745.001	7148
745.113	6866
745.226	6935
745.338	7107
745.450	6889
745.562	7192
745.674	7208
745.786	6259
745.898	6295
746.010	6440
746.122	6888
746.234	7061
746.347	6709
746.459	6938
746.570	7005
746.682	7409
746.794	6629
746.906	6531
747.018	6358
747.130	6832
747.242	6244
747.354	6703
747.466	6744
747.577	7510
747.689	6429
747.801	6725
747.913	5388
748.024	6581
748.136	6606
748.248	5978
748.359	6180
748.471	6278
748.583	5640
748.694	6802
748.806	6968
748.918	6774
749.029	7331
749.141	7752
749.252	6338
749.364	7660
749.475	11480
749.587	6943
749.698	6722
749.809	6633
749.921	5901
750.032	6244
750.144	6203
750.255	5967
750.366	6001
750.478	5548
750.589	5960
750.700	6644
750.811	6720
750.923	7610
751.034	12523
751.145	11892
751.256	6421
751.367	5984
751.479	6536
751.590	6022
751.701	5621
751.812	6225
751.923	6259
752.034	5849
752.145	6029
752.256	6087
752.367	5647
752.478	6156
752.589	6979
752.700	6506
752.811	6156
752.922	5541
753.032	5562
753.143	6921
753.254	5049
753.365	6766
753.476	5860
753.586	6562
753.697	5480
753.808	5981
753.919	5469
754.029	5857
754.140	6010
754.251	6261
754.361	5870
754.472	5274
754.582	5901
754.693	6014
754.804	6239
754.914	5627
755.025	5137
755.135	6439
755.246	5515
755.356	4190
755.466	5289
755.577	5921
755.687	6183
755.798	5588
755.908	5540
756.018	5249
756.129	5661
756.239	5019
756.349	5350
756.460	5699
756.570	5950
756.680	5904
756.790	5722
756.900	5982
757.011	6081
757.121	6254
757.231	5902
757.341	6336
757.451	5918
757.561	5716
757.671	6609
757.781	5225
757.891	6139
758.001	5478
758.111	5574
758.221	5629
758.331	6640
758.441	6072
758.551	7550
758.661	6707
758.771	6740
758.880	5402
758.990	5464
759.100	5802
759.210	5780
759.320	5126
759.429	5316
759.539	5802
759.649	5657
759.758	6247
759.868	5943
759.978	5726
760.087	6902
760.197	6333
760.307	6696
760.416	5929
760.526	5346
760.635	7112
760.745	6829
760.854	5966
760.964	6956
761.073	6229
761.182	6465
761.292	6150
761.401	7344
761.511	5916
761.620	5915
761.729	5818
761.839	6059
761.948	6556
762.057	4866
762.166	6491
762.276	5024
762.385	6761
762.494	6242
762.603	6276
762.712	6321
762.822	6543
762.931	6892
763.040	5804
763.149	6687
763.258	5790
763.367	7411
763.476	6640
763.585	6306
763.694	7370
763.803	7630
763.912	7801
764.021	8214
764.130	7964
764.238	7758
764.347	8461
764.456	8327
764.565	8348
764.674	9183
764.783	9557
764.891	9788
765.000	11092
765.109	11557
765.217	12831
765.326	16155
765.435	17435
765.543	20125
765.652	24122
765.761	31826
765.869	46017
765.978	70551
766.086	120743
766.195	243639
766.303	560157
766.412	991429
766.520	791048
766.629	298840
766.737	130343
766.846	77398
766.954	51856
767.062	40199
767.171	30658
767.279	23903
767.387	19315
767.496	17799
767.604	16621
767.712	14258
767.820	13420
767.928	12399
768.037	12141
768.145	12560
768.253	11292
768.361	10644
768.469	11337
768.577	10261
768.685	12126
768.793	12479
768.901	12659
769.009	15258
769.117	17000
769.225	22567
769.333	30902
769.441	51105
769.549	95446
769.657	219836
769.765	587608
769.873	809906
769.981	324272
770.088	101694
770.196	52475
770.304	35521
770.412	27119
770.519	20159
770.627	17143
770.735	13966
770.842	12301
770.950	12494
771.058	10922
771.165	10471
771.273	9496
771.380	9953
771.488	9741
771.595	8605
771.703	8420
771.810	8750
771.918	7383
772.025	8655
772.133	7747
772.240	7763
772.348	8246
772.455	7797
772.562	7147
772.670	7828
772.777	6773
772.884	6939
772.991	7222
773.099	6888
773.206	6190
773.313	7484
773.420	6846
773.528	6203
773.635	6404
773.742	7220
773.849	5960
773.956	5902
774.063	6535
774.170	6276
774.277	6064
774.384	6224
774.491	5377
774.598	6249
774.705	6653
774.812	6655
774.919	5998
775.026	5883
775.133	6888
775.239	5727
775.346	5490
775.453	5226
775.560	4741
775.667	6115
775.773	4868
775.880	6058
775.987	4778
776.093	6489
776.200	5271
776.307	4733
776.413	5191
776.520	4483
776.627	5600
776.733	4914
776.840	3361
776.946	5754
777.053	4477
777.159	5277
777.266	4385
777.372	6419
777.478	5657
777.585	4764
777.691	4459
777.798	5553
777.904	5648
778.010	6676
778.117	5464
778.223	5456
778.329	5155
778.435	5764
778.542	5451
778.648	4984
778.754	4430
778.860	5053
778.966	4793
779.072	5456
779.178	5746
779.284	3827
779.391	4697
779.497	4209
779.603	7261
779.708	6711
779.815	16300
779.920	54022
780.026	63088
780.132	7819
780.238	4504
780.344	4956
780.450	6177
780.556	4517
780.661	4431
780.767	4871
780.873	4225
780.979	5152
781.085	4094
781.190	4503
781.296	4583
781.402	3765
781.507	3777
781.613	4853
781.719	3563
781.824	4434
781.930	4628
782.035	4259
782.141	4287
782.246	3770
782.352	4201
782.457	4256
782.563	4502
782.668	3781
782.773	3826
782.879	3692
782.984	4723
783.090	5263
783.195	5104
783.300	3928
783.405	3727
783.511	3105
783.616	3961
783.721	4442
783.826	3434
783.932	4525
784.037	3712
784.142	3758
784.247	4371
784.352	4361
784.457	3773
784.562	3637
784.667	4054
784.772	3224
784.877	2724
784.982	4431
785.087	2950
785.192	3693
785.297	3778
785.402	4106
785.507	3502
785.611	3640
785.716	3254
785.821	3616
785.926	2945
786.031	3754
786.135	3471
786.240	3649
786.345	2940
786.450	3675
786.554	3536
786.659	2978
786.763	2883
786.868	3375
786.973	4581
787.077	3366
787.182	3209
787.286	2760
787.391	2884
787.495	3160
787.600	3551
787.704	2719
787.809	3741
787.913	2713
788.017	3796
788.122	3533
788.226	3849
788.330	3119
788.435	3563
788.539	3551
788.643	3094
788.747	3287
788.852	3697
788.956	2235
789.060	3354
789.164	2926
789.268	3131
789.372	3954
789.476	3056
789.580	3050
789.684	2534
789.788	3338
789.892	2789
789.996	4012
790.100	3029
790.204	3037
790.308	3755
790.412	2787
790.516	3482
790.620	3004
790.724	3224
790.828	2577
790.931	1333
791.035	5391
791.139	3726
791.242	3034
791.346	3577
791.450	3206
791.554	2998
791.657	1771
791.761	3288
791.864	3316
791.968	2608
792.072	2999
792.175	2843
792.279	2421
792.382	3619
792.486	2953
792.589	2765
792.693	3631
792.796	2417
792.899	4344
793.003	3277
793.106	936
793.209	2535
793.313	4740
793.416	1691
793.519	4158
793.623	4356
793.726	5735
793.829	3470
793.932	2793
794.035	2652
794.138	3183
794.242	3507
794.345	2796
794.448	4713
794.551	9242
794.654	26546
794.757	32509
794.860	5766
794.963	2541
795.066	2680
795.169	3908
795.272	2216
795.375	2584
795.477	1751
795.580	3302
795.683	2187
795.786	3522
795.889	1620
795.991	2805
796.094	3676
796.197	1352
796.300	4673
796.402	2516
796.505	1712
796.608	2515
796.710	3298
796.813	3394
796.915	2460
797.018	3313
797.120	2632
797.223	534
797.326	3135
797.428	2087
797.530	3049
797.633	2397
797.735	3683
797.838	2391
797.940	3481
798.042	1546
798.145	2794
798.247	2955
798.349	1622
798.452	3533
798.554	1864
798.656	1775
798.758	3300
798.860	2763
798.962	2294
799.065	2049
799.167	1835
799.269	3368
799.371	3540
799.473	2947
799.575	2232
799.677	2252
799.779	4479
799.881	3231
799.983	3772
800.085	1749
800.187	2316
800.289	2498
800.390	2395
800.492	2885
800.594	3126
800.696	1498
800.798	2241
800.899	3074
801.001	1905
801.103	1842
801.205	1677
801.306	2440
801.408	2018
801.509	2225
801.611	2645
801.713	2497
801.814	1484
801.916	1827
802.017	1656
802.119	1814
802.220	1936
802.322	199
802.423	3409
802.525	463
802.626	1396
802.727	2442
802.829	3022
802.930	-312
803.031	3858
803.133	2211
803.234	1491
803.335	1710
803.436	719
803.538	2076
803.639	862
803.740	2819
803.841	573
803.942	2072
804.043	2297
804.144	1279
804.245	1317
804.346	1643
804.447	1771
804.548	3428
804.649	2759
804.750	2300
804.851	1533
804.952	1204
805.053	1645
805.154	783
805.255	2774
805.355	2122
805.456	2165
805.557	1551
805.658	1496
805.758	2538
805.859	1886
805.960	1965
806.061	1959
806.161	1347
806.262	1996
806.362	1401
806.463	2109
806.564	2367
806.664	1972
806.765	1484
806.865	1328
806.966	1512
807.066	1693
807.166	2142
807.267	2261
807.367	1341
807.468	1696
807.568	240
807.668	2344
807.769	2764
807.869	678
807.969	1132
808.069	2303
808.170	1960
808.270	1793
808.370	2246
808.470	2131
808.570	661
808.670	1900
808.770	1014
808.870	699
808.970	2062
809.070	2013
809.170	1703
809.271	2075
809.370	621
809.470	1641
809.570	1845
809.670	806
809.770	1578
809.870	2131
809.970	1813
810.070	1328
810.169	853
810.269	-23
810.369	2365
810.469	595
810.568	1034
810.668	991
810.768	1521
810.867	1246
810.967	1280
811.066	1168
811.166	1047
811.265	2517
811.365	1481
811.464	837
811.564	1627
811.663	2412
811.763	267
811.862	1469
811.962	2192
812.061	1496
812.160	1160
812.260	1104
812.359	1991
812.458	1012
812.557	1698
812.657	1818
812.756	1736
812.855	1088
812.954	1991
813.053	2010
813.153	1686
813.252	461
813.351	1882
813.450	1121
813.549	1076
813.648	1870
813.747	849
813.846	1661
813.945	1281
814.044	1284
814.143	1657
814.242	1503
814.341	776
814.439	2246
814.538	1788
814.637	1994
814.736	1471
814.835	1959
814.933	531
815.032	1304
815.131	1914
815.229	1934
815.328	2111
815.427	1726
815.525	2169
815.624	2033
815.722	1392
815.821	1466
815.919	2261
816.018	1117
816.116	3100
816.215	2117
816.313	1727
816.412	1836
816.510	1709
816.609	3683
816.707	2514
816.805	1602
816.904	1536
817.002	2329
817.100	2662
817.198	2743
817.296	1402
817.395	2227
817.493	2962
817.591	1764
817.689	2470
817.787	1762
817.885	3479
817.983	4091
818.081	9581
818.179	22159
818.277	51119
818.375	26166
818.473	4947
818.571	4084
818.669	3463
818.767	2128
818.865	3657
818.963	3149
819.061	4108
819.158	7217
819.256	18285
819.354	44791
819.452	89858
819.549	31819
819.647	7060
819.745	3870
819.842	3550
819.940	2254
820.038	1714
820.135	2341
820.233	2970
820.330	2228
820.428	1731
820.525	2991
820.623	1405
820.720	1481
820.818	1622
820.915	2371
821.012	1788
821.110	520
821.207	2861
821.304	1482
821.402	1475
821.499	2951
821.596	2376
821.693	1656
821.791	2350
821.888	3332
821.985	5630
822.082	3250
822.179	2565
822.276	1599
822.373	1567
822.470	1724
822.567	1893
822.664	1239
822.761	2700
822.858	1070
822.955	1444
823.052	2330
823.149	1040
823.246	1788
823.343	1219
823.440	1794
823.536	1106
823.633	1150
823.730	1585
823.827	2033
823.923	1980
824.020	2194
824.117	941
824.213	926
824.310	2136
824.407	1303
824.503	1782
824.600	1445
824.696	1231
824.793	2010
824.889	949
824.986	1213
825.082	1198
825.179	1320
825.275	1365
825.371	1154
825.468	2626
825.564	-582
825.660	2215
825.757	1523
825.853	2338
825.949	855
826.045	979
826.142	1093
826.238	835
826.334	2250
826.430	-117
826.526	1476
826.622	445
826.718	1345
826.814	687
826.910	1372
827.006	407
827.102	688
827.198	1801
827.294	1111
827.390	1685
827.486	1328
827.582	307
827.678	531
827.774	1292
827.869	299
827.965	1939
828.061	488
828.157	575
828.252	1617
828.348	131
828.444	1943
828.539	91
828.635	1327
828.731	2554
828.826	400
828.922	1012
829.017	871
829.113	1875
829.208	1375
829.304	720
829.399	2458
829.495	862
829.590	1419
829.685	979
829.781	1328
829.876	1569
829.971	1530
830.066	1521
830.162	800
830.257	435
830.352	386
830.447	1954
830.543	782
830.638	-741
830.733	2000
830.828	224
830.923	1551
831.018	716
831.113	729
831.208	578
831.303	753
831.398	1672
831.493	475
831.588	1358
831.683	335
831.778	744
831.873	774
831.967	1217
832.062	83
832.157	-130
832.252	1939
832.346	1134
832.441	2475
832.536	2801
832.631	6163
832.725	4370
832.820	1418
832.914	39
833.009	572
833.104	1729
833.198	2307
833.293	426
833.387	1187
833.482	722
833.576	815
833.670	1574
833.765	417
833.859	18
833.954	1796
834.048	515
834.142	857
834.237	429
834.331	1390
834.425	682
834.519	119
834.613	579
834.708	325
834.802	1526
834.896	1089
834.990	661
835.084	1170
835.178	476
835.272	982
835.366	-659
835.460	912
835.554	866
835.648	615
835.742	174
835.836	685
835.930	-80
836.024	-62
836.117	1529
836.211	599
836.305	1494
836.399	867
836.493	-296
836.586	2390
836.680	486
836.774	-257
836.867	1602
836.961	-278
837.055	63
837.148	546
837.242	976
837.335	835
837.429	646
837.522	-132
837.616	665
837.709	1168
837.803	-515
837.896	1655
837.989	472
838.083	1416
838.176	841
838.269	105
838.363	1117
838.456	1412
838.549	1650
838.642	3322
838.735	6210
838.829	2581
838.922	67
839.015	-182
839.108	279
839.201	218
839.294	1365
839.387	1266
839.480	-3
839.573	884
839.666	1133
839.759	406
839.852	-66
839.945	-144
840.038	773
840.131	447
840.223	527
840.316	1001
840.409	552
840.502	781
840.594	760
840.687	-209
840.780	1123
840.873	379
840.965	230
841.058	452
841.150	1549
841.243	-281
841.336	1336
841.428	75
841.521	178
841.613	-721
841.706	1204
841.798	-47
841.890	573
841.983	-337
842.075	1280
842.167	813
842.260	-104
842.352	1494
842.444	422
842.537	50
842.629	550
842.721	1049
842.813	485
842.905	-1073
842.997	872
843.090	225
843.182	919
843.274	363
843.366	1525
843.458	1732
843.550	2352
843.642	513
843.734	1214
843.826	369
843.918	929
844.009	1049
844.101	-176
844.193	448
844.285	-666
844.377	452
844.469	1098
844.560	296
844.652	529
844.744	835
844.835	278
844.927	529
845.019	-100
845.110	534
845.202	205
845.293	-545
845.385	391
845.476	-127
845.568	656
845.659	306
845.751	1351
845.842	637
845.934	-139
846.025	837
846.116	1078
846.208	641
846.299	48
846.390	674
846.482	31
846.573	1100
846.664	562
846.755	557
846.846	2067
846.937	-854
847.029	90
847.120	136
847.211	175
847.302	893
847.393	-402
847.484	74
847.575	530
847.666	-379
847.757	235
847.847	453
847.938	1282
848.029	-260
848.120	-344
848.211	84
848.302	542
848.392	-310
848.483	107
848.574	-86
848.664	-477
848.755	710
848.846	624
848.936	40
849.027	-86
849.118	771
849.208	-754
849.299	475
849.389	813
849.480	1281
849.570	2836
849.661	6555
849.751	11704
849.841	2651
849.932	548
850.022	-125
850.112	970
850.203	-76
850.293	9
850.383	-422
850.474	-142
850.564	-20
850.654	-88
850.744	101
850.834	-177
850.924	363
851.014	203
851.104	945
851.194	-61
851.284	359
851.374	1235
851.464	201
851.554	300
851.644	-144
851.734	86
851.824	-17
851.914	370
852.004	463
852.094	134
852.183	-408
852.273	177
852.363	230
852.452	593
852.542	337
852.632	-421
852.721	43
852.811	-228
852.901	171
852.990	-807
853.080	266
853.169	493
853.259	168
853.348	505
853.438	208
853.527	1200
853.617	895
853.706	2646
853.795	3309
853.885	10077
853.974	19869
854.063	37298
854.152	60654
854.242	19279
854.331	2134
854.420	626
854.509	1114
854.598	-24
854.687	72
854.777	338
854.866	-528
854.955	961
855.044	18
855.133	-433
855.222	-51
855.311	-372
855.400	283
855.488	443
855.577	-230
855.666	-581
855.755	635
855.844	371
855.933	633
856.021	450
856.110	243
856.199	-875
856.288	556
856.376	-89
856.465	127
856.554	-179
856.642	120
856.731	853
856.819	-186
856.908	42
856.996	-52
857.085	140
857.173	350
857.262	-285
857.350	86
857.438	87
857.527	268
857.615	-729
857.703	750
857.792	-704
857.880	276
857.968	-1128
858.056	304
858.145	-363
858.233	-134
858.321	-651
858.409	652
858.497	366
858.585	147
858.673	-157
858.761	111
858.849	-5
858.937	-509
859.025	-497
859.113	712
859.201	606
859.289	-204
859.377	54
859.465	235
859.552	-240
859.640	-725
859.728	-753
859.816	207
859.903	165
859.991	-502
860.079	-28
860.166	-420
860.254	158
860.342	-473
860.429	283
860.517	-1158
860.604	4
860.692	571
860.779	-459
860.867	-90
860.954	23
861.042	1255
861.129	1074
861.216	-177
861.304	-77
861.391	323
861.478	-59
861.565	237
861.653	1137
861.740	-367
861.827	-143
861.914	943
862.001	-422
862.089	307
862.176	289
862.263	155
862.350	374
862.437	276
862.524	278
862.611	-72
862.698	-302
862.785	-512
862.871	371
862.958	-222
863.045	-41
863.132	-210
863.219	-311
863.306	-383
863.392	777
863.479	-110
863.566	-631
863.652	384
863.739	57
863.826	-518
863.912	-28
863.999	-874
864.086	401
864.172	277
864.259	-558
864.345	-681
864.432	-526
864.518	226
864.604	-797
864.691	-134
864.777	-310
864.863	574
864.950	548
865.036	347
865.122	96
865.209	652
865.295	762
865.381	1043
865.467	1215
865.553	1641
865.639	1016
865.726	2111
865.812	4899
865.898	11051
865.984	15670
866.070	29287
866.156	32165
866.242	6606
866.328	1706
866.414	934
866.499	413
866.585	620
866.671	329
866.757	663
866.843	921
866.928	551
867.014	-641
867.100	-126
867.186	812
867.271	605
867.357	702
867.442	407
867.528	-240
867.614	1200
867.699	425
867.785	769
867.870	76
867.956	-1012
868.041	727
868.127	972
868.212	-62
868.297	551
868.383	1540
868.468	612
868.553	2474
868.639	2230
868.724	6598
868.809	5612
868.894	455
868.979	-169
869.065	778
869.150	-478
869.235	-111
869.320	-111
869.405	540
869.490	680
869.575	-121
869.660	455
869.745	557
869.830	-239
869.915	-351
870.000	-142
870.085	-83
870.169	-28
870.254	209
870.339	138
870.424	-718
870.509	46
870.593	-15
870.678	662
870.763	210
870.847	707
870.932	89
871.016	-193
871.101	61
871.186	-441
871.270	-393
871.355	-13
871.439	385
871.523	623
871.608	154
871.692	-772
871.777	-29
871.861	-23
871.945	-431
872.030	201
872.114	-44
872.198	759
872.282	-339
872.367	-343
872.451	-200
872.535	660
872.619	263
872.703	726
872.787	158
872.871	-287
872.955	-1139
873.039	-1268
873.123	-507
873.207	-336
873.291	-131
873.375	274
873.459	844
873.543	-761
873.627	-291
873.711	25
873.794	654
873.878	-150
873.962	-810
874.045	-458
874.129	-207
874.137	-240
874.213	-570
874.245	-586
874.296	-609
874.352	-387
874.380	-281
874.460	-417
874.464	-423
874.547	-835
874.568	-559
874.631	246
874.676	158
874.714	96
874.784	199
874.798	218
874.881	579
874.892	499
874.965	-64
874.999	59
875.048	235
875.107	72
875.131	4
875.215	-231
875.215	-231
875.298	-534
875.323	-596
875.381	-653
875.430	37
875.465	508
875.538	-573
875.548	-720
875.631	-457
875.646	-350
875.714	188
875.753	-119
875.798	-524
875.861	-742
875.881	-786
875.964	42
875.968	51
876.047	129
876.076	-71
876.130	-404
876.183	-489
876.213	-531
876.291	527
876.296	595
876.379	-433
876.398	-281
876.462	201
876.506	45
876.545	-23
876.613	-206
876.628	-290
876.711	-454
876.721	-427
876.794	-34
876.828	-201
876.877	-422
876.935	-901
876.960	-1102
877.043	163
877.043	162
877.125	4
877.150	16
877.208	38
877.258	122
877.291	198
877.365	94
877.374	85
877.456	95
877.472	60
877.539	-214
877.579	-399
877.622	-518
877.687	-213
877.704	-135
877.787	-597
877.794	-584
877.869	-452
877.901	-253
877.952	39
878.008	-39
878.034	-21
878.115	216
878.117	219
878.199	-262
878.222	-79
878.282	410
878.329	-61
878.364	-422
878.437	-44
878.447	5
878.529	-86
878.544	-135
878.611	-358
878.651	-465
878.694	-441
878.758	-88
878.776	-89
878.858	-523
878.865	-544
878.941	-418
878.972	-143
879.023	204
879.078	-357
879.105	-533
879.185	614
879.187	628
879.269	-458
879.292	-621
879.351	-715
879.399	-285
879.433	-96
879.506	-147
879.516	-142
879.598	380
879.613	276
879.680	27
879.720	82
879.762	-70
879.827	-108
879.844	-87
879.926	32
879.933	43
880.007	81
880.040	-214
880.089	-329
880.147	98
880.171	154
880.253	1504
880.254	1507
880.335	1924
880.360	2134
880.417	2716
880.467	4176
880.499	5175
880.574	5496
880.580	5452
880.662	1583
880.680	1177
880.744	34
880.787	65
880.825	110
880.893	-186
880.907	-229
880.989	-591
881.000	-462
881.070	573
881.106	629
881.152	498
881.213	275
881.233	223
881.315	236
881.319	234
881.396	250
881.426	112
881.478	-374
881.532	-385
881.559	-134
881.639	137
881.641	134
881.722	232
881.745	198
881.803	331
881.852	143
881.885	-234
881.958	-30
881.966	63
882.047	470
882.064	545
882.129	501
882.171	411
882.210	695
882.277	1902
882.291	1909
882.372	339
882.383	200
882.454	43
882.489	-11
882.535	-108
882.596	-124
882.616	-49
882.697	88
882.702	123
882.778	414
882.808	394
882.859	146
882.914	32
882.940	85
883.020	-112
883.021	-109
883.102	413
883.127	473
883.183	511
883.233	493
883.264	141
883.339	-647
883.345	-596
883.426	519
883.445	688
883.507	446
883.551	60
883.587	-182
883.657	-93
883.668	5
883.749	347
883.763	430
883.830	194
883.869	22
883.910	210
883.975	534
883.991	535
884.072	449
884.081	444
884.152	301
884.187	189
884.233	-34
884.292	-367
884.314	-350
884.394	-364
884.398	-339
884.475	173
884.504	147
884.555	10
884.610	-84
884.636	-98
884.716	-113
884.716	-109
884.797	-1
884.821	86
884.877	589
884.927	749
884.958	612
885.033	475
885.038	499
885.118	785
885.139	789
885.199	271
885.244	112
885.279	115
885.350	79
885.359	152
885.439	508
885.456	593
885.520	581
885.561	584
885.600	484
885.667	215
885.680	197
885.760	235
885.773	234
885.840	3
885.878	-239
885.920	-284
885.984	-239
886.000	-169
886.080	163
886.089	204
886.160	654
886.195	846
886.240	532
886.300	28
886.320	83
886.400	492
886.406	508
886.480	682
886.511	701
886.560	531
886.616	453
886.640	438
886.720	244
886.722	235
886.800	155
886.827	206
886.879	208
886.932	-60
886.959	83
887.038	858
887.039	861
887.119	483
887.143	383
887.198	599
887.248	673
887.278	601
887.354	283
887.358	282
887.437	456
887.459	466
887.517	509
887.564	558
887.596	493
887.669	223
887.676	234
887.755	403
887.774	422
887.835	169
887.880	85
887.914	200
887.985	275
887.994	271
888.073	227
888.090	228
888.153	496
888.195	602
888.232	609
888.300	717
888.311	729
888.391	812
888.405	797
888.470	687
888.510	639
888.549	641
888.615	693
888.628	719
888.708	765
888.720	779
888.787	757
888.825	674
888.866	592
888.930	579
888.945	539
889.024	228
889.035	186
889.103	-4
889.140	-96
889.182	211
889.245	628
889.261	652
889.340	784
889.349	794
889.419	430
889.454	242
889.498	365
889.559	562
889.577	583
889.656	657
889.664	665
889.735	1394
889.768	1739
889.814	649
889.873	-801
889.978	842
890.083	337
890.187	545
890.292	-286
890.397	-25
890.501	1001
890.606	274
890.710	640
890.815	647
890.919	246
891.024	79
891.128	328
891.233	941
891.337	-53
891.442	-313
891.546	363
891.650	-92
891.755	288
891.859	931
891.963	95
892.068	793
892.172	17
892.276	-7
892.380	1184
892.484	740
892.589	1051
892.693	396
892.797	-175
892.901	442
893.005	-130
893.109	332
893.213	827
893.317	1791
893.421	486
893.525	-253
893.629	473
893.733	1215
893.837	245
893.941	-27
894.045	880
894.148	316
894.252	64
894.356	-517
894.460	219
894.564	550
894.667	-352
894.771	-553
894.875	11
894.978	438
895.082	474
895.186	395
895.289	1313
895.393	607
895.496	66
895.600	891
895.703	385
895.807	1416
895.910	477
896.014	171
896.117	133
896.221	716
896.324	296
896.427	319
896.531	-220
896.634	-153
896.737	-66
896.840	44
896.944	130
897.047	186
897.150	398
897.253	-156
897.356	898
897.460	714
897.563	-308
897.666	507
897.769	88
897.872	-62
897.975	581
898.078	184
898.181	327
898.284	-168
898.387	486
898.490	1007
898.593	104
898.695	474
898.798	-447
898.901	545
899.004	42
899.107	868
899.209	-56
899.312	-36
899.415	437
899.518	424
899.620	-409
899.723	-248
899.826	1313
899.928	995
900.031	253
900.133	-6
900.236	-259
900.338	152
900.441	-120
900.543	-35
900.646	-513
900.748	192
900.851	171
900.953	76
901.055	301
901.158	817
901.260	-221
901.362	147
901.465	68
901.567	-288
901.669	-100
901.771	-150
901.873	524
901.976	253
902.078	-6
902.180	768
902.282	316
902.384	-197
902.486	41
902.588	287
902.690	-329
902.792	2
902.894	260
902.996	144
903.098	-19
903.200	-1147
903.302	46
903.404	-142
903.505	-122
903.607	212
903.709	364
903.811	-419
903.913	240
904.014	276
904.116	141
904.218	151
904.319	683
904.421	184
904.523	-664
904.624	11
904.726	502
904.827	155
904.929	-339
905.030	-627
905.132	-122
905.233	-479
905.335	-4
905.436	-323
905.537	-657
905.639	51
905.740	72
905.841	-900
905.943	-47
906.044	-137
906.145	91
906.247	132
906.348	-61
906.449	259
906.550	-1068
906.651	-213
906.752	606
906.854	-452
906.955	-809
907.056	-89
907.157	423
907.258	1001
907.359	-882
907.460	-306
907.561	-68
907.662	503
907.762	129
907.863	193
907.964	-62
908.065	27
908.166	-291
908.267	-21
908.367	278
908.468	-153
908.569	525
908.670	632
908.770	473
908.871	684
908.971	-312
909.072	54
909.173	45
909.273	-393
909.374	-546
909.474	-432
909.575	1060
909.675	-199
909.776	-80
909.876	-839
909.977	-156
910.077	443
910.177	-796
910.278	-430
910.378	-53
910.478	295
910.579	10
910.679	-204
910.779	379
910.879	654
910.980	-821
911.080	-29
911.180	-747
911.280	-93
911.380	-104
911.480	-1013
911.580	-469
911.680	319
911.780	-262
911.880	481
911.980	-663
912.080	213
912.180	-56
912.280	-95
912.380	-934
912.480	-312
912.580	-669
912.679	-883
912.779	87
912.879	-135
912.979	-935
913.078	194
913.178	348
913.278	174
913.377	-634
913.477	-98
913.577	-654
913.676	-100
913.776	-371
913.875	-65
913.975	-502
914.074	-632
914.174	-883
914.273	169
914.373	694
914.472	-406
914.572	24
914.671	408
914.770	-633
914.870	-35
914.969	136
915.068	-170
915.167	-195
915.267	-153
915.366	-516
915.465	77
915.564	-273
915.663	2
915.763	-87
915.862	-280
915.961	374
916.060	-377
916.159	-217
916.258	-783
916.357	-99
916.456	271
916.555	117
916.654	-669
916.752	-662
916.851	-782
916.950	-578
917.049	89
917.148	-753
917.247	207
917.345	-821
917.444	-397
917.543	-663
917.642	-300
917.740	235
917.839	-294
917.937	423
918.036	-565
918.135	-421
918.233	-306
918.332	202
918.430	-927
918.529	-527
918.627	-26
918.726	-325
918.824	8
918.923	368
919.021	-453
919.119	-652
919.218	-925
919.316	-624
919.414	-503
919.512	-261
919.611	66
919.709	-1267
919.807	-241
919.905	-1045
920.003	-297
920.102	-920
920.200	-14
920.298	168
920.396	-1091
920.494	-254
920.592	-730
920.690	-30
920.788	-672
920.886	-791
920.984	-19
921.082	-1783
921.180	106
921.277	93
921.375	-747
921.473	-126
921.571	-639
921.669	-981
921.766	-304
921.864	-679
921.962	-974
922.060	-194
922.157	-92
922.255	-466
922.352	-323
922.450	392
922.548	-637
922.645	-909
922.743	-480
922.840	-130
922.938	402
923.035	-650
923.133	-341
923.230	-702
923.327	-407
923.425	-643
923.522	226
923.619	-165
923.717	196
923.814	127
923.911	-12
924.008	329
924.106	75
924.203	-95
924.300	-201
924.397	-847
924.494	-361
924.591	-137
924.688	-513
924.786	-569
924.883	-126
924.979	212
925.077	-565
925.173	-393
925.270	-773
925.367	-459
925.464	-797
925.561	-359
925.658	-630
925.755	-257
925.852	-381
925.948	34
926.045	-251
926.142	30
926.239	-1094
926.335	-814
926.432	358
926.529	-359
926.625	-238
926.722	-573
926.818	-624
926.915	-887
927.011	229
927.108	-888
927.204	-552
927.301	-754
927.397	257
927.494	107
927.590	-614
927.687	-219
927.783	127
927.879	-981
927.976	-578
928.072	-519
928.168	-942
928.264	-212
928.361	6
928.457	-700
928.553	-784
928.649	-658
928.745	-260
928.841	-636
928.937	-139
929.033	-256
929.129	-210
929.225	-361
929.321	-643
929.417	-404
929.513	-631
929.609	-156
929.705	-866
929.801	-301
929.897	-418
929.993	-622
930.089	-813
930.184	-1049
930.280	-1161
930.376	-81
930.471	-295
930.567	3
930.663	-200
930.758	-729
930.854	-760
930.950	-307
931.045	-931
931.141	-573
931.236	198
931.332	-539
931.427	-1041
931.523	-457
931.618	-464
931.714	-428
931.809	266
931.905	-923
932.000	-1120
932.095	-1091
932.191	-772
932.286	-1440
932.381	-1019
932.476	-281
932.572	-656
932.667	-219
932.762	-1031
932.857	-837
932.952	-665
933.047	-636
933.142	-696
933.237	-816
933.332	-759
933.427	-465
933.522	-448
933.617	-260
933.712	-793
933.807	-830
933.902	-547
933.997	-302
934.092	-466
934.187	-394
934.282	-977
934.376	-991
934.471	-408
934.566	-1562
934.661	-874
934.755	-857
934.850	-998
934.945	-514
935.039	-934
935.134	-184
935.228	-249
935.323	-716
935.417	-1003
935.512	46
935.606	-100
935.701	-1272
935.795	-260
935.890	-1203
935.984	-181
936.079	-1102
936.173	-1014
936.267	-592
936.362	-1733
936.456	-448
936.550	-674
936.644	-1098
936.738	-1041
936.833	272
936.927	-1022
937.021	-883
937.115	-1035
937.209	-1511
937.303	931
937.397	-101
937.491	-301
937.585	-1088
937.679	-1176
937.773	-864
937.867	-1144
937.961	-488
938.055	-915
938.149	-1067
938.243	-329
938.337	-1198
938.430	-669
938.524	-1241
938.618	-650
938.712	-1034
938.805	-749
938.899	-845
938.993	-312
939.086	-1069
939.180	-585
939.274	-844
939.367	-514
939.461	-189
939.554	-430
939.648	-766
939.741	-155
939.835	-974
939.928	-796
940.022	-369
940.115	-775
940.208	-218
940.302	-511
940.395	-182
940.488	-1584
940.582	-625
940.675	-2296
940.768	-796
940.861	-1370
940.954	36
941.048	-922
941.141	-993
941.234	-782
941.327	-1845
941.420	-955
941.513	-545
941.606	-400
941.699	-375
941.792	-374
941.885	-1119
941.978	-846
942.071	-1217
942.164	-1367
942.257	-695
942.349	-654
942.442	-920
942.535	-316
942.628	-567
942.721	-786
942.813	-1117
942.906	375
942.999	-1407
943.091	-1078
943.184	-792
943.277	-1486
943.369	-384
943.462	192
943.554	-460
943.647	-1577
943.739	-337
943.832	-1093
943.924	-1420
944.017	-303
944.109	-1156
944.201	-1106
944.294	-742
944.386	-1255
944.478	-1474
944.571	-1133
944.663	-1460
944.755	-316
944.847	-468
944.940	-1194
945.032	-1456
945.124	-851
945.216	-126
945.308	-937
945.400	-699
945.492	-386
945.584	-1421
945.676	-1171
945.768	-1358
945.860	-595
945.952	-1732
946.044	-576
946.136	-842
946.228	-886
946.320	-1584
946.412	-1683
946.503	-2021
946.595	-113
946.687	-1564
946.779	-1742
946.870	-704
946.962	-1160
947.054	-751
947.145	-851
947.237	-1069
947.329	-587
947.420	-1611
947.512	-452
947.603	-1091
947.695	-706
947.786	-1291
947.878	-1242
947.969	-674
948.061	-928
948.152	-1710
948.243	-1628
948.335	-627
948.426	-1231
948.517	-2106
948.609	-1157
948.700	-1624
948.791	-2025
948.882	-748
948.973	-930
949.065	-1260
949.156	-47
949.247	-1408
949.338	-408
949.429	-1321
949.520	-811
949.611	-1773
949.702	-89
949.793	-628
949.884	-1225
949.975	-1623
950.066	-1621
950.157	-823
950.247	-1108
950.338	-1306
950.429	-1083
950.520	-681
950.611	-494
950.701	-2056
950.792	-825
950.883	-496
950.973	-1032
951.064	-1212
951.155	-1905
951.245	-239
951.336	-898
951.427	-1453
951.517	-665
951.608	-1188
951.698	-1832
951.788	-996
951.879	-98
951.969	-1521
952.060	-823
952.150	-1283
952.240	-121
952.331	-2450
952.421	408
952.511	-1192
952.602	-1264
952.692	-626
952.782	-1108
952.872	-827
952.962	-1446
953.052	-1582
953.143	-1839
953.233	-460
953.323	-312
953.413	-1685
953.503	-1112
953.593	-1025
953.683	-1561
953.773	-2602
953.863	-1870
953.953	-774
954.042	-1455
954.132	-1050
954.222	-8
954.312	-1414
954.402	-1569
954.492	-652
954.581	-1476
954.671	-1853
954.761	-940
954.850	-28
954.940	-1204
955.030	-1043
955.119	-1016
955.209	-981
955.298	-966
955.388	-1947
955.477	-1058
955.567	-1806
955.656	-1082
955.746	-617
955.835	-1219
955.925	-1704
956.014	-1131
956.103	-1773
956.193	-650
956.282	-544
956.371	-1033
956.461	-783
956.550	-1048
956.639	-1409
956.728	-1658
956.817	-779
956.906	-2027
956.995	-1186
957.085	-1440
957.174	-1116
957.263	-1133
957.352	-1434
957.441	-1493
957.530	-1387
957.619	-1381
957.708	-1464
957.796	-1651
957.885	-919
957.974	-1132
958.063	-975
958.152	-2768
958.241	-832
958.329	-1326
958.418	-452
958.507	-1636
958.596	-473
958.684	-1453
958.773	-866
958.861	-964
958.950	-821
959.039	-1249
959.127	-1396
959.216	-1169
959.304	-1101
959.393	-1897
959.481	-1647
959.570	-1155
959.658	-1454
959.746	-1080
959.835	-921
959.923	-1868
960.011	-2293
960.100	-991
960.188	-1885
960.276	-2095
960.365	-1933
960.453	-1400
960.541	-1954
960.629	-1399
960.717	-1967
960.805	-2365
960.893	-1281
960.981	-1849
961.069	-881
961.158	-594
961.245	-1533
961.333	-1571
961.421	-1763
961.509	-1970
961.597	-1366
961.685	-1053
961.773	-2017
961.861	-1842
961.949	-784
962.036	-2038
962.124	-796
962.212	-1678
962.299	-2227
962.387	-1415
962.475	-440
962.562	-1988
962.650	-932
962.738	-1381
962.825	-1579
962.913	-1354
963.000	-2459
963.088	-1507
963.175	-1377
963.263	-986
963.350	-1862
963.438	-2369
963.525	-2224
963.612	-598
963.700	-1154
963.787	-594
963.874	-1166
963.962	-829
964.049	-1173
964.136	-1134
964.223	-1108
964.310	-2101
964.398	-1453
964.485	-1563
964.572	-1068
964.659	-1507
964.746	-2164
964.833	-864
964.920	-1405
965.007	-400
965.094	-420
965.181	-1853
965.268	-1802
965.355	-868
965.441	-1629
965.528	-1268
965.615	-1584
965.702	-1394
965.789	-1385
965.875	-1169
965.962	-704
966.049	-1940
966.136	-1134
966.222	-1642
966.309	-1012
966.395	-1257
966.482	-1576
966.569	-1506
966.655	-1452
966.742	-1722
966.828	-1401
966.915	-1912
967.001	-1451
967.087	-796
967.174	-1399
967.260	-608
967.347	-959
967.433	-1478
967.519	-591
967.605	-2055
967.692	-1408
967.778	-955
967.864	-401
967.950	-1811
968.036	-2422
968.123	-696
968.209	-1309
968.295	-1855
968.381	-283
968.467	-980
968.553	-2250
968.639	-376
968.725	-2140
968.811	-1204
968.897	-1786
968.983	-1535
969.069	-1012
969.154	-685
969.240	-944
969.326	-1911
969.412	-1900
969.497	-1696
969.583	-1791
969.669	-970
969.755	-1579
969.840	-1121
969.926	-1354
970.012	-1735
970.097	-375
970.183	-1525
970.268	-1566
970.354	-679
970.439	-2826
970.525	-527
970.610	-2593
970.696	152
970.781	-1159
970.866	-2193
970.952	-617
971.037	-1257
971.122	-1304
971.208	-1509
971.293	-1036
971.378	-2226
971.463	-1105
971.549	-746
971.634	-1068
971.719	-1000
971.804	-1273
971.889	-96
971.974	-2457
972.059	-1991
972.144	-1064
972.229	-1490
972.314	-1718
972.399	-1191
972.484	-1727
972.569	-596
972.654	-2235
972.739	-760
972.824	-1754
972.908	-1556
972.993	-1520
973.078	-796
973.163	-1784
973.247	-1436
973.332	-2703
973.417	332
973.501	-1995
973.586	-2031
973.671	-1768
973.755	-1220
973.840	-792
973.924	-560
974.009	-1985
974.093	-2619
974.178	-942
974.262	-1693
974.346	-1438
974.431	-1852
974.515	-1465
974.600	-1815
974.684	-1247
974.768	-1427
974.852	-545
974.937	-1990
975.021	-371
975.105	-1160
975.189	-1338
975.273	-562
975.358	-2288
975.442	-1852
975.526	-1057
975.610	-1897
975.694	-2660
975.778	-938
975.862	-1812
975.946	-3637
976.030	95
976.114	-1588
976.198	-1366
976.281	-1814
976.365	-555
976.449	-1535
976.533	-1248
976.617	-1616
976.700	-1665
976.784	-1041
976.868	-1625
976.951	-1047
977.035	-1831
977.119	-1573
977.202	-1977
977.286	-1254
977.369	-1560
977.453	-1065
977.536	-2447
977.620	-1909
977.703	-682
977.787	-2695
977.870	-1138
977.953	-470
978.037	-2178
978.120	-805
978.203	-2190
978.287	-1727
978.370	-1397
978.453	-1625
978.536	-1537
978.620	-1571
978.703	-2000
978.786	-1266
978.869	-1757
978.952	-1538
979.035	-917
979.118	-979
979.201	-2054
979.284	-1480
979.367	-1944
979.450	-923
979.533	-2292
979.616	-1584
979.699	-2016
979.782	-998
979.865	-1210
979.948	-2307
980.030	-1625
980.113	-1993
980.196	-2495
980.279	-945
980.361	-2013
980.444	-2162
980.526	-1270
980.609	-2063
980.692	-1773
980.774	-1072
980.857	-3176
980.939	-932
981.022	-1751
981.104	-1741
981.187	-1778
981.269	-1439
981.352	-1775
981.434	-1754
981.516	-2062
981.599	-654
981.681	-1607
981.763	-1211
981.846	-1478
981.928	-1871
982.010	-1737
982.092	-2314
982.174	-807
982.256	-1993
982.339	-1650
982.421	-826
982.503	-1556
982.585	-1714
982.667	-2084
982.749	-1077
982.831	-1776
982.913	-2263
982.995	-1239
983.077	-1794
983.158	-2179
983.240	-2980
983.322	-1298
983.404	-1375
983.486	-2134
983.568	-1719
983.649	-2443
983.731	-946
983.813	-1637
983.894	-2592
983.976	-2601
984.058	-1518
984.139	-515
984.221	-2207
984.302	-1902
984.384	-1906
984.465	-2441
984.547	-1413
984.628	-1759
984.710	-927
984.791	-2249
984.872	-1954
984.954	-1793
985.035	-2265
985.116	-1995
985.198	-2564
985.279	-771
985.360	-2409
985.441	-1651
985.522	-1058
985.604	-2239
985.685	-3055
985.766	-478
985.847	-1347
985.928	-2028
986.009	-1350
986.090	-2243
986.171	-1633
986.252	-2599
986.333	-2099
986.414	-1436
986.495	-1414
986.576	-2689
986.656	-2063
986.737	-1761
986.818	-1988
986.899	-2334
986.980	-2603
987.060	-1669
987.141	-2198
987.222	-1182
987.302	-1607
987.383	-1639
987.464	-2374
987.544	-1581
987.625	-2054
987.705	-1384
987.786	-2104
987.866	-1991
987.947	-1679
988.027	-2004
988.108	-2256
988.188	-1894
988.268	-2137
988.349	-1671
988.429	-1597
988.509	-1674
988.589	-2627
988.670	-3454
988.750	-904
988.830	-2890
988.910	-1684
988.990	-2480
989.070	-2210
989.151	-2280
989.231	-2252
989.311	-1077
989.391	-1587
989.471	-1973
989.551	-2897
989.631	-2240
989.711	-1393
989.791	-2719
989.870	-2467
989.950	-938
990.030	-1741
990.110	-1782
990.190	-2035
990.269	-2266
990.349	-2324
990.429	-1220
990.509	-1662
990.588	-1922
990.668	-1792
990.747	-1953
990.827	-1300
990.907	-1109
990.986	-2254
991.066	-1852
991.145	-1681
991.225	-1580
991.304	-2522
991.383	-1538
991.463	-1468
991.542	-1203
991.622	-2231
991.701	-2928
991.780	-2134
991.859	-1744
991.939	-1867
992.018	-2218
992.097	-1572
992.176	-1870
992.256	-1266
992.335	-2791
992.414	-1230
992.493	-1876
992.572	-1844
992.651	-1400
992.730	-1709
992.809	-1383
992.888	-2548
992.967	-2659
993.046	-896
993.125	-2994
993.203	-1780
993.282	-1520
993.361	-1185
993.440	-2247
993.519	-2211
993.597	-1880
993.676	-1869
993.755	-1773
993.834	-2316
993.912	-2780
993.991	-902
994.069	-2486
994.148	-2222
994.226	-2393
994.305	-2129
994.384	-2111
994.462	-1169
994.540	-2414
994.619	-1836
994.697	-1987
994.776	-2543
994.854	-1361
994.932	-2421
995.011	-1731
995.089	-2371
995.167	-2422
995.245	-1415
995.324	-2592
995.402	-2294
995.480	-2793
995.558	-2044
995.636	-2686
995.714	-2633
995.792	-893
995.870	-2582
995.948	-1512
996.026	-2047
996.104	-3044
996.182	-1548
996.260	-1906
996.338	-2089
996.416	-2913
996.494	-2317
996.572	-450
996.649	-2024
996.727	-3071
996.805	-1324
996.883	-1616
996.960	-2266
997.038	-1666
997.116	-1390
997.193	-2915
997.271	-1672
997.348	-2695
997.426	-1864
997.504	-2444
997.581	-1774
997.658	-1470
997.736	-2014
997.813	-2433
997.891	-1172
997.968	-2774
998.046	-1843
998.123	-2676
998.200	-1189
998.277	-2626
998.355	-1571
998.432	-3271
998.509	-2250
998.586	-1535
998.663	-1457
998.741	-2207
998.818	-2058
998.895	-2474
998.972	-1680
999.049	-1704
999.126	-1881
999.203	-1901
999.280	-1641
999.357	-2401
999.434	-1794
999.511	-1504
999.587	-1984
999.664	-2585
999.741	-2142
999.818	-1029
999.895	-2213
999.971	-2474
1000.048	-1473
1000.125	-1575
1000.202	-2902
1000.278	-2325
1000.355	-1960
1000.431	-3080
1000.508	-1927
1000.584	-1956
1000.661	-1893
1000.738	-2529
1000.814	-1859
1000.890	-1462
1000.967	-1597
1001.043	-2579
1001.120	-3087
1001.196	-2334
1001.272	-2957
1001.349	-2590
1001.425	-1590
1001.501	-2416
1001.577	-2372
1001.654	-1575
1001.730	-2360
1001.806	-1371
1001.882	-2526
1001.958	-1677
1002.034	-2103
1002.110	-2585
1002.186	-2654
1002.262	-1777
1002.338	-2791
1002.414	-2361
1002.490	-895
1002.566	-3336
1002.642	-2844
1002.718	-2923
1002.794	-1801
1002.870	-1954
1002.945	-2900
1003.021	-2938
1003.097	-3322
1003.173	-2100
1003.248	-2530
1003.324	-1858
1003.400	-2022
1003.475	-2648
1003.551	-1291
1003.626	-2176
1003.702	-2406
1003.777	-2344
1003.853	-2195
1003.928	-2333
1004.004	-1950
1004.079	-2024
1004.155	-2006
1004.230	-2586
1004.305	-1285
1004.381	-2625
1004.456	-1527
1004.531	-2347
1004.607	-2187
1004.682	-2496
1004.757	-2422
1004.832	-2601
1004.907	-2380
1004.982	-2203
1005.057	-2354
1005.133	-2803
1005.208	-1965
1005.283	-1699
1005.358	-1416
1005.433	-2134
1005.508	-1525
1005.583	-2682
1005.657	-2840
1005.732	-1212
1005.807	-2733
1005.882	-1941
1005.957	-2071
1006.032	-1718
1006.106	-2151
1006.181	-2345
1006.256	-1480
1006.331	-2660
1006.405	-2721
1006.480	-2055
1006.554	-2286
1006.629	-2402
1006.704	-2245
1006.778	-2642
1006.853	-1874
1006.927	-2364
1007.002	-2341
1007.076	-2538
1007.150	-2102
1007.225	-1881
1007.299	-1734
1007.373	-2732
1007.448	-2549
1007.522	-2080
1007.596	-2389
1007.671	-2010
1007.745	-1572
1007.819	-2629
1007.893	-1816
1007.967	-1604
1008.041	-2970
1008.115	-2104
1008.190	-3132
1008.264	-2282
1008.338	-3940
1008.412	-2803
1008.486	-2468
1008.560	-1414
1008.633	-2965
1008.707	-2223
1008.781	-1950
1008.855	-2301
1008.929	-2022
1009.003	-2829
1009.076	-2132
1009.150	-1877
1009.224	-2001
1009.298	-2710
1009.371	-2872
1009.445	-1685
1009.519	-1630
1009.592	-2973
1009.666	-2479
1009.739	-2445
1009.813	-3008
1009.886	-1375
1009.960	-3822
1010.033	-2206
1010.107	-1598
1010.180	-3449
1010.253	-2758
1010.327	-1816
1010.400	-1580
1010.473	-2603
1010.547	-939
1010.620	-1928
1010.693	-2003
1010.766	-2472
1010.840	-1962
1010.913	-2229
1010.986	-2743
1011.059	-2409
1011.132	-2208
1011.205	-2106
1011.278	-2228
1011.351	-1696
1011.424	-1585
1011.497	-2391
1011.570	-2209
1011.643	-1439
1011.716	-2449
1011.789	-2260
1011.862	-2044
1011.934	-1989
1012.007	-3293
1012.080	-2370
1012.153	-1757
1012.225	-1371
1012.298	-2260
1012.371	-2776
1012.443	-1056
1012.516	-3543
1012.588	-2429
1012.661	-2502
1012.733	-2223
1012.806	-1198
1012.879	-2279
1012.951	-2233
1013.023	-2989
1013.096	-1854
1013.168	-2863
1013.241	-1807
1013.313	-1888
1013.385	-2574
1013.458	-2125
1013.530	-1019
1013.602	-2787
1013.674	-1269
1013.746	-2694
1013.819	-2233
1013.891	-1796
1013.963	-3174
1014.035	-1785
1014.107	-1952
1014.179	-1605
1014.251	-1941
1014.323	-1666
1014.395	-2894
1014.467	-2679
1014.539	-1967
1014.611	-2085
1014.683	-2112
1014.754	-1794
1014.826	-2271
1014.898	-1726
1014.970	-2716
1015.042	-1294
1015.113	-2700
1015.185	-1915
1015.257	-2933
1015.328	-1341
1015.400	-2813
1015.471	-1933
1015.543	-2983
1015.615	-2614
1015.686	-2509
1015.757	-1983
1015.829	-1523
1015.901	-2110
1015.972	-2206
1016.043	-2144
1016.115	-2088
1016.186	-2445
1016.257	-2848
1016.328	-1523
1016.400	-1461
1016.471	-2724
1016.542	-2011
1016.613	-1641
1016.685	-1971
1016.756	-2181
1016.827	-2706
1016.898	-2481
1016.969	-1755
1017.040	-3170
1017.111	-2223
1017.182	-2005
1017.253	-1969
1017.324	-2448
1017.395	-2290
1017.466	-2043
1017.537	-1920
1017.608	-1197
1017.678	-2123
1017.749	-2283
1017.820	-2713
1017.891	-2239
1017.961	-2059
1018.032	-1874
1018.103	-2179
1018.173	-2476
1018.244	-2498
1018.315	-2166
1018.385	-1950
1018.456	-2618
1018.526	-2889
1018.597	-1890
1018.667	-1601
1018.738	-1622
1018.808	-1284
1018.878	-1605
1018.949	-2102
1019.019	-1600
1019.089	-2105
1019.160	-1817
1019.230	-2537
1019.300	-1545
1019.371	-2581
1019.441	-1904
1019.511	-2121
1019.581	-1433
1019.651	-2253
1019.721	-1629
1019.791	-3767
1019.861	-2761
1019.931	-2061
1020.001	-2908
1020.071	-1600
1020.141	-1946
1020.211	-2278
1020.281	-2237
1020.351	-2269
1020.421	-1898
1020.491	-1501
1020.560	-2088
1020.630	-1693
1020.700	-1641
1020.770	-2856
1020.839	-2072
1020.909	-2177
1020.979	-2171
1021.048	-2177
1021.118	-2652
1021.187	-2500
1021.257	-2522
1021.326	-2255
1021.396	-2428
1021.465	-1589
1021.535	-1929
1021.604	-3262
1021.674	-1507
1021.743	-2101
1021.812	-1749
1021.882	-2160
1021.951	-2400
1022.020	-2795
1022.089	-1395
1022.159	-2082
1022.228	-1268
1022.297	-1891
1022.366	-2453
1022.435	-1895
1022.504	-2721
1022.573	-2362
1022.642	-1969
1022.711	-2084
1022.781	-2093
1022.849	-1892
1022.918	-1902
1022.987	-1568
1023.056	-2242
1023.125	-2783
1023.194	-2022
1023.263	-1327
1023.331	-1025
1023.400	-2566
1023.469	-2603
1023.538	-1601
1023.606	-2151
1023.675	-2563
1023.744	-2083
1023.812	-1355
1023.881	-1747
1023.949	-1658
1024.018	-1580
1024.086	-2420
1024.155	-2648
1024.223	-2048
1024.292	-1929
1024.360	-1254
1024.429	-2244
1024.497	-3106
1024.565	-2704
1024.634	-2278
1024.702	-2338
1024.770	-1608
1024.838	-2436
1024.907	-1651
1024.975	-1722
1025.043	-1747
1025.111	-2669
1025.179	-1937
1025.247	-1112
1025.315	-2221
1025.383	-2094
1025.451	-1758
1025.519	-2493
1025.587	-2396
1025.655	-1808
1025.723	-1831
1025.791	-2303
1025.859	-2289
1025.927	-1566
1025.995	-1570
1026.062	-2464
1026.130	-1763
1026.198	-2362
1026.266	-2409
1026.333	-1714
1026.401	-1832
1026.469	-2164
1026.536	-2058
1026.604	-1628
1026.671	-1874
1026.739	-1629
1026.806	-1821
1026.874	-2329
1026.941	-1341
1027.009	-1192
1027.076	-2269
1027.144	-1358
1027.211	-1765
1027.278	-2789
1027.345	-1432
1027.413	-1419
1027.480	-1794
1027.547	-2015
1027.614	-2020
1027.682	-1582
1027.749	-1816
1027.816	-1765
1027.883	-2167
1027.950	-1591
1028.017	-2423
1028.084	-1918
1028.151	-2353
1028.218	-1801
1028.285	-2064
1028.352	-1533
1028.419	-2257
1028.486	-1253
1028.553	-1755
1028.619	-2545
1028.686	-1638
1028.753	-2306
1028.820	-1163
1028.886	-2136
1028.953	-2086
1029.020	-2341
1029.086	-1858
1029.153	-1806
1029.220	-1778
1029.286	-2143
1029.353	-1344
1029.419	-1811
1029.486	-1679
1029.552	-1821
1029.619	-1833
1029.685	-2416
1029.751	-2393
1029.818	-834
1029.884	-2563
1029.951	-1667
1030.017	-2141
1030.083	-1830
1030.149	-1698
1030.216	-1977
1030.282	-1525
1030.348	-2544
1030.414	-1669
1030.480	-1632
1030.546	-2481
1030.612	-1884
1030.678	-2372
1030.744	-2843
1030.810	-1953
1030.876	-863
1030.942	-2081
1031.008	-1923
1031.074	-2477
1031.140	-2001
1031.206	-753
1031.272	-2803
1031.337	-1824
1031.403	-1162
1031.469	-2740
1031.534	-1969
1031.600	-1834
1031.666	-2510
1031.731	-2584
1031.797	-2170
1031.863	-2671
1031.928	-1229
1031.994	-1744
1032.059	-2075
1032.125	-2483
1032.190	-2130
1032.256	-2044
1032.321	-1767
1032.386	-2293
1032.452	-1096
1032.517	-2111
1032.582	-1790
1032.647	-1941
1032.713	-1748
1032.778	-1308
1032.843	-1419
1032.908	-2146
1032.974	-2503
1033.039	-2411
1033.104	-1614
1033.169	-2182
1033.234	-2282
1033.299	-1984
1033.364	-1373
1033.429	-2113
1033.494	-1738
1033.559	-1731
1033.624	-948
1033.688	-1804
1033.753	-1878
1033.818	-1802
1033.883	-1208
1033.948	-2803
1034.013	-1377
1034.077	-2262
1034.142	-1517
1034.207	-1447
1034.271	-2328
1034.336	-1939
1034.400	-2153
1034.465	-2079
1034.530	-1732
1034.594	-2052
1034.658	-1981
1034.723	-2019
1034.787	-1781
1034.852	-1830
1034.916	-1964
1034.981	-1787
1035.045	-1479
1035.109	-1707
1035.173	-1619
1035.238	-2711
1035.302	-1836
1035.366	-1602
1035.430	-2201
1035.495	-2121
1035.559	-1398
1035.623	-1901
1035.687	-2208
1035.751	-2245
1035.815	-2088
1035.879	-1840
1035.943	-2033
1036.007	-2278
1036.071	-1952
1036.135	-1604
1036.198	-2155
1036.262	-2496
1036.326	-1713
1036.390	-1907
1036.454	-1631
1036.517	-2376
1036.581	-1812
1036.645	-1313
1036.709	-2091
1036.772	-1050
1036.836	-1942
1036.900	-2170
1036.963	-2016
1037.026	-1719
1037.090	-2305
1037.154	-2614
1037.217	-2011
1037.280	-2165
1037.344	-1136
1037.407	-2377
1037.471	-1386
1037.534	-1758
1037.597	-1577
1037.661	-1999
1037.724	-2141
1037.787	-2593
1037.850	-2467
1037.913	-2134
1037.977	-1635
1038.040	-2329
1038.103	-2027
1038.166	-2187
1038.229	-2133
1038.292	-2488
1038.355	-1562
1038.418	-2908
1038.481	-1551
1038.544	-1983
1038.607	-1520
1038.670	-2585
1038.732	-1076
1038.795	-2259
1038.858	-2089
1038.921	-1783
1038.984	-654
1039.046	-1710
1039.109	-2327
1039.172	-1479
1039.234	-1384
1039.297	-1974
1039.360	-2390
1039.422	-1999
1039.485	-1761
1039.547	-2761
1039.610	-2114
1039.672	-2110
1039.734	-1905
1039.797	-1642
1039.859	-1833
1039.922	-1880
1039.984	-1528
1040.046	-1457
1040.109	-1803
1040.171	-2318
1040.233	-1874
1040.295	-2902
1040.358	-2281
1040.420	-1626
1040.482	-1466
1040.544	-2474
1040.606	-1790
1040.668	-1256
1040.730	-1821
1040.792	-2286
1040.854	-2535
1040.916	-2042
1040.978	-2137
1041.040	-1450
1041.102	-2200
1041.164	-1947
1041.225	-1307
1041.287	-2522
1041.349	-1318
1041.411	-2107
1041.472	-2159
1041.534	-1959
1041.596	-2813
1041.657	-2028
1041.719	-1917
1041.781	-2017
1041.842	-2336
1041.904	-2784
1041.965	-1534
1042.027	-1545
1042.088	-967
1042.150	-2527
1042.211	-2159
1042.272	-1898
1042.334	-1835
1042.395	-2244
1042.456	-2028
1042.518	-2727
1042.579	-1525
1042.640	-1985
1042.701	-2263
1042.763	-1783
1042.824	-2287
1042.885	-1628
1042.946	-2298
1043.007	-2526
1043.068	-2238
1043.129	-2119
1043.190	-1750
1043.251	-1658
1043.312	-1513
1043.373	-1434
1043.434	-1859
1043.495	-1700
1043.556	-1596
1043.616	-2174
1043.677	-2588
1043.738	-1320
1043.799	-2154
1043.859	-1445
1043.920	-2161
1043.981	-2272
1044.041	-1732
1044.102	-2397
1044.162	-1822
1044.223	-2478
1044.284	-1663
1044.344	-1834
1044.405	-1928
1044.465	-1580
1044.525	-2608
1044.586	-1183
1044.646	-1770
1044.707	-1881
1044.767	-1729
1044.827	-1848
1044.887	-1506
1044.948	-1718
1045.008	-1686
1045.068	-2137
1045.128	-1618
1045.188	-2216
1045.249	-1809
1045.309	-1657
1045.369	-2029
1045.429	-1967
1045.489	-1884
1045.549	-1387
1045.609	-1574
1045.669	-2235
1045.729	-1974
1045.789	-1612
1045.848	-2172
1045.908	-2040
1045.968	-1476
1046.028	-1178
1046.088	-1064
1046.147	-1633
1046.207	-1553
1046.267	-1822
1046.326	-1104
1046.386	-1500
1046.446	-688
1046.505	-1757
1046.565	-712
1046.624	-732
1046.684	-1445
1046.743	-683
1046.803	-447
1046.862	-591
1046.922	0
