'Start Wavelength	183.907
'End Wavelength	1046.922
'Gate Delay	5.000
'Gate Width (ms)	1.050
'Laser Output Level	0.000
'X Position	0.000
'Y Position	0.000
'Z Position	0.000
'Grid Point Number	1.000
'Shot Number	100.000
183.907	339.000
183.977	-22.000
184.047	-477
184.116	492
184.186	174
184.256	630
184.325	-247
184.395	312
184.465	993
184.534	-93
184.604	688
184.674	366
184.743	-647
184.813	1328
184.883	-274
184.952	374
185.022	510
185.092	-107
185.161	100
185.231	72
185.301	-124
185.370	766
185.440	308
185.509	678
185.579	-41
185.649	628
185.718	382
185.788	452
185.857	-255
185.927	615
185.996	627
186.066	403
186.136	184
186.205	742
186.275	738
186.344	1035
186.414	112
186.483	680
186.553	1274
186.622	1630
186.692	-52
186.761	773
186.831	173
186.900	765
186.970	610
187.039	615
187.109	615
187.178	1011
187.248	582
187.317	1188
187.387	351
187.456	-28
187.526	589
187.595	1309
187.664	889
187.734	1588
187.803	967
187.873	966
187.942	170
188.012	1029
188.081	221
188.150	629
188.220	690
188.289	1758
188.358	1405
188.428	1482
188.497	725
188.567	1503
188.636	812
188.705	-44
188.775	393
188.844	396
188.913	920
188.983	985
189.052	1059
189.121	239
189.191	-19
189.260	984
189.329	194
189.399	544
189.468	774
189.537	1073
189.606	1051
189.676	180
189.745	-23
189.814	1406
189.883	1548
189.953	865
190.022	501
190.091	1043
190.161	486
190.230	1238
190.299	590
190.368	1071
190.437	486
190.507	649
190.576	969
190.645	776
190.714	446
190.783	-88
190.853	599
190.922	1298
190.991	932
191.060	596
191.129	-15
191.198	835
191.268	368
191.337	690
191.406	798
191.475	483
191.544	209
191.613	438
191.682	521
191.752	-454
191.821	-117
191.890	1028
191.959	1056
192.028	248
192.097	620
192.166	803
192.235	-261
192.304	804
192.373	193
192.442	631
192.511	786
192.580	86
192.650	333
192.719	530
192.788	1116
192.857	738
192.926	201
192.995	1034
193.064	1009
193.133	875
193.202	-254
193.271	208
193.340	529
193.409	1900
193.478	2218
193.547	986
193.615	822
193.684	1802
193.753	1951
193.822	1141
193.891	668
193.960	1179
194.029	1808
194.098	2062
194.167	286
194.236	1723
194.305	308
194.374	1820
194.443	725
194.512	2397
194.580	1147
194.649	3457
194.718	2710
194.787	1794
194.856	468
194.925	2141
194.994	1746
195.062	2934
195.131	3764
195.200	4021
195.269	4541
195.338	2696
195.407	1246
195.475	943
195.544	3537
195.613	3735
195.682	1789
195.751	4072
195.819	4476
195.888	3569
195.957	4314
196.026	4978
196.094	4651
196.163	4717
196.232	4441
196.301	4270
196.369	3531
196.438	3282
196.507	1734
196.576	1805
196.644	905
196.713	220
196.782	451
196.850	1775
196.919	519
196.988	1969
197.056	531
197.125	2040
197.194	2058
197.262	1144
197.331	1529
197.400	1035
197.468	1144
197.537	1303
197.606	1062
197.674	2102
197.743	1063
197.812	760
197.880	844
197.949	1704
198.017	632
198.086	1089
198.155	1069
198.223	1223
198.292	1050
198.360	1113
198.429	877
198.497	311
198.566	1360
198.635	2282
198.703	1359
198.772	900
198.840	1321
198.909	1632
198.977	1456
199.046	1341
199.114	1403
199.183	1155
199.251	1910
199.320	767
199.388	1074
199.457	2490
199.525	2802
199.594	1666
199.662	1239
199.731	1914
199.799	1917
199.867	1333
199.936	788
200.004	1390
200.073	2057
200.141	1838
200.210	66
200.278	2103
200.346	2391
200.415	2270
200.483	1798
200.552	2053
200.620	1981
200.688	3022
200.757	2281
200.825	1527
200.893	1659
200.962	2435
201.030	1747
201.098	1973
201.167	1505
201.235	1531
201.303	633
201.372	1323
201.440	1410
201.508	762
201.577	1458
201.645	1913
201.713	1216
201.781	577
201.850	1073
201.918	1381
201.986	2211
202.055	1555
202.123	1001
202.191	1031
202.259	1064
202.327	1805
202.396	1287
202.464	2833
202.532	1762
202.600	3969
202.669	1812
202.737	887
202.805	378
202.873	1025
202.941	1333
203.009	1540
203.078	821
203.146	886
203.214	1282
203.282	-200
203.350	2188
203.418	1736
203.487	1426
203.555	1877
203.623	534
203.691	1613
203.759	417
203.827	869
203.895	1668
203.963	2080
204.031	393
204.099	1155
204.168	591
204.236	1626
204.304	1069
204.372	1916
204.440	1720
204.508	869
204.576	-380
204.644	966
204.712	94
204.780	1520
204.848	846
204.916	273
204.984	672
205.052	1630
205.120	762
205.188	1074
205.256	-102
205.324	16
205.392	407
205.460	470
205.528	360
205.596	998
205.664	521
205.732	224
205.799	542
205.867	1378
205.935	-54
206.003	1311
206.071	-146
206.139	1127
206.207	775
206.275	785
206.343	-82
206.411	1556
206.478	352
206.546	745
206.614	-25
206.682	1071
206.750	-330
206.818	1123
206.885	1405
206.953	-85
207.021	1026
207.089	142
207.157	-213
207.225	691
207.292	546
207.360	-270
207.428	378
207.496	1198
207.563	596
207.631	1276
207.699	-146
207.767	1836
207.834	1129
207.902	1764
207.970	1267
208.038	680
208.105	617
208.173	884
208.241	-245
208.309	1371
208.376	1060
208.444	4540
208.512	991
208.579	656
208.647	1278
208.715	1626
208.782	1484
208.850	1872
208.918	147
208.985	933
209.053	2030
209.120	1911
209.188	644
209.256	1093
209.323	537
209.391	3325
209.459	2777
209.526	596
209.594	463
209.661	292
209.729	1271
209.796	1929
209.864	1528
209.932	804
209.999	3050
210.067	3105
210.134	3108
210.202	2082
210.269	4632
210.337	3987
210.404	1309
210.472	1464
210.539	1402
210.607	1795
210.674	4767
210.742	2712
210.809	2096
210.877	4584
210.944	3392
211.012	2762
211.079	3892
211.146	1386
211.214	717
211.281	2699
211.349	3162
211.416	2152
211.484	2799
211.551	1396
211.618	1204
211.686	1167
211.753	283
211.821	994
211.888	215
211.955	2121
212.023	907
212.090	829
212.157	1353
212.225	1873
212.292	1877
212.359	2160
212.427	5942
212.494	3557
212.561	2292
212.629	2229
212.696	1447
212.763	2368
212.831	1150
212.898	1704
212.965	554
213.032	2179
213.100	4410
213.167	3679
213.234	3449
213.301	2023
213.369	1858
213.436	1315
213.503	1369
213.570	3493
213.638	4528
213.705	2315
213.772	1538
213.839	2226
213.906	3321
213.973	4355
214.041	2512
214.108	3488
214.175	2768
214.242	1843
214.309	877
214.376	2460
214.444	3288
214.511	3670
214.578	1598
214.645	2888
214.712	4386
214.779	4454
214.846	2467
214.913	3933
214.980	2002
215.048	2944
215.115	4821
215.182	8451
215.249	5845
215.316	3587
215.383	3378
215.450	4988
215.517	4192
215.584	4306
215.651	5159
215.718	4050
215.785	4697
215.852	7001
215.919	9323
215.986	9062
216.053	5424
216.120	2249
216.187	6230
216.254	8113
216.321	5789
216.388	7062
216.455	6718
216.522	7528
216.589	13094
216.656	16876
216.722	14423
216.789	7403
216.856	5033
216.923	3446
216.990	3933
217.057	5713
217.124	7983
217.191	6721
217.258	5481
217.324	5105
217.391	3647
217.458	3388
217.525	2247
217.592	3549
217.659	2366
217.725	5820
217.792	8186
217.859	10385
217.926	5645
217.993	2936
218.059	2608
218.126	3055
218.193	4195
218.260	2032
218.327	2321
218.393	5910
218.460	4738
218.527	1295
218.594	3493
218.660	11017
218.727	12002
218.794	4365
218.860	3214
218.927	2806
218.994	2838
219.061	4837
219.127	7234
219.194	11014
219.261	4735
219.327	3496
219.394	3801
219.461	937
219.527	2537
219.594	6609
219.661	5221
219.727	2607
219.794	2382
219.860	2254
219.927	4624
219.994	15593
220.060	12165
220.127	7560
220.193	3331
220.260	1489
220.326	1851
220.393	1495
220.460	959
220.526	1414
220.593	1052
220.659	3531
220.726	1674
220.792	4015
220.859	2459
220.925	1127
220.992	1747
221.058	4335
221.125	5476
221.191	3175
221.258	1473
221.324	2900
221.391	3509
221.457	11256
221.524	8153
221.590	6303
221.657	6804
221.723	3923
221.789	3101
221.856	4107
221.922	968
221.989	2394
222.055	1953
222.121	1121
222.188	2964
222.254	2548
222.321	1188
222.387	1584
222.453	1568
222.520	1705
222.586	3213
222.652	3179
222.719	3266
222.785	12651
222.851	6520
222.918	4288
222.984	5699
223.050	7177
223.116	2362
223.183	3035
223.249	578
223.315	1460
223.382	1749
223.448	2560
223.514	1676
223.580	2508
223.647	1468
223.713	1624
223.779	2143
223.845	2455
223.911	1602
223.978	1678
224.044	3075
224.110	2348
224.176	2729
224.242	2491
224.309	1455
224.375	2599
224.441	2224
224.507	1530
224.573	2458
224.639	3197
224.705	2123
224.772	2623
224.838	2604
224.904	7337
224.970	3328
225.036	3114
225.102	4492
225.168	4845
225.234	3519
225.300	2706
225.366	2940
225.432	2114
225.499	1816
225.565	5623
225.631	5095
225.697	2207
225.763	2287
225.829	2297
225.895	3433
225.961	7556
226.027	8657
226.093	6124
226.159	3655
226.225	3260
226.291	4283
226.357	6445
226.423	10677
226.489	10959
226.554	5517
226.620	4940
226.686	10641
226.752	18861
226.818	7757
226.884	5868
226.950	4778
227.016	3246
227.082	6609
227.148	7852
227.214	10742
227.279	9645
227.345	6140
227.411	7588
227.477	5294
227.543	9098
227.609	11125
227.674	8924
227.740	9239
227.806	7813
227.872	3223
227.938	4455
228.003	9544
228.069	6404
228.135	2628
228.201	4289
228.267	4681
228.332	9788
228.398	10585
228.464	6412
228.530	3065
228.595	4527
228.661	3576
228.727	11395
228.792	13902
228.858	6741
228.924	8227
228.990	9761
229.055	12499
229.121	16083
229.187	8029
229.252	7535
229.318	5057
229.384	13291
229.449	13113
229.515	5056
229.581	3291
229.646	6124
229.712	7253
229.777	17833
229.843	20430
229.909	12990
229.974	9753
230.040	9561
230.105	7308
230.171	7233
230.236	5439
230.302	5484
230.368	9940
230.433	4846
230.499	4976
230.564	4049
230.630	5916
230.695	5023
230.761	3916
230.826	2665
230.892	8794
230.957	5782
231.023	3398
231.088	7126
231.154	6151
231.219	6473
231.284	8914
231.350	11070
231.415	6304
231.481	3790
231.546	2802
231.612	3601
231.677	3600
231.742	4053
231.808	7875
231.873	5218
231.939	2810
232.004	14178
232.069	12934
232.135	7194
232.200	4927
232.265	4586
232.331	3929
232.396	3091
232.461	2985
232.527	3999
232.592	5615
232.657	5810
232.723	9670
232.788	8520
232.853	4213
232.918	5027
232.984	4874
233.049	4976
233.114	8882
233.179	9906
233.245	9868
233.310	14939
233.375	6459
233.440	6060
233.506	4734
233.571	5723
233.636	5767
233.701	6873
233.766	12437
233.832	17181
233.897	14715
233.962	18061
234.027	22306
234.092	18350
234.157	14703
234.222	13586
234.288	14473
234.353	30072
234.418	34326
234.483	25712
234.548	24097
234.613	17975
234.678	15696
234.743	16514
234.808	34215
234.873	25425
234.938	14937
235.004	11057
235.069	10253
235.134	9234
235.199	8202
235.264	7431
235.329	6116
235.394	7943
235.459	9983
235.524	11776
235.589	7818
235.654	5865
235.719	3843
235.784	4920
235.849	7110
235.913	16812
235.978	18633
236.043	24734
236.108	10744
236.173	9622
236.238	11680
236.303	6026
236.368	6637
236.433	9543
236.498	16124
236.563	9422
236.627	7617
236.692	10347
236.757	6650
236.822	11082
236.887	16832
236.952	11653
237.017	7957
237.081	10695
237.146	9333
237.211	7629
237.276	6329
237.341	17002
237.405	21597
237.470	14723
237.535	15818
237.600	8252
237.664	6934
237.729	7763
237.794	8805
237.859	9026
237.923	14496
237.988	10974
238.053	14958
238.118	17286
238.182	33224
238.247	38266
238.312	26515
238.376	19210
238.441	14287
238.506	13540
238.570	8200
238.635	9215
238.700	6950
238.764	7816
238.829	15766
238.893	22447
238.958	12848
239.023	12066
239.087	7275
239.152	11564
239.216	9669
239.281	9319
239.346	7677
239.410	8436
239.475	9794
239.539	35471
239.604	32618
239.668	13253
239.733	7677
239.797	7505
239.862	11801
239.926	24926
239.991	15698
240.055	9705
240.120	10292
240.184	13487
240.249	11263
240.313	9938
240.378	10886
240.442	26289
240.507	37074
240.571	15929
240.635	16673
240.700	28595
240.764	21113
240.829	12810
240.893	7293
240.957	9021
241.022	19160
241.086	36440
241.151	28324
241.215	16466
241.279	15590
241.344	23448
241.408	15817
241.472	15339
241.537	17482
241.601	12224
241.665	8010
241.730	7167
241.794	9727
241.858	8695
241.922	12228
241.987	12510
242.051	8764
242.115	6520
242.179	6584
242.244	6596
242.308	9636
242.372	9785
242.436	11040
242.501	16346
242.565	10121
242.629	9111
242.693	9864
242.757	7559
242.822	7285
242.886	10442
242.950	10978
243.014	13436
243.078	17289
243.142	23540
243.206	16521
243.271	15956
243.335	10115
243.399	8968
243.463	12009
243.527	21531
243.591	20404
243.655	26437
243.719	15600
243.783	14448
243.847	17210
243.911	20357
243.975	43882
244.040	42540
244.104	19126
244.168	14663
244.232	28918
244.296	36563
244.360	18963
244.424	17836
244.488	17377
244.552	18087
244.615	12081
244.679	12824
244.743	16193
244.807	20868
244.871	16203
244.935	13997
244.999	12642
245.063	18139
245.127	20805
245.191	23231
245.255	20823
245.319	23316
245.383	25442
245.446	20943
245.510	18405
245.574	24904
245.638	25846
245.702	21406
245.766	33774
245.829	26105
245.893	22278
245.957	17837
246.021	21745
246.085	25984
246.149	29800
246.212	48494
246.276	70761
246.340	48747
246.404	34836
246.467	26565
246.531	36512
246.595	27536
246.659	32284
246.722	33852
246.786	43161
246.850	34209
246.913	36705
246.977	24003
247.041	22307
247.104	27392
247.168	22932
247.232	44208
247.295	80184
247.359	57410
247.423	30354
247.486	44137
247.550	37401
247.614	35858
247.677	46613
247.741	31052
247.804	24754
247.868	29943
247.932	47815
247.995	89107
248.059	55665
248.122	32311
248.186	36731
248.249	62154
248.313	106423
248.376	121963
248.440	106262
248.503	59362
248.567	44431
248.630	53376
248.694	68566
248.757	87715
248.821	116998
248.884	117172
248.948	102507
249.011	120441
249.075	133012
249.138	135342
249.202	93806
249.265	63247
249.328	55559
249.392	44486
249.455	38712
249.519	29243
249.582	41664
249.645	54344
249.709	41944
249.772	28683
249.835	26670
249.899	31522
249.962	24706
250.025	25213
250.089	56508
250.152	95275
250.215	60322
250.279	41697
250.342	37766
250.405	34720
250.468	28132
250.532	39594
250.595	46735
250.658	49340
250.721	57451
250.785	43997
250.848	35065
250.911	27351
250.974	23802
251.038	36919
251.101	79791
251.164	51544
251.227	48080
251.290	38779
251.354	37047
251.417	55686
251.480	59364
251.543	40040
251.606	68105
251.669	63344
251.732	47543
251.795	79719
251.859	74739
251.922	65117
251.985	53467
252.048	33631
252.111	45275
252.174	56645
252.237	89837
252.300	136883
252.363	128431
252.426	126141
252.489	90628
252.552	65985
252.615	51797
252.678	56007
252.741	102325
252.804	95745
252.867	100623
252.930	130836
252.993	99005
253.056	70191
253.119	56955
253.182	48297
253.245	56867
253.308	62247
253.371	86960
253.434	86205
253.497	72428
253.559	105573
253.622	97040
253.685	131251
253.748	147742
253.811	78175
253.874	79615
253.937	83553
254.000	67330
254.062	84518
254.125	109920
254.188	93107
254.251	88566
254.314	57828
254.376	87324
254.439	112973
254.502	123677
254.565	97609
254.628	144264
254.690	141451
254.753	89839
254.816	72565
254.878	72055
254.941	84612
255.004	86565
255.067	56070
255.129	66197
255.192	37030
255.255	33936
255.317	45804
255.380	32443
255.443	23612
255.505	25451
255.568	27916
255.631	26284
255.693	30263
255.756	23391
255.819	22458
255.881	20407
255.944	19008
256.006	16901
256.069	20793
256.132	18796
256.194	28632
256.257	51432
256.319	40374
256.382	38450
256.444	20688
256.507	16985
256.569	14456
256.632	13930
256.694	24660
256.757	21851
256.819	20411
256.882	18655
256.944	23528
257.007	27694
257.069	35457
257.132	20603
257.194	15127
257.257	14650
257.319	14826
257.381	12003
257.444	19113
257.506	18978
257.569	50358
257.631	57253
257.693	42807
257.756	23440
257.818	31945
257.880	19837
257.943	20905
258.005	22780
258.067	20960
258.130	18989
258.192	29752
258.254	80749
258.317	43870
258.379	19717
258.441	34017
258.503	39179
258.566	39674
258.628	57763
258.690	23416
258.753	24594
258.815	75326
258.877	47060
258.939	20100
259.001	13724
259.064	13828
259.126	22754
259.188	34627
259.250	21652
259.312	20804
259.375	33997
259.437	41434
259.499	19048
259.561	15541
259.623	18047
259.685	17708
259.747	19083
259.809	40923
259.872	76333
259.934	99916
259.996	98562
260.058	39560
260.120	19566
260.182	15520
260.244	13472
260.306	14495
260.368	19500
260.430	19345
260.492	28940
260.554	29080
260.616	28412
260.678	58125
260.740	83658
260.802	35407
260.864	37632
260.926	34555
260.988	30369
261.050	24499
261.112	29796
261.174	54481
261.236	63099
261.298	32532
261.359	38709
261.421	56852
261.483	27768
261.545	25719
261.607	18896
261.669	16846
261.731	27298
261.793	66346
261.854	51705
261.916	36411
261.978	18205
262.040	20820
262.102	20046
262.164	32400
262.225	32669
262.287	17492
262.349	42990
262.411	40160
262.472	19147
262.534	25927
262.596	56402
262.658	24859
262.719	19260
262.781	21026
262.843	51570
262.904	31187
262.966	25488
263.028	23383
263.090	47807
263.151	103953
263.213	52141
263.275	46248
263.336	25583
263.398	18762
263.459	14999
263.521	18444
263.583	39429
263.644	37509
263.706	21142
263.767	13748
263.829	11989
263.891	11122
263.952	9708
264.014	10165
264.075	10683
264.137	17193
264.198	25737
264.260	12394
264.321	9322
264.383	19804
264.444	31026
264.506	12062
264.567	14910
264.629	11738
264.690	8958
264.752	17714
264.813	18909
264.875	16366
264.936	12595
264.998	10203
265.059	10034
265.120	10524
265.182	16696
265.243	12995
265.305	10836
265.366	11307
265.427	13387
265.489	13196
265.550	9564
265.611	20700
265.673	22189
265.734	14106
265.795	9470
265.857	10735
265.918	10296
265.979	11085
266.040	13860
266.102	17561
266.163	23947
266.224	33851
266.286	25441
266.347	16919
266.408	20332
266.469	24568
266.530	16251
266.592	13360
266.653	33510
266.714	61736
266.775	23706
266.836	16715
266.898	12739
266.959	20810
267.020	14211
267.081	11785
267.142	9818
267.203	9167
267.264	9224
267.326	16342
267.387	13185
267.448	10386
267.509	12312
267.570	16800
267.631	12286
267.692	10973
267.753	11881
267.814	12228
267.875	22232
267.936	52299
267.997	24444
268.058	31466
268.119	24104
268.180	30114
268.241	25399
268.302	17731
268.363	17094
268.424	27911
268.485	23780
268.546	17315
268.607	12551
268.668	12297
268.729	14870
268.790	17543
268.851	15758
268.912	33012
268.972	63412
269.033	50152
269.094	20997
269.155	15301
269.216	14639
269.277	20463
269.338	17102
269.398	17577
269.459	30951
269.520	43985
269.581	64995
269.642	86762
269.702	54876
269.763	31691
269.824	21917
269.885	23724
269.945	38916
270.006	20632
270.067	13659
270.128	12033
270.188	13291
270.249	17319
270.310	15921
270.370	13235
270.431	16689
270.492	14572
270.553	16773
270.613	45875
270.674	67367
270.734	37923
270.795	23372
270.856	35286
270.916	36458
270.977	22128
271.038	29783
271.098	33567
271.159	38291
271.219	43407
271.280	19609
271.340	15546
271.401	21503
271.462	54018
271.522	40863
271.583	25177
271.643	26150
271.704	24131
271.764	30102
271.825	55524
271.885	136230
271.946	187945
272.006	97601
272.066	99151
272.127	146723
272.187	63224
272.248	35749
272.308	34311
272.369	91019
272.429	70744
272.489	60629
272.550	67399
272.610	64866
272.671	61004
272.731	36764
272.791	67212
272.852	47583
272.912	45779
272.972	24152
273.033	20329
273.093	43465
273.153	40959
273.214	21719
273.274	22272
273.334	52935
273.394	137388
273.455	100114
273.515	70726
273.575	128340
273.635	68753
273.696	75099
273.756	140116
273.816	80248
273.876	41353
273.936	54882
273.997	99212
274.057	37925
274.117	37335
274.177	48803
274.237	141252
274.297	144474
274.358	115821
274.418	111124
274.478	99632
274.538	49336
274.598	36322
274.658	83740
274.718	119552
274.778	68978
274.838	39018
274.898	52258
274.958	163192
275.018	150389
275.078	125153
275.138	77189
275.198	38825
275.258	26688
275.318	38807
275.378	72340
275.438	84554
275.498	55021
275.558	69290
275.618	131047
275.678	99287
275.738	68944
275.798	60717
275.858	28403
275.918	19631
275.978	31000
276.038	33659
276.098	21638
276.157	36287
276.217	107704
276.277	67615
276.337	66577
276.397	35008
276.457	53983
276.517	34219
276.576	20991
276.636	22917
276.696	46647
276.756	71325
276.815	61772
276.875	38345
276.935	44553
276.995	42889
277.055	22150
277.114	21689
277.174	23090
277.234	78876
277.293	57233
277.353	42089
277.413	23615
277.472	28414
277.532	34007
277.592	24458
277.651	28142
277.711	30681
277.771	21034
277.830	70263
277.890	66905
277.950	37855
278.009	44192
278.069	28817
278.128	25359
278.188	36789
278.248	30342
278.307	21352
278.367	20789
278.426	22991
278.486	16811
278.545	13885
278.605	12410
278.664	14540
278.724	18677
278.783	45440
278.843	130788
278.902	49482
278.962	34804
279.021	41987
279.081	19750
279.140	22990
279.199	37584
279.259	27074
279.318	16963
279.378	14085
279.437	18988
279.496	52158
279.556	105647
279.615	94158
279.675	31558
279.734	24178
279.793	47101
279.853	43757
279.912	21139
279.971	18552
280.031	13544
280.090	17895
280.149	23324
280.208	19530
280.268	58378
280.327	80120
280.386	36282
280.445	41457
280.505	61091
280.564	26033
280.623	19881
280.682	31280
280.742	64126
280.801	25080
280.860	21758
280.919	15709
280.978	11304
281.037	13458
281.097	15025
281.156	14660
281.215	14329
281.274	17746
281.333	67605
281.392	68531
281.451	18196
281.510	13481
281.569	16767
281.628	12711
281.688	9752
281.747	17226
281.806	21557
281.865	13048
281.924	16290
281.983	24144
282.042	12509
282.101	13994
282.160	14610
282.219	12018
282.278	11362
282.337	45665
282.396	40656
282.454	26221
282.513	24803
282.572	74390
282.631	57907
282.690	21233
282.749	16410
282.808	29535
282.867	27126
282.926	31304
282.985	13671
283.043	11236
283.102	14008
283.161	17347
283.220	27248
283.279	73572
283.338	32611
283.396	22897
283.455	22532
283.514	24352
283.573	42856
283.631	37696
283.690	21080
283.749	15642
283.808	34582
283.866	53347
283.925	18656
283.984	13635
284.043	26224
284.101	34647
284.160	15779
284.219	12387
284.277	11948
284.336	26593
284.395	98416
284.453	86743
284.512	25286
284.570	47519
284.629	39616
284.688	19872
284.746	17924
284.805	14864
284.863	21435
284.922	28149
284.981	16208
285.039	16681
285.098	20030
285.156	51156
285.215	201110
285.273	189086
285.332	64549
285.390	40984
285.449	26746
285.507	15914
285.566	12765
285.624	13859
285.683	11259
285.741	11636
285.799	16589
285.858	21516
285.916	23363
285.975	13811
286.033	7931
286.091	7571
286.150	6915
286.208	8752
286.267	16090
286.325	21999
286.383	51491
286.442	37991
286.500	12999
286.558	9555
286.616	9491
286.675	26075
286.733	28742
286.791	28184
286.850	28733
286.908	32476
286.966	58147
287.024	26630
287.083	11750
287.141	9370
287.199	13183
287.257	38175
287.315	24591
287.374	24089
287.432	47484
287.490	37762
287.548	30959
287.606	19349
287.664	13907
287.723	28478
287.781	39370
287.839	16563
287.897	22530
287.955	18971
288.013	13557
288.071	17952
288.129	39090
288.187	123371
288.245	56427
288.303	18964
288.361	15316
288.419	15802
288.477	9301
288.535	8798
288.593	9925
288.651	13481
288.709	11483
288.767	15972
288.825	21452
288.883	11670
288.941	8193
288.999	13002
289.057	15317
289.115	11435
289.173	12840
289.231	17602
289.289	19266
289.346	12733
289.404	22065
289.462	48241
289.520	60547
289.578	28999
289.636	10409
289.694	8954
289.751	8113
289.809	9975
289.867	16559
289.925	22855
289.983	39253
290.040	14810
290.098	10459
290.156	25970
290.214	42675
290.271	27083
290.329	10781
290.387	8687
290.444	12496
290.502	8392
290.560	9277
290.617	9246
290.675	12987
290.733	15558
290.790	25990
290.848	13901
290.906	15508
290.963	24120
291.021	17252
291.078	11333
291.136	12051
291.194	24515
291.251	66876
291.309	27454
291.366	12212
291.424	14824
291.481	16843
291.539	9793
291.596	8485
291.654	9041
291.711	9323
291.769	19182
291.826	69472
291.884	53091
291.941	27215
291.999	26372
292.056	31148
292.114	40587
292.171	24548
292.228	23989
292.286	35977
292.343	81938
292.401	96217
292.458	52244
292.515	30837
292.573	45422
292.630	46717
292.687	46519
292.745	29927
292.802	25824
292.859	36911
292.917	113129
292.974	102348
293.031	37866
293.089	21393
293.146	16799
293.203	18449
293.260	14549
293.318	11199
293.375	10775
293.432	11448
293.489	13762
293.546	14942
293.604	23317
293.661	61920
293.718	152464
293.775	106381
293.832	73152
293.889	40987
293.947	30603
294.004	22251
294.061	26682
294.118	44780
294.175	69299
294.232	30972
294.289	18938
294.346	17322
294.403	19560
294.460	28091
294.517	28773
294.574	25854
294.631	19133
294.688	20493
294.745	52642
294.802	151111
294.859	137602
294.916	70476
294.973	47203
295.030	70646
295.087	71353
295.144	41997
295.201	29975
295.258	22487
295.315	28422
295.372	84061
295.429	147427
295.486	85328
295.542	39625
295.599	24407
295.656	26061
295.713	52507
295.770	112304
295.827	56402
295.883	30337
295.940	34104
295.997	72239
296.054	84126
296.111	48850
296.167	34452
296.224	22457
296.281	16806
296.338	16116
296.394	17798
296.451	23786
296.508	53092
296.564	101702
296.621	82142
296.678	147869
296.734	213144
296.791	101165
296.848	52334
296.904	52216
296.961	119526
297.018	147122
297.074	106683
297.131	49037
297.187	36526
297.244	50034
297.301	108765
297.357	193429
297.414	99109
297.470	44316
297.527	29362
297.583	26081
297.640	38059
297.696	29549
297.753	19444
297.809	16585
297.866	14592
297.922	17060
297.979	20020
298.035	25110
298.092	41631
298.148	79797
298.204	103433
298.261	59891
298.317	68151
298.374	165000
298.430	131236
298.486	83832
298.543	67780
298.599	49718
298.656	42231
298.712	61436
298.768	90363
298.824	47397
298.881	28869
298.937	23298
298.993	24583
299.050	45443
299.106	42091
299.162	36931
299.218	42159
299.275	29007
299.331	26639
299.387	43162
299.443	135941
299.500	157305
299.556	68620
299.612	41834
299.668	42513
299.724	30136
299.780	26126
299.837	25869
299.893	40647
299.949	125127
300.005	163173
300.061	145783
300.117	202401
300.173	127350
300.229	70034
300.285	96639
300.341	113233
300.397	69745
300.453	43468
300.510	33279
300.566	33526
300.622	28292
300.678	42808
300.734	109893
300.790	127322
300.845	153950
300.901	107264
300.957	133483
301.013	122130
301.069	57217
301.125	45637
301.181	64560
301.237	53360
301.293	35033
301.349	24302
301.405	24304
301.461	23321
301.516	20559
301.572	31141
301.628	76742
301.684	67099
301.740	65081
301.796	98811
301.851	78743
301.907	122605
301.963	132250
302.019	158862
302.074	310583
302.130	370401
302.186	223402
302.242	103152
302.297	60968
302.353	50710
302.409	82925
302.464	79073
302.520	70925
302.576	169476
302.631	210969
302.687	145022
302.743	66060
302.798	35815
302.854	26124
302.910	25618
302.965	36249
303.021	76279
303.076	79997
303.132	105916
303.187	132588
303.243	70981
303.299	35035
303.354	26719
303.410	21385
303.465	22623
303.521	25448
303.576	27290
303.632	32350
303.687	49091
303.743	138536
303.798	144491
303.853	73587
303.909	39245
303.964	33735
304.020	52472
304.075	89257
304.130	81342
304.186	151581
304.241	167281
304.297	128956
304.352	67669
304.358	65437
304.407	47368
304.449	39947
304.463	37473
304.518	39014
304.539	37580
304.573	35323
304.629	30064
304.630	30303
304.684	42393
304.720	85441
304.739	107033
304.794	169896
304.811	151409
304.850	107524
304.902	59480
304.905	56374
304.960	34931
304.992	28622
305.015	24174
305.071	30136
305.083	30559
305.126	31682
305.173	22779
305.181	21389
305.236	16632
305.264	21028
305.292	25373
305.347	34208
305.354	33818
305.402	31256
305.445	29150
305.457	28716
305.512	43053
305.535	47771
305.567	53344
305.622	39695
305.626	39905
305.678	49561
305.716	101007
305.733	120427
305.788	164169
305.807	146325
305.843	115233
305.897	135837
305.898	135988
305.953	142577
305.988	99843
306.008	76444
306.063	45836
306.078	43097
306.118	36637
306.168	29491
306.173	28831
306.228	23200
306.259	20215
306.283	18162
306.338	17364
306.349	17653
306.393	18345
306.440	16950
306.448	16711
306.503	15840
306.530	14952
306.558	15461
306.613	22445
306.620	25852
306.668	55346
306.711	112594
306.723	123798
306.778	119697
306.801	99297
306.833	74217
306.888	40077
306.892	38584
306.943	23194
306.982	18151
306.997	16331
307.052	11967
307.072	11199
307.107	10426
307.162	11029
307.163	11063
307.217	12925
307.253	14206
307.272	14703
307.327	12476
307.343	13017
307.381	15579
307.434	20371
307.436	20878
307.491	32553
307.524	49722
307.546	57143
307.600	85825
307.614	78681
307.655	51577
307.704	25572
307.710	23659
307.765	20029
307.795	22690
307.819	23411
307.874	20393
307.885	19025
307.929	14669
307.975	14916
307.984	14886
308.038	16135
308.065	15062
308.093	14288
308.148	14500
308.156	14813
308.202	17822
308.246	22289
308.257	24790
308.312	36051
308.336	49849
308.366	58483
308.421	58065
308.426	55524
308.475	29799
308.517	16149
308.530	13585
308.585	11319
308.607	10783
308.639	9855
308.694	10245
308.697	10275
308.748	9954
308.787	8918
308.803	8677
308.857	8496
308.877	8762
308.912	9729
308.967	11390
308.967	11442
309.021	15696
309.058	19257
309.076	24006
309.130	46974
309.148	55186
309.185	57832
309.238	41604
309.239	41286
309.293	36933
309.328	34052
309.348	31755
309.402	26551
309.418	24251
309.457	19904
309.508	16197
309.511	15949
309.566	13901
309.598	12519
309.620	12458
309.674	14231
309.688	15007
309.729	18518
309.778	22493
309.783	22895
309.837	29053
309.868	32020
309.892	49664
309.946	98649
309.959	115310
310.001	154637
310.049	187167
310.055	183037
310.109	118098
310.139	78412
310.163	61236
310.218	33542
310.229	29387
310.272	20707
310.319	14813
310.326	13909
310.381	9351
310.409	7989
310.435	7637
310.489	6646
310.499	6663
310.543	6261
310.589	5571
310.598	5443
310.652	5285
310.679	5174
310.706	5018
310.760	5051
310.769	5076
310.814	5412
310.859	5856
310.868	6038
310.923	6807
310.948	7482
310.977	8929
311.031	12095
311.038	12515
311.085	12187
311.128	11523
311.139	11401
311.193	11289
311.218	11029
311.247	9584
311.301	6761
311.308	6516
311.356	7186
311.398	7749
311.410	7495
311.464	6413
311.488	5938
311.518	8152
311.572	12574
311.578	13173
311.626	22085
311.668	30136
311.680	27597
311.734	14572
311.758	8867
311.788	7962
311.842	7002
311.847	6966
311.896	11805
311.937	16379
311.950	16661
312.004	17766
312.027	18349
312.058	16331
312.112	12698
312.117	12406
312.165	9995
312.207	8108
312.297	6969
312.386	6761
312.476	16103
312.566	50780
312.656	18118
312.745	6306
312.835	6587
312.925	12075
313.015	4778
313.104	4586
313.194	7744
313.284	11336
313.374	24736
313.463	18322
313.553	9343
313.643	9140
313.732	6276
313.822	5065
313.912	8659
314.001	15612
314.091	9795
314.180	11563
314.270	24965
314.360	25904
314.449	23569
314.539	7459
314.628	6783
314.718	9257
314.808	9931
314.897	7859
314.987	10766
315.076	24461
315.166	27633
315.255	17472
315.345	24500
315.434	16460
315.524	14713
315.613	26340
315.703	42770
315.792	31922
315.881	15423
315.971	21206
316.060	47016
316.150	28824
316.239	18755
316.328	7415
316.418	11624
316.507	16544
316.597	27235
316.686	16860
316.775	13422
316.865	11850
316.954	6915
317.043	7740
317.133	15186
317.222	10992
317.311	11737
317.400	14091
317.490	31001
317.579	33898
317.668	13994
317.757	28013
317.847	31555
317.936	45846
318.025	84116
318.114	30495
318.203	24995
318.293	18835
318.382	15678
318.471	33387
318.560	13054
318.649	10002
318.738	13938
318.828	34155
318.917	30129
319.006	15196
319.095	30958
319.184	52447
319.273	107051
319.362	75567
319.451	27605
319.540	28693
319.629	91765
319.718	115340
319.807	24147
319.896	50570
319.985	87639
320.074	69486
320.163	13509
320.252	13021
320.341	10805
320.430	21754
320.519	66465
320.608	27116
320.697	16107
320.786	22415
320.875	43443
320.964	65066
321.053	110353
321.142	166094
321.230	127527
321.319	89565
321.408	191464
321.497	64272
321.586	86096
321.675	48923
321.764	50196
321.852	43283
321.941	144129
322.030	72413
322.119	82373
322.207	188188
322.296	38455
322.385	23177
322.474	71646
322.562	226251
322.651	85215
322.740	97288
322.829	93311
322.917	51247
323.006	72340
323.095	62171
323.183	21939
323.272	45916
323.361	66470
323.449	50295
323.538	23693
323.626	36417
323.715	12558
323.804	16501
323.892	69054
323.981	65537
324.069	11360
324.158	9867
324.246	15748
324.335	49594
324.424	88848
324.512	30374
324.601	60540
324.689	172060
324.778	231260
324.866	55602
324.954	19758
325.043	27760
325.131	30302
325.220	19064
325.308	21629
325.397	37850
325.485	22097
325.574	8405
325.662	13915
325.750	23364
325.839	9591
325.927	10035
326.015	17407
326.104	11361
326.192	14163
326.280	10834
326.369	13321
326.457	39474
326.545	72018
326.634	21106
326.722	7180
326.810	14470
326.898	10974
326.987	16178
327.075	61278
327.163	33408
327.251	23247
327.340	109334
327.428	133519
327.516	20176
327.604	12391
327.692	10173
327.781	7454
327.869	12012
327.957	20639
328.045	28990
328.133	8518
328.221	10505
328.309	15162
328.397	15247
328.485	23100
328.574	39133
328.662	122450
328.750	37606
328.838	9572
328.926	10420
329.014	11804
329.102	26696
329.190	50129
329.278	39470
329.366	7859
329.454	5759
329.542	5211
329.630	4856
329.718	8798
329.806	21895
329.893	9184
329.981	3594
330.069	4740
330.157	5478
330.245	5826
330.333	7779
330.421	9945
330.509	42949
330.597	174723
330.684	82334
330.772	19761
330.860	6858
330.948	6472
331.036	12250
331.123	4719
331.211	5220
331.299	5347
331.387	12590
331.475	31039
331.562	11461
331.650	7119
331.738	7812
331.825	5280
331.913	8142
332.001	7691
332.089	8778
332.176	8552
332.264	14091
332.352	21733
332.439	17771
332.527	11634
332.614	4803
332.702	5700
332.790	8881
332.877	21114
332.965	9957
333.052	6073
333.140	8406
333.228	7237
333.315	5359
333.403	8705
333.490	7594
333.578	12685
333.665	9645
333.753	15347
333.840	9177
333.928	9749
334.015	12238
334.103	11828
334.190	19236
334.278	11049
334.365	5181
334.452	4329
334.540	3776
334.627	4463
334.715	7663
334.802	10747
334.889	4593
334.977	4852
335.064	5232
335.151	9068
335.239	5272
335.326	5739
335.413	11513
335.501	18452
335.588	12508
335.675	9087
335.762	3596
335.850	4684
335.937	7123
336.024	6033
336.111	7537
336.199	6861
336.286	4853
336.373	4751
336.460	4573
336.547	6746
336.635	16386
336.722	16829
336.809	7644
336.896	25411
336.983	41907
337.070	49101
337.157	17582
337.245	7875
337.332	4905
337.419	5442
337.506	4973
337.593	4592
337.680	5236
337.767	8494
337.854	29952
337.941	29411
338.028	37603
338.115	14414
338.202	10734
338.289	14456
338.376	40692
338.463	16991
338.550	8935
338.637	6302
338.724	10174
338.811	10013
338.898	7840
338.984	7017
339.071	10645
339.158	28446
339.245	88482
339.332	39832
339.419	22894
339.506	21151
339.593	11404
339.679	17319
339.766	13524
339.853	25441
339.940	61413
340.027	14676
340.113	24543
340.200	35545
340.287	18682
340.374	40315
340.460	81631
340.547	46070
340.634	50243
340.720	134292
340.807	59814
340.894	21987
340.980	21724
341.067	18236
341.154	28249
341.240	69439
341.327	84522
341.414	32533
341.500	39826
341.587	18635
341.674	21671
341.760	70911
341.847	75174
341.933	20018
342.020	7764
342.106	8964
342.193	29832
342.279	53254
342.366	43440
342.452	64662
342.539	34016
342.625	91643
342.712	147920
342.798	69484
342.885	28306
342.971	8046
343.058	8780
343.144	19389
343.230	19026
343.317	30676
343.403	16165
343.490	6905
343.576	7804
343.662	17567
343.749	21857
343.835	21587
343.921	38537
344.008	188978
344.094	299600
344.180	76554
344.267	57472
344.353	114764
344.439	90192
344.525	79509
344.612	39740
344.698	34468
344.784	21425
344.870	24332
344.957	35402
345.043	37709
345.129	34310
345.215	70868
345.301	66174
345.387	49453
345.474	10888
345.560	10400
345.646	9440
345.732	14407
345.818	33000
345.904	23209
345.990	24973
346.076	17417
346.162	29418
346.249	27740
346.335	17628
346.421	13143
346.507	52230
346.593	126746
346.679	32352
346.765	11224
346.851	18402
346.937	18518
347.023	14852
347.108	27082
347.194	22255
347.280	19679
347.366	34344
347.452	62584
347.538	162629
347.624	124383
347.710	79698
347.796	17319
347.882	12224
347.967	8557
348.053	7783
348.139	9115
348.225	12831
348.311	18287
348.397	15588
348.482	26462
348.568	26663
348.654	9650
348.740	7958
348.825	11366
348.911	39538
348.997	99346
349.083	122793
349.168	23281
349.254	26306
349.340	23539
349.425	14398
349.511	32775
349.597	29934
349.682	65810
349.768	113667
349.854	41163
349.939	10104
350.025	13033
350.110	14540
350.196	35282
350.282	25057
350.367	8541
350.453	14828
350.538	20824
350.624	45836
350.709	23899
350.795	15024
350.880	21172
350.966	30301
351.051	28921
351.137	12940
351.222	27644
351.308	68595
351.393	113791
351.479	44251
351.564	21594
351.649	17924
351.735	11441
351.820	18512
351.906	17706
351.991	20699
352.076	81236
352.162	104312
352.247	35553
352.332	38648
352.418	74521
352.503	68995
352.588	215987
352.673	200626
352.759	60454
352.844	32248
352.929	49509
353.014	59748
353.100	20095
353.185	23296
353.270	88257
353.355	81705
353.441	19871
353.526	21025
353.611	80036
353.696	90170
353.781	52402
353.866	22802
353.952	26624
354.037	89640
354.122	181178
354.207	153688
354.292	48031
354.377	21304
354.462	19215
354.547	36921
354.632	22123
354.717	15137
354.802	14197
354.887	11270
354.972	12635
355.057	11145
355.142	12381
355.227	25050
355.312	50791
355.397	121356
355.482	242133
355.567	102121
355.652	92111
355.737	81820
355.822	126260
355.907	89458
355.991	25752
356.076	20934
356.161	14491
356.246	12318
356.331	15881
356.416	45680
356.501	203781
356.585	186826
356.670	50048
356.755	31845
356.840	52276
356.924	193086
357.009	466287
357.094	192519
357.179	84242
357.263	50333
357.348	54549
357.433	53280
357.517	61287
357.602	39857
357.687	23675
357.771	18905
357.856	23828
357.941	38138
358.025	155555
358.110	437486
358.195	223385
358.279	59283
358.364	50559
358.448	166627
358.533	300656
358.617	219408
358.702	197670
358.787	98086
358.871	87844
358.956	62003
359.040	16744
359.125	13014
359.209	12180
359.294	15036
359.378	27066
359.462	62752
359.547	30297
359.631	14744
359.716	17073
359.800	14959
359.885	22708
359.969	24220
360.053	12811
360.138	16172
360.222	46647
360.306	78134
360.391	46417
360.475	63351
360.559	129345
360.644	126384
360.728	80852
360.812	127249
360.896	262872
360.981	171740
361.065	105121
361.149	34482
361.233	38180
361.318	27608
361.402	27545
361.486	27554
361.570	22615
361.654	36852
361.739	93986
361.823	248351
361.907	269092
361.991	68036
362.075	62119
362.159	134165
362.243	77939
362.327	54900
362.411	37407
362.495	32911
362.580	20507
362.664	11958
362.748	12984
362.832	13824
362.916	14986
363.000	50736
363.084	206862
363.168	304165
363.252	99747
363.336	47474
363.420	61703
363.503	46481
363.587	31304
363.671	36976
363.755	43828
363.839	59450
363.923	24914
364.007	62745
364.091	48613
364.175	11889
364.258	19194
364.342	34886
364.426	37335
364.510	35411
364.594	44639
364.677	71241
364.761	240340
364.845	161984
364.929	118996
365.013	102915
365.096	77647
365.180	72532
365.264	15946
365.347	15076
365.431	14624
365.515	27287
365.598	28783
365.682	19620
365.766	13836
365.849	13723
365.933	27843
366.017	19805
366.100	7417
366.184	7305
366.267	13274
366.351	15953
366.435	15771
366.518	13146
366.602	12535
366.685	20967
366.769	25471
366.852	28607
366.936	64693
367.019	47072
367.103	13195
367.186	9373
367.270	11254
367.353	12145
367.436	15865
367.520	13820
367.603	29175
367.687	53580
367.770	84869
367.853	39987
367.937	81778
368.020	109736
368.104	51689
368.187	75436
368.270	89768
368.353	67542
368.437	55246
368.520	38148
368.603	85239
368.687	116908
368.770	162654
368.853	56853
368.936	75306
369.020	44944
369.103	24242
369.186	10566
369.269	18156
369.352	68178
369.436	84584
369.519	44349
369.602	14027
369.685	24020
369.768	32788
369.851	19085
369.934	13648
370.018	32048
370.101	87924
370.184	48901
370.267	24516
370.350	48226
370.433	70607
370.516	118818
370.599	114546
370.682	77710
370.765	158280
370.848	145084
370.931	178029
371.014	57508
371.097	24574
371.180	20870
371.263	8646
371.346	6277
371.429	8699
371.511	14482
371.594	48367
371.677	53102
371.760	25062
371.843	53658
371.926	195051
372.009	327833
372.091	130716
372.174	105342
372.257	154754
372.340	60822
372.423	54396
372.505	34469
372.588	27248
372.671	108798
372.754	211883
372.836	87066
372.919	22402
373.002	32195
373.085	45294
373.167	60019
373.250	129663
373.332	188188
373.415	287536
373.498	480061
373.580	217964
373.663	231321
373.746	265597
373.828	99999
373.911	50152
373.993	40353
374.076	27027
374.159	23806
374.241	73020
374.324	190581
374.406	129626
374.489	167130
374.571	339740
374.654	153768
374.736	108154
374.819	248270
374.901	372986
374.983	326365
375.066	70914
375.148	22460
375.231	21255
375.313	41602
375.395	46244
375.478	16991
375.560	16248
375.643	31651
375.725	105789
375.807	284266
375.890	164594
375.972	61000
376.054	57351
376.136	23146
376.219	26246
376.301	105148
376.383	232629
376.465	104578
376.548	110236
376.630	108248
376.712	204386
376.794	90145
376.877	17062
376.959	15940
377.041	19046
377.123	9176
377.205	7332
377.287	6390
377.369	11492
377.452	16639
377.534	15732
377.616	18860
377.698	18523
377.780	14455
377.862	21107
377.944	19128
378.026	8542
378.108	11469
378.190	11807
378.272	10474
378.354	6874
378.436	7097
378.518	20726
378.600	64867
378.682	74608
378.764	127994
378.846	86983
378.928	42400
379.010	69934
379.091	33496
379.173	16854
379.255	17255
379.337	33498
379.419	87674
379.501	160400
379.583	56319
379.664	28785
379.746	85687
379.828	148805
379.910	169848
379.991	123557
380.073	24170
380.155	27583
380.237	21976
380.318	10182
380.400	16381
380.482	51933
380.564	76536
380.645	65742
380.727	63964
380.809	38044
380.890	25513
380.972	13490
381.053	14407
381.135	20674
381.217	60014
381.298	139751
381.380	71883
381.461	80621
381.543	231843
381.624	245062
381.706	57027
381.787	27740
381.869	37229
381.951	144117
382.032	382067
382.113	258554
382.195	69318
382.276	31425
382.358	79836
382.439	201649
382.521	237969
382.602	313114
382.684	161775
382.765	244632
382.846	144851
382.928	40843
383.009	21722
383.090	21670
383.172	35215
383.253	54725
383.334	109084
383.416	228839
383.497	102516
383.578	30345
383.659	35151
383.741	38626
383.822	70275
383.903	76929
383.984	161527
384.066	321246
384.147	192296
384.228	43045
384.309	50088
384.390	29888
384.471	22182
384.553	40853
384.634	55745
384.715	50152
384.796	14206
384.877	25803
384.958	112244
385.039	140735
385.120	64030
385.201	27210
385.282	28745
385.363	13823
385.444	15454
385.525	38796
385.606	126208
385.687	99998
385.768	27633
385.849	61627
385.930	211739
386.011	268388
386.092	82020
386.173	23304
386.254	10821
386.335	14511
386.416	22465
386.496	80606
386.577	112159
386.658	37820
386.739	32796
386.820	15449
386.901	11519
386.981	14912
387.062	12388
387.143	42475
387.224	130218
387.304	112805
387.385	54487
387.466	16248
387.547	10669
387.627	16399
387.708	55621
387.789	208453
387.869	221197
387.950	56329
388.031	8571
388.111	5883
388.192	10827
388.273	15585
388.353	22530
388.434	27259
388.514	66542
388.595	191530
388.676	232311
388.756	135504
388.837	150973
388.917	85934
388.998	15268
389.078	16669
389.159	17824
389.239	20666
389.320	44112
389.400	46426
389.480	49701
389.561	99060
389.641	47032
389.722	40560
389.802	73958
389.883	65330
389.963	115158
390.043	59336
390.124	16539
390.204	51360
390.284	153203
390.365	85288
390.445	21874
390.525	18310
390.605	58915
390.686	63003
390.766	25156
390.846	15120
390.927	11802
391.007	13448
391.087	11471
391.167	6434
391.247	4337
391.328	12970
391.408	13624
391.488	7363
391.568	8882
391.648	32842
391.728	51478
391.808	46686
391.888	50185
391.969	69290
392.049	91409
392.129	31235
392.209	46752
392.289	110413
392.369	44343
392.449	11577
392.529	25388
392.609	35501
392.689	38985
392.769	110372
392.849	83959
392.929	48070
393.009	112003
393.089	74105
393.169	24198
393.248	64704
393.328	208394
393.408	188648
393.488	39097
393.568	27276
393.648	17173
393.728	11208
393.807	6159
393.887	4790
393.967	6432
394.047	17546
394.127	22126
394.206	18767
394.286	19123
394.366	19936
394.446	20552
394.525	13276
394.605	7922
394.685	16899
394.764	33525
394.844	41202
394.924	34364
395.003	33253
395.083	27877
395.163	22976
395.242	23359
395.322	21238
395.402	7669
395.481	11653
395.561	29459
395.640	80479
395.720	61172
395.799	12423
395.879	4450
395.958	4189
396.038	11097
396.117	27236
396.197	25803
396.276	16221
396.356	13236
396.435	9677
396.515	18631
396.594	51678
396.673	66759
396.753	98040
396.832	233927
396.912	249386
396.991	100838
397.070	32217
397.150	23313
397.229	8698
397.308	7513
397.388	9470
397.467	7383
397.546	6284
397.625	12153
397.705	27287
397.784	34884
397.863	11592
397.942	3216
398.022	3668
398.101	6892
398.180	15270
398.259	7406
398.338	14800
398.417	20404
398.497	9893
398.576	11731
398.655	7393
398.734	2714
398.813	2486
398.892	4361
398.971	7214
399.050	6310
399.129	2311
399.208	3215
399.287	4507
399.366	4493
399.445	8372
399.524	15952
399.603	15925
399.682	36847
399.761	61346
399.840	30640
399.919	6264
399.998	5328
400.077	6098
400.156	7832
400.235	7887
400.313	5891
400.392	19085
400.471	93985
400.550	126785
400.629	37296
400.708	19294
400.786	8502
400.865	8828
400.944	22173
401.023	20847
401.102	5358
401.180	3713
401.259	3767
401.338	8526
401.416	24095
401.495	19226
401.574	7979
401.652	10391
401.731	15734
401.810	7116
401.888	4120
401.967	2803
402.046	4903
402.124	16501
402.203	26768
402.281	10046
402.360	3857
402.438	11851
402.517	9107
402.596	4276
402.674	1599
402.753	1539
402.831	2392
402.910	7302
402.988	18640
403.066	27392
403.145	16376
403.223	17207
403.302	12485
403.380	6096
403.459	4502
403.537	3385
403.615	3191
403.694	1399
403.772	3569
403.850	2427
403.929	4191
404.007	5855
404.085	9790
404.164	5355
404.242	4549
404.320	10387
404.398	27298
404.477	91946
404.555	282398
404.633	213767
404.711	36053
404.789	8656
404.868	5686
404.946	4369
405.024	4541
405.102	4508
405.180	4825
405.258	6488
405.336	7155
405.415	7177
405.493	11806
405.571	6606
405.649	3230
405.727	5480
405.805	11103
405.883	9152
405.961	5962
406.039	4955
406.117	6903
406.195	28931
406.273	103187
406.351	237375
406.429	119229
406.507	16404
406.585	10549
406.663	24612
406.740	36275
406.818	28048
406.896	9412
406.974	10337
407.052	41295
407.130	163908
407.208	184412
407.285	38979
407.363	13507
407.441	14308
407.519	13037
407.596	18978
407.674	29074
407.752	14256
407.830	10743
407.907	8761
407.985	11194
408.063	7828
408.141	3312
408.218	4067
408.296	3606
408.373	11107
408.451	24531
408.529	24703
408.606	9424
408.684	4912
408.762	3041
408.839	2506
408.917	2461
408.994	2716
409.072	2741
409.149	3472
409.227	6072
409.304	2673
409.382	1928
409.459	2345
409.537	6703
409.614	10027
409.692	5350
409.769	7621
409.846	8683
409.924	5153
410.001	3416
410.079	8401
410.156	6270
410.233	2179
410.311	1337
410.388	4509
410.465	4724
410.543	1420
410.620	5581
410.697	16369
410.775	20883
410.852	6317
410.929	12278
411.006	15092
411.083	3510
411.161	1769
411.238	4138
411.315	5801
411.392	6685
411.469	9242
411.547	3390
411.624	-197
411.701	3297
411.778	19742
411.855	50481
411.932	23837
412.009	9000
412.086	11237
412.163	15143
412.240	10455
412.317	4680
412.394	3243
412.471	3171
412.548	7326
412.625	10629
412.702	12163
412.779	17059
412.856	6305
412.933	1688
413.010	2951
413.087	18250
413.164	91258
413.241	115443
413.318	35438
413.395	25077
413.471	38056
413.548	14236
413.625	8660
413.702	13964
413.779	6898
413.855	1904
413.932	2491
414.009	2837
414.086	3644
414.162	5078
414.239	20416
414.316	103796
414.393	174324
414.469	51421
414.546	6484
414.623	4893
414.699	9976
414.776	18171
414.853	7944
414.929	9756
415.006	7092
415.082	4613
415.159	6273
415.236	8664
415.312	14709
415.389	44778
415.465	57656
415.542	23692
415.618	18893
415.695	33553
415.771	24658
415.848	18171
415.924	10637
416.000	3730
416.077	3782
416.153	1771
416.230	806
416.306	1537
416.383	1333
416.459	2357
416.535	1233
416.612	1242
416.688	1397
416.764	2309
416.841	2841
416.917	3564
416.993	5228
417.069	12337
417.146	14352
417.222	18455
417.298	15237
417.374	9961
417.451	13362
417.527	25840
417.603	28670
417.679	17868
417.755	12349
417.831	6106
417.908	3068
417.984	3231
418.060	9204
418.136	43499
418.212	53092
418.288	15075
418.364	7106
418.440	13832
418.516	20971
418.592	17581
418.668	65183
418.744	113454
418.820	72296
418.896	14347
418.972	5616
419.048	15975
419.124	50661
419.200	36995
419.276	6039
419.352	2344
419.428	5323
419.504	17378
419.579	23532
419.655	15968
419.731	21566
419.807	81123
419.883	118065
419.959	62157
420.034	15509
420.110	38418
420.186	113580
420.262	74975
420.337	16693
420.413	18679
420.489	6233
420.565	4892
420.640	8388
420.716	9911
420.792	4446
420.867	8131
420.943	10386
421.019	32301
421.094	20024
421.170	2721
421.245	982
421.321	5231
421.397	6278
421.472	5207
421.548	10983
421.623	21325
421.699	14990
421.774	15615
421.850	13483
421.925	32532
422.001	21019
422.076	7245
422.152	14446
422.227	32595
422.302	16963
422.378	18400
422.453	27558
422.529	42117
422.604	115035
422.679	210617
422.755	146185
422.830	43141
422.905	9951
422.981	6691
423.056	3883
423.131	3533
423.207	4636
423.282	21797
423.357	59907
423.432	31656
423.508	33292
423.583	96678
423.658	60272
423.733	13650
423.808	19276
423.883	31690
423.959	22122
424.034	11270
424.109	4565
424.184	1326
424.259	3327
424.334	4023
424.409	3030
424.484	7680
424.559	11522
424.634	8900
424.709	22242
424.784	28318
424.859	13703
424.934	36682
425.009	131582
425.084	152358
425.159	42557
425.234	5937
425.309	2034
425.384	1930
425.459	1210
425.534	2720
425.609	1886
425.683	2054
425.758	3645
425.833	6818
425.908	16933
425.983	85062
426.058	181904
426.132	66335
426.207	7385
426.282	4326
426.357	2650
426.431	4300
426.506	3785
426.581	3082
426.655	3466
426.730	7335
426.805	7577
426.879	6307
426.954	7164
427.029	37289
427.103	165125
427.178	246872
427.253	85806
427.327	10682
427.402	3111
427.476	2132
427.551	2587
427.625	2651
427.700	2356
427.774	1542
427.849	2221
427.923	1320
427.998	1959
428.072	2625
428.147	13687
428.221	52734
428.296	46202
428.370	8990
428.444	1851
428.519	3889
428.593	4777
428.667	2284
428.742	1906
428.816	3912
428.890	9761
428.965	11051
429.039	5537
429.113	6580
429.188	5659
429.262	5440
429.336	28616
429.410	82115
429.485	37670
429.559	3722
429.633	797
429.707	2022
429.781	8927
429.855	43287
429.930	93783
430.004	38281
430.078	5413
430.152	9199
430.226	28659
430.300	23601
430.374	3269
430.448	4021
430.522	7027
430.596	8081
430.670	28227
430.744	132223
430.818	190858
430.892	51281
430.966	15046
431.040	5110
431.114	974
431.188	436
431.262	1108
431.336	950
431.410	8545
431.484	34454
431.557	31375
431.631	4044
431.705	2152
431.779	3786
431.853	12920
431.927	6212
432.000	1418
432.074	1416
432.148	1622
432.222	2082
432.295	1966
432.369	3310
432.443	16941
432.516	100420
432.590	204823
432.664	72888
432.737	13205
432.811	4136
432.885	2250
432.958	764
433.032	533
433.106	328
433.179	1767
433.253	1431
433.326	644
433.400	-413
433.473	616
433.547	-66
433.620	9012
433.694	31632
433.767	18792
433.841	2538
433.914	286
433.988	346
434.061	467
434.134	412
434.208	257
434.281	121
434.355	2481
434.428	2449
434.501	964
434.575	757
434.648	2273
434.721	1076
434.795	1611
434.868	602
434.941	526
435.014	244
435.088	947
435.161	5254
435.234	16877
435.307	20462
435.381	3882
435.454	154
435.527	920
435.600	-124
435.673	345
435.746	-58
435.819	2221
435.892	2756
435.966	567
436.039	-290
436.112	813
436.185	-110
436.258	4
436.331	-828
436.404	-372
436.477	293
436.550	110
436.623	1619
436.696	2809
436.769	8364
436.842	5263
436.915	5485
436.987	12398
437.060	6065
437.133	-96
437.206	84
437.279	1137
437.352	2194
437.425	1799
437.498	6833
437.570	28695
437.643	26157
437.716	4691
437.789	1019
437.861	1674
437.934	1691
438.007	2096
438.080	3577
438.152	6706
438.225	27563
438.298	146420
438.370	290804
438.443	115176
438.516	17898
438.588	5950
438.661	2686
438.734	4885
438.806	10894
438.879	11466
438.951	5192
439.024	2799
439.096	4878
439.169	3297
439.241	1330
439.314	1744
439.386	614
439.459	583
439.531	1316
439.604	1311
439.676	1521
439.749	-457
439.821	1265
439.893	1023
439.966	1020
440.038	987
440.110	5278
440.183	6008
440.255	3760
440.327	9963
440.400	62774
440.472	199812
440.544	123633
440.617	16653
440.689	6214
440.761	10707
440.833	15965
440.905	10364
440.978	1623
441.050	523
441.122	756
441.194	145
441.266	692
441.338	1969
441.411	17432
441.483	99202
441.555	124655
441.627	22972
441.699	3253
441.771	1304
441.843	815
441.915	421
441.987	1318
442.059	170
442.131	1478
442.203	5785
442.275	13610
442.347	6568
442.419	2898
442.491	6154
442.563	11124
442.635	8670
442.706	29208
442.778	30608
442.850	5217
442.922	1457
442.994	5795
443.066	13528
443.137	8504
443.209	1926
443.281	6221
443.353	9843
443.425	13427
443.496	26246
443.568	20854
443.640	4819
443.711	1335
443.783	1643
443.855	1044
443.926	634
443.998	1265
444.070	2302
444.141	5534
444.213	26224
444.285	37918
444.356	21382
444.428	4121
444.499	469
444.571	-315
444.642	2291
444.714	11903
444.785	28377
444.857	12319
444.928	1305
445.000	849
445.071	1623
445.143	197
445.214	426
445.285	1223
445.357	5987
445.428	28363
445.500	48321
445.571	22388
445.642	9020
445.714	3680
445.785	3465
445.856	13292
445.928	35540
445.999	18167
446.070	5995
446.141	20357
446.213	26410
446.284	5922
446.355	1040
446.426	932
446.497	1878
446.569	6236
446.640	31828
446.711	35698
446.782	7463
446.853	4032
446.924	12744
446.995	13659
447.066	4596
447.138	1163
447.209	1135
447.280	1233
447.351	687
447.422	198
447.493	2456
447.564	18872
447.635	41261
447.706	16957
447.777	2369
447.847	717
447.918	639
447.989	4304
448.060	4618
448.131	6868
448.202	27356
448.273	32046
448.344	9449
448.414	8336
448.485	9784
448.556	4608
448.627	2290
448.698	2085
448.768	1262
448.839	881
448.910	2556
448.981	7933
449.051	7163
449.122	3159
449.193	1861
449.263	1069
449.334	2833
449.405	15702
449.475	46472
449.546	23355
449.616	3691
449.687	1101
449.758	618
449.828	-376
449.899	457
449.969	412
450.040	558
450.110	-143
450.181	-132
450.251	-177
450.322	316
450.392	381
450.463	191
450.533	189
450.604	654
450.674	-1131
450.744	724
450.815	-600
450.885	-2
450.955	1045
451.026	231
451.096	-510
451.166	-249
451.237	441
451.307	-163
451.377	1065
451.447	1814
451.518	868
451.588	-8
451.658	594
451.728	1402
451.799	2003
451.869	989
451.939	-139
452.009	-56
452.079	379
452.149	451
452.219	256
452.289	1601
452.360	1230
452.430	2431
452.500	9307
452.570	14027
452.640	6812
452.710	4880
452.780	12258
452.850	63753
452.920	79184
452.990	22851
453.060	10247
453.129	22713
453.199	15042
453.269	3218
453.339	2290
453.409	1381
453.479	1547
453.549	245
453.619	256
453.688	136
453.758	422
453.828	182
453.898	585
453.968	631
454.037	998
454.087	548
454.107	344
454.168	719
454.177	741
454.247	1647
454.249	1651
454.316	1217
454.330	1167
454.386	896
454.411	393
454.456	-526
454.492	-90
454.525	313
454.574	947
454.595	1278
454.655	1326
454.665	1220
454.734	4445
454.736	4648
454.804	8917
454.817	8498
454.873	6737
454.898	5047
454.943	2060
454.979	2321
455.013	2476
455.060	3171
455.082	3418
455.141	3027
455.152	2904
455.221	2877
455.222	2913
455.291	2878
455.303	2945
455.360	3271
455.384	3035
455.430	2927
455.465	3988
455.499	5076
455.546	7555
455.569	7985
455.627	12375
455.638	12953
455.707	7906
455.708	7896
455.777	1518
455.789	1528
455.846	1678
455.869	1419
455.916	1068
455.950	1789
455.985	2333
456.031	1781
456.054	1407
456.112	1925
456.124	1999
456.193	1910
456.193	1893
456.262	1627
456.274	1708
456.332	1984
456.355	1774
456.401	1770
456.436	2488
456.470	2860
456.516	4005
456.540	4407
456.597	4320
456.609	4232
456.678	4795
456.678	4768
456.747	2567
456.759	2497
456.817	2434
456.840	2577
456.886	2553
456.920	2553
456.955	2431
457.001	1539
457.024	1342
457.082	1779
457.093	1783
457.162	1446
457.163	1466
457.232	2143
457.243	2012
457.301	1754
457.324	2060
457.370	2635
457.405	3296
457.439	3572
457.485	3987
457.508	3952
457.566	2505
457.577	2333
457.646	2601
457.647	2613
457.715	2550
457.727	2744
457.784	4107
457.808	4793
457.853	5687
457.889	6495
457.922	6843
457.969	6810
457.991	7451
458.050	9691
458.060	10041
458.129	13433
458.130	13585
458.198	11476
458.211	10388
458.267	7441
458.292	6153
458.336	6058
458.372	7224
458.405	8517
458.453	9437
458.474	9739
458.533	12796
458.543	13033
458.611	14681
458.614	14747
458.680	11220
458.694	10548
458.749	8497
458.775	6875
458.818	5203
458.855	4443
458.887	4123
458.936	3618
458.955	3669
459.016	4752
459.024	5228
459.093	9240
459.097	9481
459.162	15445
459.177	17272
459.230	22962
459.257	27234
459.299	22236
459.338	12576
459.368	10774
459.418	7962
459.437	7800
459.499	10443
459.505	10440
459.574	12533
459.579	12575
459.643	11574
459.659	11140
459.711	12000
459.740	13003
459.780	13593
459.820	15027
459.849	13596
459.900	8927
459.917	8960
459.981	8944
459.986	8913
460.054	10403
460.061	10581
460.123	19381
460.141	22111
460.191	33849
460.222	42471
460.260	46813
460.302	53928
460.328	44977
460.382	17551
460.397	16272
460.462	8672
460.465	8359
460.534	8156
460.543	8049
460.602	10159
460.623	11259
460.671	15455
460.703	18543
460.739	18364
460.783	18367
460.808	16023
460.864	8754
460.876	9043
460.944	9962
460.945	10024
461.013	17648
461.024	19150
461.081	29629
461.104	34686
461.150	27996
461.184	21118
461.218	19652
461.264	15122
461.286	13932
461.345	13790
461.355	13204
461.423	9232
461.425	9105
461.491	7057
461.505	6971
461.559	6765
461.585	6331
461.628	6037
461.665	5936
461.696	7253
461.745	9382
461.764	11050
461.825	16634
461.832	17398
461.901	25671
461.905	26229
461.969	15842
461.985	12597
462.037	9612
462.065	7502
462.105	5675
462.145	5266
462.173	5809
462.225	5998
462.241	6032
462.305	7031
462.310	7442
462.378	13494
462.385	14238
462.446	21132
462.465	23499
462.514	19722
462.545	17257
462.582	13535
462.625	7110
462.650	6548
462.705	6367
462.718	6242
462.785	6481
462.786	6536
462.854	9394
462.865	9892
462.922	13128
462.945	14492
462.990	14526
463.025	14510
463.058	12767
463.104	9764
463.126	11020
463.184	14365
463.194	15220
463.262	22096
463.264	22348
463.330	15838
463.344	14015
463.398	12364
463.424	11433
463.466	11412
463.504	11984
463.533	14229
463.583	17979
463.601	20129
463.663	27463
463.669	28784
463.737	44442
463.743	45938
463.805	34026
463.823	29919
463.873	20041
463.903	13295
463.940	12486
463.982	12119
464.008	12319
464.062	13542
464.076	13590
464.142	13617
464.144	13737
464.211	17415
464.221	17973
464.279	24144
464.301	26628
464.347	25103
464.381	23869
464.414	21301
464.461	17115
464.482	17699
464.540	19383
464.550	20881
464.617	31506
464.620	31837
464.685	48933
464.699	52939
464.753	43052
464.779	37647
464.820	26607
464.859	15008
464.888	13884
464.938	12547
464.956	13187
465.018	16127
465.023	16391
465.091	19501
465.098	19832
465.158	14580
465.177	12792
465.226	15442
465.257	16984
465.293	26864
465.336	38571
465.361	48860
465.416	72694
465.428	68737
465.495	47623
465.496	47513
465.563	19370
465.575	14326
465.631	11973
465.654	11539
465.698	12034
465.734	12496
465.765	11915
465.813	10858
465.833	10963
465.893	11257
465.900	11295
465.968	11598
465.972	11592
466.035	14879
466.052	15713
466.102	17027
466.131	17814
466.170	16781
466.210	15569
466.237	15380
466.290	14799
466.304	14843
466.369	14979
466.372	15076
466.439	17191
466.449	17458
466.506	22055
466.528	23797
466.573	37088
466.607	46960
466.641	64637
466.687	89127
466.708	94549
466.766	109233
466.775	104066
466.842	63508
466.845	61467
466.909	37585
466.925	31793
466.977	23219
467.004	18706
467.044	18374
467.083	18052
467.111	20023
467.163	23682
467.178	25764
467.242	34194
467.245	34498
467.312	39324
467.321	39887
467.379	28337
467.400	24041
467.446	22330
467.480	21025
467.559	18844
467.638	21458
467.717	33959
467.796	68232
467.875	95973
467.955	33730
468.034	21848
468.113	19809
468.192	20945
468.271	17926
468.350	17999
468.429	15993
468.508	14713
468.588	15118
468.667	16099
468.746	19542
468.825	19095
468.904	22361
468.983	32138
469.062	42546
469.141	52160
469.220	21847
469.299	19129
469.378	17005
469.456	18416
469.535	17062
469.614	16977
469.693	19791
469.772	22528
469.851	23802
469.930	26399
470.009	28188
470.088	24448
470.166	20034
470.245	19921
470.324	21627
470.403	28258
470.482	35529
470.560	34295
470.639	65934
470.718	100662
470.797	40817
470.875	43159
470.954	42247
471.033	40081
471.111	16813
471.190	15519
471.269	15689
471.347	17450
471.426	18463
471.505	12888
471.583	12889
471.662	12868
471.740	14472
471.819	12932
471.898	13471
471.976	14927
472.055	16249
472.133	13800
472.212	12882
472.290	11064
472.369	11458
472.447	12537
472.526	13994
472.604	22177
472.683	36891
472.761	47510
472.839	45112
472.918	25096
472.996	18532
473.075	21049
473.153	22428
473.231	23045
473.310	38065
473.388	34291
473.466	32142
473.545	77211
473.623	149551
473.701	122207
473.780	20991
473.858	13939
473.936	20495
474.014	24503
474.093	33980
474.171	28453
474.249	17762
474.327	18819
474.405	22728
474.484	32020
474.562	42185
474.640	27499
474.718	24366
474.796	21957
474.874	21472
474.952	20213
475.030	17354
475.108	16879
475.187	16753
475.265	15844
475.343	16286
475.421	15489
475.499	14298
475.577	15012
475.655	18964
475.733	21202
475.811	14601
475.889	12464
475.966	13403
476.044	13669
476.122	15249
476.200	16078
476.278	15804
476.356	16153
476.434	15890
476.512	19088
476.590	20557
476.667	22101
476.745	28077
476.823	35241
476.901	19326
476.979	15220
477.056	19253
477.134	23768
477.212	31798
477.290	30194
477.367	14331
477.445	12990
477.523	14265
477.601	16928
477.678	14655
477.756	11264
477.834	14187
477.911	15241
477.989	14885
478.066	10736
478.144	12206
478.222	13128
478.299	15106
478.377	14505
478.454	14269
478.532	21154
478.609	39839
478.687	45121
478.764	25884
478.842	46032
478.919	67496
478.997	40051
479.074	14941
479.152	14986
479.229	14843
479.307	13231
479.384	12649
479.461	10605
479.539	10671
479.616	11484
479.694	11823
479.771	16643
479.848	19943
479.926	20287
480.003	26950
480.080	23719
480.157	17389
480.235	24062
480.312	20722
480.389	13238
480.467	13866
480.544	11715
480.621	13157
480.698	17029
480.775	21557
480.853	17538
480.930	14738
481.007	11836
481.084	11553
481.161	11888
481.238	14166
481.315	15517
481.392	12270
481.470	10528
481.547	11529
481.624	9356
481.701	11929
481.778	12438
481.855	10568
481.932	10214
482.009	10855
482.086	10647
482.163	12078
482.240	13343
482.317	16627
482.393	16227
482.470	15008
482.547	13547
482.624	12303
482.701	15015
482.778	13877
482.855	12204
482.932	12668
483.009	12460
483.085	13802
483.162	15914
483.239	20164
483.316	14662
483.393	14267
483.469	16677
483.546	18774
483.623	14997
483.699	14231
483.776	20191
483.853	29498
483.930	36090
484.006	30036
484.083	19709
484.160	20371
484.236	27392
484.313	29744
484.389	20391
484.466	16200
484.543	17427
484.619	14221
484.696	15689
484.772	15194
484.849	17868
484.925	16364
485.002	15270
485.078	15989
485.155	15325
485.231	16084
485.308	16090
485.384	18968
485.461	26493
485.537	35281
485.614	28943
485.690	28439
485.766	37469
485.843	99151
485.919	260232
485.995	226623
486.072	29790
486.148	22900
486.224	25427
486.301	32000
486.377	32313
486.453	19965
486.530	23221
486.606	27283
486.682	30802
486.758	39159
486.835	41627
486.911	58940
486.987	167407
487.063	572825
487.139	901569
487.215	473815
487.292	65619
487.368	29752
487.444	28848
487.520	35624
487.596	38593
487.672	66784
487.748	191993
487.824	255064
487.900	41954
487.976	23280
488.052	27849
488.128	46012
488.204	46643
488.280	25850
488.356	27343
488.432	41882
488.508	69080
488.584	73744
488.660	71202
488.736	68218
488.812	92553
488.888	149538
488.964	339988
489.039	1032199
489.115	1358755
489.191	494163
489.267	57063
489.343	32178
489.418	25363
489.494	22231
489.570	22434
489.646	26425
489.722	22325
489.797	22976
489.873	21745
489.949	22283
490.024	23671
490.100	25173
490.176	45096
490.251	142079
490.327	220260
490.403	42156
490.478	20865
490.554	20522
490.629	20194
490.705	29080
490.781	37307
490.856	42245
490.932	81004
491.007	102543
491.083	50448
491.158	33694
491.234	26184
491.309	27496
491.385	29076
491.460	34098
491.536	42364
491.611	56224
491.686	95873
491.762	218218
491.837	639315
491.913	917062
491.988	1216105
492.063	1281172
492.139	123216
492.214	43684
492.289	39316
492.365	55705
492.440	71307
492.515	43741
492.590	26660
492.666	31834
492.741	44731
492.816	30962
492.891	23373
492.967	31464
493.042	30950
493.117	22068
493.192	29706
493.267	55780
493.342	80897
493.418	53220
493.493	24633
493.568	24609
493.643	30657
493.718	54843
493.793	139526
493.868	233183
493.943	124236
494.018	41515
494.093	22187
494.168	27821
494.243	27399
494.318	20129
494.393	21426
494.468	24584
494.543	47043
494.618	76423
494.693	34788
494.768	23045
494.842	25056
494.917	33652
494.992	46729
495.067	34634
495.142	34925
495.217	47054
495.292	49267
495.366	55580
495.441	75435
495.516	115090
495.591	319635
495.665	1327843
495.740	2437443
495.815	584719
495.890	68396
495.964	38914
496.039	34267
496.114	29823
496.188	32762
496.263	29855
496.338	23952
496.412	27154
496.487	51491
496.561	130430
496.636	106730
496.710	45424
496.785	54733
496.860	40915
496.934	43633
497.009	53841
497.083	29791
497.158	23359
497.232	41311
497.307	59502
497.381	23388
497.455	16958
497.530	18497
497.604	18146
497.679	20204
497.753	32901
497.827	52034
497.902	37892
497.976	32737
498.050	39656
498.125	77942
498.199	204718
498.273	282266
498.348	239047
498.422	148553
498.496	179099
498.570	122963
498.645	33424
498.719	24516
498.793	35656
498.867	56110
498.941	40127
499.016	37109
499.090	59199
499.164	44359
499.238	28146
499.312	50502
499.386	102196
499.460	39952
499.534	19308
499.609	18938
499.683	17750
499.757	20616
499.831	23333
499.905	28772
499.979	33745
500.053	66757
500.127	207579
500.201	238520
500.275	70663
500.349	48493
500.422	74609
500.496	237738
500.570	577321
500.644	294531
500.718	98803
500.792	55836
500.866	32749
500.940	27971
501.013	32977
501.087	73790
501.161	226798
501.235	156240
501.309	36860
501.382	63784
501.456	164895
501.530	94194
501.603	27661
501.677	28476
501.751	30279
501.825	42423
501.898	23176
501.972	20156
502.046	27159
502.119	53855
502.193	111524
502.266	56858
502.340	25433
502.413	20169
502.487	22806
502.561	27208
502.634	59381
502.708	101785
502.781	81013
502.855	36175
502.928	23262
503.002	18320
503.075	17903
503.149	15524
503.222	14775
503.295	13537
503.369	13971
503.442	14466
503.516	18276
503.589	21523
503.662	20182
503.736	18639
503.809	25276
503.882	43917
503.956	57076
504.029	118411
504.102	238258
504.175	196527
504.249	32368
504.322	23085
504.395	32403
504.468	21598
504.542	16135
504.615	16377
504.688	22908
504.761	32564
504.834	63761
504.907	153896
504.980	249067
505.053	73183
505.127	152863
505.200	79544
505.273	19130
505.346	19339
505.419	17003
505.492	16977
505.565	13809
505.638	15391
505.711	15745
505.784	13211
505.857	13311
505.930	15281
506.003	16354
506.076	15758
506.149	14812
506.221	14570
506.294	23026
506.367	40339
506.440	103218
506.513	104064
506.586	32181
506.659	37290
506.731	44297
506.804	92855
506.877	147579
506.950	33458
507.022	22855
507.095	29445
507.168	51936
507.241	52922
507.313	47990
507.386	91982
507.459	150098
507.531	59744
507.604	42391
507.677	31439
507.749	34265
507.822	82636
507.894	169254
507.967	100857
508.040	28854
508.112	20198
508.185	23032
508.257	59362
508.330	107767
508.402	22970
508.475	12975
508.547	14399
508.620	13382
508.692	13004
508.765	16506
508.837	15153
508.909	17647
508.982	31114
509.054	59142
509.127	32528
509.199	16061
509.271	14251
509.344	14845
509.416	15765
509.488	18125
509.560	28666
509.633	59924
509.705	77890
509.777	66945
509.849	143380
509.922	48917
509.994	17054
510.066	16661
510.138	14388
510.210	19154
510.283	19725
510.355	30007
510.427	63635
510.499	224387
510.571	222056
510.643	57497
510.715	164441
510.787	103399
510.859	33129
510.931	60013
511.003	140524
511.076	76102
511.148	14053
511.219	13225
511.291	13727
511.363	13213
511.435	12502
511.507	12677
511.579	14307
511.651	13651
511.723	12283
511.795	13266
511.867	13144
511.939	15745
512.010	18165
512.082	28028
512.154	36017
512.226	28814
512.298	56330
512.369	96825
512.441	82428
512.513	118856
512.585	60007
512.656	54351
512.728	69924
512.800	27187
512.871	21681
512.943	26176
513.015	27185
513.086	46666
513.158	64318
513.230	87773
513.301	211872
513.373	218457
513.444	62029
513.516	38264
513.588	45185
513.659	81018
513.731	130508
513.802	117143
513.874	402968
513.945	619052
514.016	92138
514.088	45032
514.159	80674
514.231	126119
514.302	94240
514.374	25552
514.445	20060
514.516	26200
514.588	21248
514.659	27705
514.730	47014
514.802	84202
514.873	42050
514.944	30785
515.016	53132
515.087	81040
515.158	67546
515.229	76431
515.301	116402
515.372	48476
515.443	20452
515.514	20898
515.585	21061
515.656	24932
515.728	23500
515.799	26497
515.870	39162
515.941	36664
516.012	33873
516.083	48236
516.154	101416
516.225	195801
516.296	111162
516.367	61816
516.438	65945
516.509	101279
516.580	145156
516.651	341608
516.722	1066415
516.793	384363
516.864	125060
516.935	69130
517.006	58999
517.077	177538
517.148	452893
517.219	248224
517.289	175646
517.360	26656
517.431	19374
517.502	16288
517.573	18092
517.643	17574
517.714	18254
517.785	17932
517.856	19180
517.926	23510
517.997	26792
518.068	24391
518.138	31996
518.209	44531
518.280	149056
518.350	383883
518.421	99184
518.492	28289
518.562	19802
518.633	21674
518.703	25957
518.774	44829
518.845	51708
518.915	50157
518.986	52838
519.056	137778
519.127	441860
519.197	521526
519.268	290454
519.338	52154
519.408	96220
519.479	274214
519.549	144718
519.620	53819
519.690	27246
519.760	32113
519.831	64931
519.901	47361
519.971	20483
520.042	22431
520.112	35673
520.182	109234
520.253	107414
520.323	22155
520.393	28102
520.463	41234
520.534	15025
520.604	19098
520.674	19685
520.744	33050
520.814	99080
520.885	88728
520.955	19290
521.025	15890
521.095	16564
521.165	18903
521.235	19680
521.305	22875
521.375	32208
521.445	74915
521.515	153834
521.585	178078
521.655	150244
521.725	170427
521.795	214843
521.865	75734
521.935	38600
522.005	38308
522.075	25072
522.145	25244
522.215	25239
522.285	30655
522.355	31708
522.424	41979
522.494	60124
522.564	130988
522.634	501300
522.704	1118837
522.774	232006
522.843	58183
522.913	81261
522.983	135059
523.053	63471
523.122	73982
523.192	220693
523.262	895821
523.331	520145
523.401	53578
523.471	39585
523.540	47311
523.610	24530
523.680	17016
523.749	15749
523.819	16175
523.888	14844
523.958	15730
524.027	17043
524.097	19728
524.166	36027
524.236	74637
524.305	34302
524.375	25683
524.444	15744
524.514	17105
524.583	14520
524.653	17643
524.722	20412
524.791	14670
524.861	21283
524.930	25095
524.999	54522
525.069	79070
525.138	22910
525.207	21087
525.277	24954
525.346	35357
525.415	21330
525.484	25589
525.554	17596
525.623	16572
525.692	15273
525.761	17146
525.830	17744
525.900	17384
525.969	22155
526.038	28039
526.107	41657
526.176	79161
526.245	86631
526.314	150312
526.383	101360
526.452	79785
526.522	154102
526.591	325903
526.660	534501
526.729	134395
526.797	134962
526.867	428569
526.935	1459329
527.004	1073379
527.073	353089
527.142	43842
527.211	44192
527.280	109048
527.349	96866
527.418	27719
527.487	28639
527.555	21877
527.624	20597
527.693	18496
527.762	22428
527.831	20057
527.899	22677
527.968	27166
528.037	39486
528.106	91789
528.174	209782
528.243	90255
528.312	214775
528.380	253164
528.449	41166
528.518	21891
528.586	14500
528.655	16117
528.723	15085
528.792	20293
528.861	23294
528.929	12419
528.998	13759
529.066	12325
529.135	13672
529.203	16567
529.272	16977
529.340	16370
529.409	18357
529.477	15812
529.545	13631
529.614	14994
529.682	11108
529.751	13397
529.819	18256
529.887	19008
529.956	17125
530.024	20902
530.092	26162
530.161	75567
530.229	156106
530.297	36827
530.365	16149
530.434	14806
530.502	12304
530.570	14307
530.638	15811
530.707	35944
530.775	24678
530.843	13380
530.911	13328
530.979	14407
531.047	13153
531.115	14147
531.183	13226
531.252	14486
531.320	13490
531.388	14102
531.456	18226
531.524	15912
531.592	20358
531.660	27126
531.728	18536
531.796	18851
531.864	20312
531.932	23344
532.000	26407
532.067	31590
532.135	39725
532.203	52994
532.271	74623
532.339	230743
532.407	664154
532.475	204443
532.542	62411
532.610	77303
532.678	153553
532.746	691247
532.814	1230445
532.881	294254
532.949	42568
533.017	33210
533.084	22742
533.152	21838
533.220	35616
533.287	56773
533.355	21802
533.423	18492
533.490	16622
533.558	17976
533.625	18803
533.693	19481
533.761	21769
533.828	29360
533.896	57580
533.963	199518
534.031	208954
534.098	270309
534.166	53966
534.233	21264
534.300	24214
534.368	22133
534.435	15129
534.503	15319
534.570	14638
534.637	14388
534.705	14982
534.772	16307
534.840	19396
534.907	44216
534.974	39269
535.041	15852
535.109	13681
535.176	17169
535.243	21401
535.310	40141
535.378	26791
535.445	15355
535.512	14044
535.579	15473
535.646	13946
535.714	15374
535.781	17093
535.848	17239
535.915	18065
535.982	19137
536.049	20839
536.116	27405
536.183	30881
536.250	38407
536.317	47382
536.384	83690
536.451	181004
536.518	155458
536.585	83247
536.652	128726
536.719	245901
536.786	141244
536.853	90912
536.920	184254
536.987	338703
537.053	273102
537.120	871101
537.187	444332
537.254	41976
537.321	36167
537.388	34563
537.454	21922
537.521	19660
537.588	21104
537.654	24944
537.721	24664
537.788	25115
537.855	25147
537.921	35153
537.988	36340
538.055	34243
538.121	43408
538.188	76677
538.254	206095
538.321	436252
538.388	147617
538.454	37455
538.521	27946
538.587	25349
538.654	25551
538.720	26172
538.787	27764
538.853	34021
538.920	58044
538.986	44751
539.053	35003
539.119	52344
539.185	53954
539.252	95951
539.318	185789
539.385	57851
539.451	38531
539.517	48586
539.583	87829
539.650	327773
539.716	635690
539.782	113098
539.849	51052
539.915	44034
539.981	70226
540.047	104306
540.114	61858
540.180	58338
540.246	80899
540.312	166550
540.378	420422
540.444	307703
540.510	352592
540.576	729534
540.643	127705
540.709	36888
540.775	34769
540.841	38401
540.907	49436
540.973	70517
541.039	167818
541.105	167314
541.171	52294
541.237	42199
541.303	52719
541.369	81000
541.435	181456
541.500	347974
541.566	137576
541.632	44618
541.698	33157
541.764	28686
541.830	27308
541.896	26684
541.961	30118
542.027	32582
542.093	40542
542.159	51858
542.224	75961
542.290	152872
542.356	375508
542.421	336400
542.487	83011
542.553	42910
542.618	37697
542.684	39739
542.750	45913
542.815	72712
542.881	183669
542.947	714189
543.012	310248
543.078	37996
543.143	33217
543.209	40014
543.274	51638
543.340	87861
543.405	327816
543.471	373298
543.536	43144
543.602	27740
543.667	25615
543.732	23350
543.798	20180
543.863	20747
543.928	20777
543.994	21170
544.059	24953
544.124	26630
544.190	27989
544.255	31587
544.320	40388
544.386	59010
544.451	123464
544.516	142083
544.581	141358
544.646	499590
544.712	517380
544.777	53446
544.842	28816
544.907	23440
544.972	24349
545.037	25710
545.102	28595
545.168	31350
545.233	35616
545.298	44802
545.363	60681
545.428	112668
545.493	330652
545.558	610425
545.623	121681
545.688	30676
545.753	24766
545.818	22651
545.883	23639
545.947	22491
546.012	26032
546.077	28646
546.142	38189
546.207	58126
546.272	127288
546.337	109376
546.401	41367
546.466	26526
546.531	24701
546.596	37491
546.661	41456
546.725	25657
546.790	19461
546.855	19660
546.919	18634
546.984	21590
547.049	21089
547.113	21532
547.178	21635
547.243	27870
547.307	33183
547.372	56439
547.436	37335
547.501	31449
547.565	52310
547.630	120260
547.695	75656
547.759	26213
547.823	25357
547.888	23002
547.952	23279
548.017	28262
548.081	42840
548.146	34950
548.210	24304
548.274	27448
548.339	27333
548.403	23395
548.468	23307
548.532	22938
548.596	24411
548.660	29589
548.725	42167
548.789	48178
548.853	34737
548.917	26010
548.982	24319
549.046	22685
549.110	21037
549.174	22977
549.238	23019
549.303	24946
549.367	29352
549.431	25263
549.495	23226
549.559	26235
549.623	35030
549.687	73846
549.751	134129
549.815	40443
549.879	26061
549.943	25757
550.007	30824
550.071	49302
550.135	110859
550.199	46613
550.263	29280
550.327	30183
550.391	27149
550.455	27354
550.519	33971
550.582	51254
550.646	141718
550.710	97997
550.774	28173
550.838	25620
550.901	24690
550.965	25251
551.029	26151
551.093	26678
551.156	29628
551.220	34125
551.284	33543
551.347	25952
551.411	24371
551.475	23751
551.538	25558
551.602	25007
551.666	24314
551.729	22386
551.793	24732
551.856	23284
551.920	25564
551.983	23789
552.047	24378
552.110	25754
552.174	24669
552.237	28276
552.301	24805
552.364	23488
552.428	23431
552.491	27384
552.554	33351
552.618	23954
552.681	23191
552.745	23076
552.808	26648
552.871	28356
552.934	25354
552.998	23558
553.061	24061
553.124	25634
553.187	26741
553.251	28954
553.314	26634
553.377	24865
553.440	28796
553.503	40650
553.567	37530
553.630	24952
553.693	24811
553.756	24545
553.819	26591
553.882	27017
553.945	25417
554.008	24685
554.071	24879
554.134	25353
554.197	26098
554.260	36517
554.323	45106
554.386	38384
554.449	29871
554.512	26270
554.575	27575
554.638	31677
554.701	28154
554.764	24022
554.827	23694
554.889	22382
554.952	23817
555.015	23584
555.078	22895
555.141	24091
555.203	23891
555.266	27306
555.329	31204
555.391	35008
555.454	53696
555.517	41142
555.580	24303
555.642	23336
555.705	24461
555.768	27488
555.830	25586
555.893	24340
555.955	26961
556.018	30366
556.080	29576
556.143	28099
556.206	32487
556.268	41164
556.330	52539
556.393	42840
556.455	34653
556.518	54112
556.580	58171
556.643	34507
556.705	37115
556.767	37101
556.830	48484
556.892	97414
556.955	212423
557.017	81880
557.079	42251
557.142	55181
557.204	118042
557.266	334535
557.328	160009
557.391	34038
557.453	30074
557.515	42580
557.577	97129
557.639	75182
557.701	25746
557.764	21399
557.826	20903
557.888	21999
557.950	22507
558.012	23412
558.074	26093
558.136	36530
558.198	51189
558.260	33913
558.322	32062
558.384	36994
558.446	46073
558.508	64612
558.570	118150
558.632	369692
558.694	417050
558.756	97696
558.818	134409
558.880	202561
558.942	58479
559.003	54366
559.065	33522
559.127	27316
559.189	28721
559.251	30403
559.312	36970
559.374	67861
559.436	144486
559.498	59477
559.559	27391
559.621	28736
559.683	32634
559.744	50259
559.806	109794
559.868	90002
559.929	30902
559.991	30393
560.052	37460
560.114	57426
560.176	49617
560.237	92845
560.299	125799
560.360	36319
560.422	22073
560.483	20981
560.545	21329
560.606	19615
560.667	19196
560.729	20602
560.790	21849
560.852	22331
560.913	23440
560.974	24468
561.036	24685
561.097	26426
561.158	30754
561.220	34112
561.281	40339
561.342	54353
561.403	87576
561.465	174282
561.526	550350
561.587	502877
561.648	72749
561.709	37914
561.771	32702
561.832	35564
561.893	33590
561.954	30352
562.015	29031
562.076	29047
562.137	28800
562.198	27229
562.259	33090
562.320	41515
562.381	69710
562.442	130894
562.503	58656
562.564	28399
562.625	25657
562.686	23881
562.747	23710
562.808	23555
562.869	23655
562.930	22579
562.991	23831
563.051	23290
563.112	24411
563.173	25481
563.234	25092
563.294	29318
563.355	37123
563.416	39519
563.477	28522
563.537	28148
563.598	30887
563.659	33703
563.720	36273
563.780	45782
563.841	45809
563.901	26975
563.962	25815
564.023	27603
564.083	30549
564.144	33760
564.204	26920
564.265	24515
564.325	23714
564.386	25969
564.446	24440
564.507	23102
564.567	25048
564.628	25501
564.688	26664
564.749	26407
564.809	26216
564.869	28097
564.930	30712
564.990	32631
565.050	31915
565.111	31155
565.171	28816
565.231	30276
565.292	30949
565.352	30560
565.412	35180
565.472	42259
565.532	54047
565.593	38832
565.653	33102
565.713	36521
565.773	51407
565.833	105166
565.893	119367
565.953	39915
566.013	31936
566.074	32095
566.134	38003
566.194	54357
566.254	76405
566.314	38175
566.374	27580
566.434	27057
566.494	26163
566.554	26047
566.614	27746
566.673	28210
566.733	31168
566.793	27506
566.853	25955
566.913	24446
566.973	25629
567.033	25092
567.092	24539
567.152	24170
567.212	25842
567.272	25166
567.331	24454
567.391	22772
567.451	23886
567.511	24279
567.570	25466
567.630	24028
567.690	24241
567.749	25740
567.809	30024
567.868	35747
567.928	30543
567.988	26557
568.047	25273
568.107	25994
568.166	26883
568.226	25294
568.285	26137
568.345	26853
568.404	26851
568.464	26731
568.523	29808
568.582	37819
568.642	42688
568.701	28886
568.761	24814
568.820	24323
568.879	24408
568.939	24518
568.998	24268
569.057	24836
569.116	27082
569.176	26174
569.235	24197
569.294	25947
569.353	30526
569.413	24025
569.472	23130
569.531	23367
569.590	23701
569.649	23168
569.708	23991
569.767	25820
569.827	27475
569.886	24534
569.945	29543
570.004	41066
570.063	35963
570.122	44981
570.181	38836
570.240	26076
570.299	25611
570.358	26044
570.417	27758
570.475	32398
570.534	43321
570.593	46657
570.652	33702
570.711	30948
570.770	32759
570.829	37829
570.887	61276
570.946	73786
571.005	31656
571.064	26217
571.122	27203
571.181	31697
571.240	26701
571.299	23083
571.357	24333
571.416	25678
571.475	27546
571.533	26635
571.592	23256
571.650	23584
571.709	26728
571.768	34185
571.826	26419
571.885	22555
571.943	21644
572.002	21337
572.060	21828
572.119	22183
572.177	21654
572.236	20673
572.294	21191
572.352	21243
572.411	20115
572.469	21129
572.528	20802
572.586	20560
572.644	20634
572.703	19437
572.761	20111
572.819	19490
572.877	20502
572.936	20264
572.994	20547
573.052	21233
573.110	25743
573.169	29987
573.227	23203
573.285	20424
573.343	20129
573.401	19367
573.459	18867
573.517	18461
573.576	19338
573.634	19391
573.692	19654
573.750	18954
573.808	18769
573.866	18339
573.924	18643
573.982	18803
574.040	19231
574.098	19232
574.155	21223
574.213	20065
574.271	19095
574.329	18873
574.387	19119
574.445	17678
574.503	19120
574.560	17721
574.618	18554
574.676	18788
574.734	19915
574.792	21474
574.849	19409
574.907	18980
574.965	19825
575.022	20180
575.080	22464
575.138	25967
575.195	31169
575.253	36276
575.311	47288
575.368	25015
575.426	19830
575.483	19524
575.541	18965
575.598	18832
575.656	19182
575.713	19147
575.771	18919
575.828	18240
575.886	20078
575.943	20558
576.001	22038
576.058	22124
576.115	25489
576.173	30163
576.230	47899
576.287	78153
576.345	35536
576.402	18758
576.459	18347
576.517	17202
576.574	19093
576.631	17350
576.688	17082
576.746	17484
576.803	17330
576.860	16770
576.917	18390
576.974	17030
577.031	17357
577.089	18302
577.146	17501
577.203	17897
577.260	18256
577.317	17694
577.374	19083
577.431	20983
577.488	27237
577.545	21012
577.602	18379
577.659	18051
577.716	17870
577.773	18828
577.830	20175
577.886	19089
577.943	21908
578.000	25677
578.057	31938
578.114	39686
578.171	80108
578.227	67966
578.284	20081
578.341	18246
578.398	19127
578.454	19934
578.511	21384
578.568	18763
578.625	17288
578.681	17091
578.738	18739
578.794	17365
578.851	20450
578.908	23414
578.964	28126
579.021	25113
579.077	26786
579.134	23279
579.190	21562
579.247	21572
579.303	20425
579.360	21626
579.416	21631
579.473	18780
579.529	18539
579.586	20522
579.642	20151
579.698	19011
579.755	21006
579.811	22490
579.867	21292
579.924	18303
579.980	19010
580.036	19137
580.093	20323
580.149	19149
580.205	19187
580.261	19805
580.317	19940
580.374	22961
580.430	22761
580.486	21790
580.542	22384
580.598	24350
580.619	25248
580.654	26843
580.692	24255
580.710	23016
580.765	23539
580.767	23585
580.823	23008
580.838	23079
580.879	23348
580.911	23610
580.935	23851
580.984	20734
580.991	20342
581.047	19301
581.057	19209
581.103	18881
581.130	19160
581.159	19480
581.203	19336
581.215	19333
581.270	19382
581.276	19355
581.326	19334
581.349	19706
581.382	20241
581.422	21881
581.438	22615
581.494	23654
581.494	23649
581.550	25492
581.567	26853
581.606	29699
581.640	26509
581.661	24598
581.713	20590
581.717	20297
581.773	18439
581.786	18528
581.829	18960
581.859	20167
581.885	21223
581.932	20544
581.940	20414
581.996	21366
582.004	21323
582.052	21194
582.077	20423
582.107	19563
582.150	19015
582.163	18879
582.219	20656
582.223	20560
582.274	19384
582.296	19846
582.330	20712
582.368	19623
582.386	19132
582.441	19870
582.441	19878
582.497	20125
582.514	20074
582.552	20244
582.587	20753
582.608	20934
582.659	19430
582.663	19331
582.719	20083
582.732	20133
582.774	20320
582.805	19785
582.830	19336
582.877	19633
582.885	19701
582.941	19768
582.950	19706
582.996	19270
583.023	19772
583.052	20400
583.095	18983
583.107	18556
583.162	18780
583.168	18777
583.218	18979
583.240	19028
583.273	19063
583.313	19502
583.328	19696
583.384	21001
583.385	20964
583.439	19709
583.458	19427
583.494	18856
583.531	19414
583.549	19833
583.603	19265
583.605	19234
583.660	19503
583.676	19506
583.715	19568
583.748	19730
583.770	19817
583.820	19730
583.825	19725
583.881	19168
583.893	18981
583.936	18266
583.965	17883
583.991	17477
584.038	18239
584.046	18399
584.101	17873
584.110	17833
584.156	17612
584.183	18315
584.211	19024
584.255	18293
584.266	18115
584.321	17352
584.328	17546
584.376	19392
584.400	19602
584.431	19430
584.472	18193
584.486	17910
584.541	19042
584.545	19013
584.596	18073
584.617	18338
584.651	18965
584.689	19599
584.706	19896
584.761	20592
584.762	20595
584.816	19704
584.834	19601
584.871	19297
584.906	19077
584.926	19070
584.978	18917
584.980	18898
585.035	19228
585.051	19831
585.090	21811
585.123	21776
585.145	21419
585.195	21322
585.200	21352
585.254	21751
585.267	21846
585.309	21747
585.340	21313
585.364	20804
585.412	21276
585.419	21432
585.473	22923
585.484	23232
585.528	24512
585.556	26633
585.583	28601
585.628	30511
585.637	31191
585.692	44024
585.700	45545
585.747	51614
585.772	42983
585.801	31769
585.845	27532
585.856	27265
585.910	32193
585.917	32360
585.965	32267
585.989	30794
586.019	28410
586.061	27661
586.074	28011
586.128	32168
586.133	32706
586.183	38644
586.205	38838
586.237	36315
586.277	28864
586.292	26346
586.346	22735
586.349	22674
586.401	22862
586.421	22433
586.455	21177
586.493	20255
586.509	20229
586.564	20961
586.565	20989
586.618	21299
586.637	21345
586.672	21697
586.709	22315
586.727	22587
586.781	24019
586.781	24006
586.835	24369
586.853	23843
586.889	22602
586.925	22795
586.944	23031
586.996	23202
586.998	23194
587.052	24456
587.068	24670
587.106	24900
587.140	24132
587.161	23558
587.212	23803
587.215	23847
587.269	25877
587.284	25940
587.323	25116
587.356	24979
587.377	25381
587.427	26383
587.431	26365
587.485	25825
587.499	25768
587.539	25617
587.571	25591
587.593	25578
587.643	25534
587.648	25526
587.702	25345
587.715	25467
587.755	25482
587.786	25364
587.810	25210
587.858	24558
587.864	24604
587.917	26797
587.930	27124
587.971	27479
588.001	26986
588.025	25995
588.073	25702
588.079	25874
588.133	27267
588.145	27534
588.187	27698
588.217	28082
588.241	28509
588.288	29125
588.295	29418
588.348	34898
588.360	35330
588.402	34524
588.431	33258
588.456	31587
588.503	30320
588.510	30406
588.564	31581
588.575	32054
588.617	33416
588.646	34341
588.671	35467
588.718	38591
588.725	39346
588.778	48895
588.789	51565
588.832	73881
588.861	93248
588.886	133320
588.932	238315
588.939	248968
588.993	308863
589.004	298458
589.047	136773
589.075	65125
589.100	50531
589.147	35596
589.154	35239
589.207	33986
589.218	33853
589.261	34402
589.290	35058
589.314	35718
589.361	39050
589.368	40283
589.421	51961
589.433	55349
589.475	89224
589.504	120669
589.528	160784
589.576	245666
589.582	239440
589.635	107775
589.647	86729
589.689	48850
589.718	29515
589.742	28684
589.790	26448
589.795	26197
589.849	24277
589.861	24045
589.902	24020
589.932	23786
589.955	23563
590.004	23133
590.009	23155
590.062	24238
590.075	24429
590.115	24488
590.146	24873
590.168	25814
590.218	27584
590.222	27528
590.275	27421
590.289	27189
590.328	26543
590.360	26480
590.381	26642
590.431	26805
590.435	26835
590.488	28299
590.503	28827
590.541	30726
590.574	31957
590.594	30774
590.645	27185
590.647	27153
590.700	27897
590.716	28082
590.753	27522
590.787	27404
590.806	27320
590.859	26782
590.859	26762
590.912	27843
590.930	28236
590.965	28733
591.001	29257
591.018	29308
591.071	29546
591.072	29588
591.124	30018
591.143	30123
591.177	31526
591.214	33422
591.230	34704
591.283	39482
591.285	39716
591.336	45639
591.356	48374
591.389	49133
591.427	48346
591.442	45195
591.495	33590
591.498	32860
591.547	31306
591.569	30738
591.600	30434
591.640	29642
591.653	29384
591.706	28822
591.711	28799
591.759	27447
591.782	26750
591.811	27723
591.853	29512
591.864	29480
591.917	29187
591.924	29192
591.969	29595
591.995	29894
592.022	29503
592.066	28838
592.075	28667
592.127	27865
592.137	27750
592.180	27412
592.208	27279
592.233	27207
592.279	27179
592.285	27134
592.338	27086
592.350	27110
592.390	27176
592.421	27343
592.443	27193
592.491	26969
592.495	26955
592.548	27469
592.562	27665
592.600	27893
592.633	28172
592.653	28244
592.704	28398
592.705	28589
592.775	30188
592.846	32732
592.916	38961
592.987	48970
593.058	36109
593.128	27246
593.199	26666
593.270	26672
593.341	26961
593.411	31278
593.482	32734
593.553	26369
593.623	23590
593.694	24447
593.764	23279
593.835	24124
593.906	23609
593.976	23120
594.047	23894
594.117	24361
594.188	23939
594.258	23519
594.329	23219
594.399	22352
594.470	22314
594.540	24039
594.611	21994
594.681	22078
594.751	21775
594.822	22288
594.892	22474
594.963	22427
595.033	21753
595.103	22339
595.174	23759
595.244	27112
595.314	22949
595.384	20217
595.455	20501
595.525	21244
595.595	21449
595.665	22427
595.736	20214
595.806	21154
595.876	20471
595.946	20608
596.016	20274
596.087	20161
596.157	20059
596.227	21571
596.297	21001
596.367	20857
596.437	20375
596.507	21137
596.577	19342
596.647	21130
596.717	19895
596.787	20196
596.857	21281
596.927	19771
596.997	19704
597.067	19708
597.137	20495
597.207	20005
597.277	20327
597.347	20410
597.417	22585
597.487	27263
597.557	27151
597.626	26749
597.696	27000
597.766	21526
597.836	20795
597.906	19929
597.975	20555
598.045	19019
598.115	20254
598.185	21246
598.254	24995
598.324	32167
598.394	36080
598.464	35961
598.533	25375
598.603	25196
598.672	28493
598.742	22942
598.812	18964
598.881	19004
598.951	18069
599.020	17585
599.090	17204
599.159	17809
599.229	18116
599.299	16050
599.368	17027
599.437	16994
599.507	15926
599.576	17397
599.646	17688
599.715	19334
599.785	18883
599.854	17536
599.924	17065
599.993	17613
600.062	16823
600.132	17859
600.201	20397
600.270	28642
600.340	23431
600.409	17802
600.478	16880
600.547	17370
600.617	17695
600.686	21507
600.755	26072
600.824	34873
600.894	23871
600.963	16589
601.032	15409
601.101	15731
601.170	15635
601.239	16579
601.308	14863
601.378	15343
601.447	14996
601.516	15385
601.585	15876
601.654	15731
601.723	16815
601.792	16520
601.861	20439
601.930	30364
601.999	40195
602.068	23160
602.137	18482
602.206	21434
602.275	30341
602.343	54175
602.412	54189
602.481	22222
602.550	16983
602.619	19071
602.688	24253
602.756	16241
602.825	14555
602.894	14473
602.963	12984
603.032	13845
603.100	12690
603.169	14002
603.238	12481
603.307	13615
603.375	13685
603.444	14512
603.513	13690
603.581	13434
603.650	13131
603.719	12550
603.787	12476
603.856	12746
603.924	12706
603.993	14806
604.061	14041
604.130	17917
604.198	18232
604.267	14931
604.335	12787
604.404	12801
604.472	13236
604.541	12741
604.609	12776
604.678	14033
604.746	13561
604.815	13108
604.883	12612
604.951	13032
605.020	12418
605.088	12460
605.156	12438
605.225	13315
605.293	13235
605.361	15448
605.429	15641
605.498	19719
605.566	25216
605.634	18440
605.702	13595
605.771	13081
605.839	12339
605.907	13394
605.975	12858
606.043	13583
606.111	13538
606.180	13286
606.248	13833
606.316	15071
606.384	18280
606.452	35508
606.520	73967
606.588	30903
606.656	13407
606.724	12730
606.792	12552
606.860	12059
606.928	10579
606.996	12123
607.064	11107
607.132	11584
607.200	11117
607.267	11922
607.335	11676
607.403	12642
607.471	11382
607.539	12265
607.607	13977
607.674	13823
607.742	19037
607.810	26126
607.878	20167
607.946	13948
608.013	12369
608.081	12530
608.149	12572
608.216	12990
608.284	13354
608.352	11925
608.419	11136
608.487	15022
608.555	12293
608.622	12626
608.690	12177
608.757	12278
608.825	12751
608.893	14680
608.960	13759
609.028	12928
609.095	13272
609.163	12446
609.230	13125
609.298	15618
609.365	14689
609.432	15854
609.500	15490
609.567	17454
609.635	17797
609.702	15922
609.769	16547
609.837	15248
609.904	14203
609.971	13935
610.039	17451
610.106	21005
610.173	32594
610.241	45952
610.308	29236
610.375	16402
610.442	12334
610.509	12300
610.577	13877
610.644	13700
610.711	14284
610.778	14211
610.845	14226
610.912	14192
610.980	13961
611.047	12868
611.114	12732
611.181	12643
611.248	12926
611.315	13608
611.382	12286
611.449	12855
611.516	13972
611.583	13285
611.650	13520
611.717	13806
611.784	11836
611.851	12989
611.918	13617
611.984	14229
612.051	19570
612.118	33377
612.185	67235
612.252	40329
612.319	16109
612.386	14735
612.452	13759
612.519	13195
612.586	13209
612.653	13889
612.719	16311
612.786	16545
612.853	12592
612.919	13142
612.986	14381
613.053	12366
613.120	12052
613.186	11423
613.253	14376
613.319	13196
613.386	14612
613.453	18830
613.519	32232
613.586	79693
613.652	139265
613.719	101172
613.785	65403
613.852	16811
613.918	12515
613.985	14645
614.051	14763
614.118	19253
614.184	18869
614.250	12007
614.317	12060
614.383	12346
614.449	12501
614.516	12409
614.582	12367
614.648	11405
614.715	13911
614.781	14501
614.847	12136
614.914	11553
614.980	11251
615.046	12732
615.112	13558
615.179	13097
615.245	12085
615.311	11795
615.377	12286
615.443	11219
615.509	11891
615.575	12653
615.642	13365
615.708	18871
615.774	18378
615.840	14244
615.906	14803
615.972	17144
616.038	21988
616.104	41281
616.170	89619
616.236	67343
616.302	22018
616.368	15793
616.434	13229
616.500	16863
616.565	15658
616.631	13755
616.697	12320
616.763	14732
616.829	18038
616.895	26089
616.961	27575
617.026	24044
617.092	15393
617.158	13679
617.224	12990
617.289	18060
617.355	14091
617.421	10597
617.487	12083
617.552	11867
617.618	10070
617.684	10710
617.749	12898
617.815	11757
617.880	11077
617.946	14114
618.012	16968
618.077	14161
618.143	13750
618.208	13805
618.274	13864
618.339	14978
618.405	12428
618.470	14557
618.536	14021
618.601	15471
618.667	13947
618.732	16130
618.798	17255
618.863	15236
618.928	16698
618.994	23683
619.059	43194
619.124	96878
619.190	40706
619.255	13936
619.320	13250
619.386	13089
619.451	11596
619.516	13119
619.581	12655
619.647	13186
619.712	12118
619.777	13115
619.842	14194
619.907	14246
619.972	17990
620.038	18294
620.103	13023
620.168	12152
620.233	12557
620.298	11966
620.363	12229
620.428	13409
620.493	12315
620.558	12217
620.623	11806
620.688	11985
620.753	11941
620.818	11992
620.883	12771
620.948	12910
621.013	12147
621.078	12309
621.143	11572
621.207	17395
621.272	20229
621.337	24337
621.402	15120
621.467	17327
621.532	15918
621.596	13319
621.661	13552
621.726	14658
621.791	16018
621.855	25779
621.920	31658
621.985	16075
622.049	15266
622.114	13939
622.179	14139
622.243	14563
622.308	13167
622.373	15524
622.437	14848
622.502	15297
622.566	15463
622.631	15169
622.695	18555
622.760	18844
622.824	20724
622.889	27427
622.953	44162
623.018	111532
623.082	92592
623.147	25431
623.211	27116
623.276	27058
623.340	17203
623.404	16972
623.469	15810
623.533	15608
623.597	15357
623.662	16356
623.726	15481
623.790	14818
623.854	14720
623.919	15221
623.983	16096
624.047	17876
624.111	14647
624.176	14742
624.240	14462
624.304	16875
624.368	16253
624.432	18041
624.496	23328
624.560	40156
624.625	53439
624.689	22541
624.753	16599
624.817	16197
624.881	15955
624.945	16588
625.009	16554
625.073	20715
625.137	28924
625.201	65516
625.265	58245
625.329	24443
625.393	31725
625.456	20937
625.520	18331
625.584	23073
625.648	20921
625.712	14633
625.776	13696
625.839	14358
625.903	13454
625.967	14682
626.031	16161
626.095	14530
626.158	13820
626.222	13593
626.286	13995
626.349	14830
626.413	16964
626.477	29007
626.540	18181
626.604	12117
626.668	14805
626.731	13986
626.795	13138
626.858	12789
626.922	12479
626.986	16327
627.049	13245
627.113	14087
627.176	13360
627.240	13578
627.303	11768
627.366	11805
627.430	12680
627.493	12599
627.557	11863
627.620	13425
627.684	12530
627.747	12369
627.810	10778
627.874	12821
627.937	11866
628.000	16452
628.064	15501
628.127	10364
628.190	13030
628.253	12847
628.317	11852
628.380	11806
628.443	12273
628.506	11657
628.569	12134
628.632	11874
628.696	11120
628.759	10186
628.822	11737
628.885	11256
628.948	12773
629.011	15294
629.074	16330
629.137	12415
629.200	11082
629.263	13354
629.326	10568
629.389	11497
629.452	10711
629.515	11249
629.578	10715
629.641	12669
629.704	15133
629.767	18919
629.830	13411
629.892	13446
629.955	13721
630.018	21830
630.081	37040
630.144	54557
630.207	28420
630.269	21359
630.332	11976
630.395	11058
630.458	11681
630.520	9767
630.583	11597
630.646	11115
630.708	9704
630.771	8616
630.834	10514
630.896	8844
630.959	9619
631.021	10251
631.084	9727
631.146	10585
631.209	10757
631.272	9942
631.334	10365
631.397	10782
631.459	13579
631.522	18417
631.584	12485
631.646	14496
631.709	18976
631.771	37723
631.834	18245
631.896	11544
631.958	9590
632.021	10991
632.083	9274
632.145	11900
632.208	15176
632.270	15979
632.332	8914
632.395	9094
632.457	9952
632.519	9283
632.581	10495
632.643	8788
632.706	8945
632.768	9190
632.830	9508
632.892	9099
632.954	9026
633.016	9534
633.078	9986
633.141	9171
633.203	9384
633.265	10157
633.327	10842
633.389	12515
633.451	21709
633.513	35515
633.575	21132
633.637	33692
633.698	26159
633.760	11611
633.822	11458
633.884	11148
633.946	10154
634.008	8459
634.070	8125
634.132	9060
634.193	8137
634.255	9125
634.317	8319
634.379	13209
634.441	9100
634.502	7660
634.564	8661
634.626	8302
634.687	7402
634.749	8474
634.811	8385
634.873	7300
634.934	7416
634.996	8498
635.057	6757
635.119	6484
635.181	7903
635.242	8610
635.304	6190
635.365	10242
635.427	9536
635.488	13133
635.550	7587
635.611	8417
635.673	5768
635.734	9059
635.796	10030
635.857	12194
635.918	7683
635.980	9249
636.041	6671
636.102	7038
636.164	7304
636.225	9323
636.286	6809
636.348	8316
636.409	8012
636.470	7057
636.531	6982
636.593	7474
636.654	7621
636.715	6838
636.776	7433
636.838	6890
636.899	7010
636.960	6416
637.021	6064
637.082	6817
637.143	6346
637.204	5253
637.265	5461
637.326	6532
637.387	6878
637.448	5994
637.509	6398
637.570	5975
637.631	7256
637.692	5561
637.753	5096
637.814	6687
637.875	7025
637.936	8151
637.997	7007
638.058	10599
638.119	7238
638.179	5858
638.240	5305
638.301	6038
638.362	4813
638.423	5494
638.483	7001
638.544	4986
638.605	5825
638.666	5665
638.726	5454
638.787	6362
638.848	5521
638.908	5428
638.969	6527
639.030	7480
639.090	6678
639.151	9726
639.211	16587
639.272	33842
639.332	75107
639.393	25345
639.453	6314
639.514	7270
639.574	7755
639.635	7787
639.695	9352
639.756	10160
639.816	18050
639.877	30300
639.937	73688
639.997	101661
640.058	20293
640.118	7742
640.178	8373
640.239	6411
640.299	5234
640.359	5456
640.420	4621
640.480	6922
640.540	5730
640.600	6757
640.661	8908
640.721	12261
640.781	23289
640.841	9478
640.901	8665
640.961	9226
641.021	14653
641.082	26484
641.142	54056
641.202	21903
641.262	7001
641.322	5974
641.382	4838
641.442	5955
641.502	5133
641.562	5541
641.622	5497
641.682	5900
641.742	6089
641.802	7355
641.861	9999
641.921	14571
641.981	21783
642.041	22320
642.101	35467
642.161	15013
642.221	5611
642.280	6154
642.340	4228
642.400	2886
642.460	5909
642.519	4083
642.579	5282
642.639	6715
642.698	2888
642.758	7995
642.818	5392
642.877	6178
642.937	10883
642.997	20178
643.056	45339
643.116	14375
643.175	6600
643.235	5057
643.294	4551
643.354	4892
643.414	5069
643.473	5097
643.532	3728
643.592	5070
643.651	7104
643.711	9982
643.770	14966
643.830	31840
643.889	58333
643.948	14673
644.008	5400
644.067	4506
644.126	3620
644.186	3643
644.245	5051
644.304	2537
644.363	4852
644.423	1931
644.482	3749
644.541	4453
644.600	1361
644.659	4299
644.719	2939
644.778	3889
644.837	4155
644.896	8580
644.955	11790
645.014	6441
645.073	4731
645.132	3731
645.191	3348
645.250	3582
645.309	4429
645.368	3604
645.427	3950
645.486	3960
645.545	4822
645.604	4012
645.663	3846
645.722	3479
645.781	3257
645.840	3448
645.898	4281
645.957	5231
646.016	4301
646.075	7877
646.134	12705
646.192	30540
646.251	42716
646.310	8069
646.369	4158
646.427	5166
646.486	2350
646.545	4136
646.603	2877
646.662	3941
646.721	3761
646.779	3340
646.838	4147
646.896	7153
646.955	4509
647.014	4980
647.072	4256
647.131	8715
647.189	4609
647.248	2295
647.306	3734
647.365	3293
647.423	1681
647.481	5424
647.540	3424
647.598	3109
647.657	2591
647.715	3355
647.773	2086
647.832	4049
647.890	1874
647.948	2436
648.007	2738
648.065	2326
648.123	4685
648.181	7125
648.240	3168
648.298	1778
648.356	1770
648.414	3339
648.472	3066
648.531	3502
648.589	2586
648.647	2175
648.705	2121
648.763	2005
648.821	3604
648.879	2051
648.937	3318
648.995	3676
649.053	3948
649.111	4647
649.169	5934
649.227	10055
649.285	17290
649.343	35327
649.401	44720
649.459	108866
649.516	57831
649.574	10230
649.632	9764
649.690	6168
649.748	4167
649.806	3169
649.863	4326
649.921	7626
649.979	4662
650.037	3002
650.094	1032
650.152	3793
650.210	1874
650.268	3477
650.325	2242
650.383	3364
650.440	1481
650.498	3018
650.556	2322
650.613	2256
650.671	2032
650.728	2397
650.786	1559
650.843	2197
650.901	767
650.958	2130
651.016	2168
651.073	1832
651.131	851
651.188	1072
651.246	2360
651.303	1139
651.360	1511
651.418	1604
651.475	2221
651.532	1372
651.590	2006
651.647	2247
651.704	2671
651.762	2657
651.819	4041
651.876	2994
651.933	1673
651.990	2210
652.048	614
652.105	1766
652.162	2099
652.219	1620
652.276	2602
652.333	2092
652.390	1476
652.448	2127
652.505	1873
652.562	1761
652.619	1518
652.676	2395
652.733	3137
652.790	2404
652.847	2167
652.904	2107
652.961	-18
653.017	1574
653.074	2573
653.131	2190
653.188	1075
653.245	2114
653.302	2267
653.359	2540
653.415	2332
653.472	2557
653.529	1859
653.586	1326
653.642	1963
653.699	3076
653.756	870
653.813	1264
653.869	1892
653.926	1523
653.983	749
654.039	2201
654.096	1379
654.152	2545
654.209	1113
654.266	1954
654.322	1305
654.379	3629
654.435	4742
654.492	6924
654.548	13212
654.605	25740
654.661	6673
654.717	2599
654.774	2276
654.830	1859
654.887	1459
654.943	1568
655.000	1727
655.056	1940
655.112	1647
655.168	894
655.225	968
655.281	1094
655.337	771
655.394	1031
655.450	1547
655.506	2538
655.562	1645
655.618	2307
655.675	1411
655.731	2492
655.787	1396
655.843	2733
655.899	1110
655.955	2476
656.011	2281
656.067	1913
656.123	2619
656.179	2979
656.235	3193
656.291	1708
656.347	3652
656.403	2180
656.459	1575
656.515	2126
656.571	2294
656.627	3694
656.683	3258
656.739	3714
656.795	4015
656.850	7619
656.906	9608
656.962	5686
657.018	1774
657.074	2707
657.129	2247
657.185	2693
657.241	1189
657.297	2226
657.352	2748
657.408	2855
657.464	4413
657.519	2500
657.575	1222
657.630	1628
657.686	930
657.742	919
657.797	1353
657.853	1854
657.908	2217
657.964	1009
658.019	1338
658.075	1726
658.130	1049
658.186	526
658.241	1422
658.297	824
658.352	1514
658.407	2340
658.463	1557
658.518	2316
658.573	2154
658.629	571
658.684	1956
658.739	2131
658.795	1792
658.850	2120
658.905	1443
658.960	2146
659.016	2910
659.071	4549
659.126	5685
659.181	10135
659.236	26331
659.291	26582
659.346	10463
659.401	6111
659.457	2589
659.512	1434
659.567	2997
659.622	1899
659.677	2372
659.732	2493
659.787	2557
659.842	1807
659.897	1645
659.952	1726
660.007	1620
660.061	1977
660.116	531
660.171	1619
660.226	1629
660.281	2667
660.336	632
660.391	2370
660.445	1659
660.500	1704
660.555	2035
660.610	1793
660.664	2570
660.719	1334
660.774	3055
660.828	2801
660.883	4411
660.938	3327
660.992	1061
661.047	2688
661.101	1231
661.156	1262
661.211	1324
661.265	1687
661.320	1014
661.374	920
661.429	1827
661.483	1689
661.538	414
661.592	1200
661.647	1155
661.701	2319
661.755	1314
661.810	1005
661.864	1469
661.919	1102
661.973	1799
662.027	1418
662.081	1104
662.136	1243
662.190	1939
662.244	1726
662.299	653
662.353	2096
662.407	749
662.461	935
662.515	1449
662.569	1489
662.624	2067
662.678	2006
662.732	1375
662.786	1350
662.840	1675
662.894	2026
662.948	1049
663.002	1483
663.056	1361
663.110	2297
663.164	1915
663.218	2792
663.272	3483
663.326	5241
663.380	5040
663.434	2639
663.488	1201
663.542	1952
663.595	840
663.649	759
663.703	1966
663.757	1357
663.811	1035
663.864	1824
663.918	2405
663.972	1850
664.026	882
664.079	1628
664.133	1720
664.187	2053
664.240	736
664.294	1317
664.348	1549
664.401	828
664.455	1445
664.508	421
664.562	1107
664.615	1565
664.669	1487
664.722	1591
664.776	532
664.829	2239
664.883	969
664.936	1056
664.990	431
665.043	817
665.097	147
665.150	1448
665.203	567
665.257	1532
665.310	1365
665.363	1382
665.417	1563
665.470	1490
665.523	1165
665.576	1509
665.630	1465
665.683	1671
665.736	1726
665.789	1227
665.842	817
665.895	1747
665.949	1722
666.002	1689
666.055	693
666.108	2399
666.161	2085
666.214	3349
666.267	4780
666.320	7534
666.373	3513
666.426	1314
666.479	1200
666.532	1638
666.585	878
666.638	1382
666.691	340
666.744	1297
666.796	1200
666.849	857
666.902	2002
666.955	533
667.008	461
667.060	1106
667.113	408
667.166	1285
667.219	1225
667.271	1636
667.324	849
667.377	895
667.430	1380
667.482	1980
667.535	2793
667.587	5183
667.640	6341
667.693	11962
667.745	29947
667.798	29501
667.850	4363
667.903	2038
667.955	531
668.008	836
668.060	1326
668.113	1230
668.165	791
668.218	1231
668.270	1162
668.322	705
668.375	-36
668.427	1815
668.479	601
668.532	1185
668.584	231
668.636	900
668.689	151
668.741	164
668.793	694
668.845	1112
668.898	213
668.950	699
669.002	360
669.054	80
669.106	-693
669.158	596
669.211	977
669.263	716
669.315	1042
669.367	1066
669.419	-267
669.471	833
669.523	294
669.575	1274
669.627	-33
669.679	434
669.731	791
669.783	220
669.835	1107
669.886	646
669.938	527
669.990	814
670.042	1182
670.094	1434
670.146	791
670.197	1000
670.249	1601
670.301	1329
670.353	1506
670.404	1358
670.456	1179
670.508	2212
670.560	1672
670.611	1500
670.663	1149
670.715	3846
670.766	4349
670.818	1151
670.869	720
670.921	1434
670.972	1168
671.024	598
671.075	586
671.127	906
671.178	471
671.230	1386
671.281	1436
671.333	1665
671.384	952
671.436	1495
671.487	1505
671.538	1670
671.590	1443
671.641	1891
671.692	2215
671.744	3610
671.795	1816
671.846	-19
671.897	678
671.949	-155
672.000	503
672.051	1418
672.102	692
672.153	671
672.204	583
672.256	1019
672.307	762
672.358	865
672.409	1029
672.460	1101
672.511	533
672.562	826
672.613	1253
672.664	1737
672.715	951
672.766	901
672.817	1088
672.868	714
672.919	586
672.970	663
673.021	1105
673.071	1034
673.122	605
673.173	7
673.224	160
673.275	1231
673.326	388
673.376	648
673.427	324
673.478	751
673.528	737
673.579	690
673.630	301
673.680	926
673.731	857
673.782	1397
673.832	772
673.883	-5
673.934	144
673.984	1398
674.035	290
674.085	792
674.136	700
674.186	581
674.237	165
674.287	837
674.338	45
674.388	405
674.438	332
674.489	797
674.539	478
674.589	864
674.640	406
674.690	425
674.740	-283
674.791	554
674.841	1052
674.891	897
674.942	1555
674.992	3439
675.042	410
675.092	583
675.142	-168
675.193	655
675.243	1995
675.293	830
675.343	704
675.393	532
675.443	945
675.493	647
675.543	282
675.593	273
675.643	172
675.693	1033
675.743	66
675.793	-58
675.843	-240
675.893	569
675.943	730
675.993	451
676.043	476
676.093	978
676.142	-254
676.192	967
676.242	-32
676.292	324
676.341	233
676.391	13
676.441	-100
676.491	0
676.540	-206
676.590	766
676.640	757
676.689	307
676.739	82
676.789	-216
676.838	-162
676.888	27
676.937	-270
676.987	-240
677.037	-559
677.086	-402
677.136	582
677.185	231
677.235	192
677.284	400
677.333	-1
677.383	65
677.432	125
677.482	566
677.531	657
677.580	-100
677.630	-32
677.679	151
677.728	-24
677.778	-40
677.827	521
677.876	574
677.925	144
677.975	14
678.024	-7
678.073	681
678.122	15
678.171	559
678.220	-163
678.269	261
678.319	-203
678.368	541
678.417	471
678.466	516
678.515	656
678.564	768
678.613	297
678.662	430
678.711	157
678.760	303
678.809	-27
678.857	-207
678.906	-171
678.955	-615
679.004	205
679.053	-102
679.102	-284
679.151	-430
679.199	-208
679.248	769
679.297	445
679.346	-299
679.394	-437
679.443	153
679.492	-325
679.540	462
679.589	-492
679.638	332
679.686	-276
679.735	-355
679.784	-802
679.832	-675
679.881	-50
679.929	-73
679.978	-443
680.026	51
680.075	-413
680.123	76
680.172	84
680.220	-624
680.268	-73
680.317	-300
680.365	310
680.414	-884
680.462	-73
680.510	251
680.559	61
680.607	354
680.655	232
680.703	436
680.752	-775
680.800	-12
680.848	-49
680.896	338
680.945	490
680.993	1264
681.041	869
681.089	382
681.137	199
681.185	-368
681.233	-1380
681.258	-780
681.281	-230
681.329	-219
681.377	240
681.380	218
681.425	-490
681.473	848
681.502	32
681.521	-574
681.569	-378
681.617	-229
681.624	-230
681.665	-333
681.713	107
681.745	211
681.761	238
681.809	-29
681.857	739
681.867	755
681.904	747
681.952	1407
681.989	687
682.000	432
682.048	940
682.096	210
682.111	253
682.143	251
682.191	77
682.233	969
682.239	1089
682.286	-141
682.334	-212
682.354	111
682.382	531
682.430	663
682.476	-489
682.477	-529
682.525	892
682.572	969
682.598	695
682.620	470
682.667	596
682.715	1656
682.720	1707
682.763	2153
682.810	3571
682.841	3602
682.857	3387
682.905	1852
682.952	1910
682.963	1852
683.000	1492
683.047	869
683.085	1950
683.095	2302
683.142	519
683.190	1490
683.206	1348
683.237	1050
683.284	1281
683.328	1363
683.332	1352
683.379	1692
683.426	632
683.449	1104
683.473	1592
683.521	1581
683.568	1703
683.571	1681
683.615	1378
683.662	2634
683.693	2383
683.709	2144
683.757	1971
683.804	2750
683.814	2941
683.851	3804
683.898	3854
683.936	4391
683.945	4526
683.992	4722
684.039	5697
684.057	6644
684.086	8165
684.133	8066
684.179	7764
684.180	7687
684.227	8360
684.274	7180
684.300	8074
684.321	8888
684.368	6359
684.415	5714
684.422	5626
684.462	4097
684.509	3098
684.543	2699
684.556	2870
684.603	2807
684.649	2529
684.665	2595
684.696	2670
684.743	2339
684.786	2792
684.790	2830
684.837	2080
684.883	3090
684.908	2891
684.930	2623
684.977	2979
685.023	2710
685.029	2797
685.070	3486
685.117	3253
685.150	3294
685.164	3342
685.210	3176
685.257	4902
685.272	4717
685.303	4815
685.350	6237
685.393	7008
685.396	7143
685.443	11736
685.490	14931
685.514	15164
685.536	13233
685.583	10344
685.629	7429
685.636	7192
685.675	7531
685.722	7742
685.757	7834
685.768	7798
685.815	7055
685.861	6517
685.878	6323
685.908	5678
685.954	4534
686.000	4336
686.000	4342
686.047	4268
686.093	4059
686.121	4099
686.139	4209
686.185	5221
686.232	5072
686.242	5145
686.278	4828
686.324	4423
686.363	3950
686.370	3910
686.416	3319
686.463	3613
686.484	3600
686.509	3660
686.555	3461
686.601	3824
686.606	3818
686.647	3667
686.693	3462
686.727	3224
686.739	3156
686.785	3923
686.831	3598
686.848	3604
686.877	3602
686.923	3653
686.969	3689
686.969	3688
687.015	3225
687.061	3610
687.090	3977
687.107	4199
687.153	3974
687.199	3916
687.211	3764
687.245	3311
687.291	4384
687.332	4432
687.336	4433
687.382	3851
687.428	3784
687.453	4018
687.474	4301
687.520	4394
687.565	4276
687.574	4273
687.611	4088
687.657	4278
687.695	3961
687.702	3951
687.748	4034
687.794	4624
687.816	4795
687.839	4837
687.885	4371
687.931	4657
687.937	4586
687.976	4468
688.022	5367
688.058	5390
688.067	5387
688.113	5781
688.158	6322
688.179	6410
688.204	6169
688.249	5311
688.295	4884
688.300	4801
688.340	4922
688.386	5874
688.421	5525
688.431	5511
688.477	6389
688.522	8040
688.542	8557
688.567	8581
688.613	6823
688.658	6934
688.663	6833
688.703	6103
688.749	6207
688.784	5651
688.794	5538
688.839	5149
688.884	4807
688.905	4561
688.930	4479
688.975	5172
689.020	5564
689.026	5472
689.065	4726
689.110	4433
689.146	4466
689.155	4514
689.201	5371
689.246	5349
689.267	5515
689.291	5703
689.336	5272
689.381	5289
689.388	5338
689.426	5567
689.471	5440
689.509	5455
689.516	5470
689.561	5390
689.606	5735
689.630	5643
689.651	5644
689.696	5823
689.741	6161
689.750	6186
689.785	6278
689.830	6341
689.871	6295
689.875	6275
689.920	6692
689.965	6293
689.992	6196
690.010	6281
690.054	6468
690.099	6599
690.112	6593
690.144	6952
690.189	7755
690.233	8226
690.233	8237
690.278	8390
690.323	8042
690.354	7838
690.367	7708
690.412	7234
690.457	6917
690.474	6857
690.501	6873
690.546	6192
690.590	5702
690.595	5674
690.635	5768
690.680	5627
690.716	5645
690.724	5697
690.769	5732
690.813	6326
690.836	6221
690.857	6150
690.902	6252
690.946	6673
690.957	6652
690.991	6598
691.035	6642
691.077	6769
691.080	6777
691.124	6543
691.168	6598
691.198	6483
691.213	6464
691.257	6520
691.301	6655
691.318	6727
691.346	7143
691.390	6923
691.434	7276
691.439	7334
691.478	8352
691.522	9192
691.559	9927
691.567	10290
691.611	12818
691.655	14518
691.680	15743
691.699	14582
691.743	11915
691.787	9048
691.800	8005
691.831	7279
691.875	6731
691.919	6759
691.921	6728
691.964	6810
692.008	6517
692.041	7039
692.052	7182
692.096	6907
692.139	7281
692.162	7056
692.183	6652
692.227	6720
692.271	6215
692.282	6154
692.315	6569
692.359	6593
692.402	6790
692.403	6807
692.447	7157
692.490	7741
692.523	7796
692.534	7793
692.578	7597
692.622	7598
692.643	7583
692.666	7478
692.709	7386
692.753	6942
692.763	6905
692.797	7208
692.840	7432
692.884	7962
692.884	7983
692.928	7850
692.971	7952
693.004	8354
693.015	8493
693.059	8004
693.102	8103
693.124	8126
693.146	8343
693.189	8827
693.233	9057
693.245	9240
693.276	9682
693.320	9773
693.363	10037
693.365	10013
693.407	9146
693.450	8561
693.485	7846
693.493	7882
693.537	8631
693.580	8586
693.605	8800
693.624	8724
693.667	8221
693.710	7938
693.725	7715
693.753	7718
693.797	7966
693.840	8086
693.845	8102
693.883	8190
693.926	8148
693.966	8177
693.970	8209
694.013	8098
694.056	8166
694.086	8239
694.099	8364
694.142	8673
694.185	8706
694.206	8960
694.229	9766
694.272	10779
694.315	11879
694.326	12149
694.358	15413
694.401	20063
694.444	24735
694.446	24895
694.487	24045
694.530	22837
694.566	21836
694.573	21178
694.616	16927
694.659	12810
694.686	10132
694.702	10164
694.745	10084
694.787	10137
694.806	10073
694.830	10072
694.873	9994
694.916	9997
694.926	9962
694.959	11301
695.002	13064
695.044	14740
695.046	14791
695.087	15335
695.130	15131
695.166	15320
695.172	15120
695.215	13328
695.258	11652
695.286	10392
695.301	10162
695.343	9583
695.386	9170
695.406	8723
695.428	8682
695.471	8950
695.514	9103
695.526	9077
695.556	8983
695.599	8985
695.641	8835
695.646	8829
695.684	9012
695.726	8899
695.766	8879
695.769	8900
695.811	8754
695.854	8587
695.886	8519
695.896	8710
695.938	9329
695.981	9976
696.005	10353
696.023	10250
696.065	9761
696.108	9525
696.125	9318
696.150	9154
696.192	9027
696.235	8645
696.245	8563
696.277	8839
696.319	9133
696.361	9373
696.365	9377
696.404	9554
696.446	9733
696.485	9637
696.488	9646
696.530	9391
696.572	9468
696.604	9363
696.614	9380
696.656	9200
696.698	9382
696.724	9241
696.740	9259
696.783	9409
696.825	9592
696.844	9601
696.867	9699
696.909	9844
696.951	9957
696.964	9981
696.992	10120
697.034	10350
697.076	10532
697.083	10528
697.118	10628
697.160	10585
697.202	10793
697.203	10766
697.244	10610
697.286	10390
697.323	10083
697.327	10203
697.369	11228
697.411	12049
697.442	12682
697.453	13036
697.494	14328
697.536	15709
697.562	16484
697.578	16928
697.620	18024
697.661	19056
697.682	19515
697.703	20583
697.744	22672
697.786	24839
697.801	25515
697.828	25790
697.869	26097
697.911	26406
697.921	26405
697.952	22278
697.994	16750
698.035	11269
698.040	10575
698.077	10584
698.118	10520
698.160	10459
698.160	10428
698.201	10742
698.243	10996
698.279	11192
698.284	11201
698.325	11016
698.367	10805
698.399	10558
698.408	10599
698.449	10722
698.491	10818
698.518	10836
698.532	10991
698.573	11390
698.614	11783
698.638	11978
698.656	11996
698.697	11943
698.738	11919
698.757	11859
698.779	11927
698.820	11994
698.862	12069
698.877	12064
698.903	11742
698.944	11173
698.985	10596
698.996	10410
699.026	10302
699.067	10109
699.116	9854
699.235	9683
699.354	9629
699.474	10943
699.593	10472
699.713	12559
699.832	13384
699.951	22218
700.070	16057
700.190	10611
700.309	11600
700.428	10963
700.547	11321
700.667	12800
700.786	14182
700.905	11317
701.024	12811
701.143	12700
701.262	11777
701.381	12893
701.500	19521
701.619	35403
701.738	15749
701.857	11941
701.976	11582
702.095	13175
702.214	24868
702.333	30024
702.452	21994
702.571	12924
702.690	11783
702.809	12897
702.928	13321
703.047	14498
703.165	12149
703.284	10736
703.403	11262
703.522	12388
703.640	13262
703.759	21652
703.878	21435
703.997	10364
704.115	9936
704.234	9406
704.353	12551
704.471	11472
704.590	10846
704.708	10092
704.827	10286
704.946	9492
705.064	9602
705.183	9754
705.301	11136
705.420	9227
705.538	9604
705.656	9075
705.775	8827
705.893	9215
706.012	9745
706.130	9581
706.249	9289
706.367	10256
706.485	9432
706.604	11246
706.722	17947
706.840	23553
706.958	10818
707.077	10516
707.195	10927
707.313	10139
707.431	9563
707.549	8092
707.668	9161
707.786	9258
707.904	9229
708.022	8705
708.140	9837
708.258	10949
708.376	11905
708.494	11911
708.612	11869
708.730	10726
708.848	12027
708.966	21485
709.084	20794
709.202	12089
709.320	11712
709.438	10341
709.556	10753
709.674	9239
709.791	10133
709.909	8215
710.027	9430
710.145	8567
710.263	8801
710.380	8227
710.498	9252
710.616	9518
710.733	10032
710.851	8486
710.969	8571
711.086	9810
711.204	10875
711.322	9251
711.439	9043
711.557	7922
711.674	8835
711.792	8976
711.909	9574
712.027	8831
712.144	9275
712.262	8477
712.379	8443
712.497	9664
712.614	10314
712.732	10908
712.849	11921
712.966	21075
713.084	41108
713.201	16469
713.318	13098
713.436	9022
713.553	8582
713.670	8450
713.787	9122
713.905	7866
714.022	9038
714.139	9807
714.256	12521
714.373	10187
714.490	13823
714.608	17146
714.725	47470
714.842	45857
714.959	11057
715.076	8921
715.193	9428
715.310	7947
715.427	10684
715.544	11755
715.661	9115
715.778	9182
715.895	9250
716.011	8722
716.128	11144
716.245	15926
716.362	41015
716.479	42666
716.596	10821
716.713	8513
716.829	7486
716.946	7633
717.063	8223
717.180	8181
717.296	8608
717.413	9770
717.530	13948
717.646	13611
717.763	10250
717.880	9296
717.996	12750
718.113	19403
718.229	13561
718.346	11746
718.462	17172
718.579	45769
718.695	139779
718.812	51768
718.928	14612
719.045	10878
719.161	11378
719.277	9792
719.394	10305
719.510	10186
719.626	9199
719.743	8321
719.859	9458
719.975	8947
720.092	16334
720.208	27587
720.324	11139
720.440	11880
720.557	25756
720.673	81749
720.789	52062
720.905	11908
721.021	8722
721.137	9710
721.253	9344
721.369	8314
721.486	8658
721.602	7681
721.718	9173
721.834	9800
721.950	14378
722.066	11130
722.181	11502
722.297	14374
722.413	12077
722.529	7104
722.645	7810
722.761	7599
722.877	7243
722.993	6956
723.108	6682
723.224	6616
723.340	6391
723.456	5728
723.571	7026
723.687	6850
723.803	7949
723.918	12174
724.034	11287
724.150	7635
724.265	8184
724.381	8796
724.497	9230
724.612	6093
724.728	6001
724.843	6776
724.959	6574
725.074	6564
725.190	7447
725.305	6990
725.421	8682
725.536	7638
725.651	6608
725.767	6963
725.882	7174
725.997	8094
726.113	11259
726.228	7221
726.343	6408
726.459	6584
726.574	7202
726.689	6384
726.804	7483
726.920	6407
727.035	6676
727.150	6195
727.265	6050
727.380	5970
727.495	7174
727.610	6069
727.725	6316
727.841	6856
727.956	7453
728.071	7075
728.186	8683
728.301	7697
728.416	11605
728.531	10072
728.645	7141
728.760	10021
728.875	14729
728.990	8155
729.105	9632
729.220	17348
729.335	16858
729.449	8231
729.564	6423
729.679	5988
729.794	6242
729.908	7542
730.023	7548
730.138	6257
730.253	6449
730.367	5282
730.482	7549
730.596	9251
730.711	13202
730.826	10184
730.940	8413
731.055	14835
731.169	11781
731.284	6904
731.398	5776
731.513	6350
731.627	7068
731.742	5669
731.856	6846
731.970	9633
732.085	10848
732.199	6134
732.313	7242
732.428	8015
732.542	14655
732.656	10709
732.771	7482
732.885	5588
732.999	6533
733.113	5848
733.227	6703
733.342	7449
733.456	5951
733.570	5639
733.684	6612
733.798	5261
733.912	6318
734.026	5667
734.140	5687
734.254	5651
734.368	7169
734.482	5723
734.596	5984
734.710	5718
734.824	6950
734.938	7131
735.052	9608
735.166	11101
735.280	8944
735.393	6743
735.507	6121
735.621	5918
735.735	6106
735.849	5404
735.962	6502
736.076	5214
736.190	6590
736.303	5710
736.417	7112
736.531	5905
736.644	6551
736.758	5259
736.872	6067
736.985	5954
737.099	6464
737.212	5097
737.326	6700
737.439	6419
737.553	8075
737.666	7709
737.780	5598
737.893	5455
738.007	5929
738.120	5596
738.233	7754
738.347	5781
738.460	8569
738.573	13120
738.687	14049
738.800	16310
738.913	33255
739.026	13097
739.140	7290
739.253	5573
739.366	6075
739.479	5391
739.592	5962
739.705	6062
739.818	6023
739.932	5621
740.045	7251
740.158	9227
740.271	6234
740.384	5032
740.497	5735
740.610	6144
740.723	6278
740.836	6870
740.949	12570
741.062	32834
741.174	20747
741.287	6569
741.400	5378
741.513	5546
741.626	5095
741.739	6562
741.851	10773
741.964	5891
742.077	6468
742.189	6725
742.302	6871
742.415	5897
742.527	4622
742.640	6034
742.753	5700
742.865	5223
742.978	6699
743.090	6944
743.203	5411
743.316	4999
743.428	5745
743.541	5382
743.653	6472
743.766	5621
743.878	6391
743.990	7469
744.103	12085
744.215	11756
744.327	11676
744.440	21068
744.552	56843
744.664	18586
744.777	7497
744.889	6115
745.001	6602
745.113	5087
745.226	5902
745.338	5813
745.450	5510
745.562	4944
745.674	5657
745.786	4328
745.898	4972
746.010	4449
746.122	5676
746.234	5480
746.347	5088
746.459	5067
746.570	4597
746.682	7055
746.794	8466
746.906	4595
747.018	5140
747.130	5494
747.242	6136
747.354	5932
747.466	6265
747.577	5612
747.689	6370
747.801	5241
747.913	5778
748.024	4984
748.136	6077
748.248	5978
748.359	5817
748.471	5172
748.583	5511
748.694	5006
748.806	5820
748.918	5843
749.029	8130
749.141	13143
749.252	12604
749.364	23128
749.475	71974
749.587	26226
749.698	7534
749.809	7210
749.921	5612
750.032	5880
750.144	3951
750.255	4966
750.366	4895
750.478	5822
750.589	8379
750.700	11480
750.811	12306
750.923	24269
751.034	85750
751.145	75441
751.256	11641
751.367	6308
751.479	6165
751.590	4873
751.701	5092
751.812	4476
751.923	4470
752.034	4632
752.145	3979
752.256	4424
752.367	5337
752.478	4000
752.589	4898
752.700	4206
752.811	4530
752.922	5259
753.032	11862
753.143	16381
753.254	5403
753.365	4104
753.476	3933
753.586	3819
753.697	4537
753.808	3138
753.919	3685
754.029	4432
754.140	4611
754.251	4715
754.361	3986
754.472	4578
754.582	7544
754.693	5364
754.804	5686
754.914	3913
755.025	4211
755.135	3099
755.246	4585
755.356	3431
755.466	5743
755.577	4285
755.687	3777
755.798	3574
755.908	4737
756.018	4204
756.129	3786
756.239	4217
756.349	4373
756.460	3091
756.570	5104
756.680	5570
756.790	8567
756.900	11749
757.011	5558
757.121	3964
757.231	4631
757.341	4823
757.451	4440
757.561	2561
757.671	3443
757.781	3300
757.891	4539
758.001	3738
758.111	5233
758.221	6465
758.331	14597
758.441	13863
758.551	31787
758.661	20504
758.771	6890
758.880	4781
758.990	4386
759.100	2907
759.210	5269
759.320	3575
759.429	3135
759.539	2965
759.649	3621
759.758	3861
759.868	4093
759.978	4352
760.087	4779
760.197	4526
760.307	3765
760.416	4281
760.526	3826
760.635	4112
760.745	4000
760.854	3082
760.964	4429
761.073	4029
761.182	3382
761.292	3662
761.401	4201
761.511	3239
761.620	3553
761.729	4919
761.839	4539
761.948	8012
762.057	10479
762.166	4936
762.276	2889
762.385	4961
762.494	4351
762.603	3495
762.712	4200
762.822	3754
762.931	2999
763.040	2147
763.149	2924
763.258	2474
763.367	3802
763.476	2789
763.585	4009
763.694	2957
763.803	3741
763.912	3453
764.021	3812
764.130	2500
764.238	2939
764.347	2767
764.456	3095
764.565	2905
764.674	3582
764.783	3904
764.891	2734
765.000	4266
765.109	4638
765.217	2513
765.326	5661
765.435	4997
765.543	3197
765.652	2791
765.761	3298
765.869	3799
765.978	6170
766.086	11999
766.195	10317
766.303	19936
766.412	67810
766.520	35289
766.629	4657
766.737	3935
766.846	2986
766.954	2922
767.062	3618
767.171	2929
767.279	3254
767.387	1722
767.496	2861
767.604	3199
767.712	2956
767.820	3009
767.928	2925
768.037	2912
768.145	3222
768.253	3506
768.361	2498
768.469	3093
768.577	3075
768.685	4338
768.793	3030
768.901	3136
769.009	3672
769.117	1947
769.225	2850
769.333	3213
769.441	3666
769.549	4541
769.657	6461
769.765	18230
769.873	37003
769.981	7737
770.088	2703
770.196	2830
770.304	3333
770.412	2816
770.519	3366
770.627	2331
770.735	3969
770.842	3299
770.950	5654
771.058	6270
771.165	4538
771.273	2781
771.380	3971
771.488	4053
771.595	3173
771.703	2323
771.810	3842
771.918	3521
772.025	3719
772.133	4130
772.240	3383
772.348	3920
772.455	2544
772.562	3435
772.670	2869
772.777	2979
772.884	3261
772.991	2724
773.099	3640
773.206	2721
773.313	3824
773.420	2975
773.528	2418
773.635	1833
773.742	4278
773.849	3171
773.956	2825
774.063	3460
774.170	3866
774.277	3874
774.384	3897
774.491	3134
774.598	4769
774.705	7475
774.812	16371
774.919	4716
775.026	4360
775.133	4097
775.239	3713
775.346	2855
775.453	2996
775.560	2332
775.667	3425
775.773	1277
775.880	3254
775.987	1759
776.093	3542
776.200	2635
776.307	1933
776.413	2564
776.520	2236
776.627	2999
776.733	2980
776.840	2278
776.946	4724
777.053	6180
777.159	10602
777.266	4077
777.372	9844
777.478	6362
777.585	4552
777.691	3179
777.798	4966
777.904	8443
778.010	24595
778.117	16645
778.223	4569
778.329	3464
778.435	3238
778.542	2973
778.648	2609
778.754	2338
778.860	2830
778.966	2924
779.072	3101
779.178	2436
779.284	2946
779.391	1052
779.497	1459
779.603	3515
779.708	1499
779.815	2772
779.920	2604
780.026	3157
780.132	2909
780.238	1889
780.344	3907
780.450	2967
780.556	2975
780.661	2299
780.767	4468
780.873	3486
780.979	3992
781.085	2466
781.190	3918
781.296	2099
781.402	2230
781.507	2236
781.613	3153
781.719	1559
781.824	2420
781.930	2963
782.035	2924
782.141	2675
782.246	1870
782.352	1928
782.457	2076
782.563	2463
782.668	2021
782.773	2440
782.879	1867
782.984	4378
783.090	10560
783.195	29725
783.300	13716
783.405	4022
783.511	2805
783.616	3491
783.721	2687
783.826	1444
783.932	3533
784.037	1563
784.142	2025
784.247	1976
784.352	3230
784.457	2555
784.562	2736
784.667	1894
784.772	2638
784.877	1567
784.982	2992
785.087	1756
785.192	3273
785.297	2191
785.402	2623
785.507	3320
785.611	3127
785.716	2274
785.821	2403
785.926	1615
786.031	1748
786.135	1753
786.240	2797
786.345	1026
786.450	3728
786.554	1285
786.659	2024
786.763	274
786.868	3289
786.973	3296
787.077	2608
787.182	2025
787.286	2383
787.391	2168
787.495	2105
787.600	1315
787.704	1654
787.809	1459
787.913	1661
788.017	2443
788.122	2474
788.226	1696
788.330	2067
788.435	1318
788.539	3167
788.643	1362
788.747	1722
788.852	1950
788.956	1739
789.060	2364
789.164	2167
789.268	1342
789.372	2167
789.476	1918
789.580	2558
789.684	1322
789.788	2495
789.892	888
789.996	2855
790.100	968
790.204	2065
790.308	2163
790.412	1580
790.516	2133
790.620	1523
790.724	2370
790.828	2242
790.931	1417
791.035	4219
791.139	1879
791.242	1628
791.346	2482
791.450	1698
791.554	2535
791.657	1870
791.761	2501
791.864	1763
791.968	1993
792.072	3018
792.175	2104
792.279	1818
792.382	2685
792.486	2654
792.589	1914
792.693	1851
792.796	804
792.899	2907
793.003	2798
793.106	2420
793.209	6434
793.313	13970
793.416	4919
793.519	7754
793.623	20891
793.726	35468
793.829	8945
793.932	4001
794.035	2529
794.138	4061
794.242	3883
794.345	4806
794.448	11065
794.551	29368
794.654	18325
794.757	4461
794.860	3740
794.963	2697
795.066	1168
795.169	2704
795.272	957
795.375	2183
795.477	1399
795.580	3677
795.683	911
795.786	1647
795.889	911
795.991	3114
796.094	2697
796.197	979
796.300	2347
796.402	1957
796.505	1044
796.608	1902
796.710	2244
796.813	2066
796.915	1227
797.018	1755
797.120	2346
797.223	633
797.326	2585
797.428	1791
797.530	1852
797.633	1570
797.735	2501
797.838	1905
797.940	2422
798.042	1397
798.145	1134
798.247	3090
798.349	-358
798.452	1797
798.554	469
798.656	861
798.758	2087
798.860	1764
798.962	1035
799.065	1727
799.167	989
799.269	2954
799.371	3614
799.473	3427
799.575	2466
799.677	4336
799.779	12003
799.881	27916
799.983	11556
800.085	3506
800.187	1656
800.289	1431
800.390	879
800.492	1991
800.594	2091
800.696	1614
800.798	1439
800.899	1286
801.001	1380
801.103	1254
801.205	1498
801.306	1815
801.408	871
801.509	1578
801.611	1733
801.713	1615
801.814	558
801.916	1917
802.017	1816
802.119	1703
802.220	1942
802.322	68
802.423	2780
802.525	264
802.626	1705
802.727	3712
802.829	4752
802.930	376
803.031	2558
803.133	964
803.234	218
803.335	1194
803.436	496
803.538	1466
803.639	417
803.740	1745
803.841	620
803.942	1781
804.043	1158
804.144	313
804.245	1817
804.346	2810
804.447	5325
804.548	17693
804.649	18251
804.750	2977
804.851	549
804.952	1807
805.053	568
805.154	940
805.255	1770
805.355	1451
805.456	70
805.557	435
805.658	916
805.758	1691
805.859	591
805.960	1808
806.061	348
806.161	609
806.262	539
806.362	484
806.463	1072
806.564	1987
806.664	804
806.765	929
806.865	809
806.966	237
807.066	1084
807.166	1299
807.267	825
807.367	1176
807.468	2055
807.568	186
807.668	2108
807.769	1630
807.869	381
807.969	2100
808.069	2108
808.170	2407
808.270	1641
808.370	4931
808.470	12755
808.570	8873
808.670	2611
808.770	1511
808.870	1534
808.970	2774
809.070	3410
809.170	8918
809.271	18109
809.370	4753
809.470	2274
809.570	757
809.670	428
809.770	2348
809.870	1434
809.970	1544
810.070	1117
810.169	1679
810.269	-228
810.369	1931
810.469	1239
810.568	1094
810.668	950
810.768	873
810.867	444
810.967	665
811.066	377
811.166	730
811.265	1357
811.365	1305
811.464	859
811.564	1174
811.663	1364
811.763	-249
811.862	1167
811.962	2163
812.061	763
812.160	407
812.260	999
812.359	1242
812.458	-74
812.557	1001
812.657	1008
812.756	1617
812.855	-17
812.954	1251
813.053	1014
813.153	1238
813.252	-152
813.351	2565
813.450	526
813.549	1651
813.648	1377
813.747	66
813.846	1907
813.945	1721
814.044	675
814.143	1130
814.242	1424
814.341	491
814.439	1340
814.538	2016
814.637	469
814.736	765
814.835	848
814.933	1434
815.032	1330
815.131	1010
815.229	287
815.328	1482
815.427	319
815.525	1266
815.624	1050
815.722	256
815.821	1002
815.919	1083
816.018	-782
816.116	231
816.215	681
816.313	980
816.412	105
816.510	1085
816.609	1420
816.707	1359
816.805	384
816.904	406
817.002	1262
817.100	2420
817.198	1799
817.296	825
817.395	419
817.493	1347
817.591	1187
817.689	858
817.787	346
817.885	1440
817.983	1128
818.081	1522
818.179	1736
818.277	3922
818.375	2734
818.473	2707
818.571	1854
818.669	2573
818.767	1316
818.865	997
818.963	1105
819.061	109
819.158	-83
819.256	2807
819.354	1993
819.452	5842
819.549	2221
819.647	2035
819.745	1560
819.842	4520
819.940	3627
820.038	688
820.135	80
820.233	2311
820.330	316
820.428	1513
820.525	2078
820.623	1796
820.720	2700
820.818	2576
820.915	1815
821.012	1268
821.110	-68
821.207	1638
821.304	1216
821.402	1809
821.499	3050
821.596	5040
821.693	4098
821.791	6833
821.888	15506
821.985	42834
822.082	32690
822.179	6277
822.276	3014
822.373	1285
822.470	1826
822.567	1410
822.664	195
822.761	1813
822.858	423
822.955	1097
823.052	1965
823.149	3025
823.246	3234
823.343	946
823.440	1224
823.536	1338
823.633	170
823.730	337
823.827	1155
823.923	2010
824.020	2418
824.117	1223
824.213	395
824.310	1276
824.407	0
824.503	768
824.600	315
824.696	1195
824.793	3280
824.889	708
824.986	945
825.082	1179
825.179	858
825.275	1071
825.371	21
825.468	1618
825.564	119
825.660	1239
825.757	672
825.853	1872
825.949	-223
826.045	871
826.142	613
826.238	689
826.334	1331
826.430	1155
826.526	573
826.622	708
826.718	545
826.814	-290
826.910	1126
827.006	358
827.102	276
827.198	2018
827.294	1136
827.390	1839
827.486	1406
827.582	-43
827.678	-172
827.774	945
827.869	-966
827.965	1440
828.061	640
828.157	830
828.252	809
828.348	-377
828.444	984
828.539	-11
828.635	668
828.731	2000
828.826	598
828.922	768
829.017	454
829.113	1570
829.208	1010
829.304	941
829.399	2006
829.495	994
829.590	1046
829.685	-6
829.781	713
829.876	288
829.971	575
830.066	449
830.162	295
830.257	161
830.352	287
830.447	906
830.543	580
830.638	-375
830.733	1035
830.828	421
830.923	697
831.018	1405
831.113	40
831.208	265
831.303	866
831.398	512
831.493	802
831.588	693
831.683	-211
831.778	1399
831.873	1147
831.967	1213
832.062	207
832.157	597
832.252	2435
832.346	1951
832.441	5622
832.536	12472
832.631	33275
832.725	26579
832.820	2191
832.914	2312
833.009	3490
833.104	8473
833.198	11159
833.293	3243
833.387	1031
833.482	1429
833.576	1195
833.670	2382
833.765	2601
833.859	3490
833.954	5026
834.048	2395
834.142	964
834.237	1379
834.331	-70
834.425	401
834.519	117
834.613	1252
834.708	770
834.802	660
834.896	389
834.990	426
835.084	797
835.178	-189
835.272	-119
835.366	294
835.460	1432
835.554	907
835.648	524
835.742	740
835.836	840
835.930	398
836.024	1364
836.117	2083
836.211	1052
836.305	1060
836.399	1457
836.493	1188
836.586	2456
836.680	599
836.774	-5
836.867	740
836.961	351
837.055	211
837.148	-35
837.242	975
837.335	-15
837.429	1348
837.522	407
837.616	813
837.709	784
837.803	313
837.896	611
837.989	41
838.083	1048
838.176	1742
838.269	764
838.363	2607
838.456	3314
838.549	9525
838.642	18132
838.735	40153
838.829	11939
838.922	1265
839.015	398
839.108	365
839.201	329
839.294	1021
839.387	802
839.480	346
839.573	572
839.666	531
839.759	100
839.852	631
839.945	1112
840.038	232
840.131	727
840.223	344
840.316	1141
840.409	862
840.502	-476
840.594	1656
840.687	-599
840.780	64
840.873	554
840.965	938
841.058	87
841.150	463
841.243	-188
841.336	1566
841.428	453
841.521	868
841.613	295
841.706	1106
841.798	-140
841.890	1022
841.983	-197
842.075	1507
842.167	664
842.260	1497
842.352	873
842.444	1330
842.537	664
842.629	1280
842.721	745
842.813	497
842.905	-204
842.997	752
843.090	-509
843.182	1306
843.274	-710
843.366	1332
843.458	-216
843.550	685
843.642	-419
843.734	1054
843.826	1070
843.918	3620
844.009	2067
844.101	662
844.193	496
844.285	-55
844.377	1182
844.469	1693
844.560	2469
844.652	2108
844.744	767
844.835	1002
844.927	572
845.019	398
845.110	616
845.202	631
845.293	110
845.385	770
845.476	200
845.568	1550
845.659	-475
845.751	789
845.842	207
845.934	650
846.025	-7
846.116	1193
846.208	630
846.299	443
846.390	1286
846.482	2144
846.573	2844
846.664	4043
846.755	9718
846.846	7640
846.937	178
847.029	1140
847.120	1030
847.211	812
847.302	988
847.393	-1033
847.484	737
847.575	31
847.666	-113
847.757	-44
847.847	431
847.938	988
848.029	1010
848.120	293
848.211	96
848.302	-11
848.392	731
848.483	1211
848.574	41
848.664	-546
848.755	-238
848.846	773
848.936	-439
849.027	421
849.118	548
849.208	-317
849.299	658
849.389	1530
849.480	1267
849.570	2112
849.661	3908
849.751	5708
849.841	1666
849.932	630
850.022	-424
850.112	451
850.203	-382
850.293	274
850.383	-16
850.474	300
850.564	476
850.654	738
850.744	1001
850.834	723
850.924	117
851.014	1144
851.104	871
851.194	3577
851.284	6155
851.374	9061
851.464	3156
851.554	995
851.644	-56
851.734	508
851.824	-674
851.914	-687
852.004	358
852.094	-16
852.183	86
852.273	1155
852.363	109
852.452	681
852.542	684
852.632	1693
852.721	53
852.811	-276
852.901	175
852.990	128
853.080	-694
853.169	-349
853.259	-1073
853.348	79
853.438	445
853.527	1081
853.617	-21
853.706	2729
853.795	2689
853.885	5976
853.974	12362
854.063	23989
854.152	36175
854.242	11734
854.331	1577
854.420	684
854.509	215
854.598	371
854.687	-946
854.777	-73
854.866	-94
854.955	440
855.044	408
855.133	-261
855.222	-245
855.311	662
855.400	668
855.488	811
855.577	-186
855.666	3
855.755	674
855.844	790
855.933	-317
856.021	511
856.110	481
856.199	17
856.288	-440
856.376	106
856.465	237
856.554	1253
856.642	252
856.731	307
856.819	-227
856.908	305
856.996	1159
857.085	208
857.173	841
857.262	313
857.350	-139
857.438	595
857.527	-276
857.615	-54
857.703	819
857.792	429
857.880	-612
857.968	1072
858.056	1597
858.145	1565
858.233	931
858.321	234
858.409	288
858.497	824
858.585	-356
858.673	1291
858.761	-370
858.849	900
858.937	-122
859.025	676
859.113	1444
859.201	777
859.289	1309
859.377	303
859.465	163
859.552	544
859.640	694
859.728	2004
859.816	1584
859.903	964
859.991	-208
860.079	406
860.166	853
860.254	996
860.342	507
860.429	-300
860.517	-330
860.604	714
860.692	308
860.779	85
860.867	993
860.954	1981
861.042	3164
861.129	4098
861.216	1223
861.304	394
861.391	582
861.478	620
861.565	871
861.653	1602
861.740	-228
861.827	453
861.914	1274
862.001	509
862.089	531
862.176	1317
862.263	1
862.350	86
862.437	-950
862.524	356
862.611	-768
862.698	650
862.785	347
862.871	570
862.958	59
863.045	-508
863.132	-78
863.219	601
863.306	-476
863.392	306
863.479	-11
863.566	283
863.652	-442
863.739	257
863.826	242
863.912	52
863.999	-888
864.086	260
864.172	-400
864.259	-120
864.345	-257
864.432	432
864.518	-160
864.604	-163
864.691	-337
864.777	149
864.863	177
864.950	104
865.036	-390
865.122	367
865.209	-284
865.295	497
865.381	704
865.467	456
865.553	758
865.639	1255
865.726	1983
865.812	6433
865.898	12899
865.984	19391
866.070	38948
866.156	31217
866.242	5379
866.328	895
866.414	-178
866.499	813
866.585	55
866.671	776
866.757	194
866.843	1380
866.928	203
867.014	687
867.100	376
867.186	1346
867.271	2925
867.357	6541
867.442	4043
867.528	1302
867.614	-143
867.699	780
867.785	1896
867.870	1887
867.956	2179
868.041	2495
868.127	862
868.212	1128
868.297	1365
868.383	3953
868.468	8460
868.553	15521
868.639	20251
868.724	45686
868.809	37137
868.894	5272
868.979	870
869.065	788
869.150	-340
869.235	1282
869.320	217
869.405	758
869.490	-364
869.575	-142
869.660	176
869.745	1573
869.830	645
869.915	1232
870.000	897
870.085	486
870.169	-118
870.254	438
870.339	294
870.424	-205
870.509	-48
870.593	159
870.678	358
870.763	972
870.847	1552
870.932	1622
871.016	632
871.101	893
871.186	715
871.270	347
871.355	-244
871.439	506
871.523	148
871.608	4
871.692	1
871.777	171
871.861	-426
871.945	-10
872.030	-400
872.114	-188
872.198	-280
872.282	-126
872.367	-306
872.451	-246
872.535	-259
872.619	-943
872.703	-189
872.787	-83
872.871	-870
872.955	-590
873.039	-1113
873.123	94
873.207	-19
873.291	140
873.375	-85
873.459	115
873.543	-797
873.627	518
873.711	-338
873.794	32
873.878	-715
873.962	-1355
874.045	62
874.129	-25
874.137	-51
874.213	-305
874.245	-406
874.296	-572
874.352	-672
874.380	-724
874.460	-152
874.464	-129
874.547	-1057
874.568	-827
874.631	-169
874.676	-447
874.714	-668
874.784	551
874.798	784
874.881	145
874.892	62
874.965	-425
874.999	-452
875.048	-541
875.107	-442
875.131	-391
875.215	498
875.215	498
875.298	-89
875.323	-83
875.381	-79
875.430	965
875.465	1746
875.538	1530
875.548	1484
875.631	2139
875.646	1690
875.714	-534
875.753	-128
875.798	431
875.861	-59
875.881	-230
875.964	1167
875.968	1132
876.047	607
876.076	1065
876.130	1885
876.183	2033
876.213	2140
876.291	4516
876.296	4655
876.379	1538
876.398	1242
876.462	518
876.506	59
876.545	-415
876.613	58
876.628	173
876.711	-229
876.721	-105
876.794	744
876.828	162
876.877	-544
876.935	134
876.960	387
877.043	-72
877.043	-73
877.125	-270
877.150	-1
877.208	568
877.258	199
877.291	28
877.365	40
877.374	19
877.456	-266
877.472	-372
877.539	-612
877.579	-298
877.622	-170
877.687	-497
877.704	-474
877.787	77
877.794	57
877.869	-590
877.901	-206
877.952	727
878.008	461
878.034	224
878.115	546
878.117	555
878.199	-191
878.222	-57
878.282	304
878.329	170
878.364	98
878.437	294
878.447	317
878.529	-465
878.544	-208
878.611	866
878.651	315
878.694	-78
878.758	576
878.776	737
878.858	1319
878.865	1404
878.941	2014
878.972	2001
879.023	2478
879.078	2904
879.105	3157
879.185	4869
879.187	4886
879.269	3608
879.292	2938
879.351	1057
879.399	814
879.433	871
879.506	1348
879.516	1423
879.598	375
879.613	457
879.680	711
879.720	675
879.762	812
879.827	719
879.844	627
879.926	382
879.933	339
880.007	79
880.040	234
880.089	455
880.147	215
880.171	164
880.253	418
880.254	415
880.335	352
880.360	662
880.417	1618
880.467	1790
880.499	1853
880.574	2590
880.580	2609
880.662	1420
880.680	1349
880.744	1098
880.787	569
880.825	266
880.893	563
880.907	627
880.989	500
881.000	551
881.070	783
881.106	707
881.152	884
881.213	1044
881.233	891
881.315	357
881.319	319
881.396	660
881.426	836
881.478	725
881.532	747
881.559	924
881.639	901
881.641	896
881.722	1517
881.745	1401
881.803	1450
881.852	1663
881.885	1616
881.958	2596
881.966	2783
882.047	5002
882.064	5187
882.129	6980
882.171	9560
882.210	14651
882.277	23710
882.291	23256
882.372	10356
882.383	9166
882.454	3002
882.489	956
882.535	705
882.596	613
882.616	706
882.697	516
882.702	537
882.778	927
882.808	1039
882.859	1041
882.914	961
882.940	905
883.020	711
883.021	717
883.102	798
883.127	977
883.183	1052
883.233	1253
883.264	1296
883.339	1196
883.345	1218
883.426	1467
883.445	1459
883.507	1519
883.551	1765
883.587	2277
883.657	3849
883.668	4027
883.749	3585
883.763	3568
883.830	2172
883.869	1356
883.910	1187
883.975	1442
883.991	1435
884.072	635
884.081	632
884.152	1203
884.187	1208
884.233	1028
884.292	1075
884.314	1155
884.394	1399
884.398	1397
884.475	1478
884.504	1518
884.555	1501
884.610	1538
884.636	1376
884.716	716
884.716	722
884.797	1279
884.821	1371
884.877	972
884.927	700
884.958	744
885.033	590
885.038	571
885.118	656
885.139	540
885.199	311
885.244	425
885.279	678
885.350	930
885.359	964
885.439	1409
885.456	1426
885.520	881
885.561	665
885.600	1065
885.667	1651
885.680	1564
885.760	1048
885.773	962
885.840	1490
885.878	1719
885.920	1623
885.984	1580
886.000	1571
886.080	1515
886.089	1511
886.160	1778
886.195	1892
886.240	1986
886.300	1987
886.320	1951
886.400	2122
886.406	2144
886.480	5151
886.511	6450
886.560	8221
886.616	9179
886.640	7964
886.720	4369
886.722	4267
886.800	2292
886.827	1779
886.879	1648
886.932	1314
886.959	1371
887.038	1412
887.039	1418
887.119	1432
887.143	1420
887.198	1324
887.248	1212
887.278	1383
887.354	1775
887.358	1756
887.437	1141
887.459	993
887.517	1606
887.564	2000
887.596	1742
887.669	1350
887.676	1372
887.755	1403
887.774	1398
887.835	1817
887.880	2180
887.914	1920
887.985	1348
887.994	1306
888.073	655
888.090	575
888.153	1058
888.195	1282
888.232	1402
888.300	1705
888.311	1695
888.391	1489
888.405	1442
888.470	913
888.510	609
888.549	881
888.615	1407
888.628	1512
888.708	1927
888.720	2002
888.787	1689
888.825	1469
888.866	1358
888.930	1186
888.945	1300
889.024	1932
889.035	2011
889.103	1410
889.140	1040
889.182	1040
889.245	1079
889.261	1106
889.340	1214
889.349	1224
889.419	1827
889.454	2119
889.498	1734
889.559	1195
889.577	1290
889.656	1696
889.664	1734
889.735	1513
889.768	1399
889.814	1692
889.873	2073
889.978	1483
890.083	1651
890.187	1727
890.292	1357
890.397	2213
890.501	2193
890.606	1876
890.710	1961
890.815	1373
890.919	1851
891.024	1307
891.128	2528
891.233	1122
891.337	1796
891.442	2101
891.546	2282
891.650	1298
891.755	1860
891.859	3088
891.963	2327
892.068	1524
892.172	1171
892.276	1327
892.380	1703
892.484	452
892.589	2221
892.693	1270
892.797	2387
892.901	1679
893.005	2593
893.109	722
893.213	1544
893.317	1908
893.421	1128
893.525	719
893.629	1848
893.733	1607
893.837	901
893.941	706
894.045	2138
894.148	1016
894.252	2788
894.356	2420
894.460	4622
894.564	2072
894.667	1556
894.771	1019
894.875	983
894.978	1237
895.082	1380
895.186	2242
895.289	1390
895.393	1873
895.496	1296
895.600	1021
895.703	1283
895.807	1047
895.910	1977
896.014	669
896.117	1139
896.221	2074
896.324	1334
896.427	1313
896.531	1741
896.634	1424
896.737	1741
896.840	1576
896.944	1173
897.047	867
897.150	1688
897.253	141
897.356	1950
897.460	2553
897.563	2822
897.666	1341
897.769	1913
897.872	863
897.975	1763
898.078	1301
898.181	2361
898.284	620
898.387	1419
898.490	899
898.593	1266
898.695	1610
898.798	1840
898.901	908
899.004	1623
899.107	933
899.209	2012
899.312	664
899.415	1883
899.518	1392
899.620	2554
899.723	4531
899.826	15406
899.928	19145
900.031	3937
900.133	297
900.236	1207
900.338	950
900.441	1205
900.543	1101
900.646	1855
900.748	808
900.851	1567
900.953	2029
901.055	2896
901.158	4926
901.260	1710
901.362	899
901.465	1191
901.567	1081
901.669	1539
901.771	532
901.873	1477
901.976	1744
902.078	1141
902.180	1051
902.282	1785
902.384	1869
902.486	3099
902.588	1241
902.690	757
902.792	926
902.894	2316
902.996	541
903.098	1069
903.200	554
903.302	1449
903.404	1047
903.505	1312
903.607	1625
903.709	1674
903.811	1147
903.913	1487
904.014	1939
904.116	861
904.218	1279
904.319	1688
904.421	1184
904.523	1930
904.624	1330
904.726	2159
904.827	1162
904.929	2053
905.030	781
905.132	1952
905.233	978
905.335	1348
905.436	1556
905.537	949
905.639	1944
905.740	1847
905.841	1958
905.943	2590
906.044	1381
906.145	2847
906.247	1529
906.348	2353
906.449	1352
906.550	1314
906.651	451
906.752	2502
906.854	958
906.955	1786
907.056	1144
907.157	1580
907.258	1270
907.359	1223
907.460	1981
907.561	1502
907.662	644
907.762	1840
907.863	2604
907.964	2886
908.065	2399
908.166	1621
908.267	1378
908.367	2548
908.468	1899
908.569	2487
908.670	4145
908.770	9140
908.871	7346
908.971	4141
909.072	1464
909.173	1752
909.273	820
909.374	2001
909.474	1896
909.575	2396
909.675	1519
909.776	2269
909.876	1267
909.977	2184
910.077	2406
910.177	1503
910.278	1543
910.378	1646
910.478	1008
910.579	1456
910.679	1878
910.779	2550
910.879	1129
910.980	1842
911.080	1463
911.180	1619
911.280	2154
911.380	1735
911.480	1731
911.580	2394
911.680	3004
911.780	5039
911.880	4730
911.980	2416
912.080	1881
912.180	634
912.280	1707
912.380	1055
912.480	1745
912.580	1295
912.679	1061
912.779	2040
912.879	2108
912.979	2157
913.078	1361
913.178	1879
913.278	1289
913.377	1603
913.477	1230
913.577	2243
913.676	2110
913.776	1171
913.875	1617
913.975	2861
914.074	1178
914.174	1527
914.273	710
914.373	2189
914.472	793
914.572	2193
914.671	1833
914.770	2515
914.870	1516
914.969	1782
915.068	1661
915.167	1559
915.267	1001
915.366	1786
915.465	1760
915.564	2075
915.663	751
915.763	1275
915.862	1975
915.961	1562
916.060	672
916.159	1366
916.258	1529
916.357	2359
916.456	1653
916.555	1496
916.654	1226
916.752	1058
916.851	1132
916.950	1267
917.049	509
917.148	1612
917.247	1858
917.345	1684
917.444	871
917.543	1908
917.642	2025
917.740	1913
917.839	587
917.937	2122
918.036	1200
918.135	778
918.233	803
918.332	652
918.430	1469
918.529	922
918.627	1229
918.726	1534
918.824	119
918.923	1758
919.021	966
919.119	1750
919.218	879
919.316	1147
919.414	373
919.512	1504
919.611	825
919.709	1319
919.807	1317
919.905	1721
920.003	1479
920.102	1544
920.200	1559
920.298	1176
920.396	1903
920.494	1997
920.592	1249
920.690	2488
920.788	827
920.886	2096
920.984	3191
921.082	3388
921.180	5516
921.277	8930
921.375	3791
921.473	2484
921.571	1591
921.669	1998
921.766	1648
921.864	2553
921.962	1849
922.060	2017
922.157	914
922.255	1150
922.352	1164
922.450	1648
922.548	1943
922.645	2129
922.743	4789
922.840	6038
922.938	1836
923.035	2594
923.133	1903
923.230	1230
923.327	1858
923.425	2028
923.522	1941
923.619	2029
923.717	2929
923.814	3844
923.911	1606
924.008	2159
924.106	953
924.203	1830
924.300	859
924.397	2192
924.494	1643
924.591	2021
924.688	1795
924.786	1712
924.883	1289
924.979	1300
925.077	431
925.173	1772
925.270	679
925.367	1333
925.464	1122
925.561	1916
925.658	2505
925.755	3768
925.852	4761
925.948	3602
926.045	1315
926.142	2195
926.239	2327
926.335	3235
926.432	2130
926.529	3134
926.625	3589
926.722	1571
926.818	1379
926.915	2184
927.011	2054
927.108	1614
927.204	321
927.301	1778
927.397	1445
927.494	2273
927.590	1792
927.687	1380
927.783	1082
927.879	761
927.976	1791
928.072	1798
928.168	1017
928.264	1253
928.361	1011
928.457	1187
928.553	1429
928.649	1708
928.745	1316
928.841	1748
928.937	1985
929.033	1482
929.129	753
929.225	1560
929.321	771
929.417	1591
929.513	1151
929.609	1679
929.705	346
929.801	1404
929.897	561
929.993	530
930.089	183
930.184	1131
930.280	1666
930.376	1357
930.471	105
930.567	1351
930.663	1762
930.758	2938
930.854	519
930.950	1036
931.045	1245
931.141	2015
931.236	769
931.332	706
931.427	741
931.523	1405
931.618	1119
931.714	1645
931.809	421
931.905	1514
932.000	1512
932.095	1021
932.191	1505
932.286	2411
932.381	542
932.476	1371
932.572	422
932.667	1628
932.762	1529
932.857	1276
932.952	448
933.047	1363
933.142	431
933.237	379
933.332	917
933.427	2702
933.522	318
933.617	515
933.712	1055
933.807	1167
933.902	654
933.997	1494
934.092	1317
934.187	1341
934.282	961
934.376	1396
934.471	969
934.566	1143
934.661	643
934.755	611
934.850	428
934.945	2389
935.039	1464
935.134	2325
935.228	821
935.323	838
935.417	892
935.512	1202
935.606	93
935.701	1355
935.795	207
935.890	1744
935.984	1179
936.079	1358
936.173	1244
936.267	2162
936.362	659
936.456	1486
936.550	220
936.644	1355
936.738	941
936.833	1535
936.927	1323
937.021	1001
937.115	459
937.209	828
937.303	2030
937.397	1763
937.491	1221
937.585	1114
937.679	43
937.773	1472
937.867	609
937.961	1198
938.055	510
938.149	2320
938.243	1024
938.337	1214
938.430	255
938.524	2077
938.618	1798
938.712	2493
938.805	1155
938.899	832
938.993	1582
939.086	1349
939.180	2232
939.274	3954
939.367	2057
939.461	2399
939.554	1135
939.648	869
939.741	304
939.835	656
939.928	1227
940.022	1400
940.115	1740
940.208	1348
940.302	608
940.395	1997
940.488	-5
940.582	2204
940.675	20
940.768	1141
940.861	676
940.954	995
941.048	111
941.141	875
941.234	928
941.327	1607
941.420	2424
941.513	2038
941.606	-493
941.699	1279
941.792	269
941.885	1462
941.978	-326
942.071	1455
942.164	780
942.257	816
942.349	-364
942.442	1200
942.535	843
942.628	1049
942.721	513
942.813	285
942.906	1018
942.999	800
943.091	250
943.184	106
943.277	1
943.369	735
943.462	-559
943.554	705
943.647	412
943.739	896
943.832	575
943.924	-172
944.017	755
944.109	-345
944.201	122
944.294	1867
944.386	1229
944.478	541
944.571	365
944.663	408
944.755	393
944.847	571
944.940	-83
945.032	320
945.124	47
945.216	903
945.308	465
945.400	760
945.492	289
945.584	1375
945.676	445
945.768	632
945.860	878
945.952	847
946.044	665
946.136	345
946.228	982
946.320	1281
946.412	-384
946.503	422
946.595	1186
946.687	248
946.779	-574
946.870	613
946.962	833
947.054	560
947.145	60
947.237	149
947.329	367
947.420	-134
947.512	216
947.603	207
947.695	-81
947.786	524
947.878	-63
947.969	921
948.061	-453
948.152	976
948.243	477
948.335	637
948.426	-979
948.517	311
948.609	583
948.700	487
948.791	-292
948.882	-152
948.973	-35
949.065	901
949.156	607
949.247	499
949.338	311
949.429	-207
949.520	91
949.611	-491
949.702	153
949.793	-187
949.884	158
949.975	895
950.066	-341
950.157	430
950.247	-474
950.338	45
950.429	-633
950.520	1035
950.611	-950
950.701	657
950.792	-313
950.883	898
950.973	-170
951.064	570
951.155	321
951.245	2055
951.336	1276
951.427	-367
951.517	714
951.608	121
951.698	-794
951.788	-21
951.879	693
951.969	-355
952.060	-216
952.150	-27
952.240	-197
952.331	-571
952.421	1115
952.511	-132
952.602	573
952.692	-285
952.782	560
952.872	915
952.962	533
953.052	654
953.143	-1343
953.233	940
953.323	-22
953.413	-361
953.503	51
953.593	614
953.683	-535
953.773	-668
953.863	-652
953.953	574
954.042	-55
954.132	41
954.222	456
954.312	-80
954.402	-1346
954.492	-372
954.581	-574
954.671	159
954.761	-482
954.850	911
954.940	-58
955.030	-197
955.119	-858
955.209	-608
955.298	-1790
955.388	-15
955.477	-153
955.567	-747
955.656	106
955.746	270
955.835	-148
955.925	-448
956.014	307
956.103	248
956.193	246
956.282	-620
956.371	-721
956.461	861
956.550	-670
956.639	-496
956.728	-704
956.817	156
956.906	203
956.995	1464
957.085	333
957.174	37
957.263	-131
957.352	-100
957.441	-299
957.530	0
957.619	425
957.708	-24
957.796	-577
957.885	-791
957.974	-499
958.063	1053
958.152	-1400
958.241	-118
958.329	1053
958.418	-186
958.507	-1438
958.596	1278
958.684	-575
958.773	213
958.861	-1203
958.950	851
959.039	449
959.127	51
959.216	-119
959.304	550
959.393	-746
959.481	-188
959.570	-375
959.658	316
959.746	-679
959.835	-177
959.923	-1239
960.011	-561
960.100	445
960.188	524
960.276	-472
960.365	191
960.453	-102
960.541	-556
960.629	-697
960.717	-34
960.805	-1029
960.893	965
960.981	-910
961.069	867
961.158	-358
961.245	-338
961.333	-121
961.421	-286
961.509	-1015
961.597	815
961.685	-45
961.773	695
961.861	-1617
961.949	427
962.036	-1418
962.124	616
962.212	-47
962.299	1125
962.387	-1120
962.475	591
962.562	0
962.650	2019
962.738	311
962.825	293
962.913	-804
963.000	-417
963.088	-501
963.175	271
963.263	-448
963.350	635
963.438	-127
963.525	-413
963.612	161
963.700	-357
963.787	384
963.874	-233
963.962	-327
964.049	298
964.136	-436
964.223	138
964.310	22
964.398	-871
964.485	-1191
964.572	560
964.659	244
964.746	38
964.833	-289
964.920	-733
965.007	-402
965.094	-390
965.181	117
965.268	411
965.355	356
965.441	-410
965.528	-100
965.615	1137
965.702	333
965.789	-191
965.875	-640
965.962	-235
966.049	-1441
966.136	-352
966.222	-1052
966.309	334
966.395	-1331
966.482	625
966.569	-267
966.655	96
966.742	-1311
966.828	-2
966.915	-44
967.001	514
967.087	-1048
967.174	-460
967.260	66
967.347	-402
967.433	-1453
967.519	202
967.605	-981
967.692	-552
967.778	-67
967.864	405
967.950	-400
968.036	-71
968.123	-303
968.209	-700
968.295	-933
968.381	1104
968.467	127
968.553	-1084
968.639	-94
968.725	-460
968.811	-616
968.897	60
968.983	-744
969.069	-1097
969.154	-882
969.240	729
969.326	-405
969.412	-249
969.497	-1097
969.583	-648
969.669	-287
969.755	301
969.840	-556
969.926	311
970.012	-1122
970.097	-231
970.183	-996
970.268	-550
970.354	-1527
970.439	-724
970.525	-124
970.610	-1308
970.696	202
970.781	185
970.866	-1438
970.952	140
971.037	-1586
971.122	-140
971.208	-702
971.293	-208
971.378	-2106
971.463	-200
971.549	66
971.634	-227
971.719	-452
971.804	-453
971.889	555
971.974	-732
972.059	-971
972.144	375
972.229	-998
972.314	-627
972.399	-630
972.484	-380
972.569	140
972.654	-1622
972.739	798
972.824	-371
972.908	-575
972.993	579
973.078	-1046
973.163	-105
973.247	-520
973.332	-1109
973.417	554
973.501	-460
973.586	-10
973.671	1906
973.755	2690
973.840	3123
973.924	1712
974.009	921
974.093	-298
974.178	1187
974.262	93
974.346	191
974.431	163
974.515	-667
974.600	-454
974.684	-28
974.768	-997
974.852	570
974.937	-1939
975.021	-27
975.105	-355
975.189	-306
975.273	-569
975.358	-1163
975.442	-2267
975.526	611
975.610	-1140
975.694	-1372
975.778	662
975.862	562
975.946	-2239
976.030	918
976.114	-80
976.198	214
976.281	-704
976.365	771
976.449	-581
976.533	874
976.617	-836
976.700	-429
976.784	-645
976.868	-249
976.951	-1061
977.035	-734
977.119	-962
977.202	-177
977.286	-503
977.369	-829
977.453	-439
977.536	-396
977.620	-1759
977.703	-255
977.787	-1529
977.870	-153
977.953	288
978.037	-1358
978.120	662
978.203	-658
978.287	-419
978.370	99
978.453	-945
978.536	-501
978.620	541
978.703	52
978.786	-1030
978.869	-934
978.952	-887
979.035	1083
979.118	-639
979.201	-1046
979.284	-922
979.367	-516
979.450	-408
979.533	-247
979.616	-1195
979.699	-1043
979.782	-207
979.865	58
979.948	-631
980.030	727
980.113	-519
980.196	-560
980.279	-1319
980.361	-649
980.444	-1590
980.526	-284
980.609	-15
980.692	-1208
980.774	-675
980.857	-1502
980.939	-439
981.022	-242
981.104	-1839
981.187	-610
981.269	-462
981.352	188
981.434	-1519
981.516	-1020
981.599	22
981.681	248
981.763	-1478
981.846	37
981.928	-465
982.010	-600
982.092	-1002
982.174	-265
982.256	-1028
982.339	-902
982.421	-712
982.503	259
982.585	-1173
982.667	22
982.749	-343
982.831	-710
982.913	-1377
982.995	98
983.077	-1368
983.158	26
983.240	-1893
983.322	559
983.404	-532
983.486	-936
983.568	-668
983.649	-536
983.731	-531
983.813	45
983.894	-217
983.976	-453
984.058	-320
984.139	755
984.221	-1005
984.302	26
984.384	-875
984.465	71
984.547	-720
984.628	-1280
984.710	-53
984.791	-264
984.872	-694
984.954	-638
985.035	-597
985.116	-1024
985.198	-1394
985.279	1290
985.360	-1305
985.441	201
985.522	241
985.604	-806
985.685	-1735
985.766	467
985.847	983
985.928	-605
986.009	-550
986.090	-171
986.171	600
986.252	-551
986.333	-1124
986.414	178
986.495	86
986.576	-521
986.656	-892
986.737	-142
986.818	-401
986.899	-827
986.980	-982
987.060	36
987.141	-993
987.222	-828
987.302	-243
987.383	-682
987.464	-84
987.544	-95
987.625	-963
987.705	37
987.786	-721
987.866	-259
987.947	-967
988.027	-1356
988.108	-917
988.188	669
988.268	-381
988.349	-968
988.429	-1186
988.509	107
988.589	-1228
988.670	-1832
988.750	532
988.830	24
988.910	250
988.990	-501
989.070	-769
989.151	-182
989.231	-1234
989.311	133
989.391	-1343
989.471	-270
989.551	-1306
989.631	-459
989.711	-754
989.791	-628
989.870	-1236
989.950	593
990.030	-1335
990.110	-772
990.190	-1593
990.269	221
990.349	-810
990.429	-17
990.509	-469
990.588	-1187
990.668	-1032
990.747	-702
990.827	-1151
990.907	-17
990.986	-1461
991.066	-455
991.145	-1021
991.225	677
991.304	-905
991.383	153
991.463	-742
991.542	47
991.622	-1539
991.701	-1034
991.780	-1889
991.859	-729
991.939	-1220
992.018	-789
992.097	-590
992.176	-63
992.256	-1578
992.335	-1128
992.414	-711
992.493	-624
992.572	-1540
992.651	710
992.730	-711
992.809	-423
992.888	-874
992.967	-1175
993.046	-500
993.125	-1031
993.203	-757
993.282	-627
993.361	-1290
993.440	-297
993.519	-1994
993.597	-229
993.676	-1310
993.755	-101
993.834	-503
993.912	-1440
993.991	-171
994.069	-1495
994.148	-1538
994.226	-1215
994.305	-1206
994.384	-756
994.462	-673
994.540	-922
994.619	-1106
994.697	-503
994.776	-1757
994.854	-182
994.932	-1354
995.011	-146
995.089	-1333
995.167	-173
995.245	-685
995.324	-1868
995.402	-511
995.480	-204
995.558	-908
995.636	-1771
995.714	-1992
995.792	-5
995.870	-1754
995.948	-647
996.026	-1115
996.104	-2391
996.182	-536
996.260	-1489
996.338	-1078
996.416	-1753
996.494	-1519
996.572	-81
996.649	-917
996.727	-1924
996.805	-1015
996.883	-600
996.960	-1271
997.038	-664
997.116	-994
997.193	-1040
997.271	106
997.348	-1295
997.426	-1086
997.504	-1400
997.581	-695
997.658	-378
997.736	-1956
997.813	-1876
997.891	-373
997.968	-1113
998.046	-1335
998.123	-1618
998.200	-1084
998.277	-1512
998.355	-1134
998.432	-1208
998.509	-1388
998.586	-216
998.663	-1371
998.741	-1902
998.818	-1870
998.895	-740
998.972	-612
999.049	-768
999.126	-2150
999.203	-787
999.280	-1348
999.357	-517
999.434	-1112
999.511	-628
999.587	-881
999.664	-1878
999.741	-1681
999.818	-1172
999.895	-1837
999.971	-1884
1000.048	-1900
1000.125	-85
1000.202	-2548
1000.278	-1103
1000.355	-1109
1000.431	-1047
1000.508	-2068
1000.584	-940
1000.661	-1712
1000.738	-1297
1000.814	-856
1000.890	-148
1000.967	-1606
1001.043	-656
1001.120	-2479
1001.196	-185
1001.272	-1932
1001.349	-859
1001.425	-1563
1001.501	-1362
1001.577	-2109
1001.654	-380
1001.730	-2236
1001.806	-583
1001.882	-1908
1001.958	-360
1002.034	-1276
1002.110	-610
1002.186	-2409
1002.262	-1148
1002.338	-1979
1002.414	-1224
1002.490	-1826
1002.566	-1791
1002.642	-2843
1002.718	-485
1002.794	-2257
1002.870	-1124
1002.945	-2214
1003.021	-217
1003.097	-1698
1003.173	-1353
1003.248	-2076
1003.324	-888
1003.400	-1206
1003.475	-1523
1003.551	-1364
1003.626	-1593
1003.702	-2091
1003.777	-583
1003.853	-1559
1003.928	-1803
1004.004	-1439
1004.079	-912
1004.155	-1076
1004.230	-1637
1004.305	-751
1004.381	-1452
1004.456	-1612
1004.531	-1154
1004.607	-1667
1004.682	-1141
1004.757	-2232
1004.832	-2038
1004.907	-2567
1004.982	-259
1005.057	-1629
1005.133	-1290
1005.208	-1358
1005.283	-1096
1005.358	-1974
1005.433	-1076
1005.508	-1474
1005.583	-1929
1005.657	-1964
1005.732	-764
1005.807	-2115
1005.882	-1453
1005.957	-1421
1006.032	-699
1006.106	-1105
1006.181	-1620
1006.256	-577
1006.331	-1484
1006.405	-1840
1006.480	-438
1006.554	-1720
1006.629	-498
1006.704	-2491
1006.778	-1766
1006.853	-1225
1006.927	-1780
1007.002	-1662
1007.076	-1225
1007.150	-1974
1007.225	-1150
1007.299	-1536
1007.373	-1605
1007.448	-1486
1007.522	-1000
1007.596	-1383
1007.671	-2003
1007.745	-1856
1007.819	-1758
1007.893	-1608
1007.967	-980
1008.041	-3074
1008.115	-764
1008.190	-1740
1008.264	-797
1008.338	-3049
1008.412	-1851
1008.486	-1195
1008.560	-2012
1008.633	-2410
1008.707	-1399
1008.781	-1606
1008.855	-1849
1008.929	-1549
1009.003	-1614
1009.076	-2318
1009.150	-1561
1009.224	-1948
1009.298	-1388
1009.371	-2458
1009.445	-866
1009.519	-949
1009.592	-2525
1009.666	-2100
1009.739	-1137
1009.813	-2636
1009.886	-370
1009.960	-2627
1010.033	-822
1010.107	-1338
1010.180	-1896
1010.253	-2219
1010.327	-831
1010.400	-1828
1010.473	-1040
1010.547	-272
1010.620	-1223
1010.693	-1755
1010.766	-1889
1010.840	-1720
1010.913	-1183
1010.986	-2769
1011.059	-1509
1011.132	-2239
1011.205	-906
1011.278	-1376
1011.351	-1441
1011.424	-1547
1011.497	-1937
1011.570	-1632
1011.643	-1939
1011.716	-2544
1011.789	-1958
1011.862	-2283
1011.934	-1128
1012.007	-3140
1012.080	-974
1012.153	-1765
1012.225	-96
1012.298	-2443
1012.371	-1978
1012.443	-1489
1012.516	-1771
1012.588	-1630
1012.661	-1676
1012.733	-2038
1012.806	-814
1012.879	-2005
1012.951	-2123
1013.023	-1959
1013.096	-1520
1013.168	-1941
1013.241	-995
1013.313	-1969
1013.385	-1669
1013.458	-2528
1013.530	-1213
1013.602	-2924
1013.674	-586
1013.746	-2307
1013.819	-2699
1013.891	-1715
1013.963	-1658
1014.035	-2243
1014.107	-2063
1014.179	-1642
1014.251	-1444
1014.323	-1435
1014.395	-1067
1014.467	-1373
1014.539	-1340
1014.611	-1697
1014.683	-2180
1014.754	-1920
1014.826	-1893
1014.898	-2049
1014.970	-2227
1015.042	-1227
1015.113	-1687
1015.185	-2195
1015.257	-2329
1015.328	-844
1015.400	-2284
1015.471	-1777
1015.543	-1936
1015.615	-1840
1015.686	-1999
1015.757	-2172
1015.829	-1528
1015.901	-1530
1015.972	-2768
1016.043	-2385
1016.115	-1548
1016.186	-1994
1016.257	-1942
1016.328	-2054
1016.400	-1299
1016.471	-3539
1016.542	-1806
1016.613	-2180
1016.685	-1777
1016.756	-1786
1016.827	-1989
1016.898	-2157
1016.969	-1700
1017.040	-1686
1017.111	-1779
1017.182	-2360
1017.253	-2005
1017.324	-2900
1017.395	-1543
1017.466	-1605
1017.537	-1941
1017.608	-1921
1017.678	-2325
1017.749	-2844
1017.820	-2254
1017.891	-2444
1017.961	-1928
1018.032	-1447
1018.103	-2171
1018.173	-2137
1018.244	-1641
1018.315	-2476
1018.385	-2200
1018.456	-2478
1018.526	-2009
1018.597	-2487
1018.667	-1367
1018.738	-2254
1018.808	-2120
1018.878	-2761
1018.949	-1712
1019.019	-1212
1019.089	-1752
1019.160	-1486
1019.230	-2445
1019.300	-1365
1019.371	-2458
1019.441	-2083
1019.511	-797
1019.581	-2549
1019.651	-1716
1019.721	-2191
1019.791	-1675
1019.861	-897
1019.931	-1140
1020.001	-2167
1020.071	-1428
1020.141	-2115
1020.211	-1304
1020.281	-2193
1020.351	-2446
1020.421	-1964
1020.491	-1469
1020.560	-2950
1020.630	-1786
1020.700	-2428
1020.770	-1454
1020.839	-2297
1020.909	-1413
1020.979	-858
1021.048	-2241
1021.118	-2365
1021.187	-1878
1021.257	-1764
1021.326	-1781
1021.396	-2167
1021.465	-1004
1021.535	-1280
1021.604	-1596
1021.674	-1847
1021.743	-1488
1021.812	-2467
1021.882	-1580
1021.951	-1806
1022.020	-2229
1022.089	-2140
1022.159	-2377
1022.228	-2619
1022.297	-1985
1022.366	-1925
1022.435	-1928
1022.504	-1946
1022.573	-1639
1022.642	-2102
1022.711	-1991
1022.781	-1989
1022.849	-1555
1022.918	-2621
1022.987	-2153
1023.056	-2409
1023.125	-1902
1023.194	-1715
1023.263	-1383
1023.331	-2417
1023.400	-1532
1023.469	-2992
1023.538	-965
1023.606	-1474
1023.675	-1694
1023.744	-2782
1023.812	-3000
1023.881	-1540
1023.949	-1736
1024.018	-2697
1024.086	-2073
1024.155	-1950
1024.223	-2398
1024.292	-2522
1024.360	-1180
1024.429	-1920
1024.497	-2503
1024.565	-2160
1024.634	-2076
1024.702	-1526
1024.770	-2469
1024.838	-2009
1024.907	-1824
1024.975	-2977
1025.043	-1413
1025.111	-2950
1025.179	-2019
1025.247	-1951
1025.315	-2017
1025.383	-2756
1025.451	-1707
1025.519	-2573
1025.587	-1488
1025.655	-2298
1025.723	-1890
1025.791	-2405
1025.859	-1655
1025.927	-1464
1025.995	-1874
1026.062	-2364
1026.130	-1489
1026.198	-2497
1026.266	-2206
1026.333	-1951
1026.401	-947
1026.469	-1958
1026.536	-1961
1026.604	-2492
1026.671	-2081
1026.739	-2308
1026.806	-1802
1026.874	-2327
1026.941	-1605
1027.009	-2424
1027.076	-2315
1027.144	-1345
1027.211	-2180
1027.278	-2803
1027.345	-1576
1027.413	-2784
1027.480	-1376
1027.547	-1927
1027.614	-1424
1027.682	-2313
1027.749	-1383
1027.816	-1986
1027.883	-1501
1027.950	-2428
1028.017	-2043
1028.084	-973
1028.151	-2554
1028.218	-2071
1028.285	-1635
1028.352	-2110
1028.419	-1734
1028.486	-2202
1028.553	-1011
1028.619	-2926
1028.686	-1893
1028.753	-2312
1028.820	-1844
1028.886	-2904
1028.953	-2354
1029.020	-1873
1029.086	-1965
1029.153	-2773
1029.220	-1417
1029.286	-1832
1029.353	-1521
1029.419	-2563
1029.486	-1376
1029.552	-2746
1029.619	-1593
1029.685	-2474
1029.751	-2163
1029.818	-2176
1029.884	-2328
1029.951	-1529
1030.017	-1776
1030.083	-2324
1030.149	-2176
1030.216	-2949
1030.282	-2029
1030.348	-2181
1030.414	-1955
1030.480	-1995
1030.546	-2254
1030.612	-1525
1030.678	-1577
1030.744	-2015
1030.810	-2445
1030.876	-2324
1030.942	-1649
1031.008	-2395
1031.074	-1777
1031.140	-2120
1031.206	-1322
1031.272	-2685
1031.337	-2403
1031.403	-1922
1031.469	-1585
1031.534	-2678
1031.600	-1772
1031.666	-1977
1031.731	-2064
1031.797	-2413
1031.863	-1893
1031.928	-1488
1031.994	-1624
1032.059	-2330
1032.125	-2059
1032.190	-2535
1032.256	-1629
1032.321	-2641
1032.386	-2647
1032.452	-1972
1032.517	-2178
1032.582	-2275
1032.647	-2226
1032.713	-2890
1032.778	-1018
1032.843	-2528
1032.908	-2339
1032.974	-2291
1033.039	-1523
1033.104	-2166
1033.169	-1829
1033.234	-1755
1033.299	-1135
1033.364	-1574
1033.429	-2026
1033.494	-2035
1033.559	-1674
1033.624	-2787
1033.688	-1676
1033.753	-2278
1033.818	-1699
1033.883	-2687
1033.948	-1244
1034.013	-1734
1034.077	-1217
1034.142	-1230
1034.207	-1920
1034.271	-2190
1034.336	-1398
1034.400	-1693
1034.465	-2382
1034.530	-2461
1034.594	-1965
1034.658	-2844
1034.723	-2388
1034.787	-2003
1034.852	-2052
1034.916	-2232
1034.981	-1979
1035.045	-1949
1035.109	-1584
1035.173	-2312
1035.238	-1597
1035.302	-1379
1035.366	-1839
1035.430	-3295
1035.495	-1747
1035.559	-1828
1035.623	-1205
1035.687	-3167
1035.751	-1673
1035.815	-2163
1035.879	-2261
1035.943	-2391
1036.007	-2141
1036.071	-2230
1036.135	-1116
1036.198	-1910
1036.262	-2371
1036.326	-1448
1036.390	-1663
1036.454	-2223
1036.517	-1351
1036.581	-2793
1036.645	-2153
1036.709	-1865
1036.772	-1840
1036.836	-2564
1036.900	-1683
1036.963	-2017
1037.026	-2451
1037.090	-2246
1037.154	-2286
1037.217	-2174
1037.280	-2201
1037.344	-2082
1037.407	-2255
1037.471	-2763
1037.534	-1614
1037.597	-1643
1037.661	-1152
1037.724	-2426
1037.787	-2304
1037.850	-2286
1037.913	-2464
1037.977	-1036
1038.040	-1811
1038.103	-2506
1038.166	-1358
1038.229	-1593
1038.292	-1971
1038.355	-2505
1038.418	-1558
1038.481	-1893
1038.544	-2004
1038.607	-1399
1038.670	-1262
1038.732	-1672
1038.795	-2366
1038.858	-2950
1038.921	-1103
1038.984	-1450
1039.046	-1850
1039.109	-2798
1039.172	-1674
1039.234	-2370
1039.297	-1655
1039.360	-2098
1039.422	-1724
1039.485	-2356
1039.547	-2105
1039.610	-2114
1039.672	-2140
1039.734	-1853
1039.797	-2248
1039.859	-2088
1039.922	-1256
1039.984	-2533
1040.046	-2078
1040.109	-2202
1040.171	-2296
1040.233	-1538
1040.295	-1578
1040.358	-2438
1040.420	-2297
1040.482	-1907
1040.544	-1829
1040.606	-1654
1040.668	-1840
1040.730	-2162
1040.792	-1175
1040.854	-2209
1040.916	-1692
1040.978	-2402
1041.040	-1453
1041.102	-1488
1041.164	-1525
1041.225	-1612
1041.287	-1388
1041.349	-2237
1041.411	-1927
1041.472	-2686
1041.534	-1114
1041.596	-2430
1041.657	-851
1041.719	-2714
1041.781	-1918
1041.842	-2211
1041.904	-1406
1041.965	-1895
1042.027	-1518
1042.088	-1731
1042.150	-2066
1042.211	-1533
1042.272	-1233
1042.334	-2283
1042.395	-1497
1042.456	-2402
1042.518	-1920
1042.579	-1615
1042.640	-1725
1042.701	-1688
1042.763	-1394
1042.824	-2980
1042.885	-1518
1042.946	-2267
1043.007	-1926
1043.068	-1516
1043.129	-1095
1043.190	-1848
1043.251	-1463
1043.312	-1997
1043.373	-954
1043.434	-1639
1043.495	-1794
1043.556	-2081
1043.616	-1117
1043.677	-2195
1043.738	-1599
1043.799	-2935
1043.859	-1788
1043.920	-1300
1043.981	-1164
1044.041	-1802
1044.102	-1716
1044.162	-1999
1044.223	-1685
1044.284	-2153
1044.344	-1805
1044.405	-2556
1044.465	-1575
1044.525	-1664
1044.586	-1332
1044.646	-1480
1044.707	-1051
1044.767	-1412
1044.827	-1444
1044.887	-1691
1044.948	-907
1045.008	-2077
1045.068	-1225
1045.128	-2132
1045.188	-1270
1045.249	-993
1045.309	-182
1045.369	-1160
1045.429	-1311
1045.489	-1123
1045.549	-662
1045.609	-1665
1045.669	-1565
1045.729	-2101
1045.789	-1671
1045.848	-913
1045.908	-215
1045.968	-1637
1046.028	-1754
1046.088	-652
1046.147	-429
1046.207	-1784
1046.267	-1070
1046.326	-1265
1046.386	-683
1046.446	-593
1046.505	-142
1046.565	-500
1046.624	191
1046.684	386
1046.743	-87
1046.803	-779
1046.862	117
1046.922	0
