'Start Wavelength	183.907
'End Wavelength	1046.922
'Gate Delay	5.000
'Gate Width (ms)	1.050
'Laser Output Level	0.000
'X Position	0.000
'Y Position	0.000
'Z Position	0.000
'Grid Point Number	1.000
'Shot Number	100.000
183.907	715.000
183.977	130.000
184.047	-125
184.116	-189
184.186	1146
184.256	198
184.325	296
184.395	-829
184.465	937
184.534	325
184.604	-743
184.674	579
184.743	308
184.813	260
184.883	198
184.952	500
185.022	154
185.092	-391
185.161	211
185.231	59
185.301	742
185.370	526
185.440	18
185.509	-6
185.579	752
185.649	740
185.718	171
185.788	399
185.857	-724
185.927	187
185.996	-178
186.066	519
186.136	-23
186.205	-156
186.275	-482
186.344	-229
186.414	504
186.483	-656
186.553	1557
186.622	1929
186.692	306
186.761	565
186.831	-214
186.900	309
186.970	540
187.039	566
187.109	967
187.178	194
187.248	1076
187.317	731
187.387	-229
187.456	1058
187.526	1390
187.595	649
187.664	-31
187.734	26
187.803	648
187.873	-78
187.942	807
188.012	396
188.081	423
188.150	1109
188.220	1111
188.289	1294
188.358	1126
188.428	941
188.497	-48
188.567	524
188.636	603
188.705	176
188.775	317
188.844	-410
188.913	1206
188.983	-170
189.052	610
189.121	472
189.191	-174
189.260	1214
189.329	1290
189.399	843
189.468	1148
189.537	-164
189.606	1436
189.676	334
189.745	1618
189.814	815
189.883	1060
189.953	1398
190.022	1757
190.091	4446
190.161	7175
190.230	3196
190.299	1026
190.368	875
190.437	1129
190.507	705
190.576	1699
190.645	1078
190.714	1115
190.783	558
190.853	1381
190.922	-125
190.991	155
191.060	698
191.129	78
191.198	444
191.268	387
191.337	593
191.406	885
191.475	706
191.544	825
191.613	968
191.682	218
191.752	943
191.821	1351
191.890	526
191.959	416
192.028	935
192.097	1131
192.166	1217
192.235	547
192.304	1009
192.373	788
192.442	370
192.511	966
192.580	623
192.650	860
192.719	1439
192.788	1080
192.857	839
192.926	1012
192.995	1201
193.064	1631
193.133	2139
193.202	3977
193.271	3776
193.340	3628
193.409	2274
193.478	3988
193.547	4444
193.615	6336
193.684	5303
193.753	4135
193.822	3142
193.891	1392
193.960	1567
194.029	796
194.098	1483
194.167	957
194.236	1099
194.305	824
194.374	1237
194.443	1108
194.512	1289
194.580	351
194.649	1185
194.718	1665
194.787	733
194.856	516
194.925	1539
194.994	1591
195.062	1622
195.131	25
195.200	1151
195.269	2278
195.338	1320
195.407	1154
195.475	1444
195.544	1249
195.613	891
195.682	693
195.751	1351
195.819	1480
195.888	1048
195.957	2452
196.026	1751
196.094	1575
196.163	1663
196.232	1345
196.301	1146
196.369	2820
196.438	2226
196.507	1631
196.576	1304
196.644	1175
196.713	912
196.782	245
196.850	1787
196.919	1940
196.988	1500
197.056	1398
197.125	1731
197.194	1844
197.262	1226
197.331	1512
197.400	843
197.468	1268
197.537	1015
197.606	1854
197.674	3415
197.743	7099
197.812	2869
197.880	6698
197.949	4427
198.017	5862
198.086	5240
198.155	2978
198.223	2651
198.292	7944
198.360	5100
198.429	2325
198.497	2611
198.566	5270
198.635	8759
198.703	3871
198.772	3596
198.840	8362
198.909	9743
198.977	2373
199.046	1933
199.114	2500
199.183	2977
199.251	2659
199.320	1861
199.388	1326
199.457	994
199.525	1504
199.594	2086
199.662	1484
199.731	1827
199.799	1779
199.867	1952
199.936	1805
200.004	2133
200.073	1949
200.141	1804
200.210	1797
200.278	1422
200.346	2006
200.415	1686
200.483	2362
200.552	1825
200.620	2544
200.688	1672
200.757	1537
200.825	2235
200.893	1452
200.962	2241
201.030	1000
201.098	1288
201.167	2145
201.235	2387
201.303	2142
201.372	2532
201.440	1673
201.508	1810
201.577	2182
201.645	2561
201.713	2811
201.781	1387
201.850	2665
201.918	1815
201.986	1689
202.055	2043
202.123	1719
202.191	1656
202.259	2489
202.327	1583
202.396	2313
202.464	1810
202.532	2848
202.600	5894
202.669	4321
202.737	2227
202.805	1525
202.873	2489
202.941	2739
203.009	2994
203.078	2557
203.146	2712
203.214	2536
203.282	1273
203.350	2233
203.418	1398
203.487	3193
203.555	1220
203.623	2641
203.691	2325
203.759	1469
203.827	1254
203.895	2158
203.963	1957
204.031	1570
204.099	2323
204.168	2278
204.236	2343
204.304	2580
204.372	2544
204.440	2659
204.508	2767
204.576	2579
204.644	2199
204.712	1319
204.780	3006
204.848	2802
204.916	2650
204.984	2227
205.052	2653
205.120	2298
205.188	2122
205.256	2730
205.324	2523
205.392	2934
205.460	3656
205.528	2641
205.596	3093
205.664	2916
205.732	2793
205.799	10026
205.867	17242
205.935	5455
206.003	3383
206.071	2370
206.139	3352
206.207	3339
206.275	3097
206.343	3196
206.411	2921
206.478	2616
206.546	2917
206.614	3373
206.682	3135
206.750	3900
206.818	4323
206.885	4875
206.953	1840
207.021	3543
207.089	2529
207.157	3063
207.225	2952
207.292	2814
207.360	3160
207.428	3311
207.496	2181
207.563	2695
207.631	2785
207.699	3247
207.767	2907
207.834	2717
207.902	2998
207.970	2796
208.038	2529
208.105	3453
208.173	3845
208.241	5706
208.309	5206
208.376	4285
208.444	6744
208.512	5931
208.579	2706
208.647	4296
208.715	5003
208.782	3124
208.850	3451
208.918	2816
208.985	3647
209.053	3444
209.120	3476
209.188	2435
209.256	3902
209.323	2951
209.391	3937
209.459	5272
209.526	3270
209.594	3554
209.661	3763
209.729	3374
209.796	3639
209.864	3749
209.932	3116
209.999	5178
210.067	4803
210.134	3887
210.202	3528
210.269	5093
210.337	4561
210.404	4516
210.472	3883
210.539	4766
210.607	3974
210.674	3851
210.742	3944
210.809	4198
210.877	3880
210.944	4459
211.012	2787
211.079	5984
211.146	3999
211.214	4325
211.281	5327
211.349	5785
211.416	4872
211.484	4806
211.551	4076
211.618	4676
211.686	4220
211.753	3935
211.821	4092
211.888	4835
211.955	4822
212.023	4088
212.090	4892
212.157	5565
212.225	5042
212.292	11393
212.359	17363
212.427	41818
212.494	23385
212.561	9645
212.629	6716
212.696	5439
212.763	5225
212.831	4913
212.898	5635
212.965	5484
213.032	5481
213.100	5373
213.167	4422
213.234	6690
213.301	5070
213.369	4530
213.436	4745
213.503	4427
213.570	4827
213.638	4382
213.705	3802
213.772	3704
213.839	5526
213.906	7283
213.973	5246
214.041	5045
214.108	3998
214.175	4439
214.242	4480
214.309	4858
214.376	5164
214.444	4858
214.511	5516
214.578	5173
214.645	5396
214.712	5782
214.779	5385
214.846	4251
214.913	5997
214.980	5452
215.048	6293
215.115	6858
215.182	6347
215.249	4442
215.316	4438
215.383	4858
215.450	3992
215.517	3640
215.584	4187
215.651	4404
215.718	3441
215.785	5593
215.852	3781
215.919	4587
215.986	4448
216.053	4442
216.120	3352
216.187	5089
216.254	5044
216.321	4856
216.388	4523
216.455	5446
216.522	5148
216.589	6120
216.656	8939
216.722	10524
216.789	7324
216.856	7756
216.923	7822
216.990	7525
217.057	7189
217.124	7871
217.191	8003
217.258	9709
217.324	11593
217.391	12675
217.458	9323
217.525	7822
217.592	6255
217.659	5334
217.725	7242
217.792	8147
217.859	9500
217.926	4591
217.993	4576
218.059	4552
218.126	5527
218.193	3921
218.260	3922
218.327	4220
218.393	4316
218.460	3824
218.527	3305
218.594	4154
218.660	7406
218.727	8169
218.794	3614
218.860	4367
218.927	3468
218.994	2846
219.061	3000
219.127	4358
219.194	7070
219.261	4119
219.327	3216
219.394	3732
219.461	2369
219.527	3095
219.594	6134
219.661	4438
219.727	2140
219.794	3846
219.860	3671
219.927	4547
219.994	5331
220.060	10411
220.127	8618
220.193	6783
220.260	7958
220.326	10770
220.393	15831
220.460	21225
220.526	14353
220.593	10067
220.659	11030
220.726	10148
220.792	22944
220.859	22663
220.925	26114
220.992	32334
221.058	31504
221.125	32078
221.191	24627
221.258	11777
221.324	8629
221.391	6826
221.457	6175
221.524	5799
221.590	8299
221.657	25789
221.723	21669
221.789	16739
221.856	15784
221.922	9524
221.989	6443
222.055	4657
222.121	3505
222.188	5906
222.254	5343
222.321	4090
222.387	3280
222.453	3239
222.520	2927
222.586	2045
222.652	3619
222.719	2598
222.785	3869
222.851	2984
222.918	3016
222.984	2795
223.050	2485
223.116	1285
223.183	3886
223.249	2821
223.315	2283
223.382	3280
223.448	3588
223.514	2042
223.580	2129
223.647	2330
223.713	2108
223.779	3276
223.845	1904
223.911	3007
223.978	1193
224.044	3274
224.110	2340
224.176	2710
224.242	3238
224.309	1912
224.375	2964
224.441	2495
224.507	2495
224.573	1818
224.639	3313
224.705	1241
224.772	2134
224.838	2419
224.904	2759
224.970	2974
225.036	2359
225.102	2411
225.168	3002
225.234	3200
225.300	2574
225.366	2470
225.432	2879
225.499	3467
225.565	2495
225.631	4180
225.697	4452
225.763	5611
225.829	6232
225.895	6006
225.961	9937
226.027	7983
226.093	6564
226.159	9939
226.225	14882
226.291	33711
226.357	55370
226.423	30573
226.489	15858
226.554	10011
226.620	10656
226.686	12528
226.752	17177
226.818	33137
226.884	67949
226.950	64706
227.016	29023
227.082	14972
227.148	10021
227.214	8837
227.279	6174
227.345	6091
227.411	5238
227.477	6520
227.543	11044
227.609	12411
227.674	6929
227.740	5284
227.806	5631
227.872	5068
227.938	3971
228.003	4808
228.069	3273
228.135	3657
228.201	3716
228.267	3450
228.332	3355
228.398	3924
228.464	5382
228.530	3272
228.595	2663
228.661	2713
228.727	4776
228.792	5285
228.858	3093
228.924	2661
228.990	6445
229.055	4286
229.121	5947
229.187	3595
229.252	3710
229.318	2854
229.384	2467
229.449	3818
229.515	1337
229.581	1355
229.646	4282
229.712	2990
229.777	7078
229.843	9397
229.909	6030
229.974	6062
230.040	5945
230.105	5428
230.171	5014
230.236	8467
230.302	12664
230.368	8714
230.433	4164
230.499	4878
230.564	4516
230.630	2527
230.695	3340
230.761	3994
230.826	2286
230.892	6111
230.957	3677
231.023	2389
231.088	3174
231.154	3488
231.219	3963
231.284	5330
231.350	6512
231.415	2743
231.481	3608
231.546	2997
231.612	2688
231.677	2709
231.742	2126
231.808	4751
231.873	2325
231.939	1647
232.004	4698
232.069	5350
232.135	3212
232.200	3389
232.265	3053
232.331	2666
232.396	3113
232.461	2580
232.527	2107
232.592	2050
232.657	2772
232.723	4739
232.788	3888
232.853	2893
232.918	2228
232.984	1734
233.049	2339
233.114	4046
233.179	4187
233.245	6354
233.310	7870
233.375	2860
233.440	2845
233.506	2438
233.571	2237
233.636	2376
233.701	2635
233.766	4535
233.832	6126
233.897	2372
233.962	2469
234.027	4186
234.092	3088
234.157	2987
234.222	3230
234.288	4754
234.353	14197
234.418	13217
234.483	7800
234.548	5571
234.613	5135
234.678	4960
234.743	5064
234.808	14258
234.873	10901
234.938	6077
235.004	4749
235.069	4038
235.134	3409
235.199	3673
235.264	4548
235.329	2876
235.394	4282
235.459	6121
235.524	2972
235.589	4845
235.654	2886
235.719	2201
235.784	3930
235.849	4074
235.913	6854
235.978	8585
236.043	9770
236.108	5775
236.173	4089
236.238	5608
236.303	4671
236.368	5172
236.433	7291
236.498	11918
236.563	12484
236.627	23345
236.692	83472
236.757	82728
236.822	31411
236.887	18024
236.952	15626
237.017	12390
237.081	14285
237.146	18062
237.211	39899
237.276	84757
237.341	135461
237.405	75130
237.470	28760
237.535	17328
237.600	11482
237.664	9991
237.729	7774
237.794	9846
237.859	24157
237.923	15666
237.988	8212
238.053	9075
238.118	8244
238.182	21397
238.247	22486
238.312	8365
238.376	6786
238.441	4408
238.506	5699
238.570	2693
238.635	5201
238.700	3857
238.764	3903
238.829	8360
238.893	11673
238.958	7286
239.023	5986
239.087	3808
239.152	4792
239.216	3861
239.281	3652
239.346	3699
239.410	3192
239.475	3919
239.539	18688
239.604	17650
239.668	6061
239.733	4420
239.797	6439
239.862	16257
239.926	19170
239.991	8608
240.055	4575
240.120	3517
240.184	3838
240.249	3186
240.313	2680
240.378	3286
240.442	9282
240.507	20190
240.571	7068
240.635	7012
240.700	9996
240.764	4484
240.829	3059
240.893	1758
240.957	3481
241.022	9147
241.086	17568
241.151	8895
241.215	2897
241.279	5291
241.344	8806
241.408	6666
241.472	4150
241.537	5808
241.601	5048
241.665	3684
241.730	4015
241.794	5949
241.858	3600
241.922	4947
241.987	4446
242.051	3641
242.115	3576
242.179	4505
242.244	3959
242.308	5217
242.372	4737
242.436	4221
242.501	4610
242.565	3565
242.629	4368
242.693	4532
242.757	2799
242.822	3442
242.886	5381
242.950	5755
243.014	3768
243.078	4995
243.142	5035
243.206	4686
243.271	5896
243.335	7591
243.399	13559
243.463	47608
243.527	142111
243.591	51762
243.655	15812
243.719	8478
243.783	8848
243.847	15063
243.911	21505
243.975	15961
244.040	9761
244.104	6749
244.168	4970
244.232	6015
244.296	11321
244.360	18949
244.424	7702
244.488	6155
244.552	5126
244.615	2425
244.679	3749
244.743	4401
244.807	5787
244.871	4337
244.935	3718
244.999	2524
245.063	2802
245.127	5388
245.191	12264
245.255	13420
245.319	5577
245.383	4834
245.446	4160
245.510	3055
245.574	3885
245.638	4761
245.702	2580
245.766	11920
245.829	7913
245.893	3887
245.957	4611
246.021	5610
246.085	4492
246.149	5790
246.212	14488
246.276	28575
246.340	11801
246.404	6614
246.467	6983
246.531	9835
246.595	8128
246.659	6021
246.722	4151
246.786	5795
246.850	6448
246.913	9819
246.977	4633
247.041	4502
247.104	6083
247.168	4390
247.232	12058
247.295	37972
247.359	19631
247.423	6850
247.486	11665
247.550	7974
247.614	5414
247.677	7506
247.741	4767
247.804	4669
247.868	6050
247.932	10749
247.995	35504
248.059	12967
248.122	5520
248.186	7536
248.249	10287
248.313	52147
248.376	58934
248.440	38905
248.503	12484
248.567	9892
248.630	11604
248.694	15556
248.757	21185
248.821	60949
248.884	34577
248.948	28918
249.011	43606
249.075	70118
249.138	62433
249.202	21582
249.265	12154
249.328	13849
249.392	10139
249.455	10680
249.519	7465
249.582	9987
249.645	13838
249.709	12218
249.772	8468
249.835	7835
249.899	9261
249.962	9111
250.025	7953
250.089	20811
250.152	31565
250.215	14120
250.279	10665
250.342	10908
250.405	11267
250.468	11816
250.532	15135
250.595	26899
250.658	107894
250.721	205707
250.785	74243
250.848	31887
250.911	17682
250.974	16047
251.038	19710
251.101	43746
251.164	24587
251.227	21804
251.290	23507
251.354	38158
251.417	158024
251.480	183349
251.543	118620
251.606	286494
251.669	252164
251.732	95464
251.795	70517
251.859	76204
251.922	183281
251.985	122811
252.048	42294
252.111	26457
252.174	21778
252.237	33102
252.300	79067
252.363	94453
252.426	234317
252.489	109741
252.552	40324
252.615	25117
252.678	26773
252.741	61436
252.804	97264
252.867	243375
252.930	142036
252.993	57863
253.056	30715
253.119	20965
253.182	17161
253.245	41777
253.308	30955
253.371	18289
253.434	15116
253.497	13331
253.559	30571
253.622	21525
253.685	17690
253.748	19032
253.811	10645
253.874	12935
253.937	11629
254.000	9123
254.062	18052
254.125	36407
254.188	21511
254.251	20313
254.314	9386
254.376	15248
254.439	19292
254.502	14450
254.565	18302
254.628	39371
254.690	17884
254.753	9485
254.816	8329
254.878	9249
254.941	21822
255.004	27894
255.067	9091
255.129	8252
255.192	5788
255.255	4480
255.317	5633
255.380	5213
255.443	4101
255.505	4015
255.568	3656
255.631	3670
255.693	4761
255.756	4332
255.819	4319
255.881	3885
255.944	4444
256.006	4380
256.069	4224
256.132	3376
256.194	4654
256.257	13430
256.319	10701
256.382	9498
256.444	7854
256.507	7281
256.569	6320
256.632	8010
256.694	11891
256.757	36892
256.819	141247
256.882	66597
256.944	21833
257.007	13266
257.069	11326
257.132	8289
257.194	7857
257.257	8273
257.319	8468
257.381	11922
257.444	28223
257.506	143643
257.569	180738
257.631	70223
257.693	30443
257.756	16173
257.818	11500
257.880	8839
257.943	7902
258.005	6013
258.067	5440
258.130	5283
258.192	4975
258.254	11547
258.317	8241
258.379	6490
258.441	16823
258.503	18155
258.566	17855
258.628	27274
258.690	7085
258.753	7242
258.815	10474
258.877	6632
258.939	5954
259.001	5671
259.064	4424
259.126	5870
259.188	7837
259.250	7155
259.312	6795
259.375	16732
259.437	12657
259.499	6030
259.561	5756
259.623	4856
259.685	5096
259.747	5998
259.809	15968
259.872	35597
259.934	52383
259.996	48362
260.058	11450
260.120	6040
260.182	5344
260.244	4916
260.306	4574
260.368	5080
260.430	3046
260.492	5289
260.554	11362
260.616	13220
260.678	22515
260.740	37562
260.802	9090
260.864	6306
260.926	4622
260.988	5322
261.050	4400
261.112	6509
261.174	26274
261.236	30456
261.298	8661
261.359	13873
261.421	20375
261.483	6558
261.545	5834
261.607	3789
261.669	4310
261.731	7313
261.793	21400
261.854	9352
261.916	6268
261.978	4369
262.040	4208
262.102	4527
262.164	6930
262.225	7750
262.287	4388
262.349	10631
262.411	9682
262.472	5324
262.534	7696
262.596	20761
262.658	6964
262.719	4028
262.781	5941
262.843	18084
262.904	10959
262.966	7989
263.028	10576
263.090	53674
263.151	186981
263.213	60537
263.275	18087
263.336	9180
263.398	6048
263.459	5170
263.521	4823
263.583	10255
263.644	8199
263.706	3106
263.767	2590
263.829	2949
263.891	2605
263.952	2592
264.014	1700
264.075	2815
264.137	4416
264.198	4891
264.260	2693
264.321	2787
264.383	5308
264.444	9558
264.506	3694
264.567	3822
264.629	4135
264.690	3738
264.752	3713
264.813	3424
264.875	2987
264.936	3484
264.998	3525
265.059	3972
265.120	4699
265.182	8477
265.243	61433
265.305	79487
265.366	18569
265.427	8037
265.489	6404
265.550	3504
265.611	4710
265.673	5060
265.734	4073
265.795	4054
265.857	5007
265.918	6519
265.979	15325
266.040	107397
266.102	111439
266.163	26828
266.224	12479
266.286	7062
266.347	4515
266.408	4676
266.469	4967
266.530	4305
266.592	3043
266.653	6393
266.714	11244
266.775	4497
266.836	2913
266.898	2248
266.959	3421
267.020	3047
267.081	3065
267.142	2355
267.203	2395
267.264	3027
267.326	3637
267.387	2597
267.448	2082
267.509	2262
267.570	2450
267.631	1716
267.692	1439
267.753	3406
267.814	2237
267.875	6287
267.936	15141
267.997	7457
268.058	6795
268.119	4063
268.180	3102
268.241	2713
268.302	2290
268.363	2171
268.424	2593
268.485	2809
268.546	2396
268.607	1517
268.668	1496
268.729	853
268.790	1987
268.851	2908
268.912	6443
268.972	9421
269.033	4591
269.094	2181
269.155	3019
269.216	2133
269.277	3165
269.338	2907
269.398	2676
269.459	2795
269.520	3915
269.581	5377
269.642	6405
269.702	4620
269.763	4506
269.824	3474
269.885	3547
269.945	6413
270.006	3755
270.067	2956
270.128	2122
270.188	2881
270.249	2852
270.310	2317
270.370	2581
270.431	2639
270.492	2302
270.553	2849
270.613	5556
270.674	13115
270.734	6231
270.795	3959
270.856	4378
270.916	4370
270.977	3204
271.038	3886
271.098	3983
271.159	5438
271.219	5605
271.280	3122
271.340	2493
271.401	3658
271.462	9001
271.522	6031
271.583	3774
271.643	3902
271.704	3244
271.764	3768
271.825	9169
271.885	41001
271.946	73129
272.006	19818
272.066	25916
272.127	61472
272.187	17241
272.248	8608
272.308	6709
272.369	35527
272.429	23183
272.489	9499
272.550	9461
272.610	9268
272.671	6715
272.731	6808
272.791	11689
272.852	5871
272.912	5528
272.972	3852
273.033	3513
273.093	5307
273.153	5189
273.214	4150
273.274	4651
273.334	16306
273.394	48037
273.455	16388
273.515	12307
273.575	34223
273.635	13173
273.696	16253
273.756	50663
273.816	18535
273.876	8582
273.936	15268
273.997	32510
274.057	8324
274.117	6057
274.177	8151
274.237	49754
274.297	51670
274.358	26178
274.418	34238
274.478	25415
274.538	8460
274.598	6392
274.658	23016
274.718	32457
274.778	12530
274.838	6009
274.898	11991
274.958	45067
275.018	50577
275.078	36046
275.138	10131
275.198	5373
275.258	4320
275.318	5135
275.378	8523
275.438	9445
275.498	7780
275.558	17932
275.618	44680
275.678	31983
275.738	12905
275.798	8915
275.858	4407
275.918	2900
275.978	4036
276.038	3889
276.098	3133
276.157	6535
276.217	20889
276.277	9875
276.337	6387
276.397	3295
276.457	3903
276.517	2840
276.576	3027
276.636	2414
276.696	4403
276.756	11503
276.815	9886
276.875	4509
276.935	5518
276.995	4071
277.055	3282
277.114	3029
277.174	3987
277.234	18397
277.293	8810
277.353	4338
277.413	3672
277.472	3635
277.532	3297
277.592	3700
277.651	11905
277.711	25530
277.771	9081
277.830	28969
277.890	25711
277.950	16647
278.009	68776
278.069	24916
278.128	17437
278.188	24344
278.248	9736
278.307	25243
278.367	18600
278.426	6223
278.486	4283
278.545	3555
278.605	3620
278.664	3993
278.724	4624
278.783	13891
278.843	54234
278.902	14754
278.962	6787
279.021	5603
279.081	7120
279.140	6002
279.199	6854
279.259	7418
279.318	8414
279.378	10243
279.437	16743
279.496	72372
279.556	204121
279.615	178216
279.675	41437
279.734	20355
279.793	26281
279.853	61365
279.912	24510
279.971	11290
280.031	9276
280.090	20423
280.149	45172
280.208	23412
280.268	122101
280.327	156245
280.386	32621
280.445	19825
280.505	17000
280.564	8250
280.623	5497
280.682	9799
280.742	17658
280.801	6034
280.860	4851
280.919	3379
280.978	3828
281.037	3380
281.097	3110
281.156	3690
281.215	3230
281.274	4155
281.333	25680
281.392	23561
281.451	5619
281.510	3752
281.569	2645
281.628	2601
281.688	2934
281.747	3048
281.806	2786
281.865	2191
281.924	2371
281.983	1991
282.042	2237
282.101	1887
282.160	1865
282.219	2493
282.278	3227
282.337	10163
282.396	7618
282.454	4010
282.513	3797
282.572	15353
282.631	10007
282.690	3455
282.749	1933
282.808	2986
282.867	3409
282.926	2610
282.985	2237
283.043	1689
283.102	2214
283.161	2327
283.220	7752
283.279	21949
283.338	7647
283.396	3710
283.455	3457
283.514	2680
283.573	4865
283.631	4184
283.690	3008
283.749	2795
283.808	7067
283.866	8161
283.925	3048
283.984	2874
284.043	3271
284.101	4767
284.160	2637
284.219	2095
284.277	3790
284.336	5468
284.395	22567
284.453	22442
284.512	6520
284.570	7875
284.629	6021
284.688	4984
284.746	5587
284.805	5177
284.863	7556
284.922	9257
284.981	11043
285.039	15358
285.098	25042
285.156	70599
285.215	290406
285.273	312063
285.332	113923
285.390	49051
285.449	27028
285.507	15834
285.566	12666
285.624	9233
285.683	7189
285.741	5908
285.799	5789
285.858	5708
285.916	5622
285.975	4460
286.033	3439
286.091	3168
286.150	3103
286.208	2832
286.267	3497
286.325	3712
286.383	4592
286.442	5716
286.500	3109
286.558	3171
286.616	2597
286.675	4339
286.733	3776
286.791	2965
286.850	4064
286.908	5515
286.966	8268
287.024	3630
287.083	2959
287.141	2585
287.199	3547
287.257	4477
287.315	4088
287.374	3540
287.432	11148
287.490	8949
287.548	5276
287.606	4487
287.664	5429
287.723	7165
287.781	8578
287.839	8773
287.897	11370
287.955	15216
288.013	26654
288.071	51658
288.129	210016
288.187	588031
288.245	321616
288.303	104880
288.361	53493
288.419	30609
288.477	19616
288.535	15576
288.593	11636
288.651	9125
288.709	7998
288.767	6839
288.825	5683
288.883	5215
288.941	4131
288.999	3385
289.057	4118
289.115	2824
289.173	3586
289.231	3246
289.289	3088
289.346	2334
289.404	3309
289.462	5327
289.520	5449
289.578	3326
289.636	1941
289.694	1815
289.751	2497
289.809	1741
289.867	2416
289.925	3435
289.983	3591
290.040	2767
290.098	1671
290.156	3021
290.214	3183
290.271	1938
290.329	1992
290.387	1905
290.444	1708
290.502	1390
290.560	921
290.617	1408
290.675	1762
290.733	1109
290.790	2236
290.848	1813
290.906	1389
290.963	1204
291.021	2088
291.078	472
291.136	2026
291.194	5248
291.251	14811
291.309	5061
291.366	1551
291.424	2084
291.481	1529
291.539	1479
291.596	1776
291.654	848
291.711	161
291.769	1788
291.826	4731
291.884	4008
291.941	1921
291.999	896
292.056	1665
292.114	1989
292.171	1413
292.228	2418
292.286	1824
292.343	4687
292.401	5031
292.458	2844
292.515	1128
292.573	3385
292.630	2588
292.687	2321
292.745	1905
292.802	2992
292.859	4791
292.917	17859
292.974	11739
293.031	4242
293.089	2086
293.146	1879
293.203	1558
293.260	1855
293.318	2720
293.375	2374
293.432	2402
293.489	2059
293.546	2402
293.604	3224
293.661	13732
293.718	51230
293.775	21524
293.832	8294
293.889	5817
293.947	5865
294.004	4003
294.061	3006
294.118	6955
294.175	13278
294.232	7580
294.289	4187
294.346	4434
294.403	6044
294.460	4231
294.517	2607
294.574	3102
294.631	2516
294.688	2260
294.745	9283
294.802	47797
294.859	33842
294.916	12284
294.973	8548
295.030	5367
295.087	4966
295.144	3320
295.201	2605
295.258	2348
295.315	4369
295.372	15961
295.429	41463
295.486	15165
295.542	6170
295.599	5991
295.656	7998
295.713	12369
295.770	28913
295.827	10845
295.883	4249
295.940	3898
295.997	6245
296.054	6618
296.111	3070
296.167	2308
296.224	2129
296.281	2156
296.338	1468
296.394	2441
296.451	2726
296.508	11521
296.564	22929
296.621	13395
296.678	40871
296.734	69681
296.791	20493
296.848	9477
296.904	8177
296.961	15754
297.018	35252
297.074	29148
297.131	9998
297.187	6932
297.244	8718
297.301	41582
297.357	92346
297.414	29588
297.470	10773
297.527	6685
297.583	4474
297.640	4203
297.696	2680
297.753	3028
297.809	2578
297.866	1634
297.922	2122
297.979	2809
298.035	2302
298.092	4921
298.148	18986
298.204	18412
298.261	8509
298.317	14624
298.374	57502
298.430	34515
298.486	12126
298.543	8221
298.599	6594
298.656	6297
298.712	13597
298.768	62810
298.824	56098
298.881	16173
298.937	7863
298.993	5353
299.050	4391
299.106	5065
299.162	3478
299.218	4812
299.275	3466
299.331	4232
299.387	10019
299.443	48891
299.500	55744
299.556	19789
299.612	9494
299.668	7725
299.724	10046
299.780	12290
299.837	5513
299.893	6776
299.949	29376
300.005	37839
300.061	30115
300.117	68945
300.173	32393
300.229	10492
300.285	9402
300.341	11989
300.397	6393
300.453	4118
300.510	3879
300.566	4275
300.622	5273
300.678	20952
300.734	37966
300.790	33171
300.845	48917
300.901	25314
300.957	31743
301.013	23777
301.069	8252
301.125	5849
301.181	5604
301.237	3585
301.293	2147
301.349	2988
301.405	2110
301.461	2968
301.516	2175
301.572	1869
301.628	5415
301.684	5141
301.740	8454
301.796	16857
301.851	10617
301.907	16814
301.963	18665
302.019	37829
302.074	140571
302.130	141835
302.186	56604
302.242	21437
302.297	12158
302.353	9815
302.409	19687
302.464	16308
302.520	12344
302.576	39119
302.631	47717
302.687	21326
302.743	8581
302.798	5114
302.854	4427
302.910	4105
302.965	4481
303.021	8735
303.076	7532
303.132	10183
303.187	12304
303.243	6201
303.299	4145
303.354	2599
303.410	3853
303.465	2969
303.521	2759
303.576	2732
303.632	4246
303.687	10477
303.743	45085
303.798	37079
303.853	12831
303.909	7457
303.964	5342
304.020	6692
304.075	9161
304.130	7325
304.186	13551
304.241	15761
304.297	11783
304.352	6751
304.358	6509
304.407	4545
304.449	4545
304.463	4556
304.518	3512
304.539	3627
304.573	3779
304.629	3583
304.630	3656
304.684	7438
304.720	22758
304.739	30361
304.794	54966
304.811	45539
304.850	23116
304.902	10234
304.905	9427
304.960	5863
304.992	7025
305.015	7800
305.071	6804
305.083	6103
305.126	3585
305.173	2847
305.181	2753
305.236	2285
305.264	2742
305.292	3121
305.347	3490
305.354	3466
305.402	3607
305.445	6183
305.457	6835
305.512	8610
305.535	7735
305.567	6635
305.622	5615
305.626	5972
305.678	14427
305.716	34519
305.733	41632
305.788	44584
305.807	37149
305.843	25531
305.897	42100
305.898	42269
305.953	44452
305.988	27593
306.008	18552
306.063	8942
306.078	7848
306.118	5791
306.168	4188
306.173	4043
306.228	3692
306.259	3432
306.283	3315
306.338	3027
306.349	3382
306.393	4938
306.440	6880
306.448	7120
306.503	5948
306.530	5365
306.558	5558
306.613	9852
306.620	10498
306.668	16583
306.711	27174
306.723	28495
306.778	22691
306.801	17048
306.833	11139
306.888	5808
306.892	5625
306.943	4017
306.982	3403
306.997	3270
307.052	3165
307.072	2986
307.107	2700
307.162	3068
307.163	3073
307.217	3677
307.253	4381
307.272	4655
307.327	4307
307.343	4328
307.381	4497
307.434	4982
307.436	5144
307.491	9643
307.524	14288
307.546	16051
307.600	21432
307.614	19797
307.655	12700
307.704	7305
307.710	7074
307.765	7597
307.795	8285
307.819	8851
307.874	11186
307.885	11443
307.929	13444
307.975	17287
307.984	18898
308.038	31466
308.065	40146
308.093	73344
308.148	166086
308.156	189087
308.202	294658
308.246	351618
308.257	344717
308.312	183053
308.336	122156
308.366	84479
308.421	47243
308.426	44649
308.475	28614
308.517	20436
308.530	18550
308.585	14788
308.607	13912
308.639	13264
308.694	12246
308.697	12273
308.748	13125
308.787	14471
308.803	14766
308.857	14433
308.877	14516
308.912	15846
308.967	19502
308.967	19574
309.021	28605
309.058	36317
309.076	48013
309.130	90016
309.148	108911
309.185	211052
309.238	399752
309.239	400712
309.293	424873
309.328	374672
309.348	323099
309.402	149742
309.418	109061
309.457	72242
309.508	41926
309.511	40750
309.566	30305
309.598	26352
309.620	25789
309.674	27467
309.688	28212
309.729	25817
309.778	21133
309.783	20698
309.837	16461
309.868	14262
309.892	17167
309.946	26199
309.959	29012
310.001	36221
310.049	42303
310.055	40846
310.109	23024
310.139	13029
310.163	10017
310.218	6355
310.229	5766
310.272	5528
310.319	5246
310.326	4981
310.381	3656
310.409	2948
310.435	3074
310.489	3291
310.499	3353
310.543	2682
310.589	2095
310.598	2131
310.652	2437
310.679	2505
310.706	2584
310.760	2654
310.769	2709
310.814	2668
310.859	2566
310.868	2562
310.923	2500
310.948	2476
310.977	2814
311.031	3488
311.038	3592
311.085	3144
311.128	2410
311.139	2398
311.193	2749
311.218	2823
311.247	2579
311.301	1924
311.308	1876
311.356	2094
311.398	2152
311.410	2116
311.464	2132
311.488	2023
311.518	2108
311.572	2451
311.578	2477
311.626	3513
311.668	4500
311.680	4373
311.734	3636
311.758	3296
311.788	3128
311.842	2886
311.847	2854
311.896	3475
311.937	4028
311.950	3952
312.004	3578
312.027	3401
312.058	3356
312.112	3280
312.117	3267
312.165	3126
312.207	2995
312.297	2552
312.386	2594
312.476	3689
312.566	5612
312.656	2537
312.745	2185
312.835	3180
312.925	2766
313.015	3319
313.104	1680
313.194	2915
313.284	2264
313.374	3506
313.463	3489
313.553	3289
313.643	2503
313.732	2802
313.822	2260
313.912	2929
314.001	3076
314.091	4030
314.180	3451
314.270	4512
314.360	3613
314.449	4280
314.539	2256
314.628	2925
314.718	2906
314.808	3434
314.897	3497
314.987	3670
315.076	3724
315.166	4579
315.255	4047
315.345	4704
315.434	2906
315.524	3671
315.613	4413
315.703	7557
315.792	14469
315.881	42618
315.971	11650
316.060	6970
316.150	4754
316.239	4764
316.328	3191
316.418	3603
316.507	2916
316.597	5246
316.686	3620
316.775	4020
316.865	4020
316.954	3138
317.043	2034
317.133	3326
317.222	2535
317.311	3504
317.400	1837
317.490	4602
317.579	5079
317.668	4689
317.757	7702
317.847	25707
317.936	73287
318.025	22409
318.114	13660
318.203	6618
318.293	4643
318.382	6229
318.471	6492
318.560	6703
318.649	7801
318.738	2342
318.828	3430
318.917	3828
319.006	3086
319.095	5674
319.184	12407
319.273	12868
319.362	8887
319.451	3761
319.540	3703
319.629	9650
319.718	12478
319.807	4338
319.896	7300
319.985	16905
320.074	8297
320.163	2633
320.252	2790
320.341	3005
320.430	3036
320.519	8040
320.608	3792
320.697	3174
320.786	2785
320.875	5065
320.964	6538
321.053	10698
321.142	14901
321.230	14294
321.319	10701
321.408	22710
321.497	8139
321.586	10449
321.675	6829
321.764	7153
321.852	5608
321.941	14779
322.030	8595
322.119	9909
322.207	23491
322.296	8196
322.385	6807
322.474	12382
322.562	32209
322.651	13044
322.740	11513
322.829	13695
322.917	6578
323.006	7893
323.095	7194
323.183	3750
323.272	4415
323.361	9501
323.449	13435
323.538	5698
323.626	11135
323.715	5742
323.804	4001
323.892	9800
323.981	7938
324.069	4151
324.158	5512
324.246	4593
324.335	5994
324.424	9469
324.512	3201
324.601	3911
324.689	5543
324.778	6792
324.866	5646
324.954	2734
325.043	3057
325.131	4666
325.220	4510
325.308	5237
325.397	5535
325.485	4221
325.574	2158
325.662	2739
325.750	3127
325.839	3305
325.927	1680
326.015	2848
326.104	2698
326.192	3765
326.280	2019
326.369	2625
326.457	4046
326.545	8019
326.634	3104
326.722	2293
326.810	1523
326.898	3271
326.987	3353
327.075	6750
327.163	5084
327.251	2780
327.340	3025
327.428	3621
327.516	3319
327.604	3050
327.692	2588
327.781	2437
327.869	2699
327.957	2403
328.045	2801
328.133	2893
328.221	2031
328.309	3147
328.397	3013
328.485	3356
328.574	5383
328.662	18399
328.750	6772
328.838	3069
328.926	2216
329.014	3009
329.102	3437
329.190	6511
329.278	4897
329.366	3429
329.454	1999
329.542	2889
329.630	1911
329.718	3468
329.806	3621
329.893	4257
329.981	4562
330.069	11278
330.157	57750
330.245	156910
330.333	67850
330.421	10067
330.509	7480
330.597	22288
330.684	11658
330.772	4108
330.860	2363
330.948	3335
331.036	2288
331.123	2417
331.211	1906
331.299	2614
331.387	3220
331.475	4622
331.562	2454
331.650	2717
331.738	1568
331.825	2300
331.913	1782
332.001	2287
332.089	2543
332.176	2816
332.264	4086
332.352	4311
332.439	3196
332.527	3208
332.614	1787
332.702	2416
332.790	2231
332.877	4227
332.965	4758
333.052	3056
333.140	3533
333.228	7236
333.315	2417
333.403	2512
333.490	3860
333.578	4389
333.665	9426
333.753	5246
333.840	2955
333.928	3883
334.015	4527
334.103	6574
334.190	12539
334.278	6674
334.365	5484
334.452	6350
334.540	2966
334.627	4390
334.715	5059
334.802	7254
334.889	18614
334.977	20141
335.064	8074
335.151	4242
335.239	3511
335.326	3507
335.413	8062
335.501	10326
335.588	3674
335.675	3372
335.762	4482
335.850	4493
335.937	6631
336.024	12141
336.111	25378
336.199	17533
336.286	6968
336.373	4415
336.460	3008
336.547	3890
336.635	4175
336.722	3416
336.809	2594
336.896	3630
336.983	7270
337.070	12740
337.157	13188
337.245	10051
337.332	6136
337.419	2095
337.506	2269
337.593	2894
337.680	3612
337.767	8319
337.854	4965
337.941	5289
338.028	5419
338.115	2248
338.202	3991
338.289	5033
338.376	9163
338.463	4400
338.550	5010
338.637	5782
338.724	3040
338.811	4637
338.898	2624
338.984	2604
339.071	1994
339.158	3581
339.245	8596
339.332	4719
339.419	4208
339.506	3908
339.593	1717
339.679	3650
339.766	1603
339.853	4003
339.940	7312
340.027	3447
340.113	3206
340.200	4782
340.287	3291
340.374	4525
340.460	6583
340.547	2445
340.634	6844
340.720	22913
340.807	11422
340.894	3074
340.980	2235
341.067	2647
341.154	4012
341.240	5529
341.327	9887
341.414	3722
341.500	2204
341.587	2910
341.674	2677
341.760	7850
341.847	8290
341.933	4140
342.020	1411
342.106	2008
342.193	2820
342.279	6447
342.366	4839
342.452	7376
342.539	3915
342.625	9736
342.712	22487
342.798	9726
342.885	4288
342.971	2361
343.058	2416
343.144	2526
343.230	2732
343.317	4298
343.403	2315
343.490	3247
343.576	2257
343.662	3382
343.749	3082
343.835	4537
343.921	10543
344.008	80808
344.094	162326
344.180	27004
344.267	8255
344.353	33962
344.439	27170
344.525	9701
344.612	4843
344.698	4579
344.784	2628
344.870	2974
344.957	2976
345.043	5644
345.129	3047
345.215	7016
345.301	3449
345.387	2993
345.474	2271
345.560	2749
345.646	1497
345.732	3446
345.818	2533
345.904	2936
345.990	3169
346.076	3023
346.162	1739
346.249	3732
346.335	2096
346.421	4184
346.507	16973
346.593	53449
346.679	9637
346.765	4343
346.851	3617
346.937	3216
347.023	3539
347.108	4592
347.194	2837
347.280	2980
347.366	4455
347.452	18370
347.538	70570
347.624	42229
347.710	25330
347.796	4779
347.882	2507
347.967	3124
348.053	2697
348.139	3213
348.225	2179
348.311	2519
348.397	2157
348.482	5185
348.568	3649
348.654	3174
348.740	6120
348.825	4915
348.911	7164
348.997	34143
349.083	59235
349.168	7991
349.254	3623
349.340	3367
349.425	2878
349.511	3664
349.597	3508
349.682	8419
349.768	30068
349.854	12346
349.939	2572
350.025	3224
350.110	2835
350.196	2582
350.282	598
350.367	3356
350.453	2076
350.538	3211
350.624	1979
350.709	4256
350.795	2216
350.880	3529
350.966	3294
351.051	4075
351.137	1986
351.222	3588
351.308	9231
351.393	22877
351.479	4245
351.564	2319
351.649	4006
351.735	3112
351.820	2423
351.906	3020
351.991	3087
352.076	17282
352.162	21534
352.247	5291
352.332	3318
352.418	5591
352.503	6709
352.588	33586
352.673	23307
352.759	6222
352.844	2892
352.929	4301
353.014	3927
353.100	4742
353.185	7504
353.270	9437
353.355	7615
353.441	3714
353.526	2583
353.611	8695
353.696	8540
353.781	6504
353.866	3339
353.952	4939
354.037	7690
354.122	17092
354.207	13774
354.292	5629
354.377	3302
354.462	3668
354.547	4120
354.632	5037
354.717	5144
354.802	7596
354.887	3631
354.972	3780
355.057	2165
355.142	2644
355.227	4419
355.312	5790
355.397	10626
355.482	25046
355.567	10800
355.652	10165
355.737	10216
355.822	36859
355.907	26178
355.991	5251
356.076	3099
356.161	3739
356.246	3350
356.331	3802
356.416	10057
356.501	77043
356.585	69714
356.670	7100
356.755	6588
356.840	9146
356.924	52465
357.009	182837
357.094	54121
357.179	10029
357.263	6348
357.348	6641
357.433	5954
357.517	6691
357.602	4494
357.687	5181
357.771	6195
357.856	6113
357.941	7648
358.025	45517
358.110	193189
358.195	73453
358.279	7580
358.364	7409
358.448	22204
358.533	59655
358.617	39553
358.702	42310
358.787	13897
358.871	8407
358.956	6839
359.040	4002
359.125	2653
359.209	2806
359.294	3291
359.378	6057
359.462	7001
359.547	5337
359.631	2504
359.716	2555
359.800	2915
359.885	5150
359.969	3240
360.053	3423
360.138	3117
360.222	4874
360.306	8341
360.391	6403
360.475	7866
360.559	15234
360.644	20728
360.728	15608
360.812	43299
360.896	110167
360.981	30746
361.065	11975
361.149	5103
361.233	5158
361.318	3723
361.402	5122
361.486	5393
361.570	4426
361.654	5286
361.739	14134
361.823	73895
361.907	109286
361.991	14855
362.075	8580
362.159	16026
362.243	13600
362.327	15296
362.411	21655
362.495	9263
362.580	5592
362.664	4709
362.748	4977
362.832	5918
362.916	11064
363.000	38028
363.084	105624
363.168	133352
363.252	25507
363.336	8113
363.420	9469
363.503	12012
363.587	11741
363.671	5209
363.755	5964
363.839	9277
363.923	4695
364.007	10236
364.091	10075
364.175	8318
364.258	25799
364.342	40441
364.426	78700
364.510	36590
364.594	14192
364.677	21414
364.761	98331
364.845	63091
364.929	15314
365.013	12328
365.096	10087
365.180	9925
365.264	8253
365.347	16251
365.431	6806
365.515	4068
365.598	4342
365.682	4914
365.766	3780
365.849	3686
365.933	4118
366.017	5547
366.100	3191
366.184	1466
366.267	4712
366.351	3301
366.435	2951
366.518	2832
366.602	3677
366.685	2749
366.769	4712
366.852	5475
366.936	7702
367.019	5901
367.103	2453
367.186	4600
367.270	3553
367.353	2473
367.436	4311
367.520	3050
367.603	4976
367.687	5672
367.770	9204
367.853	7385
367.937	25051
368.020	37870
368.104	7881
368.187	7840
368.270	9587
368.353	8296
368.437	7998
368.520	8262
368.603	10716
368.687	25052
368.770	45709
368.853	9951
368.936	8808
369.020	5678
369.103	3920
369.186	2524
369.269	3045
369.352	7343
369.436	8703
369.519	5483
369.602	2232
369.685	5527
369.768	3891
369.851	3608
369.934	3154
370.018	3687
370.101	7435
370.184	8489
370.267	4456
370.350	6153
370.433	11646
370.516	46532
370.599	60489
370.682	14539
370.765	21076
370.848	30031
370.931	59345
371.014	19660
371.097	3705
371.180	5021
371.263	4005
371.346	1658
371.429	4273
371.511	2944
371.594	5496
371.677	6990
371.760	6625
371.843	10390
371.926	72527
372.009	154371
372.091	39205
372.174	23846
372.257	64475
372.340	22054
372.423	8874
372.505	7381
372.588	5248
372.671	18946
372.754	59252
372.836	26562
372.919	8678
373.002	9464
373.085	6245
373.167	9605
373.250	24314
373.332	60249
373.415	100168
373.498	204193
373.580	66485
373.663	111220
373.746	139423
373.828	22146
373.911	8483
373.993	6401
374.076	11326
374.159	8791
374.241	14134
374.324	44714
374.406	30916
374.489	61412
374.571	164727
374.654	56338
374.736	29718
374.819	99142
374.901	146727
374.983	145191
375.066	21620
375.148	5858
375.231	9565
375.313	14623
375.395	8028
375.478	3748
375.560	4920
375.643	6915
375.725	29627
375.807	124098
375.890	74320
375.972	10554
376.054	9641
376.136	7498
376.219	6727
376.301	34248
376.383	98247
376.465	33508
376.548	15952
376.630	25437
376.712	76699
376.794	33115
376.877	5378
376.959	2401
377.041	4582
377.123	3103
377.205	4350
377.287	3035
377.369	4177
377.452	2653
377.534	3043
377.616	3856
377.698	3367
377.780	2113
377.862	4387
377.944	4576
378.026	1683
378.108	3389
378.190	3107
378.272	3667
378.354	3078
378.436	1680
378.518	2743
378.600	7291
378.682	11127
378.764	30272
378.846	24489
378.928	6499
379.010	8437
379.091	5931
379.173	3976
379.255	3009
379.337	4874
379.419	16117
379.501	44780
379.583	16906
379.664	5663
379.746	10183
379.828	29384
379.910	39670
379.991	36159
380.073	5142
380.155	5049
380.237	3493
380.318	3384
380.400	2927
380.482	7787
380.564	9043
380.645	10348
380.727	8148
380.809	7051
380.890	3662
380.972	3173
381.053	3734
381.135	5045
381.217	10407
381.298	29487
381.380	13428
381.461	15350
381.543	78213
381.624	92356
381.706	14205
381.787	6124
381.869	8592
381.951	43803
382.032	157622
382.113	86698
382.195	10416
382.276	9774
382.358	23897
382.439	71419
382.521	88665
382.602	139142
382.684	51632
382.765	80919
382.846	69341
382.928	68867
383.009	36130
383.090	28831
383.172	109501
383.253	160203
383.334	63624
383.416	102478
383.497	48387
383.578	12969
383.659	23248
383.741	101346
383.822	255368
383.903	123862
383.984	56561
384.066	112150
384.147	63851
384.228	12901
384.309	8503
384.390	7181
384.471	4647
384.553	6170
384.634	5829
384.715	7675
384.796	4703
384.877	7028
384.958	27998
385.039	32051
385.120	9451
385.201	5883
385.282	4852
385.363	5975
385.444	4538
385.525	13655
385.606	54463
385.687	48110
385.768	8347
385.849	12246
385.930	74459
386.011	129066
386.092	28137
386.173	5662
386.254	3652
386.335	4911
386.416	5590
386.496	17972
386.577	27489
386.658	9041
386.739	3997
386.820	4970
386.901	2679
386.981	5553
387.062	4183
387.143	8868
387.224	29181
387.304	26577
387.385	8706
387.466	4938
387.547	5550
387.627	5799
387.708	13865
387.789	59385
387.869	72355
387.950	20639
388.031	4414
388.111	2356
388.192	4880
388.273	5886
388.353	4406
388.434	5263
388.514	16157
388.595	75365
388.676	82756
388.756	30190
388.837	25347
388.917	16289
388.998	2574
389.078	4776
389.159	3536
389.239	3093
389.320	6973
389.400	4185
389.480	12725
389.561	33363
389.641	16478
389.722	6474
389.802	7971
389.883	16305
389.963	43367
390.043	22680
390.124	4092
390.204	11533
390.284	32897
390.365	20253
390.445	30723
390.525	128495
390.605	110754
390.686	21947
390.766	7126
390.846	5895
390.927	2889
391.007	3027
391.087	4815
391.167	4357
391.247	2238
391.328	5060
391.408	5033
391.488	5075
391.568	1888
391.648	5269
391.728	7887
391.808	8565
391.888	7317
391.969	20266
392.049	27993
392.129	12145
392.209	16478
392.289	41476
392.369	19619
392.449	8660
392.529	7891
392.609	10583
392.689	16176
392.769	43857
392.849	37696
392.929	25866
393.009	57289
393.089	53975
393.169	66918
393.248	251213
393.328	829252
393.408	794586
393.488	196840
393.568	52911
393.648	26356
393.728	19017
393.807	13352
393.887	13602
393.967	13060
394.047	13939
394.127	16174
394.206	33750
394.286	151669
394.366	567590
394.446	549472
394.525	119336
394.605	27637
394.685	17006
394.764	16978
394.844	17909
394.924	15316
395.003	10886
395.083	9373
395.163	9704
395.242	8853
395.322	8681
395.402	6798
395.481	9979
395.561	11973
395.640	25830
395.720	29621
395.799	26517
395.879	26544
395.958	51856
396.038	222728
396.117	743770
396.197	730544
396.276	190915
396.356	50209
396.435	28684
396.515	24490
396.594	29722
396.673	63596
396.753	271708
396.832	726652
396.912	467802
396.991	92781
397.070	27268
397.150	14598
397.229	13614
397.308	17380
397.388	26712
397.467	13780
397.546	7526
397.625	3740
397.705	8471
397.784	6539
397.863	5472
397.942	4198
398.022	3503
398.101	5835
398.180	10062
398.259	4783
398.338	4273
398.417	3654
398.497	2796
398.576	3888
398.655	2648
398.734	3385
398.813	3934
398.892	4072
398.971	9533
399.050	4716
399.129	2192
399.208	1866
399.287	3482
399.366	1476
399.445	2811
399.524	2217
399.603	952
399.682	3363
399.761	8024
399.840	11827
399.919	8136
399.998	2186
400.077	818
400.156	908
400.235	4265
400.313	1355
400.392	2450
400.471	14759
400.550	22108
400.629	5422
400.708	4138
400.786	1394
400.865	3274
400.944	2509
401.023	4516
401.102	1080
401.180	2345
401.259	1335
401.338	2408
401.416	2634
401.495	1517
401.574	2367
401.652	1245
401.731	3196
401.810	2321
401.888	1854
401.967	1379
402.046	1145
402.124	2756
402.203	1244
402.281	2483
402.360	1414
402.438	4267
402.517	1698
402.596	2460
402.674	525
402.753	1716
402.831	1836
402.910	3970
402.988	12015
403.066	41622
403.145	23385
403.223	13830
403.302	33457
403.380	25555
403.459	23175
403.537	9068
403.615	3729
403.694	1303
403.772	1776
403.850	2492
403.929	1135
404.007	1206
404.085	4694
404.164	5573
404.242	1493
404.320	4022
404.398	6958
404.477	23174
404.555	101616
404.633	82883
404.711	11241
404.789	3968
404.868	2135
404.946	2133
405.024	775
405.102	1686
405.180	213
405.258	377
405.336	1552
405.415	1382
405.493	2724
405.571	4091
405.649	846
405.727	754
405.805	2740
405.883	3634
405.961	2381
406.039	1118
406.117	311
406.195	4275
406.273	20998
406.351	76513
406.429	40543
406.507	4058
406.585	1114
406.663	2820
406.740	3537
406.818	2207
406.896	1468
406.974	3034
407.052	6488
407.130	42801
407.208	55633
407.285	10723
407.363	1278
407.441	1650
407.519	1719
407.596	4850
407.674	20815
407.752	73484
407.830	48341
407.907	7608
407.985	2004
408.063	2028
408.141	-200
408.218	2398
408.296	749
408.373	2735
408.451	2677
408.529	1961
408.606	744
408.684	1835
408.762	633
408.839	2167
408.917	1269
408.994	1817
409.072	323
409.149	1061
409.227	3362
409.304	4722
409.382	3767
409.459	6051
409.537	6793
409.614	5197
409.692	3622
409.769	4095
409.846	6864
409.924	8694
410.001	3569
410.079	3441
410.156	3737
410.233	2676
410.311	2765
410.388	1624
410.465	2186
410.543	967
410.620	2220
410.697	2254
410.775	1986
410.852	678
410.929	2161
411.006	2781
411.083	1194
411.161	1877
411.238	1849
411.315	1410
411.392	739
411.469	2412
411.547	1847
411.624	244
411.701	-248
411.778	2395
411.855	4265
411.932	1987
412.009	772
412.086	1325
412.163	614
412.240	1428
412.317	1268
412.394	768
412.471	677
412.548	1250
412.625	661
412.702	1099
412.779	1810
412.856	2008
412.933	-58
413.010	1316
413.087	1592
413.164	11687
413.241	16995
413.318	3465
413.395	1984
413.471	3438
413.548	1373
413.625	1475
413.702	-5
413.779	540
413.855	517
413.932	552
414.009	79
414.086	1006
414.162	779
414.239	2980
414.316	12223
414.393	28846
414.469	8726
414.546	245
414.623	431
414.699	924
414.776	806
414.853	285
414.929	979
415.006	693
415.082	363
415.159	471
415.236	1018
415.312	1837
415.389	2205
415.465	3461
415.542	1196
415.618	1655
415.695	2521
415.771	1589
415.848	735
415.924	1385
416.000	-71
416.077	1353
416.153	-808
416.230	-854
416.306	689
416.383	462
416.459	1199
416.535	424
416.612	-155
416.688	839
416.764	430
416.841	96
416.917	351
416.993	800
417.069	1068
417.146	1979
417.222	4581
417.298	1710
417.374	444
417.451	1423
417.527	1060
417.603	1866
417.679	1200
417.755	1326
417.831	-911
417.908	941
417.984	-454
418.060	22
418.136	2801
418.212	4325
418.288	1113
418.364	1612
418.440	346
418.516	2211
418.592	412
418.668	4108
418.744	7042
418.820	5680
418.896	1083
418.972	-134
419.048	109
419.124	4528
419.200	1326
419.276	980
419.352	-723
419.428	478
419.504	835
419.579	1139
419.655	1096
419.731	1351
419.807	4642
419.883	9631
419.959	5703
420.034	2065
420.110	3807
420.186	17272
420.262	13804
420.337	1912
420.413	663
420.489	646
420.565	1659
420.640	828
420.716	1303
420.792	663
420.867	1470
420.943	975
421.019	2041
421.094	1912
421.170	679
421.245	982
421.321	2054
421.397	2792
421.472	15661
421.548	39989
421.623	19164
421.699	4131
421.774	2694
421.850	2419
421.925	5165
422.001	5339
422.076	4649
422.152	4872
422.227	8013
422.302	10889
422.378	16521
422.453	35168
422.529	99900
422.604	323464
422.679	512274
422.755	285520
422.830	81866
422.905	29995
422.981	15618
423.056	10023
423.131	7545
423.207	6279
423.282	5026
423.357	7372
423.432	4275
423.508	5221
423.583	9026
423.658	7475
423.733	2534
423.808	2475
423.883	3310
423.959	2858
424.034	2903
424.109	2147
424.184	1197
424.259	921
424.334	198
424.409	82
424.484	636
424.559	1343
424.634	-212
424.709	1723
424.784	2278
424.859	1605
424.934	1757
425.009	11607
425.084	18524
425.159	5441
425.234	776
425.309	92
425.384	21
425.459	119
425.534	563
425.609	-118
425.683	-126
425.758	463
425.833	897
425.908	1718
425.983	6495
426.058	19887
426.132	6379
426.207	565
426.282	1350
426.357	-27
426.431	225
426.506	315
426.581	-404
426.655	679
426.730	185
426.805	206
426.879	847
426.954	842
427.029	2848
427.103	23065
427.178	57723
427.253	22159
427.327	1075
427.402	388
427.476	619
427.551	140
427.625	62
427.700	234
427.774	-873
427.849	1272
427.923	-313
427.998	1220
428.072	104
428.147	5129
428.221	30987
428.296	93240
428.370	41636
428.444	3460
428.519	826
428.593	1119
428.667	372
428.742	2614
428.816	8789
428.890	52095
428.965	73558
429.039	14527
429.113	1822
429.188	577
429.262	-704
429.336	2563
429.410	7317
429.485	4186
429.559	341
429.633	205
429.707	1516
429.781	7440
429.855	46443
429.930	65678
430.004	14977
430.078	9089
430.152	33752
430.226	137809
430.300	121900
430.374	14470
430.448	2480
430.522	3287
430.596	7222
430.670	18702
430.744	93389
430.818	111741
430.892	15871
430.966	1763
431.040	150
431.114	-624
431.188	-716
431.262	310
431.336	-958
431.410	1107
431.484	1358
431.557	3336
431.631	-565
431.705	2446
431.779	21842
431.853	84816
431.927	49679
432.000	3826
432.074	-485
432.148	351
432.222	-354
432.295	-174
432.369	-72
432.443	1855
432.516	22195
432.590	58720
432.664	16437
432.737	621
432.811	-739
432.885	796
432.958	-1004
433.032	-657
433.106	-1076
433.179	-52
433.253	-68
433.326	-470
433.400	-688
433.473	351
433.547	-1175
433.620	-434
433.694	917
433.767	1186
433.841	-1288
433.914	-631
433.988	-969
434.061	-275
434.134	-1325
434.208	-700
434.281	-916
434.355	-978
434.428	-407
434.501	-881
434.575	-977
434.648	-122
434.721	-1490
434.795	-50
434.868	-725
434.941	-458
435.014	-1574
435.088	-535
435.161	-431
435.234	1114
435.307	94
435.381	579
435.454	450
435.527	2560
435.600	1463
435.673	1751
435.746	384
435.819	-31
435.892	13
435.966	-229
436.039	-1347
436.112	-107
436.185	-429
436.258	-1285
436.331	-1573
436.404	-329
436.477	-793
436.550	-1324
436.623	-528
436.696	-276
436.769	-385
436.842	-348
436.915	-1157
436.987	-500
437.060	-768
437.133	-314
437.206	-1674
437.279	-133
437.352	-906
437.425	6
437.498	-276
437.570	1219
437.643	822
437.716	78
437.789	-930
437.861	548
437.934	652
438.007	940
438.080	-1314
438.152	-647
438.225	3253
438.298	37793
438.370	93573
438.443	27902
438.516	2061
438.588	-51
438.661	-1168
438.734	-59
438.806	-1256
438.879	-473
438.951	-1184
439.024	-306
439.096	-653
439.169	-967
439.241	-870
439.314	-798
439.386	-1197
439.459	-554
439.531	-1334
439.604	-624
439.676	-764
439.749	-657
439.821	-469
439.893	-523
439.966	-1458
440.038	-555
440.110	-582
440.183	-880
440.255	-828
440.327	1126
440.400	10665
440.472	47045
440.544	25935
440.617	1020
440.689	472
440.761	681
440.833	754
440.905	403
440.978	-1510
441.050	-516
441.122	-70
441.194	-565
441.266	-968
441.338	-509
441.411	913
441.483	12151
441.555	15519
441.627	2006
441.699	-629
441.771	374
441.843	-1021
441.915	-136
441.987	-657
442.059	-63
442.131	-139
442.203	635
442.275	95
442.347	2162
442.419	5084
442.491	38689
442.563	78437
442.635	23346
442.706	4043
442.778	2461
442.850	-852
442.922	111
442.994	96
443.066	805
443.137	-390
443.209	585
443.281	2344
443.353	8527
443.425	49987
443.496	167657
443.568	133715
443.640	36524
443.711	4263
443.783	1492
443.855	220
443.926	667
443.998	-1245
444.070	512
444.141	-125
444.213	710
444.285	716
444.356	660
444.428	-344
444.499	632
444.571	-1155
444.642	-317
444.714	-829
444.785	987
444.857	569
444.928	503
445.000	-234
445.071	1503
445.143	946
445.214	2569
445.285	3940
445.357	20759
445.428	120122
445.500	243952
445.571	118181
445.642	54218
445.714	11382
445.785	4009
445.856	1024
445.928	2185
445.999	258
446.070	1064
446.141	639
446.213	1793
446.284	33
446.355	694
446.426	-554
446.497	354
446.569	-499
446.640	886
446.711	679
446.782	-469
446.853	-1045
446.924	623
446.995	251
447.066	-108
447.138	-730
447.209	308
447.280	-578
447.351	-660
447.422	-920
447.493	-679
447.564	-661
447.635	986
447.706	-1088
447.777	-335
447.847	-1495
447.918	-723
447.989	-365
448.060	-337
448.131	-927
448.202	802
448.273	9
448.344	-558
448.414	-885
448.485	-450
448.556	-1040
448.627	169
448.698	371
448.768	-843
448.839	-1618
448.910	-336
448.981	-450
449.051	-527
449.122	-1383
449.193	-644
449.263	-1201
449.334	-410
449.405	699
449.475	1927
449.546	948
449.616	898
449.687	798
449.758	-271
449.828	-320
449.899	-13
449.969	-801
450.040	393
450.110	-678
450.181	-66
450.251	-735
450.322	161
450.392	-93
450.463	137
450.533	-499
450.604	-55
450.674	-471
450.744	-234
450.815	-960
450.885	679
450.955	-741
451.026	-110
451.096	-438
451.166	-119
451.237	-521
451.307	1011
451.377	662
451.447	-939
451.518	-1052
451.588	-603
451.658	-795
451.728	-207
451.799	-88
451.869	849
451.939	-971
452.009	-28
452.079	-1350
452.149	596
452.219	-474
452.289	1665
452.360	629
452.430	108
452.500	-237
452.570	792
452.640	2091
452.710	5706
452.780	5267
452.850	5127
452.920	2971
452.990	406
453.060	921
453.129	-135
453.199	-620
453.269	1703
453.339	2838
453.409	3982
453.479	3886
453.549	6702
453.619	5461
453.688	925
453.758	48
453.828	283
453.898	-391
453.968	-448
454.037	38
454.087	218
454.107	284
454.168	-87
454.177	-153
454.247	-52
454.249	-76
454.316	-1108
454.330	-889
454.386	-89
454.411	-266
454.456	-682
454.492	14
454.525	622
454.574	142
454.595	-78
454.655	-132
454.665	-135
454.734	-995
454.736	-936
454.804	495
454.817	611
454.873	915
454.898	959
454.943	1032
454.979	314
455.013	-353
455.060	178
455.082	455
455.141	537
455.152	573
455.221	1515
455.222	1565
455.291	2865
455.303	3800
455.360	7278
455.384	10445
455.430	14650
455.465	9726
455.499	5602
455.546	2695
455.569	1396
455.627	1309
455.638	1296
455.707	-331
455.708	-316
455.777	1
455.789	18
455.846	20
455.869	273
455.916	711
455.950	157
455.985	-327
456.031	38
456.054	125
456.112	466
456.124	546
456.193	315
456.193	303
456.262	-176
456.274	33
456.332	962
456.355	721
456.401	256
456.436	257
456.470	191
456.516	-49
456.540	-165
456.597	220
456.609	305
456.678	248
456.678	235
456.747	62
456.759	-32
456.817	-57
456.840	239
456.886	431
456.920	128
456.955	-5
457.001	324
457.024	416
457.082	168
457.093	155
457.162	1148
457.163	1158
457.232	-228
457.243	-71
457.301	857
457.324	447
457.370	-228
457.405	191
457.439	465
457.485	399
457.508	476
457.566	1009
457.577	1170
457.646	2344
457.647	2373
457.715	4790
457.727	5090
457.784	7564
457.808	10125
457.853	12630
457.889	13177
457.922	12374
457.969	8122
457.991	8304
458.050	11621
458.060	12140
458.129	22436
458.130	22660
458.198	18821
458.211	16125
458.267	7596
458.292	5126
458.336	3673
458.372	3848
458.405	6161
458.453	10555
458.474	12941
458.533	22140
458.543	22666
458.611	33748
458.614	33760
458.680	17492
458.694	13045
458.749	5042
458.775	3890
458.818	2775
458.855	2111
458.887	1762
458.936	1605
458.955	1488
459.016	1133
459.024	1162
459.093	1897
459.097	1894
459.162	998
459.177	990
459.230	1446
459.257	1533
459.299	1478
459.338	1731
459.368	1943
459.418	1889
459.437	1715
459.499	1563
459.505	1601
459.574	1974
459.579	1977
459.643	1819
459.659	1784
459.711	1832
459.740	1854
459.780	1690
459.820	1459
459.849	1230
459.900	1366
459.917	1402
459.981	1020
459.986	1015
460.054	1786
460.061	1765
460.123	1488
460.141	1605
460.191	2254
460.222	2381
460.260	2259
460.302	2566
460.328	2702
460.382	2284
460.397	2353
460.462	3948
460.465	4258
460.534	10202
460.543	11160
460.602	31699
460.623	39563
460.671	59990
460.703	80484
460.739	70458
460.783	44495
460.808	35521
460.864	7234
460.876	4780
460.944	2682
460.945	2650
461.013	2878
461.024	2670
461.081	1748
461.104	1857
461.150	1920
461.184	1909
461.218	2124
461.264	2195
461.286	2340
461.345	2195
461.355	2091
461.423	2224
461.425	2210
461.491	1969
461.505	2179
461.559	3167
461.585	3021
461.628	2763
461.665	3520
461.696	3892
461.745	3741
461.764	3418
461.825	2359
461.832	2354
461.901	1857
461.905	1872
461.969	1652
461.985	1551
462.037	1999
462.065	2254
462.105	1937
462.145	1693
462.173	2039
462.225	2636
462.241	2890
462.305	3791
462.310	3709
462.378	2550
462.385	2382
462.446	2082
462.465	2182
462.514	2658
462.545	2718
462.582	2609
462.625	2569
462.650	2288
462.705	1687
462.718	1813
462.785	2716
462.786	2722
462.854	2263
462.865	2261
462.922	2691
462.945	2875
462.990	2548
463.025	2224
463.058	2151
463.104	1992
463.126	1992
463.184	2290
463.194	2342
463.262	2203
463.264	2216
463.330	2732
463.344	2754
463.398	3045
463.424	3177
463.466	2376
463.504	1765
463.533	2118
463.583	2724
463.601	2683
463.663	2328
463.669	2349
463.737	2881
463.743	2902
463.805	3467
463.823	3683
463.873	4673
463.903	5186
463.940	4971
463.982	4847
464.008	4340
464.062	3047
464.076	2894
464.142	2073
464.144	2100
464.211	3151
464.221	3321
464.279	3444
464.301	3415
464.347	3254
464.381	3204
464.414	3138
464.461	2965
464.482	3087
464.540	3412
464.550	3380
464.617	3199
464.620	3192
464.685	5158
464.699	5507
464.753	6898
464.779	7749
464.820	8702
464.859	9517
464.888	8431
464.938	6342
464.956	6671
465.018	7645
465.023	7565
465.091	6772
465.098	6664
465.158	6334
465.177	6239
465.226	6549
465.257	6658
465.293	6743
465.336	7016
465.361	7541
465.416	8478
465.428	8482
465.495	8653
465.496	8664
465.563	8239
465.575	8193
465.631	9202
465.654	9601
465.698	8194
465.734	7004
465.765	6747
465.813	6197
465.833	6597
465.893	7952
465.900	7912
465.968	7448
465.972	7402
466.035	7519
466.052	7523
466.102	7965
466.131	8236
466.170	8335
466.210	8358
466.237	8443
466.290	8663
466.304	8887
466.369	9639
466.372	9686
466.439	10733
466.449	10853
466.506	11104
466.528	11189
466.573	12029
466.607	12562
466.641	13592
466.687	15096
466.708	15805
466.766	17562
466.775	17145
466.842	13818
466.845	13635
466.909	12930
466.925	12738
466.977	12234
467.004	11910
467.044	12462
467.083	13023
467.111	14470
467.163	17097
467.178	17084
467.242	16883
467.245	16806
467.312	14587
467.321	14270
467.379	13009
467.400	12513
467.446	12068
467.480	11710
467.559	11956
467.638	11129
467.717	11482
467.796	10898
467.875	12126
467.955	10391
468.034	12235
468.113	13595
468.192	15545
468.271	11257
468.350	12130
468.429	14033
468.508	13523
468.588	10972
468.667	9321
468.746	8702
468.825	8884
468.904	8338
468.983	8029
469.062	8146
469.141	9951
469.220	7868
469.299	8608
469.378	9142
469.456	14832
469.535	11400
469.614	10651
469.693	9411
469.772	10459
469.851	10051
469.930	9642
470.009	9234
470.088	9453
470.166	10552
470.245	11454
470.324	11770
470.403	10688
470.482	8821
470.560	8636
470.639	8293
470.718	9841
470.797	8256
470.875	8955
470.954	9617
471.033	9478
471.111	7525
471.190	8622
471.269	6578
471.347	7565
471.426	8125
471.505	10105
471.583	10938
471.662	10949
471.740	8479
471.819	9756
471.898	7996
471.976	9926
472.055	8567
472.133	9212
472.212	10693
472.290	8370
472.369	8325
472.447	8378
472.526	6972
472.604	8806
472.683	8608
472.761	8864
472.839	7736
472.918	7993
472.996	6858
473.075	7908
473.153	8139
473.231	7913
473.310	7649
473.388	7178
473.466	7250
473.545	10402
473.623	11055
473.701	9915
473.780	7719
473.858	6638
473.936	9743
474.014	8139
474.093	8421
474.171	8637
474.249	8978
474.327	8131
474.405	6098
474.484	7320
474.562	6640
474.640	7721
474.718	8418
474.796	8800
474.874	8260
474.952	7139
475.030	7723
475.108	9343
475.187	10209
475.265	9659
475.343	10395
475.421	12459
475.499	6685
475.577	7695
475.655	7366
475.733	8294
475.811	11113
475.889	9884
475.966	7247
476.044	7048
476.122	7473
476.200	9412
476.278	7895
476.356	5755
476.434	5576
476.512	7860
476.590	8161
476.667	7739
476.745	4593
476.823	7321
476.901	5430
476.979	6030
477.056	5542
477.134	5488
477.212	6678
477.290	6860
477.367	5597
477.445	5447
477.523	5444
477.601	5790
477.678	5149
477.756	5633
477.834	5299
477.911	4743
477.989	5559
478.066	5536
478.144	5732
478.222	7279
478.299	10148
478.377	10001
478.454	5635
478.532	5856
478.609	4553
478.687	6449
478.764	5349
478.842	4914
478.919	4984
478.997	5728
479.074	5087
479.152	4713
479.229	5514
479.307	3739
479.384	4020
479.461	5097
479.539	3961
479.616	5886
479.694	3620
479.771	4537
479.848	4455
479.926	3866
480.003	6496
480.080	5033
480.157	4410
480.235	3978
480.312	4300
480.389	5014
480.467	5645
480.544	6001
480.621	4217
480.698	5445
480.775	4707
480.853	4675
480.930	4542
481.007	5806
481.084	6561
481.161	9427
481.238	6524
481.315	4072
481.392	4425
481.470	3472
481.547	3821
481.624	4508
481.701	4421
481.778	3746
481.855	4540
481.932	6094
482.009	7047
482.086	6632
482.163	5107
482.240	7957
482.317	11887
482.393	9898
482.470	6052
482.547	5606
482.624	4647
482.701	4613
482.778	3882
482.855	4173
482.932	3178
483.009	4647
483.085	5060
483.162	7480
483.239	7153
483.316	4581
483.393	5821
483.469	5129
483.546	5040
483.623	4815
483.699	4011
483.776	4472
483.853	4671
483.930	6630
484.006	9359
484.083	16897
484.160	27215
484.236	45385
484.313	31425
484.389	24133
484.466	22216
484.543	20532
484.619	20905
484.696	22087
484.772	20611
484.849	20536
484.925	18690
485.002	19623
485.078	18937
485.155	18238
485.231	17385
485.308	17814
485.384	17488
485.461	18074
485.537	18734
485.614	20963
485.690	16633
485.766	16526
485.843	17139
485.919	21470
485.995	20274
486.072	16166
486.148	16019
486.224	15303
486.301	14636
486.377	17035
486.453	14697
486.530	19287
486.606	26991
486.682	25978
486.758	23355
486.835	23676
486.911	19996
486.987	25625
487.063	31420
487.139	40059
487.215	31654
487.292	21215
487.368	18747
487.444	19096
487.520	23042
487.596	25851
487.672	45774
487.748	105483
487.824	138093
487.900	42511
487.976	21236
488.052	17878
488.128	18092
488.204	16285
488.280	15582
488.356	17379
488.432	18894
488.508	20397
488.584	16582
488.660	15346
488.736	15452
488.812	14871
488.888	19481
488.964	22667
489.039	37968
489.115	50226
489.191	31787
489.267	15190
489.343	14826
489.418	12689
489.494	12954
489.570	10973
489.646	14291
489.722	13089
489.797	12721
489.873	15003
489.949	16676
490.024	16275
490.100	11731
490.176	12691
490.251	13413
490.327	17270
490.403	11493
490.478	12969
490.554	11443
490.629	11529
490.705	10341
490.781	11957
490.856	9988
490.932	13122
491.007	12144
491.083	11124
491.158	10462
491.234	12693
491.309	13796
491.385	13651
491.460	9412
491.536	10970
491.611	10169
491.686	11928
491.762	13206
491.837	23183
491.913	36558
491.988	46135
492.063	56080
492.139	14134
492.214	10617
492.289	9580
492.365	8782
492.440	10132
492.515	8419
492.590	10085
492.666	7149
492.741	9648
492.816	9576
492.891	7323
492.967	9564
493.042	8045
493.117	9493
493.192	9800
493.267	17736
493.342	45528
493.418	53156
493.493	11190
493.568	7794
493.643	7979
493.718	8563
493.793	9082
493.868	11888
493.943	9992
494.018	8658
494.093	6945
494.168	5801
494.243	6695
494.318	6125
494.393	7275
494.468	6781
494.543	6366
494.618	7760
494.693	6801
494.768	5888
494.842	7010
494.917	7215
494.992	8131
495.067	6242
495.142	6868
495.217	7326
495.292	6921
495.366	8073
495.441	7808
495.516	9081
495.591	15371
495.665	47278
495.740	95209
495.815	38767
495.890	7967
495.964	6382
496.039	10240
496.114	8062
496.188	11951
496.263	10355
496.338	6756
496.412	7916
496.487	9964
496.561	9146
496.636	10835
496.710	8758
496.785	9409
496.860	9943
496.934	8911
497.009	9885
497.083	10538
497.158	9896
497.232	10420
497.307	12888
497.381	12866
497.455	15240
497.530	17635
497.604	15811
497.679	17135
497.753	24291
497.827	31907
497.902	33467
497.976	35498
498.050	41775
498.125	77937
498.199	76626
498.273	49709
498.348	47124
498.422	39323
498.496	32212
498.570	26711
498.645	21690
498.719	17761
498.793	17797
498.867	17769
498.941	18138
499.016	32296
499.090	57342
499.164	23475
499.238	10035
499.312	9393
499.386	11500
499.460	9820
499.534	7928
499.609	8067
499.683	8758
499.757	9702
499.831	14206
499.905	38976
499.979	30061
500.053	9789
500.127	11043
500.201	11473
500.275	7511
500.349	7285
500.422	6972
500.496	11121
500.570	21241
500.644	31553
500.718	34425
500.792	11221
500.866	6455
500.940	7037
501.013	5609
501.087	6023
501.161	10295
501.235	10515
501.309	16470
501.382	33048
501.456	27401
501.530	10350
501.603	11377
501.677	6149
501.751	4133
501.825	6852
501.898	8066
501.972	14378
502.046	8781
502.119	5014
502.193	10572
502.266	15237
502.340	7502
502.413	9020
502.487	13176
502.561	7668
502.634	5636
502.708	7140
502.781	4778
502.855	6048
502.928	3529
503.002	4895
503.075	3594
503.149	3864
503.222	4771
503.295	4498
503.369	4741
503.442	5919
503.516	12281
503.589	23749
503.662	14175
503.736	7648
503.809	14380
503.882	11378
503.956	18260
504.029	26884
504.102	55289
504.175	68930
504.249	22264
504.322	9536
504.395	7796
504.468	5298
504.542	4197
504.615	4631
504.688	4736
504.761	3539
504.834	6744
504.907	7940
504.980	10213
505.053	5664
505.127	5069
505.200	8954
505.273	4296
505.346	3999
505.419	3227
505.492	4829
505.565	2958
505.638	3608
505.711	3247
505.784	3844
505.857	2530
505.930	5133
506.003	2878
506.076	6034
506.149	3897
506.221	2909
506.294	5728
506.367	6538
506.440	18079
506.513	10182
506.586	4216
506.659	3366
506.731	4181
506.804	4663
506.877	6692
506.950	4188
507.022	4045
507.095	2319
507.168	4629
507.241	5213
507.313	3648
507.386	3890
507.459	7548
507.531	5504
507.604	3080
507.677	4696
507.749	2990
507.822	7665
507.894	14164
507.967	17639
508.040	10336
508.112	9346
508.185	7878
508.257	7115
508.330	11019
508.402	7567
508.475	7070
508.547	8127
508.620	6550
508.692	7831
508.765	7545
508.837	5650
508.909	5965
508.982	6361
509.054	7841
509.127	6002
509.199	6724
509.271	5710
509.344	6510
509.416	6249
509.488	5310
509.560	7541
509.633	7163
509.705	7540
509.777	7037
509.849	9559
509.922	5643
509.994	5403
510.066	7049
510.138	8536
510.210	19703
510.283	15619
510.355	12752
510.427	11208
510.499	9714
510.571	9360
510.643	8257
510.715	13909
510.787	9643
510.859	10141
510.931	9008
511.003	11607
511.076	12196
511.148	8167
511.219	7372
511.291	9544
511.363	9446
511.435	8118
511.507	6243
511.579	8830
511.651	8582
511.723	7023
511.795	7490
511.867	7048
511.939	8414
512.010	9025
512.082	10337
512.154	7974
512.226	8203
512.298	15565
512.369	18795
512.441	15650
512.513	13427
512.585	11048
512.656	11301
512.728	10315
512.800	9841
512.871	10108
512.943	10025
513.015	7716
513.086	10731
513.158	10476
513.230	9468
513.301	12814
513.373	13760
513.444	9548
513.516	8927
513.588	8503
513.659	9733
513.731	10840
513.802	9174
513.874	17494
513.945	24513
514.016	11153
514.088	9096
514.159	8819
514.231	13051
514.302	16782
514.374	13451
514.445	10041
514.516	13466
514.588	10427
514.659	9685
514.730	12453
514.802	13532
514.873	16731
514.944	18326
515.016	13872
515.087	11777
515.158	11879
515.229	15015
515.301	19277
515.372	27469
515.443	16149
515.514	11853
515.585	9029
515.656	9590
515.728	10000
515.799	8042
515.870	10226
515.941	9664
516.012	8926
516.083	14102
516.154	13630
516.225	15368
516.296	14905
516.367	11025
516.438	11618
516.509	13247
516.580	18782
516.651	50070
516.722	137917
516.793	63039
516.864	15458
516.935	14146
517.006	15218
517.077	21164
517.148	50366
517.219	159893
517.289	221823
517.360	39995
517.431	14420
517.502	9058
517.573	10506
517.643	10684
517.714	11992
517.785	12334
517.856	12047
517.926	13779
517.997	14494
518.068	14746
518.138	20189
518.209	32568
518.280	127088
518.350	383681
518.421	141692
518.492	18357
518.562	14413
518.633	14866
518.703	18682
518.774	41477
518.845	97073
518.915	78503
518.986	23901
519.056	16537
519.127	23087
519.197	28158
519.268	31532
519.338	16602
519.408	11339
519.479	14265
519.549	10792
519.620	10287
519.690	8686
519.760	7650
519.831	8084
519.901	7054
519.971	7154
520.042	6341
520.112	6668
520.182	8690
520.253	9469
520.323	7026
520.393	6501
520.463	9297
520.534	4464
520.604	9606
520.674	8122
520.744	6081
520.814	8891
520.885	10877
520.955	11931
521.025	22597
521.095	10144
521.165	7500
521.235	6097
521.305	5762
521.375	6183
521.445	8320
521.515	9284
521.585	11127
521.655	8006
521.725	9340
521.795	8374
521.865	4406
521.935	8891
522.005	5360
522.075	5632
522.145	6921
522.215	6175
522.285	7011
522.355	7297
522.424	10443
522.494	8916
522.564	9750
522.634	20757
522.704	48809
522.774	18938
522.843	7766
522.913	7727
522.983	7745
523.053	7292
523.122	7008
523.192	9156
523.262	29700
523.331	25841
523.401	8418
523.471	5971
523.540	5878
523.610	5238
523.680	5502
523.749	5995
523.819	6573
523.888	5732
523.958	4246
524.027	4745
524.097	5471
524.166	5476
524.236	5059
524.305	7718
524.375	4363
524.444	4348
524.514	6703
524.583	4626
524.653	5107
524.722	6343
524.791	3828
524.861	6271
524.930	4108
524.999	5513
525.069	7701
525.138	5674
525.207	4813
525.277	6457
525.346	5427
525.415	6540
525.484	6725
525.554	5972
525.623	8053
525.692	10058
525.761	9158
525.830	9731
525.900	11801
525.969	18753
526.038	32751
526.107	76095
526.176	199289
526.245	138584
526.314	46698
526.383	108102
526.452	133849
526.522	249893
526.591	192466
526.660	40280
526.729	21962
526.797	29368
526.867	61155
526.935	233769
527.004	528984
527.073	242139
527.142	19469
527.211	10389
527.280	9806
527.349	9630
527.418	4665
527.487	6539
527.555	4620
527.624	5296
527.693	3508
527.762	6507
527.831	3091
527.899	5079
527.968	4335
528.037	3279
528.106	6580
528.174	10465
528.243	6577
528.312	9476
528.380	11709
528.449	4223
528.518	5496
528.586	2406
528.655	4450
528.723	3587
528.792	4015
528.861	3173
528.929	2318
528.998	4823
529.066	3262
529.135	3607
529.203	2203
529.272	2115
529.340	4489
529.409	5553
529.477	3378
529.545	2296
529.614	5919
529.682	2926
529.751	3490
529.819	6484
529.887	3902
529.956	3550
530.024	4760
530.092	2885
530.161	6017
530.229	7401
530.297	3749
530.365	4943
530.434	4537
530.502	3614
530.570	4121
530.638	2097
530.707	3854
530.775	5093
530.843	2944
530.911	2788
530.979	3577
531.047	3519
531.115	4052
531.183	2770
531.252	4802
531.320	3547
531.388	2438
531.456	3396
531.524	1686
531.592	4813
531.660	5749
531.728	3485
531.796	2372
531.864	4252
531.932	4634
532.000	3491
532.067	3616
532.135	4358
532.203	5806
532.271	4546
532.339	9577
532.407	22208
532.475	11810
532.542	5645
532.610	7424
532.678	9015
532.746	42037
532.814	87245
532.881	19486
532.949	4994
533.017	4051
533.084	4847
533.152	3491
533.220	4175
533.287	4217
533.355	3683
533.423	3845
533.490	3469
533.558	4640
533.625	4100
533.693	3803
533.761	4458
533.828	4163
533.896	3428
533.963	8598
534.031	10062
534.098	12828
534.166	6621
534.233	3482
534.300	5617
534.368	4523
534.435	4651
534.503	5370
534.570	5757
534.637	5051
534.705	7196
534.772	10202
534.840	22554
534.907	102532
534.974	99532
535.041	11159
535.109	4971
535.176	4342
535.243	4570
535.310	4683
535.378	3181
535.445	5660
535.512	4885
535.579	4646
535.646	4023
535.714	4706
535.781	7009
535.848	5368
535.915	5693
535.982	3995
536.049	4108
536.116	6278
536.183	5304
536.250	5009
536.317	4607
536.384	6458
536.451	9606
536.518	8805
536.585	4599
536.652	8260
536.719	11291
536.786	7292
536.853	5911
536.920	10230
536.987	14536
537.053	14365
537.120	49655
537.187	36193
537.254	5183
537.321	5197
537.388	7229
537.454	4352
537.521	4132
537.588	4627
537.654	6949
537.721	6911
537.788	6771
537.855	4604
537.921	5927
537.988	5112
538.055	5247
538.121	4430
538.188	6224
538.254	9829
538.321	16985
538.388	9957
538.454	5920
538.521	6094
538.587	5673
538.654	4873
538.720	5226
538.787	5006
538.853	5426
538.920	5535
538.986	5233
539.053	4808
539.119	6249
539.185	5307
539.252	7190
539.318	9473
539.385	8442
539.451	6767
539.517	8603
539.583	9091
539.650	15404
539.716	32478
539.782	11651
539.849	5887
539.915	6429
539.981	6239
540.047	7554
540.114	6117
540.180	6304
540.246	6243
540.312	8187
540.378	15943
540.444	16459
540.510	17258
540.576	37114
540.643	11294
540.709	4886
540.775	6256
540.841	6695
540.907	7229
540.973	10166
541.039	10703
541.105	10815
541.171	7363
541.237	6134
541.303	6573
541.369	9233
541.435	10050
541.500	15127
541.566	8632
541.632	5249
541.698	5003
541.764	5504
541.830	5283
541.896	5318
541.961	6013
542.027	5923
542.093	5701
542.159	6732
542.224	7246
542.290	10731
542.356	14743
542.421	16710
542.487	8796
542.553	6630
542.618	6303
542.684	6045
542.750	5464
542.815	7174
542.881	10242
542.947	34678
543.012	23011
543.078	6143
543.143	5126
543.209	6436
543.274	5714
543.340	7839
543.405	16073
543.471	20780
543.536	7555
543.602	6091
543.667	3705
543.732	6902
543.798	5139
543.863	5910
543.928	4993
543.994	4421
544.059	5359
544.124	6621
544.190	4890
544.255	5885
544.320	5997
544.386	5910
544.451	9113
544.516	10877
544.581	9722
544.646	23557
544.712	32317
544.777	9629
544.842	6067
544.907	6156
544.972	5494
545.037	5390
545.102	6555
545.168	6093
545.233	7086
545.298	7695
545.363	7525
545.428	8422
545.493	16469
545.558	27930
545.623	11659
545.688	5508
545.753	7194
545.818	6882
545.883	7526
545.947	7312
546.012	7282
546.077	6270
546.142	7750
546.207	7403
546.272	10656
546.337	9687
546.401	9875
546.466	8739
546.531	7431
546.596	8823
546.661	8824
546.725	9692
546.790	7452
546.855	8636
546.919	7804
546.984	11383
547.049	10415
547.113	12021
547.178	11894
547.243	14493
547.307	15902
547.372	17878
547.436	17210
547.501	17632
547.565	18500
547.630	19463
547.695	18954
547.759	17329
547.823	16230
547.888	17353
547.952	16514
548.017	19874
548.081	21391
548.146	20457
548.210	19095
548.274	20218
548.339	19640
548.403	18739
548.468	16651
548.532	16453
548.596	16657
548.660	16956
548.725	19953
548.789	20550
548.853	20555
548.917	18884
548.982	18306
549.046	17719
549.110	13494
549.174	15605
549.238	17793
549.303	19267
549.367	20359
549.431	18346
549.495	18120
549.559	17381
549.623	20789
549.687	22289
549.751	25569
549.815	26584
549.879	26263
549.943	24005
550.007	26638
550.071	25555
550.135	25344
550.199	22351
550.263	22345
550.327	20891
550.391	22876
550.455	24256
550.519	23736
550.582	26963
550.646	31178
550.710	31607
550.774	28892
550.838	29363
550.901	30647
550.965	32484
551.029	33793
551.093	38251
551.156	44138
551.220	59207
551.284	66752
551.347	43500
551.411	35886
551.475	33790
551.538	32675
551.602	28201
551.666	26300
551.729	24669
551.793	24553
551.856	23841
551.920	23783
551.983	24369
552.047	22166
552.110	24867
552.174	24745
552.237	24789
552.301	21722
552.364	21790
552.428	20546
552.491	20826
552.554	21818
552.618	22198
552.681	22841
552.745	23034
552.808	27759
552.871	31112
552.934	25159
552.998	22299
553.061	21180
553.124	20442
553.187	20462
553.251	21979
553.314	22074
553.377	21762
553.440	27085
553.503	43316
553.567	49250
553.630	24391
553.693	22033
553.756	22277
553.819	20251
553.882	19690
553.945	21386
554.008	20592
554.071	19891
554.134	21534
554.197	19703
554.260	19359
554.323	20341
554.386	19600
554.449	19942
554.512	20773
554.575	18469
554.638	20575
554.701	18958
554.764	18880
554.827	17572
554.889	16964
554.952	15622
555.015	15916
555.078	16091
555.141	17211
555.203	17026
555.266	17213
555.329	16505
555.391	15263
555.454	16541
555.517	15672
555.580	14155
555.642	15272
555.705	14281
555.768	15189
555.830	14549
555.893	13024
555.955	13073
556.018	12535
556.080	11963
556.143	13143
556.206	12511
556.268	13206
556.330	12694
556.393	13324
556.455	12011
556.518	13321
556.580	12842
556.643	10680
556.705	11486
556.767	10725
556.830	10736
556.892	12247
556.955	15344
557.017	13165
557.079	10559
557.142	10804
557.204	11425
557.266	19895
557.328	15838
557.391	9128
557.453	8905
557.515	9458
557.577	10814
557.639	11173
557.701	9643
557.764	9429
557.826	9923
557.888	11823
557.950	11272
558.012	16299
558.074	24969
558.136	65219
558.198	137984
558.260	39343
558.322	14911
558.384	16933
558.446	18484
558.508	22328
558.570	27140
558.632	43578
558.694	66014
558.756	112799
558.818	374330
558.880	751654
558.942	187806
559.003	145750
559.065	57231
559.127	23543
559.189	24518
559.251	33340
559.312	57231
559.374	162182
559.436	479216
559.498	174791
559.559	26117
559.621	24354
559.683	33470
559.744	64931
559.806	228683
559.868	280467
559.929	38971
559.991	26030
560.052	50728
560.114	139273
560.176	73912
560.237	83506
560.299	114729
560.360	18924
560.422	7371
560.483	7641
560.545	6516
560.606	6081
560.667	5022
560.729	4900
560.790	4264
560.852	5048
560.913	5265
560.974	4938
561.036	4217
561.097	5028
561.158	4631
561.220	5465
561.281	4628
561.342	5039
561.403	6421
561.465	8656
561.526	20364
561.587	24836
561.648	5454
561.709	4366
561.771	3803
561.832	4040
561.893	3450
561.954	3752
562.015	3777
562.076	3918
562.137	4655
562.198	4112
562.259	4781
562.320	3678
562.381	4869
562.442	6513
562.503	4779
562.564	4196
562.625	3296
562.686	3112
562.747	3148
562.808	3330
562.869	3085
562.930	3405
562.991	4002
563.051	3342
563.112	3191
563.173	3410
563.234	2732
563.294	3773
563.355	3499
563.416	4342
563.477	2665
563.537	3385
563.598	4153
563.659	4179
563.720	3393
563.780	4196
563.841	4233
563.901	4325
563.962	2979
564.023	3945
564.083	3646
564.144	4726
564.204	3455
564.265	3645
564.325	3932
564.386	4791
564.446	4680
564.507	3616
564.567	3692
564.628	3018
564.688	2853
564.749	2748
564.809	3704
564.869	3480
564.930	3755
564.990	4574
565.050	3746
565.111	4359
565.171	3304
565.231	3978
565.292	5113
565.352	3684
565.412	4381
565.472	4615
565.532	4038
565.593	3965
565.653	3760
565.713	4130
565.773	4293
565.833	6742
565.893	7947
565.953	5032
566.013	4113
566.074	5530
566.134	6470
566.194	6581
566.254	7857
566.314	6606
566.374	5088
566.434	6074
566.494	6680
566.554	6448
566.614	8068
566.673	7780
566.733	8557
566.793	9264
566.853	8904
566.913	10238
566.973	10735
567.033	10724
567.092	9040
567.152	9674
567.212	10081
567.272	10987
567.331	12113
567.391	13085
567.451	14276
567.511	15240
567.570	14285
567.630	12474
567.690	12057
567.749	12147
567.809	13378
567.868	17608
567.928	18456
567.988	21938
568.047	28711
568.107	40538
568.166	61470
568.226	104011
568.285	138577
568.345	112194
568.404	84310
568.464	68247
568.523	61059
568.582	62645
568.642	73095
568.701	99006
568.761	158849
568.820	246651
568.879	227278
568.939	157066
568.998	108211
569.057	78626
569.116	58914
569.176	46229
569.235	37005
569.294	31124
569.353	25313
569.413	22054
569.472	18050
569.531	15724
569.590	14777
569.649	12828
569.708	11353
569.767	11330
569.827	9865
569.886	9305
569.945	8310
570.004	7611
570.063	8654
570.122	7782
570.181	7390
570.240	6821
570.299	5398
570.358	6350
570.417	5412
570.475	5648
570.534	6089
570.593	5232
570.652	5682
570.711	5637
570.770	5342
570.829	6951
570.887	5263
570.946	5914
571.005	3807
571.064	4083
571.122	4255
571.181	4496
571.240	4356
571.299	4164
571.357	3915
571.416	3666
571.475	3871
571.533	3759
571.592	3756
571.650	3900
571.709	3225
571.768	4552
571.826	2993
571.885	3350
571.943	2900
572.002	3622
572.060	3106
572.119	3297
572.177	2732
572.236	2848
572.294	2482
572.352	3704
572.411	2995
572.469	2821
572.528	2759
572.586	3483
572.644	2463
572.703	3206
572.761	3259
572.819	2440
572.877	1388
572.936	3021
572.994	2128
573.052	2950
573.110	2647
573.169	3703
573.227	2288
573.285	2549
573.343	2772
573.401	2821
573.459	2888
573.517	2552
573.576	2115
573.634	2774
573.692	2497
573.750	2893
573.808	2413
573.866	3178
573.924	2710
573.982	3253
574.040	1660
574.098	3215
574.155	2944
574.213	3214
574.271	2896
574.329	3296
574.387	2240
574.445	2183
574.503	2572
574.560	1438
574.618	2619
574.676	1595
574.734	1699
574.792	3318
574.849	2316
574.907	2246
574.965	2095
575.022	1452
575.080	1859
575.138	2425
575.195	1889
575.253	1674
575.311	1390
575.368	2659
575.426	1911
575.483	2344
575.541	2117
575.598	1434
575.656	1600
575.713	2383
575.771	2362
575.828	2152
575.886	916
575.943	2565
576.001	993
576.058	2685
576.115	1785
576.173	2387
576.230	3335
576.287	3728
576.345	2815
576.402	2838
576.459	2557
576.517	2297
576.574	2917
576.631	2876
576.688	1257
576.746	1636
576.803	1606
576.860	1833
576.917	1536
576.974	2118
577.031	2036
577.089	1972
577.146	861
577.203	2463
577.260	2841
577.317	2105
577.374	2072
577.431	3180
577.488	2420
577.545	1689
577.602	1992
577.659	1757
577.716	1629
577.773	2800
577.830	1797
577.886	2107
577.943	1282
578.000	1933
578.057	1888
578.114	3658
578.171	2558
578.227	2026
578.284	883
578.341	2584
578.398	1953
578.454	2927
578.511	1437
578.568	2384
578.625	1417
578.681	2251
578.738	2377
578.794	2941
578.851	1986
578.908	2633
578.964	1620
579.021	2632
579.077	2318
579.134	1686
579.190	2296
579.247	2368
579.303	2075
579.360	2008
579.416	1645
579.473	2280
579.529	1253
579.586	2100
579.642	2305
579.698	2610
579.755	2945
579.811	2361
579.867	2072
579.924	2496
579.980	1347
580.036	3350
580.093	3395
580.149	2738
580.205	2507
580.261	1858
580.317	2813
580.374	3846
580.430	3758
580.486	2922
580.542	2911
580.598	2514
580.619	2577
580.654	2686
580.692	3120
580.710	3342
580.765	1651
580.767	1597
580.823	3177
580.838	3087
580.879	2853
580.911	2682
580.935	2560
580.984	2194
580.991	2149
581.047	2835
581.057	2747
581.103	2322
581.130	2666
581.159	3028
581.203	2050
581.215	1802
581.270	3356
581.276	3249
581.326	2203
581.349	2400
581.382	2709
581.422	2779
581.438	2805
581.494	2495
581.494	2492
581.550	2098
581.567	2360
581.606	2918
581.640	2530
581.661	2307
581.713	3747
581.717	3865
581.773	2248
581.786	2456
581.829	3007
581.859	3057
581.885	3221
581.932	3217
581.940	3188
581.996	2553
582.004	2673
582.052	3333
582.077	3089
582.107	2814
582.150	3580
582.163	3799
582.219	3030
582.223	3002
582.274	2770
582.296	3098
582.330	3641
582.368	3418
582.386	3314
582.441	3000
582.441	2999
582.497	3444
582.514	3523
582.552	3671
582.587	3869
582.608	4014
582.659	3226
582.663	3151
582.719	3695
582.732	3694
582.774	3781
582.805	3353
582.830	3033
582.877	3809
582.885	3941
582.941	3973
582.950	3953
582.996	3618
583.023	3742
583.052	4132
583.095	3778
583.107	3615
583.162	3883
583.168	3900
583.218	4011
583.240	3940
583.273	3888
583.313	3401
583.328	3235
583.384	4152
583.385	4144
583.439	3834
583.458	3830
583.494	3718
583.531	3763
583.549	3896
583.603	4249
583.605	4253
583.660	4293
583.676	4329
583.715	4375
583.748	3908
583.770	3730
583.820	4253
583.825	4279
583.881	4118
583.893	4095
583.936	4167
583.965	4217
583.991	4146
584.038	4395
584.046	4482
584.101	4111
584.110	4221
584.156	4648
584.183	4631
584.211	4649
584.255	4836
584.266	4874
584.321	4514
584.328	4550
584.376	5025
584.400	5201
584.431	5321
584.472	5169
584.486	5100
584.541	5496
584.545	5506
584.596	5583
584.617	5560
584.651	5975
584.689	6204
584.706	5987
584.761	5106
584.762	5111
584.816	6538
584.834	6608
584.871	6660
584.906	6900
584.926	7034
584.978	7096
584.980	7097
585.035	7223
585.051	7534
585.090	8651
585.123	9107
585.145	9241
585.195	9392
585.200	9470
585.254	10427
585.267	10960
585.309	12026
585.340	12599
585.364	13237
585.412	14002
585.419	14131
585.473	18012
585.484	18545
585.528	21879
585.556	27701
585.583	36195
585.628	54871
585.637	61295
585.692	129646
585.700	139222
585.747	171704
585.772	135362
585.801	75986
585.845	28278
585.856	22149
585.910	14946
585.917	14108
585.965	12246
585.989	12010
586.019	11758
586.061	11712
586.074	11751
586.128	11644
586.133	11622
586.183	11555
586.205	11524
586.237	11596
586.277	11996
586.292	12088
586.346	12091
586.349	12088
586.401	12464
586.421	12729
586.455	12796
586.493	12761
586.509	13163
586.564	14412
586.565	14438
586.618	15201
586.637	15512
586.672	16125
586.709	16239
586.727	16278
586.781	17339
586.781	17351
586.835	17075
586.853	17181
586.889	16913
586.925	16733
586.944	16972
586.996	18105
586.998	18139
587.052	18012
587.068	18263
587.106	19332
587.140	19942
587.161	20184
587.212	21512
587.215	21610
587.269	22353
587.284	22528
587.323	22934
587.356	23734
587.377	24555
587.427	26686
587.431	26817
587.485	27426
587.499	27847
587.539	29680
587.571	30714
587.593	31643
587.643	33804
587.648	34076
587.702	37309
587.715	38165
587.755	40532
587.786	41890
587.810	43405
587.858	47173
587.864	47704
587.917	53065
587.930	54162
587.971	58879
588.001	62639
588.025	65752
588.073	72786
588.079	73976
588.133	83604
588.145	86001
588.187	95635
588.217	102540
588.241	109737
588.288	124383
588.295	126547
588.348	145871
588.360	150076
588.402	172046
588.431	188215
588.456	204087
588.503	238195
588.510	244518
588.564	298148
588.575	310821
588.617	374965
588.646	424361
588.671	487705
588.718	621015
588.725	653257
588.778	926228
588.789	986356
588.832	1302980
588.861	1527713
588.886	1634018
588.932	1706111
588.939	1686866
588.993	1468756
589.004	1458647
589.047	1600571
589.075	1595052
589.100	1389406
589.147	984579
589.154	948140
589.207	705020
589.218	660842
589.261	606625
589.290	580833
589.314	603052
589.361	662160
589.368	688512
589.421	925982
589.433	982733
589.475	1288399
589.504	1492223
589.528	1533100
589.576	1496682
589.582	1483037
589.635	1414088
589.647	1373291
589.689	1003237
589.718	747719
589.742	617001
589.790	387530
589.795	375338
589.849	272418
589.861	249851
589.902	208649
589.932	180029
589.955	166525
590.004	139419
590.009	137612
590.062	117550
590.075	112685
590.115	102257
590.146	94317
590.168	89907
590.218	79849
590.222	79304
590.275	71609
590.289	69462
590.328	65596
590.360	62629
590.381	60923
590.431	56481
590.435	56277
590.488	51573
590.503	50254
590.541	48117
590.574	46218
590.594	45448
590.645	43238
590.647	43201
590.700	40363
590.716	39516
590.753	38141
590.787	36520
590.806	35989
590.859	34855
590.859	34899
590.912	33904
590.930	33601
590.965	32461
591.001	31227
591.018	30977
591.071	30030
591.072	29966
591.124	28904
591.143	28445
591.177	27854
591.214	27363
591.230	27341
591.283	26819
591.285	26749
591.336	25891
591.356	25468
591.389	25725
591.427	25871
591.442	25511
591.495	23822
591.498	23658
591.547	23652
591.569	23629
591.600	22957
591.640	21749
591.653	21824
591.706	22194
591.711	22173
591.759	21739
591.782	21450
591.811	21526
591.853	21529
591.864	21425
591.917	20705
591.924	20544
591.969	20891
591.995	21036
592.022	20618
592.066	19832
592.075	19980
592.127	20544
592.137	20624
592.180	20524
592.208	20340
592.233	19949
592.279	19052
592.285	19069
592.338	18934
592.350	18854
592.390	18476
592.421	18160
592.443	18622
592.491	19484
592.495	19474
592.548	18782
592.562	18557
592.600	18599
592.633	18558
592.653	18314
592.704	17491
592.705	17597
592.775	17908
592.846	17626
592.916	17668
592.987	18166
593.058	17842
593.128	17986
593.199	16501
593.270	17060
593.341	16506
593.411	17135
593.482	16657
593.553	17368
593.623	16539
593.694	17643
593.764	17143
593.835	17676
593.906	17011
593.976	17872
594.047	16325
594.117	18244
594.188	17620
594.258	17705
594.329	16915
594.399	17380
594.470	18014
594.540	19027
594.611	18589
594.681	18483
594.751	18406
594.822	19339
594.892	19483
594.963	19635
595.033	20094
595.103	20447
595.174	19083
595.244	21571
595.314	20220
595.384	21188
595.455	20835
595.525	21682
595.595	21038
595.665	23012
595.736	21351
595.806	22479
595.876	21806
595.946	22825
596.016	21964
596.087	23083
596.157	22894
596.227	22728
596.297	23666
596.367	25853
596.437	26733
596.507	26654
596.577	26912
596.647	27309
596.717	28337
596.787	29188
596.857	27350
596.927	29756
596.997	28211
597.067	29077
597.137	30265
597.207	29422
597.277	29150
597.347	28836
597.417	27117
597.487	27975
597.557	28504
597.626	29374
597.696	29630
597.766	30431
597.836	27492
597.906	25676
597.975	25644
598.045	26085
598.115	27204
598.185	29509
598.254	32828
598.324	34999
598.394	35102
598.464	34448
598.533	33372
598.603	31794
598.672	28864
598.742	30680
598.812	31710
598.881	31266
598.951	31650
599.020	31654
599.090	32405
599.159	33654
599.229	32144
599.299	31304
599.368	32149
599.437	32703
599.507	28820
599.576	27252
599.646	27121
599.715	28470
599.785	26366
599.854	25790
599.924	26022
599.993	26181
600.062	25844
600.132	26639
600.201	28919
600.270	33999
600.340	34543
600.409	33395
600.478	32897
600.547	34319
600.617	30460
600.686	24053
600.755	22799
600.824	22068
600.894	20726
600.963	21042
601.032	20579
601.101	20190
601.170	18981
601.239	17961
601.308	18931
601.378	19564
601.447	17655
601.516	19532
601.585	19043
601.654	19720
601.723	18581
601.792	19116
601.861	20099
601.930	21591
601.999	21075
602.068	22019
602.137	22404
602.206	22005
602.275	21733
602.343	22223
602.412	21790
602.481	22992
602.550	22436
602.619	23759
602.688	22720
602.756	23543
602.825	24352
602.894	23632
602.963	24767
603.032	25086
603.100	24190
603.169	25626
603.238	24872
603.307	25442
603.375	25948
603.444	26511
603.513	26476
603.581	27003
603.650	26718
603.719	26069
603.787	27389
603.856	29542
603.924	28600
603.993	30060
604.061	30264
604.130	33454
604.198	33503
604.267	35232
604.335	34612
604.404	34543
604.472	35255
604.541	35419
604.609	36027
604.678	35632
604.746	37059
604.815	37075
604.883	38183
604.951	38202
605.020	38675
605.088	40410
605.156	39992
605.225	40382
605.293	40657
605.361	41015
605.429	41352
605.498	43002
605.566	43745
605.634	45711
605.702	47508
605.771	49147
605.839	48217
605.907	47747
605.975	45576
606.043	44436
606.111	45159
606.180	44560
606.248	43891
606.316	45075
606.384	44416
606.452	44674
606.520	45655
606.588	47442
606.656	47177
606.724	45116
606.792	43674
606.860	39562
606.928	35337
606.996	34480
607.064	31877
607.132	34224
607.200	36741
607.267	37963
607.335	37089
607.403	41082
607.471	36940
607.539	37622
607.607	37853
607.674	32541
607.742	33012
607.810	32679
607.878	33127
607.946	33044
608.013	33951
608.081	35191
608.149	35420
608.216	36700
608.284	38535
608.352	37880
608.419	35988
608.487	37383
608.555	35328
608.622	36948
608.690	39662
608.757	44479
608.825	44756
608.893	43836
608.960	39372
609.028	39234
609.095	38924
609.163	38860
609.230	34719
609.298	33307
609.365	33637
609.432	37147
609.500	39997
609.567	46377
609.635	52775
609.702	56530
609.769	53347
609.837	41711
609.904	33867
609.971	36431
610.039	42233
610.106	56219
610.173	105940
610.241	240374
610.308	117295
610.375	44437
610.442	36100
610.509	35765
610.577	37035
610.644	36395
610.711	36798
610.778	39262
610.845	39346
610.912	44387
610.980	45481
611.047	46461
611.114	44477
611.181	42200
611.248	41447
611.315	45449
611.382	43930
611.449	48159
611.516	50189
611.583	47541
611.650	47886
611.717	49754
611.784	51535
611.851	55330
611.918	58525
611.984	72497
612.051	108809
612.118	224100
612.185	556604
612.252	301466
612.319	77184
612.386	65322
612.452	58812
612.519	55846
612.586	53313
612.653	56468
612.719	55801
612.786	55903
612.853	50699
612.919	50185
612.986	50873
613.053	46486
613.120	42412
613.186	41982
613.253	44599
613.319	42291
613.386	41866
613.453	43793
613.519	43952
613.586	44396
613.652	45364
613.719	44660
613.785	44687
613.852	44673
613.918	43555
613.985	46681
614.051	47044
614.118	52891
614.184	47764
614.250	44283
614.317	44994
614.383	43821
614.449	44607
614.516	44648
614.582	44612
614.648	44228
614.715	43284
614.781	42358
614.847	42727
614.914	42219
614.980	40776
615.046	41131
615.112	43410
615.179	44431
615.245	46584
615.311	51440
615.377	66536
615.443	66133
615.509	49828
615.575	48993
615.642	46148
615.708	50476
615.774	53236
615.840	58390
615.906	70469
615.972	99545
616.038	176094
616.104	316564
616.170	709359
616.236	521033
616.302	109744
616.368	78664
616.434	57665
616.500	55799
616.565	59956
616.631	73026
616.697	59332
616.763	62433
616.829	91040
616.895	156430
616.961	137087
617.026	60346
617.092	45902
617.158	44405
617.224	43668
617.289	40453
617.355	37722
617.421	36652
617.487	39131
617.552	35178
617.618	34239
617.684	34264
617.749	35699
617.815	35046
617.880	32521
617.946	32738
618.012	34321
618.077	35696
618.143	32556
618.208	32860
618.274	35547
618.339	36323
618.405	28751
618.470	30525
618.536	29087
618.601	29417
618.667	25331
618.732	25416
618.798	24562
618.863	24919
618.928	22671
618.994	26419
619.059	24482
619.124	26882
619.190	25026
619.255	22798
619.320	23866
619.386	24290
619.451	22550
619.516	22896
619.581	23227
619.647	24948
619.712	24474
619.777	22802
619.842	23208
619.907	23367
619.972	22769
620.038	23781
620.103	22955
620.168	21422
620.233	22744
620.298	24007
620.363	23464
620.428	26064
620.493	24328
620.558	25450
620.623	24672
620.688	25095
620.753	24983
620.818	25463
620.883	25681
620.948	26519
621.013	24622
621.078	25621
621.143	23853
621.207	27784
621.272	25307
621.337	24052
621.402	23064
621.467	24550
621.532	23759
621.596	24276
621.661	23414
621.726	22741
621.791	22713
621.855	23505
621.920	22358
621.985	22973
622.049	24667
622.114	23192
622.179	24052
622.243	24726
622.308	25613
622.373	28645
622.437	26666
622.502	24921
622.566	24285
622.631	22407
622.695	25923
622.760	25294
622.824	23655
622.889	25440
622.953	23442
623.018	28571
623.082	29061
623.147	26927
623.211	25248
623.276	26028
623.340	23892
623.404	24671
623.469	24305
623.533	23677
623.597	23492
623.662	23456
623.726	20348
623.790	20048
623.854	17841
623.919	20389
623.983	20601
624.047	20220
624.111	20105
624.176	21140
624.240	19215
624.304	23128
624.368	20881
624.432	21519
624.496	21530
624.560	23022
624.625	22626
624.689	24322
624.753	23832
624.817	23232
624.881	21784
624.945	20820
625.009	19096
625.073	19644
625.137	19140
625.201	23065
625.265	21994
625.329	21072
625.393	21632
625.456	21128
625.520	22053
625.584	22744
625.648	22518
625.712	23268
625.776	23604
625.839	23773
625.903	18389
625.967	17380
626.031	19520
626.095	24009
626.158	19925
626.222	15091
626.286	15827
626.349	13461
626.413	11141
626.477	13983
626.540	12925
626.604	12476
626.668	14223
626.731	12515
626.795	11944
626.858	13317
626.922	12112
626.986	13427
627.049	10963
627.113	13734
627.176	12637
627.240	12312
627.303	12626
627.366	11937
627.430	11528
627.493	11875
627.557	10858
627.620	13346
627.684	12219
627.747	13013
627.810	10019
627.874	9857
627.937	9407
628.000	12274
628.064	10621
628.127	8457
628.190	8623
628.253	9233
628.317	8866
628.380	9402
628.443	7727
628.506	7925
628.569	7415
628.632	7574
628.696	6993
628.759	7455
628.822	7025
628.885	6976
628.948	6970
629.011	5389
629.074	6307
629.137	6228
629.200	4780
629.263	7713
629.326	5207
629.389	5944
629.452	5045
629.515	6557
629.578	4766
629.641	7427
629.704	4168
629.767	6146
629.830	6591
629.892	5372
629.955	4708
630.018	7446
630.081	4647
630.144	6681
630.207	4102
630.269	7172
630.332	4734
630.395	6517
630.458	5414
630.520	4457
630.583	5970
630.646	5919
630.708	4720
630.771	4411
630.834	5631
630.896	5309
630.959	5193
631.021	5551
631.084	4446
631.146	5789
631.209	4871
631.272	4667
631.334	6029
631.397	5606
631.459	4608
631.522	6138
631.584	5849
631.646	6852
631.709	6920
631.771	7452
631.834	6421
631.896	6878
631.958	4730
632.021	6826
632.083	3660
632.145	5950
632.208	4533
632.270	6238
632.332	4615
632.395	4871
632.457	5274
632.519	5181
632.581	5993
632.643	4284
632.706	5403
632.768	4266
632.830	5190
632.892	5898
632.954	4698
633.016	6345
633.078	4859
633.141	6178
633.203	4320
633.265	5961
633.327	5239
633.389	4572
633.451	5223
633.513	5581
633.575	5222
633.637	4843
633.698	5276
633.760	5499
633.822	5277
633.884	5625
633.946	5381
634.008	6259
634.070	6201
634.132	6540
634.193	7261
634.255	7884
634.317	6989
634.379	8400
634.441	5900
634.502	5989
634.564	5884
634.626	5187
634.687	5446
634.749	5789
634.811	5567
634.873	4539
634.934	4617
634.996	5961
635.057	4026
635.119	3932
635.181	5501
635.242	6184
635.304	3225
635.365	7645
635.427	4107
635.488	5270
635.550	4685
635.611	6446
635.673	2172
635.734	6398
635.796	4107
635.857	7405
635.918	5141
635.980	7942
636.041	5426
636.102	7868
636.164	6711
636.225	8526
636.286	4019
636.348	6355
636.409	4746
636.470	4904
636.531	4739
636.593	4199
636.654	5006
636.715	4967
636.776	3714
636.838	3368
636.899	4597
636.960	3446
637.021	4011
637.082	3898
637.143	3464
637.204	3264
637.265	2704
637.326	5196
637.387	4170
637.448	3050
637.509	4026
637.570	4085
637.631	4366
637.692	3373
637.753	1683
637.814	3910
637.875	3161
637.936	4116
637.997	2473
638.058	3583
638.119	3608
638.179	4135
638.240	3045
638.301	3409
638.362	2386
638.423	3126
638.483	4483
638.544	1720
638.605	3471
638.666	2363
638.726	3831
638.787	4541
638.848	2665
638.908	3378
638.969	2811
639.030	3398
639.090	1927
639.151	2507
639.211	3151
639.272	3746
639.332	3654
639.393	3157
639.453	2385
639.514	3199
639.574	2331
639.635	2954
639.695	2886
639.756	2062
639.816	2499
639.877	3227
639.937	4756
639.997	4875
640.058	2284
640.118	2371
640.178	3481
640.239	3018
640.299	2485
640.359	2838
640.420	2242
640.480	3933
640.540	3510
640.600	3650
640.661	3184
640.721	2521
640.781	4846
640.841	3542
640.901	3961
640.961	2658
641.021	2834
641.082	2716
641.142	2572
641.202	3728
641.262	935
641.322	3117
641.382	1148
641.442	2954
641.502	2241
641.562	3611
641.622	1569
641.682	2628
641.742	3099
641.802	2739
641.861	2739
641.921	2707
641.981	2634
642.041	3096
642.101	2213
642.161	1889
642.221	1201
642.280	2613
642.340	1743
642.400	1892
642.460	2909
642.519	2991
642.579	1334
642.639	3906
642.698	-209
642.758	4656
642.818	1605
642.877	1190
642.937	3006
642.997	4176
643.056	2925
643.116	1757
643.175	4122
643.235	2023
643.294	2610
643.354	3680
643.414	3535
643.473	5670
643.532	7540
643.592	12659
643.651	22359
643.711	40886
643.770	83071
643.830	203525
643.889	414209
643.948	84424
644.008	12805
644.067	7903
644.126	4656
644.186	3966
644.245	3761
644.304	1944
644.363	4326
644.423	1304
644.482	2593
644.541	3237
644.600	1330
644.659	5405
644.719	5237
644.778	9551
644.837	16379
644.896	36059
644.955	83836
645.014	24457
645.073	5261
645.132	3081
645.191	2604
645.250	2512
645.309	4369
645.368	3269
645.427	5025
645.486	7146
645.545	14117
645.604	3925
645.663	2437
645.722	2840
645.781	3578
645.840	5354
645.898	6845
645.957	12735
646.016	18617
646.075	37722
646.134	71623
646.192	200431
646.251	279306
646.310	35881
646.369	8511
646.427	6548
646.486	3368
646.545	4076
646.603	2481
646.662	3094
646.721	2050
646.779	2200
646.838	1615
646.896	4645
646.955	4856
647.014	10184
647.072	17538
647.131	53694
647.189	21626
647.248	3102
647.306	2446
647.365	2938
647.423	65
647.481	2953
647.540	671
647.598	1561
647.657	1031
647.715	2601
647.773	256
647.832	1854
647.890	-168
647.948	1101
648.007	1515
648.065	174
648.123	-20
648.181	2496
648.240	1663
648.298	224
648.356	-356
648.414	2331
648.472	621
648.531	1247
648.589	133
648.647	529
648.705	-150
648.763	1346
648.821	1310
648.879	1611
648.937	1735
648.995	3345
649.053	3606
649.111	8858
649.169	13530
649.227	25386
649.285	55790
649.343	162709
649.401	69282
649.459	10552
649.516	4786
649.574	2749
649.632	4391
649.690	5849
649.748	4868
649.806	6014
649.863	13943
649.921	37309
649.979	21014
650.037	3704
650.094	0
650.152	1420
650.210	-206
650.268	1430
650.325	682
650.383	1832
650.440	118
650.498	1929
650.556	-73
650.613	8
650.671	-295
650.728	709
650.786	84
650.843	1016
650.901	-360
650.958	1242
651.016	48
651.073	120
651.131	-729
651.188	-186
651.246	629
651.303	-308
651.360	-66
651.418	501
651.475	311
651.532	-507
651.590	299
651.647	85
651.704	-361
651.762	116
651.819	200
651.876	47
651.933	435
651.990	1135
652.048	-1623
652.105	198
652.162	-66
652.219	-525
652.276	961
652.333	505
652.390	-882
652.448	299
652.505	-1210
652.562	-206
652.619	-143
652.676	1783
652.733	1090
652.790	102
652.847	-1995
652.904	131
652.961	-451
653.017	-602
653.074	-52
653.131	-723
653.188	-798
653.245	-200
653.302	-839
653.359	134
653.415	56
653.472	343
653.529	470
653.586	-80
653.642	-520
653.699	1135
653.756	-1776
653.813	-239
653.869	-1007
653.926	-600
653.983	-1343
654.039	1548
654.096	-997
654.152	618
654.209	-1306
654.266	786
654.322	-1536
654.379	763
654.435	-765
654.492	-803
654.548	171
654.605	339
654.661	605
654.717	-157
654.774	-443
654.830	-553
654.887	-672
654.943	-38
655.000	819
655.056	534
655.112	-349
655.168	-433
655.225	-195
655.281	-620
655.337	-244
655.394	-714
655.450	-153
655.506	222
655.562	-933
655.618	1146
655.675	-944
655.731	284
655.787	-1093
655.843	-61
655.899	-1533
655.955	747
656.011	-765
656.067	-789
656.123	242
656.179	72
656.235	271
656.291	-1119
656.347	-106
656.403	-869
656.459	-1354
656.515	-440
656.571	-898
656.627	-166
656.683	-840
656.739	-311
656.795	-674
656.850	-256
656.906	-219
656.962	80
657.018	-1350
657.074	288
657.129	-74
657.185	707
657.241	3755
657.297	2297
657.352	236
657.408	-526
657.464	185
657.519	-614
657.575	-1425
657.630	-725
657.686	0
657.742	5
657.797	-1160
657.853	-589
657.908	-1061
657.964	-1218
658.019	-619
658.075	-189
658.130	3
658.186	-659
658.241	-43
658.297	-1174
658.352	-93
658.407	-276
658.463	-1306
658.518	-18
658.573	-1210
658.629	-220
658.684	-973
658.739	-45
658.795	-1404
658.850	-155
658.905	-1157
658.960	-725
659.016	-1512
659.071	248
659.126	-783
659.181	3
659.236	1299
659.291	1323
659.346	-938
659.401	1
659.457	203
659.512	60
659.567	-65
659.622	-252
659.677	-501
659.732	-1304
659.787	-567
659.842	-689
659.897	-1032
659.952	-112
660.007	-721
660.061	-427
660.116	-1435
660.171	-1426
660.226	-1288
660.281	714
660.336	-1793
660.391	-48
660.445	-918
660.500	89
660.555	-1126
660.610	-395
660.664	87
660.719	-743
660.774	-841
660.828	400
660.883	-1104
660.938	-744
660.992	-1516
661.047	-457
661.101	-975
661.156	-720
661.211	-1625
661.265	-66
661.320	-1138
661.374	380
661.429	-1322
661.483	218
661.538	-1546
661.592	-483
661.647	-553
661.701	413
661.755	-171
661.810	-110
661.864	-1695
661.919	-858
661.973	-255
662.027	-280
662.081	-1908
662.136	310
662.190	-1043
662.244	-448
662.299	-1096
662.353	295
662.407	-849
662.461	-636
662.515	-743
662.569	-438
662.624	-683
662.678	-1195
662.732	-1145
662.786	-1112
662.840	-1304
662.894	-708
662.948	-579
663.002	-48
663.056	-1127
663.110	-1258
663.164	-1066
663.218	-16
663.272	-1337
663.326	360
663.380	-152
663.434	-155
663.488	-1097
663.542	-441
663.595	-1324
663.649	-667
663.703	-425
663.757	-930
663.811	-1672
663.864	-1435
663.918	-746
663.972	-1488
664.026	-642
664.079	-672
664.133	-794
664.187	-941
664.240	-1398
664.294	-38
664.348	-727
664.401	-200
664.455	-680
664.508	-429
664.562	-1423
664.615	-885
664.669	-1054
664.722	-562
664.776	-1156
664.829	-373
664.883	-943
664.936	-1559
664.990	-1040
665.043	-685
665.097	-2101
665.150	35
665.203	-1254
665.257	-317
665.310	-1035
665.363	-580
665.417	-1517
665.470	-367
665.523	-991
665.576	3
665.630	-1443
665.683	-1057
665.736	-1086
665.789	-508
665.842	-1168
665.895	-626
665.949	-210
666.002	16
666.055	-1264
666.108	236
666.161	-1538
666.214	101
666.267	-747
666.320	-56
666.373	-1210
666.426	-143
666.479	-1141
666.532	-153
666.585	-1505
666.638	-383
666.691	-796
666.744	-265
666.796	-1601
666.849	-333
666.902	-1002
666.955	652
667.008	-1580
667.060	-591
667.113	-1617
667.166	-721
667.219	-963
667.271	-573
667.324	-1369
667.377	-124
667.430	-848
667.482	-329
667.535	-722
667.587	-263
667.640	-606
667.693	-546
667.745	-315
667.798	1093
667.850	-1200
667.903	-419
667.955	-1755
668.008	-210
668.060	-674
668.113	-326
668.165	-1048
668.218	-188
668.270	-1028
668.322	-400
668.375	-1237
668.427	-17
668.479	-577
668.532	-1200
668.584	-1432
668.636	-993
668.689	-797
668.741	-1602
668.793	-1052
668.845	-1135
668.898	-945
668.950	-100
669.002	-789
669.054	-845
669.106	-1705
669.158	-969
669.211	-1248
669.263	342
669.315	79
669.367	69
669.419	-1093
669.471	917
669.523	430
669.575	1584
669.627	-84
669.679	-194
669.731	-642
669.783	93
669.835	-374
669.886	167
669.938	-200
669.990	-375
670.042	-1752
670.094	177
670.146	-867
670.197	-167
670.249	-308
670.301	-639
670.353	-628
670.404	180
670.456	-219
670.508	584
670.560	1980
670.611	4213
670.663	6008
670.715	18418
670.766	28202
670.818	8325
670.869	171
670.921	994
670.972	-17
671.024	-192
671.075	-830
671.127	-114
671.178	-1308
671.230	-714
671.281	-165
671.333	-296
671.384	-948
671.436	35
671.487	388
671.538	1255
671.590	2551
671.641	5651
671.692	10689
671.744	23465
671.795	13723
671.846	3153
671.897	76
671.949	-470
672.000	-656
672.051	-389
672.102	-389
672.153	-146
672.204	-1219
672.256	-162
672.307	-1357
672.358	-995
672.409	-1968
672.460	-637
672.511	-899
672.562	-1665
672.613	-1227
672.664	-528
672.715	-1351
672.766	-1676
672.817	-1161
672.868	-899
672.919	-1553
672.970	-733
673.021	-1488
673.071	-812
673.122	-848
673.173	-394
673.224	-1236
673.275	-933
673.326	-1553
673.376	-844
673.427	-1094
673.478	-1237
673.528	-983
673.579	-459
673.630	-1447
673.680	-496
673.731	-1455
673.782	-498
673.832	-1715
673.883	-1108
673.934	-1564
673.984	-609
674.035	-1054
674.085	-131
674.136	-1170
674.186	-984
674.237	-2392
674.287	-1021
674.338	-901
674.388	-1282
674.438	-1308
674.489	-379
674.539	-900
674.589	-1183
674.640	-1198
674.690	-738
674.740	-2097
674.791	-1156
674.841	-959
674.891	-1178
674.942	-1452
674.992	-902
675.042	-1711
675.092	-779
675.142	-1441
675.193	-1312
675.243	-2274
675.293	-1053
675.343	-1920
675.393	-1432
675.443	-1526
675.493	-903
675.543	-2140
675.593	-1133
675.643	-1703
675.693	-174
675.743	-1414
675.793	-383
675.843	-2021
675.893	-751
675.943	-1276
675.993	-1582
676.043	-1675
676.093	154
676.142	-1648
676.192	-1188
676.242	-1704
676.292	-574
676.341	-1636
676.391	-1425
676.441	-2733
676.491	-1155
676.540	-1894
676.590	-376
676.640	-2033
676.689	-828
676.739	-1329
676.789	-1103
676.838	-1530
676.888	-517
676.937	-1186
676.987	-1066
677.037	-1622
677.086	-1406
677.136	-1411
677.185	-1587
677.235	-1799
677.284	-1052
677.333	-1163
677.383	-667
677.432	-1549
677.482	-1050
677.531	-1084
677.580	-1140
677.630	-1502
677.679	-1752
677.728	-1265
677.778	-981
677.827	-2094
677.876	-1443
677.925	-1915
677.975	-1513
678.024	-1196
678.073	-1117
678.122	-1802
678.171	-1119
678.220	-1442
678.269	-564
678.319	-1142
678.368	-1106
678.417	-1319
678.466	-97
678.515	-1838
678.564	-1166
678.613	-1688
678.662	-904
678.711	-1565
678.760	-1623
678.809	-1932
678.857	-908
678.906	-1833
678.955	-765
679.004	-1603
679.053	-686
679.102	-2090
679.151	-1257
679.199	-2004
679.248	-1062
679.297	-1038
679.346	-2075
679.394	-1786
679.443	-861
679.492	-1500
679.540	-962
679.589	-1825
679.638	-820
679.686	-1184
679.735	35
679.784	-1052
679.832	-1374
679.881	-2053
679.929	-1488
679.978	-1899
680.026	-838
680.075	-1306
680.123	-1556
680.172	-1816
680.220	-1043
680.268	-1765
680.317	-1223
680.365	-2852
680.414	-1608
680.462	-1319
680.510	-274
680.559	-1558
680.607	-1737
680.655	-1011
680.703	-1501
680.752	-1505
680.800	-1345
680.848	-2195
680.896	-1477
680.945	-1043
680.993	-1703
681.041	-1920
681.089	-1204
681.137	-921
681.185	-1644
681.233	-1403
681.258	-1673
681.281	-1936
681.329	-2488
681.377	-1454
681.380	-1419
681.425	-901
681.473	-434
681.502	-1423
681.521	-2119
681.569	-1364
681.617	-2004
681.624	-1925
681.665	-1452
681.713	-946
681.745	-1058
681.761	-1129
681.809	-2070
681.857	-991
681.867	-1151
681.904	-1710
681.952	-813
681.989	-1497
682.000	-1710
682.048	-728
682.096	-1585
682.111	-1268
682.143	-625
682.191	-1818
682.233	-1299
682.239	-1225
682.286	-2416
682.334	-888
682.354	-1313
682.382	-1892
682.430	-1816
682.476	-781
682.477	-764
682.525	-358
682.572	-2289
682.598	-1735
682.620	-1270
682.667	-1968
682.715	-512
682.720	-600
682.763	-1489
682.810	-1483
682.841	-1561
682.857	-1588
682.905	-1746
682.952	-949
682.963	-897
683.000	-748
683.047	-1655
683.085	32
683.095	481
683.142	-1542
683.190	-697
683.206	-928
683.237	-1360
683.284	-293
683.328	-1936
683.332	-2074
683.379	-841
683.426	-1819
683.449	-1344
683.473	-865
683.521	-1000
683.568	-638
683.571	-659
683.615	-1038
683.662	-623
683.693	-921
683.709	-1088
683.757	-472
683.804	-794
683.814	-906
683.851	-1291
683.898	-973
683.936	-952
683.945	-965
683.992	-959
684.039	-833
684.057	-714
684.086	-471
684.133	-602
684.179	-965
684.180	-985
684.227	210
684.274	-1386
684.300	-796
684.321	-310
684.368	-1464
684.415	-148
684.422	-281
684.462	-1011
684.509	-1293
684.543	-1197
684.556	-1207
684.603	-377
684.649	-885
684.665	-942
684.696	-984
684.743	-1588
684.786	-454
684.790	-366
684.837	-1351
684.883	-403
684.908	-1059
684.930	-1670
684.977	-757
685.023	-1245
685.029	-1163
685.070	-510
685.117	-773
685.150	-941
685.164	-1039
685.210	-1182
685.257	-161
685.272	-262
685.303	-404
685.350	-52
685.393	-913
685.396	-994
685.443	-630
685.490	-1107
685.514	-1050
685.536	-978
685.583	-662
685.629	-520
685.636	-592
685.675	-1001
685.722	-512
685.757	-1030
685.768	-1204
685.815	-670
685.861	-804
685.878	-678
685.908	-447
685.954	-1267
686.000	-936
686.000	-934
686.047	-540
686.093	-260
686.121	-388
686.139	-431
686.185	-520
686.232	-449
686.242	-352
686.278	-39
686.324	-993
686.363	-531
686.370	-461
686.416	-365
686.463	277
686.484	-111
686.509	-514
686.555	-36
686.601	-967
686.606	-861
686.647	15
686.693	-630
686.727	-67
686.739	177
686.785	-414
686.831	-160
686.848	-157
686.877	-289
686.923	85
686.969	-840
686.969	-845
687.015	-394
687.061	-868
687.090	-246
687.107	63
687.153	-79
687.199	-335
687.211	-439
687.245	-564
687.291	-292
687.332	68
687.336	99
687.382	-112
687.428	-344
687.453	42
687.474	287
687.520	-313
687.565	52
687.574	-38
687.611	-304
687.657	-76
687.695	-321
687.702	-325
687.748	677
687.794	972
687.816	1209
687.839	1133
687.885	-75
687.931	-190
687.937	-247
687.976	-310
688.022	-26
688.058	-353
688.067	-454
688.113	-115
688.158	-775
688.179	-459
688.204	87
688.249	-717
688.295	143
688.300	170
688.340	196
688.386	310
688.421	-288
688.431	-479
688.477	-46
688.522	-522
688.542	-409
688.567	-138
688.613	-367
688.658	161
688.663	155
688.703	-8
688.749	-160
688.784	-269
688.794	-264
688.839	-2
688.884	-67
688.905	253
688.930	556
688.975	46
689.020	320
689.026	286
689.065	119
689.110	303
689.146	145
689.155	124
689.201	424
689.246	158
689.267	384
689.291	562
689.336	99
689.381	123
689.388	37
689.426	-304
689.471	231
689.509	179
689.516	139
689.561	609
689.606	-282
689.630	-197
689.651	10
689.696	54
689.741	201
689.750	195
689.785	182
689.830	484
689.871	364
689.875	322
689.920	293
689.965	-514
689.992	-196
690.010	156
690.054	14
690.099	433
690.112	225
690.144	-297
690.189	264
690.233	100
690.233	102
690.278	76
690.323	320
690.354	698
690.367	802
690.412	692
690.457	407
690.474	403
690.501	495
690.546	829
690.590	693
690.595	678
690.635	504
690.680	455
690.716	670
690.724	731
690.769	265
690.813	828
690.836	586
690.857	362
690.902	433
690.946	397
690.957	374
690.991	451
691.035	840
691.077	1158
691.080	1170
691.124	743
691.168	1315
691.198	560
691.213	179
691.257	1118
691.301	491
691.318	550
691.346	634
691.390	371
691.434	709
691.439	667
691.478	661
691.522	870
691.559	809
691.567	759
691.611	1290
691.655	910
691.680	1155
691.699	1298
691.743	289
691.787	1009
691.800	760
691.831	394
691.875	1184
691.919	586
691.921	588
691.964	813
692.008	708
692.041	891
692.052	906
692.096	678
692.139	1050
692.162	737
692.183	524
692.227	875
692.271	419
692.282	606
692.315	1236
692.359	905
692.402	1482
692.403	1490
692.447	927
692.490	1077
692.523	662
692.534	616
692.578	870
692.622	1017
692.643	1130
692.666	999
692.709	656
692.753	363
692.763	303
692.797	555
692.840	933
692.884	853
692.884	856
692.928	854
692.971	561
693.004	634
693.015	675
693.059	404
693.102	606
693.124	478
693.146	579
693.189	954
693.233	1157
693.245	1307
693.276	1382
693.320	976
693.363	1271
693.365	1256
693.407	1149
693.450	1126
693.485	976
693.493	962
693.537	1296
693.580	1139
693.605	1276
693.624	1380
693.667	1175
693.710	1554
693.725	1516
693.753	1862
693.797	2842
693.840	3472
693.845	3544
693.883	3155
693.926	2416
693.966	1988
693.970	1962
694.013	1644
694.056	1482
694.086	1066
694.099	1016
694.142	1193
694.185	991
694.206	1120
694.229	1311
694.272	1386
694.315	1713
694.326	1643
694.358	1457
694.401	1753
694.444	1731
694.446	1731
694.487	1814
694.530	1694
694.566	1798
694.573	1806
694.616	1419
694.659	1651
694.686	1477
694.702	1403
694.745	1530
694.787	1073
694.806	1146
694.830	1389
694.873	1228
694.916	1565
694.926	1537
694.959	1402
695.002	1817
695.044	1510
695.046	1514
695.087	1709
695.130	1323
695.166	1535
695.172	1644
695.215	1704
695.258	2178
695.286	2261
695.301	2097
695.343	1938
695.386	1607
695.406	1508
695.428	1670
695.471	1693
695.514	2007
695.526	2003
695.556	1813
695.599	1808
695.641	1592
695.646	1571
695.684	1693
695.726	1730
695.766	1851
695.769	1855
695.811	1657
695.854	1681
695.886	1502
695.896	1504
695.938	1660
695.981	1606
696.005	1663
696.023	1661
696.065	1654
696.108	1627
696.125	1525
696.150	1432
696.192	1638
696.235	1517
696.245	1526
696.277	1691
696.319	1725
696.361	1913
696.365	1927
696.404	2218
696.446	2223
696.485	2198
696.488	2202
696.530	2361
696.572	2450
696.604	2540
696.614	2560
696.656	2458
696.698	2375
696.724	2360
696.740	2346
696.783	2335
696.825	2150
696.844	2133
696.867	2141
696.909	2068
696.951	2010
696.964	1982
696.992	1999
697.034	2025
697.076	1911
697.083	1903
697.118	2280
697.160	2702
697.202	3080
697.203	3077
697.244	2485
697.286	2049
697.323	1419
697.327	1472
697.369	2135
697.411	2552
697.442	2972
697.453	2924
697.494	2589
697.536	2348
697.562	2122
697.578	2138
697.620	2247
697.661	2305
697.682	2310
697.703	2391
697.744	2531
697.786	2797
697.801	2798
697.828	2666
697.869	2647
697.911	2491
697.921	2461
697.952	2429
697.994	2336
698.035	2261
698.040	2239
698.077	2107
698.118	1991
698.160	1777
698.160	1765
698.201	2088
698.243	2342
698.279	2569
698.284	2613
698.325	2919
698.367	3257
698.399	3443
698.408	3440
698.449	3397
698.491	3349
698.518	3328
698.532	3381
698.573	3455
698.614	3571
698.638	3600
698.656	3508
698.697	3297
698.738	3051
698.757	2945
698.779	3034
698.820	3130
698.862	3257
698.877	3290
698.903	3372
698.944	3490
698.985	3592
698.996	3611
699.026	3344
699.067	2953
699.116	2479
699.235	2690
699.354	3284
699.474	2813
699.593	2575
699.713	3465
699.832	3324
699.951	3222
700.070	3026
700.190	2460
700.309	3178
700.428	2606
700.547	3723
700.667	2720
700.786	2866
700.905	2684
701.024	2520
701.143	2140
701.262	2858
701.381	3310
701.500	2621
701.619	3218
701.738	2531
701.857	3142
701.976	2524
702.095	2662
702.214	2998
702.333	2695
702.452	2680
702.571	3377
702.690	3492
702.809	3086
702.928	2611
703.047	2296
703.165	2612
703.284	3068
703.403	1923
703.522	3099
703.640	3251
703.759	2314
703.878	2989
703.997	2488
704.115	3286
704.234	3250
704.353	2790
704.471	2585
704.590	2563
704.708	2485
704.827	1853
704.946	2625
705.064	2199
705.183	2769
705.301	2744
705.420	2082
705.538	2323
705.656	2088
705.775	3065
705.893	3791
706.012	4610
706.130	2159
706.249	3566
706.367	2899
706.485	2279
706.604	2159
706.722	2805
706.840	3393
706.958	5191
707.077	3601
707.195	2074
707.313	2775
707.431	2027
707.549	2046
707.668	2083
707.786	3194
707.904	2732
708.022	2055
708.140	2119
708.258	1878
708.376	2660
708.494	2484
708.612	2249
708.730	2308
708.848	2792
708.966	2291
709.084	2585
709.202	2611
709.320	2389
709.438	2670
709.556	1665
709.674	2050
709.791	2370
709.909	1878
710.027	2153
710.145	2332
710.263	2425
710.380	2007
710.498	2433
710.616	2668
710.733	2172
710.851	1456
710.969	2304
711.086	1845
711.204	1722
711.322	1922
711.439	1501
711.557	1460
711.674	1424
711.792	2417
711.909	1465
712.027	2085
712.144	2205
712.262	2483
712.379	1989
712.497	3093
712.614	2244
712.732	2424
712.849	2122
712.966	1618
713.084	3302
713.201	1687
713.318	1342
713.436	2099
713.553	2635
713.670	2955
713.787	2679
713.905	2104
714.022	2011
714.139	2524
714.256	3629
714.373	5562
714.490	12498
714.608	37777
714.725	171167
714.842	136866
714.959	7303
715.076	3862
715.193	3276
715.310	3503
715.427	2012
715.544	2058
715.661	1963
715.778	2077
715.895	2183
716.011	2633
716.128	2367
716.245	2467
716.362	3231
716.479	2819
716.596	1993
716.713	2211
716.829	2384
716.946	2193
717.063	1719
717.180	1666
717.296	1772
717.413	2098
717.530	2703
717.646	1203
717.763	1657
717.880	1650
717.996	1471
718.113	1000
718.229	2595
718.346	1641
718.462	2316
718.579	2038
718.695	2625
718.812	2220
718.928	2149
719.045	1666
719.161	2203
719.277	1498
719.394	2584
719.510	1976
719.626	1049
719.743	2080
719.859	4152
719.975	9965
720.092	44360
720.208	82947
720.324	8408
720.440	2825
720.557	2247
720.673	2501
720.789	2452
720.905	2750
721.021	2123
721.137	943
721.253	1705
721.369	1512
721.486	1766
721.602	1433
721.718	744
721.834	1103
721.950	995
722.066	1201
722.181	1158
722.297	1806
722.413	1637
722.529	872
722.645	1379
722.761	1435
722.877	1254
722.993	955
723.108	2321
723.224	2073
723.340	1788
723.456	1139
723.571	2235
723.687	751
723.803	1666
723.918	535
724.034	518
724.150	1062
724.265	1713
724.381	1963
724.497	1689
724.612	345
724.728	1390
724.843	1549
724.959	2083
725.074	1510
725.190	1650
725.305	1566
725.421	1047
725.536	976
725.651	2605
725.767	1621
725.882	1580
725.997	1234
726.113	1483
726.228	1571
726.343	1312
726.459	1934
726.574	1316
726.689	912
726.804	1169
726.920	899
727.035	406
727.150	1368
727.265	1342
727.380	1992
727.495	2085
727.610	1696
727.725	852
727.841	1279
727.956	1926
728.071	2058
728.186	1098
728.301	1094
728.416	1431
728.531	2029
728.645	1785
728.760	1455
728.875	1121
728.990	2087
729.105	1188
729.220	774
729.335	404
729.449	1571
729.564	859
729.679	857
729.794	1680
729.908	1176
730.023	620
730.138	1578
730.253	2173
730.367	1742
730.482	1021
730.596	1526
730.711	1312
730.826	2666
730.940	2482
731.055	1773
731.169	1136
731.284	1094
731.398	1631
731.513	772
731.627	1172
731.742	2127
731.856	1966
731.970	977
732.085	2518
732.199	2805
732.313	5744
732.428	16003
732.542	51596
732.656	23438
732.771	3754
732.885	2166
732.999	2886
733.113	2455
733.227	3215
733.342	1243
733.456	2727
733.570	2331
733.684	1667
733.798	2256
733.912	1205
734.026	1338
734.140	1655
734.254	932
734.368	2729
734.482	1619
734.596	2094
734.710	1651
734.824	1360
734.938	1239
735.052	2324
735.166	2194
735.280	1844
735.393	1122
735.507	329
735.621	1551
735.735	2210
735.849	1653
735.962	1787
736.076	1672
736.190	2005
736.303	1801
736.417	1957
736.531	1303
736.644	1370
736.758	1683
736.872	1524
736.985	1678
737.099	1471
737.212	1702
737.326	1522
737.439	1309
737.553	1078
737.666	2038
737.780	972
737.893	1086
738.007	626
738.120	1897
738.233	1383
738.347	1696
738.460	1213
738.573	2278
738.687	1895
738.800	1456
738.913	1944
739.026	1602
739.140	2074
739.253	1430
739.366	1790
739.479	1602
739.592	567
739.705	1372
739.818	1101
739.932	828
740.045	1139
740.158	1078
740.271	1758
740.384	340
740.497	1697
740.610	1537
740.723	1596
740.836	2170
740.949	2023
741.062	1453
741.174	938
741.287	371
741.400	1669
741.513	1695
741.626	2145
741.739	1906
741.851	1833
741.964	1720
742.077	1008
742.189	2072
742.302	2544
742.415	2187
742.527	1816
742.640	641
742.753	733
742.865	1275
742.978	862
743.090	1557
743.203	1625
743.316	527
743.428	1103
743.541	1309
743.653	173
743.766	1002
743.878	1095
743.990	1535
744.103	1101
744.215	1625
744.327	1257
744.440	1435
744.552	1961
744.664	663
744.777	519
744.889	1301
745.001	1071
745.113	1019
745.226	1087
745.338	871
745.450	954
745.562	1688
745.674	1419
745.786	1201
745.898	1057
746.010	374
746.122	203
746.234	1209
746.347	1097
746.459	1318
746.570	520
746.682	1676
746.794	1427
746.906	796
747.018	671
747.130	1462
747.242	1189
747.354	872
747.466	1385
747.577	778
747.689	1629
747.801	1082
747.913	1678
748.024	-13
748.136	1243
748.248	881
748.359	612
748.471	1065
748.583	955
748.694	636
748.806	1000
748.918	741
749.029	1126
749.141	757
749.252	1424
749.364	1232
749.475	1606
749.587	747
749.698	660
749.809	1285
749.921	1590
750.032	1775
750.144	952
750.255	707
750.366	755
750.478	936
750.589	420
750.700	993
750.811	668
750.923	1188
751.034	1577
751.145	2408
751.256	362
751.367	210
751.479	941
751.590	1339
751.701	-116
751.812	-406
751.923	874
752.034	1367
752.145	883
752.256	659
752.367	-54
752.478	677
752.589	1798
752.700	889
752.811	-385
752.922	740
753.032	1250
753.143	-304
753.254	229
753.365	1126
753.476	493
753.586	1020
753.697	721
753.808	1301
753.919	414
754.029	323
754.140	1005
754.251	959
754.361	-12
754.472	1243
754.582	910
754.693	729
754.804	1178
754.914	292
755.025	514
755.135	559
755.246	729
755.356	-242
755.466	490
755.577	747
755.687	1660
755.798	-236
755.908	1206
756.018	285
756.129	656
756.239	282
756.349	97
756.460	450
756.570	751
756.680	435
756.790	354
756.900	842
757.011	64
757.121	651
757.231	800
757.341	666
757.451	-698
757.561	-233
757.671	784
757.781	804
757.891	984
758.001	260
758.111	53
758.221	600
758.331	522
758.441	593
758.551	763
758.661	544
758.771	1605
758.880	736
758.990	718
759.100	554
759.210	209
759.320	441
759.429	126
759.539	347
759.649	1039
759.758	1252
759.868	870
759.978	435
760.087	903
760.197	944
760.307	1016
760.416	198
760.526	472
760.635	1278
760.745	1081
760.854	690
760.964	858
761.073	218
761.182	589
761.292	-59
761.401	1459
761.511	69
761.620	1062
761.729	637
761.839	317
761.948	730
762.057	367
762.166	688
762.276	-1042
762.385	2008
762.494	704
762.603	834
762.712	1166
762.822	325
762.931	595
763.040	-436
763.149	806
763.258	688
763.367	1107
763.476	1227
763.585	642
763.694	1085
763.803	1154
763.912	268
764.021	616
764.130	432
764.238	949
764.347	398
764.456	845
764.565	601
764.674	275
764.783	471
764.891	-615
765.000	1808
765.109	1285
765.217	1227
765.326	1778
765.435	1602
765.543	2366
765.652	1875
765.761	2604
765.869	5277
765.978	8579
766.086	16242
766.195	34188
766.303	103392
766.412	312526
766.520	181746
766.629	30282
766.737	12598
766.846	7862
766.954	4874
767.062	4574
767.171	3002
767.279	3153
767.387	1913
767.496	1655
767.604	1544
767.712	1103
767.820	741
767.928	1938
768.037	551
768.145	377
768.253	1755
768.361	27
768.469	932
768.577	386
768.685	2061
768.793	1319
768.901	62
769.009	2149
769.117	2114
769.225	2067
769.333	4168
769.441	5797
769.549	14206
769.657	37752
769.765	137913
769.873	234890
769.981	45119
770.088	9637
770.196	4878
770.304	3583
770.412	2712
770.519	2281
770.627	1633
770.735	1541
770.842	1417
770.950	1348
771.058	1308
771.165	2440
771.273	1182
771.380	2367
771.488	1301
771.595	706
771.703	921
771.810	944
771.918	1041
772.025	1561
772.133	566
772.240	169
772.348	2015
772.455	1949
772.562	1260
772.670	1325
772.777	1763
772.884	1912
772.991	972
773.099	1136
773.206	302
773.313	550
773.420	927
773.528	1090
773.635	1550
773.742	1110
773.849	1599
773.956	553
774.063	1582
774.170	314
774.277	1197
774.384	449
774.491	1150
774.598	1657
774.705	1190
774.812	534
774.919	1337
775.026	869
775.133	1334
775.239	1171
775.346	975
775.453	228
775.560	-138
775.667	561
775.773	-49
775.880	1377
775.987	480
776.093	1388
776.200	823
776.307	12
776.413	638
776.520	760
776.627	602
776.733	1060
776.840	-704
776.946	2197
777.053	701
777.159	1343
777.266	-684
777.372	2208
777.478	818
777.585	1151
777.691	876
777.798	89
777.904	537
778.010	1099
778.117	861
778.223	996
778.329	61
778.435	520
778.542	1152
778.648	587
778.754	420
778.860	748
778.966	266
779.072	471
779.178	386
779.284	810
779.391	609
779.497	-434
779.603	1723
779.708	-126
779.815	1707
779.920	2120
780.026	3238
780.132	844
780.238	368
780.344	-2
780.450	1398
780.556	686
780.661	346
780.767	718
780.873	144
780.979	751
781.085	66
781.190	539
781.296	223
781.402	230
781.507	230
781.613	1073
781.719	156
781.824	617
781.930	483
782.035	1342
782.141	511
782.246	232
782.352	954
782.457	-4
782.563	246
782.668	327
782.773	68
782.879	753
782.984	934
783.090	623
783.195	1198
783.300	912
783.405	166
783.511	476
783.616	364
783.721	225
783.826	565
783.932	593
784.037	-6
784.142	834
784.247	-440
784.352	539
784.457	190
784.562	694
784.667	486
784.772	-496
784.877	126
784.982	518
785.087	938
785.192	1176
785.297	-47
785.402	698
785.507	487
785.611	483
785.716	17
785.821	219
785.926	-656
786.031	1250
786.135	199
786.240	240
786.345	-1555
786.450	738
786.554	-37
786.659	-696
786.763	-916
786.868	-189
786.973	761
787.077	-305
787.182	92
787.286	569
787.391	152
787.495	-565
787.600	373
787.704	-43
787.809	-375
787.913	-199
788.017	877
788.122	-873
788.226	-523
788.330	-916
788.435	494
788.539	745
788.643	-19
788.747	-92
788.852	97
788.956	-328
789.060	470
789.164	235
789.268	-631
789.372	446
789.476	-363
789.580	-673
789.684	-79
789.788	936
789.892	-370
789.996	646
790.100	-578
790.204	673
790.308	-590
790.412	-557
790.516	192
790.620	-804
790.724	-171
790.828	837
790.931	-407
791.035	1087
791.139	-460
791.242	-704
791.346	708
791.450	-661
791.554	-411
791.657	-423
791.761	968
791.864	239
791.968	277
792.072	120
792.175	-735
792.279	-298
792.382	138
792.486	-82
792.589	-886
792.693	558
792.796	-1119
792.899	13
793.003	120
793.106	-1818
793.209	-703
793.313	511
793.416	-1637
793.519	610
793.623	403
793.726	-108
793.829	-453
793.932	-268
794.035	-971
794.138	979
794.242	542
794.345	-465
794.448	264
794.551	-608
794.654	1806
794.757	1776
794.860	650
794.963	445
795.066	-825
795.169	1246
795.272	-192
795.375	326
795.477	-548
795.580	812
795.683	-1419
795.786	-676
795.889	-1686
795.991	720
796.094	125
796.197	-1402
796.300	743
796.402	-1027
796.505	-288
796.608	-1005
796.710	699
796.813	351
796.915	-755
797.018	-195
797.120	542
797.223	-700
797.326	1549
797.428	-1527
797.530	-377
797.633	48
797.735	518
797.838	-1191
797.940	-185
798.042	-725
798.145	-632
798.247	318
798.349	-923
798.452	321
798.554	-343
798.656	-881
798.758	1294
798.860	-301
798.962	-852
799.065	-398
799.167	-1602
799.269	225
799.371	-65
799.473	424
799.575	-1966
799.677	-526
799.779	791
799.881	-1762
799.983	435
800.085	187
800.187	-255
800.289	-1060
800.390	-487
800.492	982
800.594	1066
800.696	-512
800.798	981
800.899	-789
801.001	-571
801.103	-297
801.205	-829
801.306	-533
801.408	-857
801.509	76
801.611	-139
801.713	-307
801.814	-1017
801.916	-744
802.017	-355
802.119	-1227
802.220	-315
802.322	-1315
802.423	1417
802.525	-1452
802.626	-72
802.727	124
802.829	38
802.930	-2604
803.031	727
803.133	-160
803.234	-185
803.335	-361
803.436	-1580
803.538	-223
803.639	-1352
803.740	1072
803.841	-780
803.942	-503
804.043	-43
804.144	-958
804.245	-416
804.346	-965
804.447	-963
804.548	-123
804.649	610
804.750	-334
804.851	-911
804.952	-194
805.053	30
805.154	-1405
805.255	915
805.355	-415
805.456	61
805.557	-393
805.658	-1036
805.758	355
805.859	-81
805.960	-85
806.061	-963
806.161	-648
806.262	-187
806.362	-663
806.463	-1023
806.564	69
806.664	-601
806.765	-1098
806.865	-573
806.966	-832
807.066	-1464
807.166	479
807.267	-436
807.367	-1303
807.468	-1031
807.568	-1340
807.668	-58
807.769	203
807.869	-1093
807.969	-839
808.069	-140
808.170	-364
808.270	-898
808.370	-82
808.470	-464
808.570	-1413
808.670	-1229
808.770	-133
808.870	-800
808.970	96
809.070	-380
809.170	-1384
809.271	336
809.370	-691
809.470	-228
809.570	-586
809.670	-1094
809.770	-445
809.870	-435
809.970	89
810.070	-1231
810.169	-436
810.269	-1573
810.369	1034
810.469	-843
810.568	-815
810.668	-1310
810.768	-528
810.867	377
810.967	-808
811.066	-973
811.166	-1346
811.265	-377
811.365	-999
811.464	-780
811.564	-692
811.663	146
811.763	-949
811.862	-523
811.962	584
812.061	-1329
812.160	-1450
812.260	6
812.359	-228
812.458	-1238
812.557	-1028
812.657	-1085
812.756	-615
812.855	-836
812.954	-908
813.053	-648
813.153	15
813.252	-791
813.351	-574
813.450	-487
813.549	-1521
813.648	154
813.747	-1078
813.846	849
813.945	-710
814.044	-869
814.143	-617
814.242	132
814.341	-1342
814.439	-504
814.538	-316
814.637	38
814.736	129
814.835	85
814.933	-784
815.032	190
815.131	-34
815.229	221
815.328	858
815.427	-209
815.525	-161
815.624	442
815.722	-307
815.821	0
815.919	-272
816.018	-654
816.116	509
816.215	-675
816.313	-343
816.412	214
816.510	490
816.609	1081
816.707	621
816.805	80
816.904	66
817.002	1023
817.100	1181
817.198	1519
817.296	1010
817.395	847
817.493	1707
817.591	1943
817.689	3715
817.787	4476
817.885	9043
817.983	19913
818.081	47979
818.179	121563
818.277	279884
818.375	164195
818.473	34650
818.571	13823
818.669	9640
818.767	8354
818.865	9372
818.963	11852
819.061	20304
819.158	38984
819.256	92704
819.354	226119
819.452	410278
819.549	187594
819.647	46625
819.745	19147
819.842	11707
819.940	7477
820.038	5137
820.135	4342
820.233	4050
820.330	2444
820.428	2186
820.525	1904
820.623	958
820.720	739
820.818	946
820.915	1556
821.012	1410
821.110	70
821.207	589
821.304	-186
821.402	237
821.499	687
821.596	957
821.693	94
821.791	233
821.888	317
821.985	1054
822.082	-550
822.179	707
822.276	-197
822.373	118
822.470	151
822.567	583
822.664	-1524
822.761	453
822.858	-673
822.955	-681
823.052	736
823.149	-292
823.246	-644
823.343	-978
823.440	-556
823.536	-550
823.633	-164
823.730	-180
823.827	-335
823.923	-165
824.020	1062
824.117	-919
824.213	-929
824.310	-119
824.407	-597
824.503	147
824.600	-106
824.696	-721
824.793	-168
824.889	-935
824.986	-1214
825.082	-1018
825.179	-49
825.275	-362
825.371	-767
825.468	479
825.564	-588
825.660	-191
825.757	42
825.853	-13
825.949	-1319
826.045	-368
826.142	-1164
826.238	-697
826.334	-118
826.430	-1426
826.526	-284
826.622	-1563
826.718	-281
826.814	-887
826.910	299
827.006	-1148
827.102	-1049
827.198	211
827.294	-1686
827.390	-555
827.486	-365
827.582	-1693
827.678	-1228
827.774	-1199
827.869	-2251
827.965	88
828.061	-1088
828.157	-633
828.252	-611
828.348	-1349
828.444	48
828.539	-689
828.635	-1431
828.731	-140
828.826	-1373
828.922	-258
829.017	-852
829.113	-316
829.208	-1492
829.304	-1759
829.399	-494
829.495	-1655
829.590	-576
829.685	-1590
829.781	-219
829.876	-1369
829.971	-1264
830.066	-527
830.162	-471
830.257	-1557
830.352	-927
830.447	664
830.543	-507
830.638	-2161
830.733	292
830.828	-1523
830.923	52
831.018	-592
831.113	-342
831.208	-2116
831.303	-324
831.398	-842
831.493	-882
831.588	-444
831.683	-1727
831.778	-173
831.873	-634
831.967	438
832.062	-1286
832.157	-1225
832.252	-438
832.346	-1176
832.441	-76
832.536	-940
832.631	408
832.725	-629
832.820	-1296
832.914	-1101
833.009	-1289
833.104	-299
833.198	-353
833.293	-921
833.387	-322
833.482	-617
833.576	-1468
833.670	235
833.765	-789
833.859	-846
833.954	-926
834.048	-1064
834.142	-375
834.237	-774
834.331	-752
834.425	-211
834.519	-1967
834.613	305
834.708	-1308
834.802	-498
834.896	-2262
834.990	-710
835.084	-646
835.178	-1016
835.272	-1104
835.366	-1399
835.460	-995
835.554	-925
835.648	-1001
835.742	-1320
835.836	-776
835.930	-1895
836.024	-465
836.117	-258
836.211	-1865
836.305	-91
836.399	-540
836.493	-1587
836.586	-671
836.680	-1382
836.774	-1029
836.867	-418
836.961	-1949
837.055	-1005
837.148	-1074
837.242	-853
837.335	-1194
837.429	-1110
837.522	-1327
837.616	-1196
837.709	-348
837.803	-918
837.896	-593
837.989	-1419
838.083	-499
838.176	-873
838.269	-1872
838.363	-925
838.456	-1916
838.549	179
838.642	-1074
838.735	-153
838.829	-302
838.922	-1242
839.015	-1577
839.108	-1601
839.201	-518
839.294	-1287
839.387	-741
839.480	-2197
839.573	-1138
839.666	-1665
839.759	-868
839.852	-2004
839.945	-649
840.038	-1154
840.131	-2079
840.223	-1129
840.316	-1133
840.409	-1145
840.502	-2291
840.594	76
840.687	-1635
840.780	-744
840.873	-1599
840.965	-1925
841.058	-962
841.150	-942
841.243	-1384
841.336	-585
841.428	-842
841.521	-1656
841.613	-1355
841.706	-1505
841.798	-1093
841.890	-1229
841.983	-1606
842.075	-607
842.167	-1139
842.260	-1283
842.352	-305
842.444	-1413
842.537	-1016
842.629	-836
842.721	-1118
842.813	-1202
842.905	-2135
842.997	-1005
843.090	-1154
843.182	-1488
843.274	-1669
843.366	270
843.458	-430
843.550	-499
843.642	-1120
843.734	-1022
843.826	-1045
843.918	-1085
844.009	-983
844.101	-1223
844.193	-1028
844.285	-1718
844.377	-962
844.469	-1561
844.560	-1859
844.652	-822
844.744	-683
844.835	-1373
844.927	-791
845.019	-1566
845.110	-1178
845.202	-904
845.293	-1074
845.385	-1809
845.476	-1278
845.568	-1131
845.659	-1646
845.751	-205
845.842	-1548
845.934	-1558
846.025	-1193
846.116	-1247
846.208	-1159
846.299	-1700
846.390	-1385
846.482	-662
846.573	-843
846.664	-1739
846.755	-1960
846.846	-873
846.937	-1927
847.029	-1592
847.120	-1825
847.211	-1668
847.302	-82
847.393	-2206
847.484	-964
847.575	-1198
847.666	-1017
847.757	-1506
847.847	-773
847.938	-323
848.029	-1134
848.120	-2060
848.211	-1783
848.302	-1550
848.392	-1618
848.483	-492
848.574	-1931
848.664	-1495
848.755	-1348
848.846	-1319
848.936	-1890
849.027	-701
849.118	-1108
849.208	-1988
849.299	-778
849.389	86
849.480	1188
849.570	3661
849.661	9305
849.751	12721
849.841	2609
849.932	-713
850.022	-1834
850.112	-880
850.203	-2152
850.293	-1319
850.383	-1898
850.474	-2132
850.564	-1489
850.654	-1196
850.744	-2232
850.834	-995
850.924	-1325
851.014	-1520
851.104	-1723
851.194	-1215
851.284	-599
851.374	-711
851.464	-2066
851.554	-1188
851.644	-1451
851.734	-216
851.824	-920
851.914	-1363
852.004	-819
852.094	-798
852.183	-2063
852.273	-1464
852.363	-868
852.452	-935
852.542	-744
852.632	-1139
852.721	-1934
852.811	-1853
852.901	-1325
852.990	-1039
853.080	-1014
853.169	-1011
853.259	-1077
853.348	-1517
853.438	-1387
853.527	-106
853.617	-12
853.706	3079
853.795	6856
853.885	16749
853.974	31177
854.063	64273
854.152	88358
854.242	24418
854.331	2292
854.420	1251
854.509	228
854.598	-312
854.687	-581
854.777	-514
854.866	-1734
854.955	-498
855.044	-1759
855.133	-1443
855.222	-1140
855.311	-1880
855.400	-1380
855.488	-1150
855.577	-871
855.666	-1537
855.755	-746
855.844	-1514
855.933	-1258
856.021	-572
856.110	-1399
856.199	-1844
856.288	-1401
856.376	-1868
856.465	-2156
856.554	-775
856.642	-1258
856.731	-1149
856.819	-1682
856.908	-1576
856.996	-1363
857.085	-1752
857.173	-908
857.262	-2026
857.350	-801
857.438	-1271
857.527	-1245
857.615	-1260
857.703	-1166
857.792	-1756
857.880	-1431
857.968	-1201
858.056	-1187
858.145	-1649
858.233	-1647
858.321	-1908
858.409	-974
858.497	-1635
858.585	-1372
858.673	-1740
858.761	-1573
858.849	-989
858.937	-1890
859.025	-869
859.113	-926
859.201	-2468
859.289	-761
859.377	-2218
859.465	-975
859.552	-768
859.640	-1875
859.728	-968
859.816	-1127
859.903	-1198
859.991	-2249
860.079	-1057
860.166	-1764
860.254	-1730
860.342	-1869
860.429	-1737
860.517	-1548
860.604	-1357
860.692	-1480
860.779	-1996
860.867	-1536
860.954	-1787
861.042	-1397
861.129	-1067
861.216	-792
861.304	-2291
861.391	-1421
861.478	-1132
861.565	-933
861.653	-712
861.740	-1755
861.827	-1062
861.914	-1533
862.001	-1797
862.089	-1092
862.176	-762
862.263	-1144
862.350	-1734
862.437	-1774
862.524	-2571
862.611	-1889
862.698	-1673
862.785	-1523
862.871	-1056
862.958	-1141
863.045	-1204
863.132	-1179
863.219	-1417
863.306	-2296
863.392	-1059
863.479	-2232
863.566	-1270
863.652	-1469
863.739	-2068
863.826	-1069
863.912	-1803
863.999	-2058
864.086	-1558
864.172	-1667
864.259	-1521
864.345	-2028
864.432	-1230
864.518	-1841
864.604	-914
864.691	-1794
864.777	-854
864.863	-1092
864.950	-1520
865.036	-1479
865.122	-763
865.209	-350
865.295	-1027
865.381	-1047
865.467	-1109
865.553	922
865.639	-255
865.726	3209
865.812	6635
865.898	14930
865.984	22558
866.070	47348
866.156	40886
866.242	6986
866.328	114
866.414	-864
866.499	-671
866.585	-554
866.671	-1216
866.757	-486
866.843	-657
866.928	-1413
867.014	-800
867.100	-422
867.186	-1353
867.271	-872
867.357	-818
867.442	-1499
867.528	-1469
867.614	-1664
867.699	-1846
867.785	-1241
867.870	-686
867.956	-645
868.041	3
868.127	-1260
868.212	-453
868.297	-478
868.383	-444
868.468	-866
868.553	-597
868.639	-347
868.724	-302
868.809	-691
868.894	-1059
868.979	-1209
869.065	-311
869.150	-1932
869.235	-1689
869.320	-1424
869.405	-1572
869.490	-1058
869.575	-1426
869.660	-1118
869.745	-1259
869.830	-1667
869.915	-1521
870.000	-1142
870.085	-749
870.169	-1491
870.254	-1203
870.339	-1411
870.424	-1432
870.509	-1107
870.593	-787
870.678	-970
870.763	-1485
870.847	-1413
870.932	-1505
871.016	-2433
871.101	-1429
871.186	-1617
871.270	-959
871.355	-1153
871.439	-787
871.523	-1400
871.608	-1504
871.692	-853
871.777	-646
871.861	-1625
871.945	-1303
872.030	-660
872.114	-1130
872.198	-1450
872.282	-1542
872.367	-1700
872.451	-1919
872.535	-1684
872.619	-1369
872.703	-944
872.787	-856
872.871	-1040
872.955	-2299
873.039	-1350
873.123	-497
873.207	-1284
873.291	-997
873.375	-1911
873.459	-766
873.543	-1464
873.627	-1049
873.711	-1823
873.794	-1017
873.878	-1414
873.962	-1818
874.045	-1235
874.129	-755
874.137	-818
874.213	-1441
874.245	-1438
874.296	-1441
874.352	-1423
874.380	-1415
874.460	-1220
874.464	-1212
874.547	-1453
874.568	-1460
874.631	-1522
874.676	-1099
874.714	-733
874.784	-700
874.798	-691
874.881	-519
874.892	-669
874.965	-1695
874.999	-1726
875.048	-1823
875.107	-1544
875.131	-1418
875.215	-1205
875.215	-1204
875.298	-905
875.323	-989
875.381	-1162
875.430	-1127
875.465	-1103
875.538	-1275
875.548	-1309
875.631	-1339
875.646	-1390
875.714	-1587
875.753	-1363
875.798	-1088
875.861	-1097
875.881	-1127
875.964	-1656
875.968	-1622
876.047	-875
876.076	-857
876.130	-866
876.183	-823
876.213	-794
876.291	-587
876.296	-574
876.379	-1600
876.398	-1301
876.462	-327
876.506	-750
876.545	-1147
876.613	-716
876.628	-610
876.711	-1752
876.721	-1564
876.794	-66
876.828	-573
876.877	-1296
876.935	-591
876.960	-331
877.043	-1005
877.043	-1004
877.125	-420
877.150	-110
877.208	499
877.258	-27
877.291	-329
877.365	-328
877.374	-354
877.456	361
877.472	198
877.539	-293
877.579	-621
877.622	-979
877.687	-778
877.704	-722
877.787	-776
877.794	-795
877.869	-1097
877.901	-812
877.952	-312
878.008	-558
878.034	-680
878.115	-799
878.117	-794
878.199	-706
878.222	-692
878.282	-930
878.329	-524
878.364	-136
878.437	-42
878.447	-58
878.529	-960
878.544	-1017
878.611	-993
878.651	-710
878.694	-435
878.758	-529
878.776	-547
878.858	-114
878.865	-172
878.941	-1193
878.972	-1137
879.023	-815
879.078	-947
879.105	-927
879.185	-405
879.187	-403
879.269	-462
879.292	-657
879.351	-980
879.399	-1156
879.433	-1218
879.506	-541
879.516	-472
879.598	-1151
879.613	-1113
879.680	-762
879.720	-639
879.762	-562
879.827	-551
879.844	-569
879.926	-915
879.933	-857
880.007	-210
880.040	-557
880.089	-943
880.147	-752
880.171	-728
880.253	-168
880.254	-170
880.335	-23
880.360	12
880.417	262
880.467	73
880.499	-15
880.574	260
880.580	202
880.662	-514
880.680	-747
880.744	-925
880.787	-809
880.825	-728
880.893	-1029
880.907	-1070
880.989	-118
881.000	-150
881.070	-286
881.106	-389
881.152	-593
881.213	-438
881.233	-367
881.315	-440
881.319	-450
881.396	-617
881.426	-694
881.478	-679
881.532	-363
881.559	-355
881.639	-741
881.641	-736
881.722	-560
881.745	-403
881.803	14
881.852	-250
881.885	-651
881.958	-685
881.966	-662
882.047	-631
882.064	-727
882.129	-490
882.171	-266
882.210	-389
882.277	-86
882.291	9
882.372	-549
882.383	-500
882.454	-191
882.489	-316
882.535	-508
882.596	-567
882.616	-527
882.697	-412
882.702	-415
882.778	-329
882.808	-314
882.859	-569
882.914	-468
882.940	-300
883.020	-92
883.021	-88
883.102	-124
883.127	-230
883.183	-275
883.233	-123
883.264	-158
883.339	-356
883.345	-386
883.426	-951
883.445	-995
883.507	-185
883.551	137
883.587	-25
883.657	155
883.668	208
883.749	-13
883.763	6
883.830	-205
883.869	-329
883.910	-131
883.975	-195
883.991	-187
884.072	-46
884.081	1
884.152	183
884.187	148
884.233	-69
884.292	-476
884.314	-503
884.394	-208
884.398	-183
884.475	-124
884.504	-466
884.555	-329
884.610	151
884.636	131
884.716	-169
884.716	-162
884.797	368
884.821	321
884.877	-26
884.927	-276
884.958	-252
885.033	18
885.038	15
885.118	-240
885.139	-335
885.199	-323
885.244	-148
885.279	21
885.350	-41
885.359	-7
885.439	363
885.456	495
885.520	364
885.561	121
885.600	70
885.667	78
885.680	76
885.760	-130
885.773	-115
885.840	36
885.878	-20
885.920	8
885.984	-145
886.000	-140
886.080	192
886.089	205
886.160	-184
886.195	-251
886.240	-142
886.300	-350
886.320	-209
886.400	639
886.406	694
886.480	35
886.511	-382
886.560	-363
886.616	-239
886.640	-96
886.720	545
886.722	546
886.800	-64
886.827	-192
886.879	72
886.932	288
886.959	470
887.038	1056
887.039	1068
887.119	1069
887.143	1175
887.198	862
887.248	485
887.278	383
887.354	-83
887.358	-58
887.437	428
887.459	578
887.517	764
887.564	838
887.596	675
887.669	347
887.676	334
887.755	228
887.774	118
887.835	-249
887.880	-464
887.914	-221
887.985	361
887.994	353
888.073	140
888.090	70
888.153	-193
888.195	-285
888.232	-161
888.300	-23
888.311	32
888.391	386
888.405	445
888.470	489
888.510	464
888.549	148
888.615	-277
888.628	-173
888.708	288
888.720	368
888.787	486
888.825	521
888.866	199
888.930	-289
888.945	-221
889.024	89
889.035	140
889.103	368
889.140	416
889.182	315
889.245	201
889.261	281
889.340	688
889.349	724
889.419	614
889.454	555
889.498	318
889.559	-10
889.577	142
889.656	792
889.664	854
889.735	652
889.768	548
889.814	731
889.873	971
889.978	456
890.083	-422
890.187	1077
890.292	110
890.397	396
890.501	1225
890.606	522
890.710	925
890.815	1056
890.919	660
891.024	80
891.128	1362
891.233	811
891.337	456
891.442	898
891.546	517
891.650	769
891.755	1090
891.859	962
891.963	1016
892.068	1062
892.172	1019
892.276	-182
892.380	1074
892.484	156
892.589	631
892.693	548
892.797	373
892.901	-280
893.005	-56
893.109	-141
893.213	461
893.317	671
893.421	1119
893.525	325
893.629	23
893.733	364
893.837	715
893.941	347
894.045	805
894.148	61
894.252	578
894.356	154
894.460	388
894.564	36
894.667	1133
894.771	699
894.875	390
894.978	182
895.082	-718
895.186	1413
895.289	1305
895.393	154
895.496	768
895.600	-649
895.703	593
895.807	152
895.910	919
896.014	-521
896.117	-87
896.221	290
896.324	728
896.427	248
896.531	542
896.634	-65
896.737	86
896.840	422
896.944	186
897.047	1027
897.150	49
897.253	765
897.356	912
897.460	493
897.563	-122
897.666	898
897.769	684
897.872	836
897.975	-394
898.078	138
898.181	1247
898.284	-118
898.387	-424
898.490	-487
898.593	-54
898.695	289
898.798	407
898.901	-57
899.004	301
899.107	902
899.209	756
899.312	773
899.415	238
899.518	-307
899.620	478
899.723	462
899.826	890
899.928	734
900.031	148
900.133	-492
900.236	107
900.338	-220
900.441	-300
900.543	-706
900.646	-385
900.748	740
900.851	-59
900.953	-859
901.055	541
901.158	-91
901.260	193
901.362	481
901.465	-692
901.567	272
901.669	1001
901.771	75
901.873	318
901.976	732
902.078	-408
902.180	-338
902.282	-543
902.384	-142
902.486	316
902.588	594
902.690	-67
902.792	-355
902.894	1112
902.996	-216
903.098	72
903.200	74
903.302	250
903.404	208
903.505	399
903.607	220
903.709	-232
903.811	133
903.913	-257
904.014	-183
904.116	455
904.218	257
904.319	656
904.421	1174
904.523	334
904.624	276
904.726	215
904.827	53
904.929	-48
905.030	-189
905.132	183
905.233	159
905.335	-460
905.436	356
905.537	-457
905.639	472
905.740	-436
905.841	572
905.943	-217
906.044	-904
906.145	466
906.247	-323
906.348	-555
906.449	610
906.550	650
906.651	617
906.752	-424
906.854	472
906.955	360
907.056	-65
907.157	-5
907.258	-360
907.359	171
907.460	-59
907.561	740
907.662	-193
907.762	303
907.863	284
907.964	363
908.065	17
908.166	-630
908.267	-888
908.367	163
908.468	-84
908.569	-126
908.670	-138
908.770	470
908.871	-130
908.971	-277
909.072	-386
909.173	-334
909.273	-557
909.374	330
909.474	-248
909.575	101
909.675	-632
909.776	1261
909.876	276
909.977	-95
910.077	1248
910.177	163
910.278	428
910.378	-241
910.478	99
910.579	567
910.679	-196
910.779	1
910.879	-333
910.980	75
911.080	522
911.180	778
911.280	-468
911.380	123
911.480	-636
911.580	391
911.680	-22
911.780	895
911.880	-382
911.980	224
912.080	-105
912.180	120
912.280	9
912.380	136
912.480	-301
912.580	376
912.679	-522
912.779	162
912.879	243
912.979	33
913.078	124
913.178	-90
913.278	89
913.377	-764
913.477	-23
913.577	-416
913.676	184
913.776	-152
913.875	45
913.975	218
914.074	261
914.174	79
914.273	-1260
914.373	523
914.472	-11
914.572	-562
914.671	381
914.770	-176
914.870	-970
914.969	-156
915.068	-33
915.167	518
915.267	-146
915.366	-250
915.465	270
915.564	331
915.663	281
915.763	-98
915.862	268
915.961	334
916.060	-23
916.159	239
916.258	-411
916.357	-309
916.456	150
916.555	373
916.654	-522
916.752	-173
916.851	-240
916.950	-370
917.049	-916
917.148	14
917.247	-443
917.345	-513
917.444	100
917.543	-58
917.642	-16
917.740	302
917.839	273
917.937	331
918.036	359
918.135	-738
918.233	-735
918.332	24
918.430	-485
918.529	503
918.627	-729
918.726	-321
918.824	-35
918.923	-1186
919.021	63
919.119	-445
919.218	-143
919.316	-373
919.414	-233
919.512	24
919.611	112
919.709	-524
919.807	-259
919.905	237
920.003	-771
920.102	-572
920.200	-19
920.298	-492
920.396	0
920.494	-344
920.592	-687
920.690	35
920.788	-451
920.886	-27
920.984	220
921.082	-562
921.180	890
921.277	-157
921.375	527
921.473	-113
921.571	-594
921.669	272
921.766	-517
921.864	-248
921.962	869
922.060	444
922.157	311
922.255	-40
922.352	114
922.450	818
922.548	-302
922.645	206
922.743	-527
922.840	1270
922.938	1313
923.035	879
923.133	323
923.230	1208
923.327	845
923.425	1180
923.522	735
923.619	402
923.717	645
923.814	1402
923.911	690
924.008	1535
924.106	915
924.203	84
924.300	133
924.397	964
924.494	1278
924.591	946
924.688	-174
924.786	915
924.883	989
924.979	135
925.077	623
925.173	789
925.270	221
925.367	1116
925.464	1058
925.561	702
925.658	1387
925.755	1320
925.852	1313
925.948	1334
926.045	464
926.142	-1
926.239	1227
926.335	831
926.432	682
926.529	1110
926.625	1116
926.722	404
926.818	754
926.915	938
927.011	483
927.108	270
927.204	892
927.301	775
927.397	532
927.494	-30
927.590	69
927.687	100
927.783	995
927.879	955
927.976	1
928.072	882
928.168	702
928.264	833
928.361	-205
928.457	1386
928.553	529
928.649	666
928.745	593
928.841	855
928.937	1108
929.033	1023
929.129	467
929.225	307
929.321	164
929.417	411
929.513	774
929.609	561
929.705	652
929.801	627
929.897	-265
929.993	583
930.089	105
930.184	802
930.280	397
930.376	935
930.471	-191
930.567	949
930.663	642
930.758	458
930.854	1031
930.950	603
931.045	218
931.141	1273
931.236	728
931.332	-66
931.427	273
931.523	691
931.618	-231
931.714	-604
931.809	167
931.905	1150
932.000	-772
932.095	4
932.191	966
932.286	1162
932.381	210
932.476	-429
932.572	61
932.667	309
932.762	-301
932.857	888
932.952	692
933.047	478
933.142	-162
933.237	529
933.332	-449
933.427	705
933.522	322
933.617	990
933.712	355
933.807	202
933.902	216
933.997	466
934.092	178
934.187	220
934.282	62
934.376	535
934.471	640
934.566	240
934.661	325
934.755	720
934.850	412
934.945	-172
935.039	-531
935.134	942
935.228	576
935.323	462
935.417	271
935.512	138
935.606	81
935.701	-134
935.795	136
935.890	-43
935.984	370
936.079	-156
936.173	264
936.267	257
936.362	-16
936.456	-274
936.550	-304
936.644	485
936.738	-88
936.833	683
936.927	566
937.021	-492
937.115	-479
937.209	-281
937.303	536
937.397	668
937.491	-645
937.585	-37
937.679	127
937.773	822
937.867	-448
937.961	-155
938.055	-38
938.149	663
938.243	-639
938.337	618
938.430	-306
938.524	29
938.618	-333
938.712	324
938.805	136
938.899	250
938.993	563
939.086	267
939.180	-20
939.274	98
939.367	-370
939.461	636
939.554	-538
939.648	-398
939.741	595
939.835	684
939.928	165
940.022	553
940.115	58
940.208	194
940.302	66
940.395	1095
940.488	-497
940.582	477
940.675	3
940.768	467
940.861	283
940.954	440
941.048	-203
941.141	820
941.234	326
941.327	2046
941.420	1691
941.513	1635
941.606	-164
941.699	1063
941.792	-57
941.885	279
941.978	-13
942.071	307
942.164	-968
942.257	388
942.349	-131
942.442	606
942.535	-623
942.628	-120
942.721	-94
942.813	-685
942.906	1006
942.999	-600
943.091	-352
943.184	-542
943.277	-896
943.369	216
943.462	-415
943.554	752
943.647	-796
943.739	889
943.832	-438
943.924	-732
944.017	674
944.109	-367
944.201	-543
944.294	32
944.386	-10
944.478	-7
944.571	-419
944.663	560
944.755	-384
944.847	437
944.940	-802
945.032	-829
945.124	-445
945.216	283
945.308	-496
945.400	719
945.492	-851
945.584	233
945.676	-508
945.768	345
945.860	576
945.952	-329
946.044	557
946.136	-338
946.228	791
946.320	207
946.412	781
946.503	-389
946.595	389
946.687	123
946.779	-1187
946.870	-85
946.962	-248
947.054	244
947.145	-304
947.237	340
947.329	439
947.420	-27
947.512	-620
947.603	-640
947.695	43
947.786	-799
947.878	-479
947.969	710
948.061	-356
948.152	-1085
948.243	700
948.335	515
948.426	-29
948.517	-741
948.609	-116
948.700	-37
948.791	-1024
948.882	369
948.973	-799
949.065	-232
949.156	193
949.247	-523
949.338	231
949.429	-78
949.520	-874
949.611	-248
949.702	452
949.793	200
949.884	73
949.975	-918
950.066	-435
950.157	173
950.247	-146
950.338	-494
950.429	-1110
950.520	-8
950.611	-575
950.701	87
950.792	-59
950.883	18
950.973	100
951.064	19
951.155	-544
951.245	-177
951.336	-977
951.427	-1324
951.517	801
951.608	-170
951.698	-168
951.788	-965
951.879	-873
951.969	395
952.060	-841
952.150	-427
952.240	-470
952.331	-1616
952.421	623
952.511	-945
952.602	211
952.692	-516
952.782	-1211
952.872	-1096
952.962	51
953.052	-283
953.143	-1076
953.233	336
953.323	-500
953.413	-617
953.503	-356
953.593	-286
953.683	-432
953.773	-799
953.863	-1185
953.953	64
954.042	96
954.132	401
954.222	-47
954.312	-1080
954.402	34
954.492	-628
954.581	-255
954.671	-736
954.761	-1492
954.850	152
954.940	-371
955.030	1
955.119	-294
955.209	362
955.298	-205
955.388	-318
955.477	14
955.567	-1005
955.656	-121
955.746	-538
955.835	-1031
955.925	-1207
956.014	463
956.103	-19
956.193	-785
956.282	-1277
956.371	195
956.461	20
956.550	-533
956.639	-245
956.728	-2150
956.817	-914
956.906	-645
956.995	32
957.085	-286
957.174	-384
957.263	-1052
957.352	-997
957.441	-944
957.530	177
957.619	-853
957.708	423
957.796	-656
957.885	-415
957.974	-339
958.063	179
958.152	-1286
958.241	-303
958.329	-734
958.418	-972
958.507	-988
958.596	329
958.684	-536
958.773	214
958.861	-304
958.950	73
959.039	-1086
959.127	254
959.216	46
959.304	-1036
959.393	-318
959.481	-544
959.570	108
959.658	-676
959.746	-1463
959.835	-95
959.923	-550
960.011	100
960.100	271
960.188	77
960.276	-1459
960.365	-953
960.453	-91
960.541	-1190
960.629	-82
960.717	-623
960.805	-547
960.893	-152
960.981	-318
961.069	71
961.158	-427
961.245	443
961.333	-818
961.421	-407
961.509	32
961.597	-489
961.685	-631
961.773	264
961.861	-510
961.949	522
962.036	-1486
962.124	484
962.212	-673
962.299	-883
962.387	-1160
962.475	-152
962.562	-933
962.650	-85
962.738	-1049
962.825	-223
962.913	101
963.000	59
963.088	-359
963.175	456
963.263	-105
963.350	-1377
963.438	-655
963.525	-1000
963.612	586
963.700	-5
963.787	627
963.874	66
963.962	-330
964.049	569
964.136	-869
964.223	-274
964.310	-324
964.398	180
964.485	-854
964.572	-26
964.659	-679
964.746	323
964.833	32
964.920	-409
965.007	-618
965.094	-298
965.181	-704
965.268	-645
965.355	107
965.441	246
965.528	-717
965.615	1231
965.702	307
965.789	-985
965.875	-529
965.962	-107
966.049	-1021
966.136	-841
966.222	-865
966.309	-260
966.395	-68
966.482	-11
966.569	-1061
966.655	-300
966.742	-662
966.828	-431
966.915	-453
967.001	-473
967.087	-1365
967.174	-336
967.260	267
967.347	-245
967.433	-594
967.519	141
967.605	-707
967.692	-121
967.778	-200
967.864	219
967.950	-466
968.036	-315
968.123	-1338
968.209	-138
968.295	-1417
968.381	557
968.467	-63
968.553	-1407
968.639	245
968.725	-1055
968.811	221
968.897	172
968.983	-576
969.069	-1242
969.154	530
969.240	-243
969.326	-1346
969.412	-815
969.497	-194
969.583	-1392
969.669	543
969.755	-333
969.840	-463
969.926	122
970.012	89
970.097	841
970.183	-710
970.268	-712
970.354	-465
970.439	-889
970.525	598
970.610	-1123
970.696	-66
970.781	-236
970.866	-1083
970.952	784
971.037	-1324
971.122	-380
971.208	-6
971.293	-142
971.378	-1219
971.463	-431
971.549	-426
971.634	-484
971.719	-507
971.804	-36
971.889	130
971.974	-847
972.059	-894
972.144	-352
972.229	294
972.314	-720
972.399	-396
972.484	-287
972.569	-519
972.654	-783
972.739	-300
972.824	-537
972.908	-718
972.993	-930
973.078	-826
973.163	-283
973.247	-349
973.332	-1680
973.417	428
973.501	-1358
973.586	-704
973.671	-1069
973.755	-330
973.840	-205
973.924	0
974.009	-911
974.093	-1497
974.178	563
974.262	-582
974.346	-394
974.431	-67
974.515	-40
974.600	-243
974.684	-195
974.768	-1257
974.852	377
974.937	-955
975.021	-76
975.105	-189
975.189	-349
975.273	215
975.358	-460
975.442	-1558
975.526	144
975.610	-586
975.694	-1462
975.778	315
975.862	-134
975.946	-2318
976.030	1154
976.114	-1105
976.198	-224
976.281	-766
976.365	177
976.449	-1043
976.533	-27
976.617	-1733
976.700	27
976.784	-216
976.868	-870
976.951	-462
977.035	-471
977.119	-631
977.202	-462
977.286	-105
977.369	58
977.453	52
977.536	-489
977.620	-859
977.703	-195
977.787	-728
977.870	-620
977.953	-115
978.037	-733
978.120	-492
978.203	-927
978.287	195
978.370	-448
978.453	-840
978.536	-1177
978.620	-179
978.703	-540
978.786	-521
978.869	-1112
978.952	-1629
979.035	513
979.118	154
979.201	-126
979.284	-80
979.367	-897
979.450	-505
979.533	-554
979.616	-679
979.699	-416
979.782	446
979.865	-1054
979.948	-1070
980.030	-1959
980.113	-186
980.196	-575
980.279	15
980.361	-895
980.444	-1613
980.526	-431
980.609	-476
980.692	-662
980.774	-263
980.857	-867
980.939	314
981.022	-634
981.104	-993
981.187	-1112
981.269	151
981.352	-111
981.434	-1084
981.516	-890
981.599	572
981.681	-538
981.763	-110
981.846	240
981.928	-520
982.010	-224
982.092	-1590
982.174	-100
982.256	-664
982.339	-679
982.421	-413
982.503	206
982.585	-1452
982.667	-178
982.749	-1468
982.831	140
982.913	-1334
982.995	359
983.077	-1437
983.158	-363
983.240	-1670
983.322	-240
983.404	-665
983.486	-987
983.568	-248
983.649	-981
983.731	-644
983.813	-1183
983.894	-692
983.976	-1033
984.058	-1030
984.139	428
984.221	-1155
984.302	-479
984.384	-571
984.465	-1364
984.547	124
984.628	-1001
984.710	-680
984.791	-812
984.872	-1197
984.954	-566
985.035	-157
985.116	-1668
985.198	-930
985.279	1418
985.360	-540
985.441	159
985.522	527
985.604	-1244
985.685	-2187
985.766	228
985.847	647
985.928	-1331
986.009	-1178
986.090	-288
986.171	-629
986.252	-1284
986.333	-565
986.414	-1035
986.495	-1148
986.576	-1219
986.656	-1070
986.737	-329
986.818	-999
986.899	-1368
986.980	-800
987.060	-184
987.141	-1458
987.222	-556
987.302	-829
987.383	-271
987.464	-1152
987.544	-334
987.625	-959
987.705	-663
987.786	-1390
987.866	-468
987.947	-1044
988.027	-887
988.108	-809
988.188	-199
988.268	-1014
988.349	-653
988.429	-763
988.509	-510
988.589	-942
988.670	-2439
988.750	13
988.830	-696
988.910	-998
988.990	-891
989.070	-661
989.151	-608
989.231	-1170
989.311	-362
989.391	-1102
989.471	-1646
989.551	-1050
989.631	-1254
989.711	-413
989.791	-1226
989.870	-651
989.950	86
990.030	-1631
990.110	-381
990.190	-1880
990.269	-1575
990.349	-489
990.429	-1283
990.509	-995
990.588	-639
990.668	-395
990.747	-529
990.827	-1337
990.907	-31
990.986	-1119
991.066	-208
991.145	-1008
991.225	-849
991.304	-1722
991.383	223
991.463	-1413
991.542	-763
991.622	-1425
991.701	-664
991.780	-1677
991.859	-941
991.939	-920
992.018	-1219
992.097	-928
992.176	-44
992.256	-1248
992.335	-2063
992.414	-596
992.493	-1267
992.572	-850
992.651	121
992.730	-1706
992.809	-1198
992.888	-1925
992.967	-1759
993.046	-786
993.125	-2180
993.203	-1666
993.282	-694
993.361	-1552
993.440	-704
993.519	-1906
993.597	-1225
993.676	-1676
993.755	-853
993.834	-847
993.912	-1725
993.991	-369
994.069	-1814
994.148	-1624
994.226	-1672
994.305	-1267
994.384	-1542
994.462	-749
994.540	-2107
994.619	-2000
994.697	-392
994.776	-1810
994.854	-274
994.932	-1201
995.011	-857
995.089	-1222
995.167	-613
995.245	-2202
995.324	-670
995.402	-1042
995.480	-1202
995.558	-1364
995.636	-1838
995.714	-1810
995.792	-134
995.870	-1443
995.948	-1016
996.026	-697
996.104	-2051
996.182	-367
996.260	-1383
996.338	-1088
996.416	-1564
996.494	-1081
996.572	-199
996.649	-1731
996.727	-1720
996.805	-1128
996.883	-565
996.960	-1603
997.038	-1461
997.116	-1159
997.193	-853
997.271	-1256
997.348	-1243
997.426	-978
997.504	-2305
997.581	-971
997.658	-1481
997.736	-1647
997.813	-1693
997.891	-673
997.968	-1025
998.046	-1327
998.123	-1560
998.200	-906
998.277	-1226
998.355	-1327
998.432	-2278
998.509	-1507
998.586	-971
998.663	-907
998.741	-844
998.818	-2072
998.895	-1941
998.972	-739
999.049	-1277
999.126	-1537
999.203	-982
999.280	-1152
999.357	-1310
999.434	-1176
999.511	-1057
999.587	-1102
999.664	-1127
999.741	-864
999.818	-1238
999.895	-1849
999.971	-1660
1000.048	-1305
1000.125	-151
1000.202	-1865
1000.278	-227
1000.355	-1029
1000.431	-1620
1000.508	-1769
1000.584	-1247
1000.661	-707
1000.738	-1612
1000.814	-2174
1000.890	-1226
1000.967	-1961
1001.043	-814
1001.120	-1946
1001.196	-676
1001.272	-1796
1001.349	-534
1001.425	-1393
1001.501	-1751
1001.577	-2030
1001.654	-391
1001.730	-2775
1001.806	-1395
1001.882	-2287
1001.958	-1405
1002.034	-1062
1002.110	-1336
1002.186	-1790
1002.262	-1599
1002.338	-2473
1002.414	-354
1002.490	-1099
1002.566	-1496
1002.642	-2027
1002.718	-113
1002.794	-1756
1002.870	-1690
1002.945	-2192
1003.021	-1299
1003.097	-1593
1003.173	-650
1003.248	-1676
1003.324	-1655
1003.400	-1680
1003.475	-2132
1003.551	-2054
1003.626	-2097
1003.702	-1387
1003.777	-1496
1003.853	-1979
1003.928	-2018
1004.004	-1187
1004.079	-1657
1004.155	-708
1004.230	-2576
1004.305	-431
1004.381	-1473
1004.456	-904
1004.531	-1528
1004.607	-2163
1004.682	-1324
1004.757	-2125
1004.832	-2329
1004.907	-1339
1004.982	-1583
1005.057	-1888
1005.133	-1795
1005.208	-1657
1005.283	-742
1005.358	-1099
1005.433	-2067
1005.508	-1870
1005.583	-2044
1005.657	-1951
1005.732	-1663
1005.807	-2166
1005.882	-1470
1005.957	-2088
1006.032	-946
1006.106	-1048
1006.181	-2252
1006.256	-1620
1006.331	-2329
1006.405	-2419
1006.480	-1159
1006.554	-2165
1006.629	-1781
1006.704	-1467
1006.778	-1881
1006.853	-1428
1006.927	-1847
1007.002	-1680
1007.076	-1595
1007.150	-1344
1007.225	-1524
1007.299	-1822
1007.373	-1938
1007.448	-2432
1007.522	-556
1007.596	-1973
1007.671	-1567
1007.745	-1346
1007.819	-2371
1007.893	-2530
1007.967	-1394
1008.041	-2369
1008.115	-698
1008.190	-2430
1008.264	-1585
1008.338	-1944
1008.412	-1153
1008.486	-1449
1008.560	-1919
1008.633	-1889
1008.707	-708
1008.781	-2087
1008.855	-2123
1008.929	-1857
1009.003	-2075
1009.076	-1608
1009.150	-1963
1009.224	-1791
1009.298	-1220
1009.371	-2218
1009.445	-447
1009.519	-2331
1009.592	-1751
1009.666	-1506
1009.739	-1659
1009.813	-3254
1009.886	-979
1009.960	-2484
1010.033	-2234
1010.107	-456
1010.180	-1834
1010.253	-2038
1010.327	-2088
1010.400	-1480
1010.473	-1091
1010.547	-1675
1010.620	-2103
1010.693	-1943
1010.766	-1605
1010.840	-1224
1010.913	-1351
1010.986	-2193
1011.059	-1759
1011.132	-1989
1011.205	-1598
1011.278	-1801
1011.351	-1321
1011.424	-2175
1011.497	-1822
1011.570	-2465
1011.643	-1895
1011.716	-1933
1011.789	-1497
1011.862	-1202
1011.934	-1641
1012.007	-3050
1012.080	-2062
1012.153	-2161
1012.225	-920
1012.298	-1908
1012.371	-1649
1012.443	-1523
1012.516	-2477
1012.588	-1548
1012.661	-1002
1012.733	-3028
1012.806	-1052
1012.879	-2786
1012.951	-1669
1013.023	-2313
1013.096	-1928
1013.168	-2376
1013.241	-1781
1013.313	-627
1013.385	-1893
1013.458	-2451
1013.530	-1373
1013.602	-2127
1013.674	-1371
1013.746	-2228
1013.819	-2025
1013.891	-1344
1013.963	-1825
1014.035	-1807
1014.107	-1610
1014.179	-1609
1014.251	-1890
1014.323	-1409
1014.395	-1241
1014.467	-1770
1014.539	-1084
1014.611	-2893
1014.683	-1653
1014.754	-1203
1014.826	-2161
1014.898	-2163
1014.970	-1470
1015.042	-890
1015.113	-2129
1015.185	-1522
1015.257	-2321
1015.328	-1309
1015.400	-2295
1015.471	-1831
1015.543	-2598
1015.615	-1382
1015.686	-2175
1015.757	-1822
1015.829	-1398
1015.901	-1949
1015.972	-1343
1016.043	-2458
1016.115	-2126
1016.186	-1896
1016.257	-1800
1016.328	-1649
1016.400	-1243
1016.471	-2510
1016.542	-2492
1016.613	-1239
1016.685	-1963
1016.756	-2350
1016.827	-2526
1016.898	-2412
1016.969	-1292
1017.040	-2172
1017.111	-2160
1017.182	-2269
1017.253	-1469
1017.324	-2006
1017.395	-2357
1017.466	-1656
1017.537	-852
1017.608	-2402
1017.678	-1220
1017.749	-2263
1017.820	-2239
1017.891	-1751
1017.961	-2664
1018.032	-1538
1018.103	-1466
1018.173	-2078
1018.244	-2368
1018.315	-3064
1018.385	-1250
1018.456	-2223
1018.526	-2525
1018.597	-2340
1018.667	-1539
1018.738	-2001
1018.808	-2212
1018.878	-2434
1018.949	-2483
1019.019	-2019
1019.089	-2253
1019.160	-1205
1019.230	-2593
1019.300	-1801
1019.371	-2532
1019.441	-1147
1019.511	-1346
1019.581	-2329
1019.651	-908
1019.721	-1742
1019.791	-1491
1019.861	-2862
1019.931	-1909
1020.001	-1827
1020.071	-2158
1020.141	-2252
1020.211	-2297
1020.281	-2666
1020.351	-1753
1020.421	-1811
1020.491	-1991
1020.560	-2261
1020.630	-1860
1020.700	-2020
1020.770	-2701
1020.839	-2652
1020.909	-2374
1020.979	-3228
1021.048	-2320
1021.118	-1319
1021.187	-2342
1021.257	-2590
1021.326	-1395
1021.396	-2204
1021.465	-2782
1021.535	-2612
1021.604	-2603
1021.674	-2905
1021.743	-2345
1021.812	-2256
1021.882	-1784
1021.951	-2688
1022.020	-1660
1022.089	-1940
1022.159	-2060
1022.228	-2127
1022.297	-2597
1022.366	-1272
1022.435	-2553
1022.504	-2351
1022.573	-1545
1022.642	-2113
1022.711	-2023
1022.781	-2104
1022.849	-1529
1022.918	-2834
1022.987	-1767
1023.056	-2503
1023.125	-1666
1023.194	-2093
1023.263	-2206
1023.331	-2053
1023.400	-2364
1023.469	-2405
1023.538	-1841
1023.606	-2624
1023.675	-2021
1023.744	-3021
1023.812	-2868
1023.881	-1768
1023.949	-1801
1024.018	-2420
1024.086	-2610
1024.155	-3048
1024.223	-2225
1024.292	-2251
1024.360	-1801
1024.429	-2265
1024.497	-2906
1024.565	-1424
1024.634	-2281
1024.702	-2268
1024.770	-1708
1024.838	-2671
1024.907	-2722
1024.975	-2195
1025.043	-2127
1025.111	-2136
1025.179	-1635
1025.247	-2832
1025.315	-2149
1025.383	-2445
1025.451	-2471
1025.519	-2772
1025.587	-2605
1025.655	-1925
1025.723	-1704
1025.791	-2455
1025.859	-2514
1025.927	-1932
1025.995	-2306
1026.062	-2167
1026.130	-1793
1026.198	-2208
1026.266	-2791
1026.333	-2540
1026.401	-2287
1026.469	-2053
1026.536	-2455
1026.604	-2378
1026.671	-2749
1026.739	-2037
1026.806	-1832
1026.874	-2590
1026.941	-1696
1027.009	-2181
1027.076	-2161
1027.144	-2116
1027.211	-2929
1027.278	-2618
1027.345	-1796
1027.413	-2106
1027.480	-1912
1027.547	-2753
1027.614	-2514
1027.682	-1414
1027.749	-2005
1027.816	-2067
1027.883	-2250
1027.950	-2018
1028.017	-3176
1028.084	-2193
1028.151	-2619
1028.218	-2250
1028.285	-2437
1028.352	-1671
1028.419	-2286
1028.486	-2455
1028.553	-1140
1028.619	-2028
1028.686	-2003
1028.753	-2043
1028.820	-1735
1028.886	-1675
1028.953	-1493
1029.020	-2871
1029.086	-2233
1029.153	-2180
1029.220	-2859
1029.286	-1551
1029.353	-1711
1029.419	-2467
1029.486	-1814
1029.552	-1885
1029.619	-2138
1029.685	-2478
1029.751	-2923
1029.818	-1386
1029.884	-1661
1029.951	-1634
1030.017	-2714
1030.083	-2382
1030.149	-2073
1030.216	-2261
1030.282	-2092
1030.348	-2764
1030.414	-2435
1030.480	-2312
1030.546	-2287
1030.612	-2909
1030.678	-2151
1030.744	-2068
1030.810	-1988
1030.876	-2020
1030.942	-2228
1031.008	-2932
1031.074	-2756
1031.140	-2646
1031.206	-2157
1031.272	-2218
1031.337	-2438
1031.403	-2233
1031.469	-1951
1031.534	-1893
1031.600	-1764
1031.666	-2169
1031.731	-2353
1031.797	-1791
1031.863	-2841
1031.928	-2344
1031.994	-2266
1032.059	-1898
1032.125	-2170
1032.190	-2315
1032.256	-2070
1032.321	-1977
1032.386	-2055
1032.452	-2030
1032.517	-2155
1032.582	-1884
1032.647	-2368
1032.713	-1880
1032.778	-1427
1032.843	-2746
1032.908	-1946
1032.974	-2639
1033.039	-2100
1033.104	-1544
1033.169	-2813
1033.234	-2353
1033.299	-1173
1033.364	-2223
1033.429	-2736
1033.494	-2463
1033.559	-2215
1033.624	-2589
1033.688	-1465
1033.753	-2557
1033.818	-1949
1033.883	-1942
1033.948	-1969
1034.013	-2305
1034.077	-2413
1034.142	-1421
1034.207	-1008
1034.271	-1304
1034.336	-1493
1034.400	-2026
1034.465	-2219
1034.530	-2368
1034.594	-1509
1034.658	-2731
1034.723	-2908
1034.787	-2474
1034.852	-1844
1034.916	-2020
1034.981	-2761
1035.045	-2371
1035.109	-2425
1035.173	-2270
1035.238	-2999
1035.302	-2489
1035.366	-2963
1035.430	-2662
1035.495	-2658
1035.559	-1886
1035.623	-1870
1035.687	-2919
1035.751	-2529
1035.815	-2382
1035.879	-1630
1035.943	-2881
1036.007	-2006
1036.071	-2294
1036.135	-2489
1036.198	-2287
1036.262	-2534
1036.326	-1870
1036.390	-1252
1036.454	-1745
1036.517	-1864
1036.581	-2595
1036.645	-2129
1036.709	-1874
1036.772	-2212
1036.836	-1715
1036.900	-2570
1036.963	-2463
1037.026	-2515
1037.090	-2955
1037.154	-2434
1037.217	-2154
1037.280	-2114
1037.344	-2244
1037.407	-2287
1037.471	-1728
1037.534	-2131
1037.597	-2907
1037.661	-2243
1037.724	-1819
1037.787	-2552
1037.850	-2151
1037.913	-2713
1037.977	-2013
1038.040	-2457
1038.103	-2072
1038.166	-2766
1038.229	-2158
1038.292	-2049
1038.355	-2247
1038.418	-2635
1038.481	-1825
1038.544	-2236
1038.607	-1973
1038.670	-1982
1038.732	-2712
1038.795	-2652
1038.858	-1986
1038.921	-1978
1038.984	-2280
1039.046	-1622
1039.109	-2222
1039.172	-1946
1039.234	-2730
1039.297	-2497
1039.360	-1969
1039.422	-2717
1039.485	-1571
1039.547	-2538
1039.610	-2539
1039.672	-2408
1039.734	-1915
1039.797	-1656
1039.859	-2510
1039.922	-2484
1039.984	-2628
1040.046	-1998
1040.109	-1450
1040.171	-2352
1040.233	-2756
1040.295	-1837
1040.358	-2380
1040.420	-1435
1040.482	-2678
1040.544	-2603
1040.606	-2458
1040.668	-2436
1040.730	-2305
1040.792	-3294
1040.854	-2220
1040.916	-2278
1040.978	-2378
1041.040	-1862
1041.102	-1899
1041.164	-2002
1041.225	-2850
1041.287	-2602
1041.349	-2244
1041.411	-2447
1041.472	-2050
1041.534	-2169
1041.596	-2838
1041.657	-2126
1041.719	-2310
1041.781	-2836
1041.842	-2741
1041.904	-2604
1041.965	-2885
1042.027	-2243
1042.088	-1816
1042.150	-2893
1042.211	-2318
1042.272	-2064
1042.334	-2748
1042.395	-2287
1042.456	-2825
1042.518	-2563
1042.579	-2670
1042.640	-1898
1042.701	-2552
1042.763	-2516
1042.824	-2414
1042.885	-1964
1042.946	-3011
1043.007	-2603
1043.068	-2513
1043.129	-3047
1043.190	-2589
1043.251	-1687
1043.312	-2481
1043.373	-2127
1043.434	-2364
1043.495	-2499
1043.556	-1953
1043.616	-1759
1043.677	-2567
1043.738	-2298
1043.799	-2131
1043.859	-2938
1043.920	-2431
1043.981	-2796
1044.041	-2783
1044.102	-2401
1044.162	-2034
1044.223	-3129
1044.284	-2985
1044.344	-2472
1044.405	-1775
1044.465	-2371
1044.525	-2566
1044.586	-2711
1044.646	-2332
1044.707	-2023
1044.767	-1895
1044.827	-2383
1044.887	-2568
1044.948	-1742
1045.008	-2092
1045.068	-1882
1045.128	-1636
1045.188	-2174
1045.249	-2181
1045.309	-2326
1045.369	-1599
1045.429	-1223
1045.489	-2766
1045.549	-1987
1045.609	-2842
1045.669	-1709
1045.729	-1480
1045.789	-2389
1045.848	-2426
1045.908	-1447
1045.968	-999
1046.028	-1926
1046.088	-1838
1046.147	-904
1046.207	-2149
1046.267	-1628
1046.326	-1617
1046.386	-1355
1046.446	-1614
1046.505	-1447
1046.565	-1041
1046.624	-1789
1046.684	-1211
1046.743	-863
1046.803	-1090
1046.862	-1159
1046.922	0
