'Start Wavelength	183.907
'End Wavelength	1046.922
'Gate Delay	5.000
'Gate Width (ms)	1.050
'Laser Output Level	0.000
'X Position	0.000
'Y Position	0.000
'Z Position	0.000
'Grid Point Number	1.000
'Shot Number	100.000
183.907	824.000
183.977	-375.000
184.047	-370
184.116	38
184.186	385
184.256	-811
184.325	-162
184.395	-1040
184.465	739
184.534	56
184.604	3
184.674	-362
184.743	-223
184.813	311
184.883	-4
184.952	711
185.022	-12
185.092	335
185.161	51
185.231	283
185.301	282
185.370	268
185.440	90
185.509	-1058
185.579	-27
185.649	-84
185.718	-46
185.788	255
185.857	-108
185.927	-477
185.996	738
186.066	548
186.136	-291
186.205	-43
186.275	521
186.344	-232
186.414	578
186.483	-172
186.553	661
186.622	137
186.692	212
186.761	-203
186.831	227
186.900	-269
186.970	625
187.039	328
187.109	529
187.178	-940
187.248	358
187.317	624
187.387	434
187.456	241
187.526	-407
187.595	420
187.664	164
187.734	675
187.803	-385
187.873	-567
187.942	473
188.012	-47
188.081	21
188.150	-549
188.220	0
188.289	800
188.358	-362
188.428	367
188.497	-834
188.567	589
188.636	90
188.705	-315
188.775	100
188.844	-845
188.913	680
188.983	-579
189.052	369
189.121	6
189.191	-139
189.260	628
189.329	-153
189.399	-519
189.468	174
189.537	386
189.606	190
189.676	558
189.745	29
189.814	157
189.883	491
189.953	331
190.022	-662
190.091	-159
190.161	-105
190.230	301
190.299	291
190.368	-193
190.437	-297
190.507	165
190.576	146
190.645	-188
190.714	-26
190.783	-315
190.853	327
190.922	16
190.991	330
191.060	-49
191.129	-651
191.198	-408
191.268	137
191.337	-607
191.406	11
191.475	148
191.544	113
191.613	128
191.682	770
191.752	301
191.821	-88
191.890	524
191.959	592
192.028	-112
192.097	133
192.166	71
192.235	-721
192.304	37
192.373	-359
192.442	-54
192.511	-1223
192.580	174
192.650	-645
192.719	-234
192.788	742
192.857	56
192.926	-55
192.995	-637
193.064	346
193.133	251
193.202	172
193.271	216
193.340	766
193.409	344
193.478	773
193.547	280
193.615	283
193.684	835
193.753	-523
193.822	778
193.891	742
193.960	191
194.029	-164
194.098	-171
194.167	-323
194.236	-45
194.305	178
194.374	1
194.443	55
194.512	167
194.580	442
194.649	322
194.718	-39
194.787	94
194.856	-83
194.925	-428
194.994	-65
195.062	-276
195.131	61
195.200	148
195.269	-103
195.338	-379
195.407	-87
195.475	-136
195.544	874
195.613	655
195.682	236
195.751	257
195.819	37
195.888	136
195.957	518
196.026	75
196.094	517
196.163	333
196.232	302
196.301	354
196.369	213
196.438	131
196.507	547
196.576	-565
196.644	-283
196.713	-483
196.782	223
196.850	806
196.919	39
196.988	921
197.056	-269
197.125	362
197.194	294
197.262	-243
197.331	-444
197.400	-240
197.468	273
197.537	-88
197.606	-111
197.674	271
197.743	679
197.812	-235
197.880	426
197.949	-43
198.017	535
198.086	716
198.155	516
198.223	322
198.292	602
198.360	-345
198.429	-322
198.497	212
198.566	615
198.635	737
198.703	507
198.772	-6
198.840	612
198.909	776
198.977	-368
199.046	-66
199.114	495
199.183	-228
199.251	-439
199.320	-450
199.388	211
199.457	-272
199.525	392
199.594	62
199.662	589
199.731	-845
199.799	-6
199.867	601
199.936	318
200.004	-474
200.073	-216
200.141	109
200.210	283
200.278	-317
200.346	-341
200.415	-181
200.483	150
200.552	-102
200.620	179
200.688	-276
200.757	-129
200.825	-663
200.893	43
200.962	-347
201.030	-230
201.098	-119
201.167	333
201.235	-5
201.303	-16
201.372	344
201.440	353
201.508	-196
201.577	315
201.645	199
201.713	-349
201.781	-525
201.850	286
201.918	-438
201.986	-321
202.055	425
202.123	-300
202.191	-2
202.259	69
202.327	-160
202.396	-31
202.464	-480
202.532	-123
202.600	1944
202.669	1174
202.737	-165
202.805	-359
202.873	-187
202.941	676
203.009	-328
203.078	13
203.146	-452
203.214	223
203.282	-1172
203.350	103
203.418	-257
203.487	300
203.555	-145
203.623	514
203.691	95
203.759	-1076
203.827	-560
203.895	-47
203.963	-75
204.031	-11
204.099	-259
204.168	-516
204.236	88
204.304	291
204.372	-503
204.440	-51
204.508	-53
204.576	-432
204.644	990
204.712	-401
204.780	627
204.848	465
204.916	62
204.984	-624
205.052	192
205.120	-515
205.188	57
205.256	-335
205.324	356
205.392	-392
205.460	323
205.528	211
205.596	-40
205.664	-447
205.732	-717
205.799	454
205.867	1669
205.935	-435
206.003	-40
206.071	-923
206.139	-85
206.207	-436
206.275	-369
206.343	-127
206.411	-139
206.478	67
206.546	-457
206.614	-389
206.682	-397
206.750	-269
206.818	-623
206.885	305
206.953	-1198
207.021	667
207.089	-68
207.157	-394
207.225	784
207.292	-1092
207.360	-106
207.428	-656
207.496	-1920
207.563	-682
207.631	-16
207.699	136
207.767	-340
207.834	-258
207.902	399
207.970	-496
208.038	-604
208.105	-506
208.173	180
208.241	-322
208.309	382
208.376	194
208.444	269
208.512	380
208.579	-379
208.647	412
208.715	543
208.782	56
208.850	828
208.918	-76
208.985	-42
209.053	794
209.120	0
209.188	-138
209.256	-354
209.323	-720
209.391	129
209.459	772
209.526	-18
209.594	-379
209.661	68
209.729	-142
209.796	876
209.864	-256
209.932	-691
209.999	742
210.067	77
210.134	245
210.202	-719
210.269	381
210.337	664
210.404	-291
210.472	16
210.539	646
210.607	-124
210.674	-228
210.742	104
210.809	58
210.877	-51
210.944	626
211.012	-1058
211.079	1186
211.146	22
211.214	8
211.281	365
211.349	126
211.416	1121
211.484	912
211.551	-451
211.618	-106
211.686	463
211.753	-946
211.821	837
211.888	-470
211.955	681
212.023	808
212.090	53
212.157	200
212.225	-620
212.292	834
212.359	1123
212.427	3936
212.494	1686
212.561	935
212.629	-278
212.696	-136
212.763	501
212.831	-602
212.898	27
212.965	9
213.032	-47
213.100	-17
213.167	-313
213.234	839
213.301	247
213.369	-297
213.436	-705
213.503	-17
213.570	-15
213.638	789
213.705	-420
213.772	523
213.839	-67
213.906	1028
213.973	192
214.041	280
214.108	406
214.175	512
214.242	350
214.309	712
214.376	-307
214.444	-312
214.511	-17
214.578	922
214.645	420
214.712	26
214.779	334
214.846	-242
214.913	358
214.980	792
215.048	716
215.115	760
215.182	537
215.249	910
215.316	260
215.383	888
215.450	-289
215.517	309
215.584	902
215.651	466
215.718	740
215.785	132
215.852	347
215.919	1160
215.986	1619
216.053	495
216.120	-468
216.187	633
216.254	1038
216.321	574
216.388	138
216.455	1520
216.522	858
216.589	1394
216.656	1703
216.722	2028
216.789	632
216.856	1211
216.923	813
216.990	339
217.057	-50
217.124	1155
217.191	193
217.258	1156
217.324	1319
217.391	1082
217.458	359
217.525	566
217.592	684
217.659	-430
217.725	525
217.792	724
217.859	1929
217.926	146
217.993	134
218.059	762
218.126	-115
218.193	-24
218.260	-228
218.327	-358
218.393	161
218.460	115
218.527	-957
218.594	-30
218.660	766
218.727	1976
218.794	-94
218.860	675
218.927	-535
218.994	299
219.061	-924
219.127	737
219.194	1055
219.261	662
219.327	-293
219.394	557
219.461	38
219.527	131
219.594	721
219.661	378
219.727	-372
219.794	889
219.860	-747
219.927	685
219.994	619
220.060	1485
220.127	1347
220.193	947
220.260	176
220.326	1025
220.393	621
220.460	1319
220.526	495
220.593	64
220.659	2070
220.726	804
220.792	2686
220.859	1438
220.925	2082
220.992	2746
221.058	2820
221.125	3674
221.191	2297
221.258	452
221.324	1143
221.391	259
221.457	70
221.524	580
221.590	170
221.657	2550
221.723	1831
221.789	1984
221.856	2524
221.922	-17
221.989	750
222.055	693
222.121	-53
222.188	1749
222.254	708
222.321	376
222.387	-566
222.453	-30
222.520	-48
222.586	-236
222.652	649
222.719	-468
222.785	375
222.851	136
222.918	-56
222.984	925
223.050	83
223.116	-1154
223.183	833
223.249	-172
223.315	-274
223.382	404
223.448	-188
223.514	-597
223.580	242
223.647	-193
223.713	133
223.779	447
223.845	305
223.911	258
223.978	68
224.044	830
224.110	49
224.176	518
224.242	-139
224.309	-331
224.375	836
224.441	0
224.507	-359
224.573	252
224.639	810
224.705	-173
224.772	18
224.838	-329
224.904	1516
224.970	-171
225.036	-72
225.102	153
225.168	604
225.234	261
225.300	442
225.366	93
225.432	31
225.499	-315
225.565	259
225.631	120
225.697	63
225.763	792
225.829	748
225.895	1357
225.961	1366
226.027	958
226.093	1028
226.159	1756
226.225	820
226.291	2259
226.357	5015
226.423	2585
226.489	2033
226.554	1295
226.620	1367
226.686	1331
226.752	2803
226.818	2189
226.884	6754
226.950	5961
227.016	1934
227.082	1511
227.148	774
227.214	1641
227.279	740
227.345	448
227.411	738
227.477	1340
227.543	1829
227.609	1800
227.674	2276
227.740	493
227.806	1329
227.872	501
227.938	462
228.003	1630
228.069	1042
228.135	-46
228.201	828
228.267	-146
228.332	1057
228.398	46
228.464	353
228.530	609
228.595	-237
228.661	-165
228.727	719
228.792	2346
228.858	883
228.924	-728
228.990	1405
229.055	254
229.121	2102
229.187	776
229.252	297
229.318	643
229.384	1091
229.449	1349
229.515	-391
229.581	-622
229.646	2190
229.712	284
229.777	1803
229.843	2152
229.909	1829
229.974	2326
230.040	1681
230.105	1310
230.171	1394
230.236	1037
230.302	1918
230.368	2185
230.433	615
230.499	505
230.564	1766
230.630	471
230.695	199
230.761	1469
230.826	-865
230.892	2740
230.957	-188
231.023	-329
231.088	-101
231.154	933
231.219	1327
231.284	-28
231.350	1815
231.415	-789
231.481	567
231.546	-133
231.612	1228
231.677	224
231.742	-1136
231.808	1819
231.873	506
231.939	-1141
232.004	1675
232.069	1910
232.135	14
232.200	-67
232.265	966
232.331	535
232.396	-259
232.461	432
232.527	1
232.592	-429
232.657	1166
232.723	637
232.788	-310
232.853	150
232.918	347
232.984	-150
233.049	737
233.114	19
233.179	997
233.245	1915
233.310	1720
233.375	329
233.440	120
233.506	-114
233.571	-319
233.636	310
233.701	636
233.766	717
233.832	1700
233.897	592
233.962	62
234.027	2512
234.092	872
234.157	1230
234.222	-423
234.288	1324
234.353	3140
234.418	4250
234.483	2595
234.548	2556
234.613	1037
234.678	2262
234.743	455
234.808	4756
234.873	1949
234.938	2316
235.004	1068
235.069	522
235.134	1034
235.199	1268
235.264	544
235.329	-312
235.394	441
235.459	1654
235.524	24
235.589	980
235.654	-191
235.719	-192
235.784	1062
235.849	695
235.913	2097
235.978	1858
236.043	3015
236.108	1805
236.173	219
236.238	1347
236.303	103
236.368	111
236.433	1894
236.498	1423
236.563	1398
236.627	2296
236.692	8372
236.757	7476
236.822	2745
236.887	2636
236.952	2342
237.017	143
237.081	1695
237.146	2630
237.211	3726
237.276	7896
237.341	17563
237.405	6676
237.470	3874
237.535	2102
237.600	1745
237.664	1878
237.729	1052
237.794	354
237.859	3489
237.923	2382
237.988	103
238.053	2878
238.118	1623
238.182	5044
238.247	5977
238.312	1510
238.376	2204
238.441	-274
238.506	1423
238.570	-508
238.635	1125
238.700	603
238.764	351
238.829	2020
238.893	2798
238.958	825
239.023	2939
239.087	582
239.152	1686
239.216	563
239.281	631
239.346	1508
239.410	457
239.475	739
239.539	4571
239.604	3293
239.668	1917
239.733	583
239.797	882
239.862	3317
239.926	4545
239.991	2032
240.055	1655
240.120	392
240.184	171
240.249	219
240.313	437
240.378	486
240.442	3003
240.507	5054
240.571	1569
240.635	1476
240.700	3313
240.764	1634
240.829	698
240.893	142
240.957	1091
241.022	1678
241.086	5538
241.151	2354
241.215	53
241.279	1186
241.344	1676
241.408	2124
241.472	656
241.537	2437
241.601	1181
241.665	114
241.730	523
241.794	1895
241.858	670
241.922	1677
241.987	1231
242.051	325
242.115	-273
242.179	1727
242.244	184
242.308	2095
242.372	1517
242.436	936
242.501	1206
242.565	-157
242.629	1143
242.693	1504
242.757	138
242.822	1041
242.886	1310
242.950	1007
243.014	191
243.078	1268
243.142	1708
243.206	84
243.271	1054
243.335	1028
243.399	2076
243.463	4937
243.527	15608
243.591	6142
243.655	2711
243.719	840
243.783	3060
243.847	2754
243.911	4163
243.975	5014
244.040	3681
244.104	3340
244.168	461
244.232	2562
244.296	3980
244.360	3213
244.424	962
244.488	1534
244.552	1857
244.615	655
244.679	1134
244.743	934
244.807	1812
244.871	1525
244.935	1408
244.999	-434
245.063	944
245.127	2018
245.191	3066
245.255	1729
245.319	2495
245.383	1344
245.446	2479
245.510	893
245.574	1373
245.638	1969
245.702	354
245.766	4304
245.829	2834
245.893	1198
245.957	356
246.021	2425
246.085	1946
246.149	2409
246.212	6541
246.276	9965
246.340	4918
246.404	3186
246.467	2655
246.531	2774
246.595	3298
246.659	3307
246.722	1641
246.786	3538
246.850	3498
246.913	4140
246.977	1445
247.041	1602
247.104	1463
247.168	2335
247.232	5253
247.295	13412
247.359	7848
247.423	1869
247.486	5836
247.550	3961
247.614	2848
247.677	3993
247.741	2499
247.804	1447
247.868	2532
247.932	4676
247.995	14450
248.059	4554
248.122	2211
248.186	3274
248.249	5109
248.313	19629
248.376	22573
248.440	15250
248.503	4925
248.567	6374
248.630	5603
248.694	10267
248.757	12379
248.821	22730
248.884	16974
248.948	11943
249.011	17559
249.075	25377
249.138	23624
249.202	10269
249.265	5045
249.328	6025
249.392	3539
249.455	4594
249.519	2725
249.582	4014
249.645	6593
249.709	4588
249.772	2131
249.835	2921
249.899	2508
249.962	2159
250.025	2215
250.089	6974
250.152	12953
250.215	6471
250.279	3951
250.342	3540
250.405	2973
250.468	2431
250.532	2919
250.595	5586
250.658	14206
250.721	27899
250.785	12046
250.848	7075
250.911	2710
250.974	4461
251.038	4675
251.101	12721
251.164	5461
251.227	6766
251.290	5162
251.354	7214
251.417	21784
251.480	24750
251.543	14326
251.606	39860
251.669	33505
251.732	13727
251.795	15284
251.859	14542
251.922	25279
251.985	18511
252.048	7333
252.111	5446
252.174	5408
252.237	12313
252.300	26491
252.363	23077
252.426	39642
252.489	18063
252.552	9270
252.615	5771
252.678	6255
252.741	17717
252.804	17578
252.867	37062
252.930	27164
252.993	15366
253.056	9835
253.119	6917
253.182	3636
253.245	7185
253.308	6696
253.371	7221
253.434	6711
253.497	5705
253.559	12939
253.622	8428
253.685	10743
253.748	13951
253.811	5389
253.874	6268
253.937	5743
254.000	5129
254.062	8558
254.125	14511
254.188	11087
254.251	9529
254.314	4217
254.376	7350
254.439	11275
254.502	10803
254.565	7818
254.628	16616
254.690	11297
254.753	6257
254.816	4714
254.878	5131
254.941	8442
255.004	10187
255.067	4734
255.129	4558
255.192	2635
255.255	1081
255.317	4002
255.380	1776
255.443	860
255.505	1564
255.568	1194
255.631	755
255.693	2342
255.756	643
255.819	1662
255.881	890
255.944	1034
256.006	33
256.069	1162
256.132	569
256.194	1474
256.257	4272
256.319	3731
256.382	3253
256.444	2115
256.507	1232
256.569	1352
256.632	1873
256.694	1450
256.757	4535
256.819	14177
256.882	4980
256.944	2558
257.007	3017
257.069	2760
257.132	1917
257.194	2321
257.257	1070
257.319	1005
257.381	619
257.444	2914
257.506	16011
257.569	21105
257.631	12036
257.693	7612
257.756	2827
257.818	1869
257.880	1661
257.943	1263
258.005	696
258.067	998
258.130	537
258.192	1430
258.254	6628
258.317	2841
258.379	2464
258.441	5562
258.503	6661
258.566	4870
258.628	8690
258.690	1934
258.753	2582
258.815	6946
258.877	3006
258.939	1480
259.001	1742
259.064	745
259.126	988
259.188	2841
259.250	2567
259.312	1936
259.375	6033
259.437	5539
259.499	2024
259.561	932
259.623	1892
259.685	954
259.747	1536
259.809	5126
259.872	10698
259.934	14912
259.996	17126
260.058	4265
260.120	1048
260.182	1366
260.244	630
260.306	716
260.368	1388
260.430	1045
260.492	2624
260.554	5587
260.616	5534
260.678	9514
260.740	13510
260.802	3296
260.864	3794
260.926	1921
260.988	2575
261.050	1498
261.112	2882
261.174	9394
261.236	9480
261.298	2650
261.359	4578
261.421	7637
261.483	2322
261.545	2914
261.607	93
261.669	1482
261.731	2482
261.793	8797
261.854	4592
261.916	3123
261.978	823
262.040	1862
262.102	1267
262.164	2140
262.225	3028
262.287	1671
262.349	5813
262.411	5410
262.472	2491
262.534	2447
262.596	7248
262.658	2682
262.719	660
262.781	1681
262.843	6250
262.904	3266
262.966	2444
263.028	1692
263.090	9108
263.151	28556
263.213	10800
263.275	6263
263.336	2776
263.398	788
263.459	434
263.521	901
263.583	6412
263.644	3938
263.706	1297
263.767	598
263.829	830
263.891	250
263.952	-104
264.014	291
264.075	559
264.137	2747
264.198	3386
264.260	-240
264.321	665
264.383	2718
264.444	5614
264.506	908
264.567	1592
264.629	1787
264.690	2172
264.752	1748
264.813	1689
264.875	801
264.936	1244
264.998	510
265.059	-656
265.120	454
265.182	1008
265.243	6093
265.305	5940
265.366	2271
265.427	339
265.489	1069
265.550	-781
265.611	619
265.673	1466
265.734	1138
265.795	1232
265.857	-307
265.918	404
265.979	1951
266.040	10530
266.102	9772
266.163	2842
266.224	3579
266.286	1910
266.347	383
266.408	1643
266.469	1486
266.530	882
266.592	669
266.653	3566
266.714	7905
266.775	2374
266.836	1633
266.898	-40
266.959	2176
267.020	1273
267.081	1389
267.142	191
267.203	-311
267.264	-188
267.326	1785
267.387	1119
267.448	682
267.509	1075
267.570	237
267.631	568
267.692	25
267.753	226
267.814	-276
267.875	2785
267.936	9400
267.997	2884
268.058	2979
268.119	1247
268.180	957
268.241	1431
268.302	476
268.363	1264
268.424	1441
268.485	1389
268.546	140
268.607	75
268.668	-92
268.729	634
268.790	614
268.851	834
268.912	4408
268.972	7996
269.033	3860
269.094	945
269.155	-142
269.216	790
269.277	776
269.338	666
269.398	1108
269.459	1629
269.520	2961
269.581	4772
269.642	6049
269.702	3281
269.763	2360
269.824	635
269.885	2150
269.945	5264
270.006	2267
270.067	902
270.128	467
270.188	-700
270.249	208
270.310	-298
270.370	362
270.431	527
270.492	770
270.553	888
270.613	3543
270.674	9824
270.734	4176
270.795	1103
270.856	1945
270.916	2468
270.977	1032
271.038	2616
271.098	1212
271.159	3218
271.219	5059
271.280	1516
271.340	1454
271.401	740
271.462	4415
271.522	3057
271.583	1764
271.643	1587
271.704	1098
271.764	2157
271.825	6176
271.885	22612
271.946	32698
272.006	11748
272.066	11776
272.127	24174
272.187	7497
272.248	3366
272.308	3225
272.369	13931
272.429	9044
272.489	6478
272.550	7291
272.610	7556
272.671	5714
272.731	3157
272.791	5939
272.852	4671
272.912	4376
272.972	1866
273.033	1423
273.093	2475
273.153	3889
273.214	2592
273.274	1613
273.334	6756
273.394	21434
273.455	10724
273.515	8117
273.575	18976
273.635	8029
273.696	9112
273.756	21450
273.816	10187
273.876	3902
273.936	6482
273.997	12858
274.057	3704
274.117	2719
274.177	5557
274.237	24317
274.297	23257
274.358	12914
274.418	17173
274.478	15031
274.538	4879
274.598	2698
274.658	9705
274.718	14806
274.778	6637
274.838	2931
274.898	4892
274.958	18249
275.018	20631
275.078	15116
275.138	6630
275.198	2476
275.258	1470
275.318	2161
275.378	6954
275.438	9813
275.498	5277
275.558	7737
275.618	18932
275.678	17329
275.738	10174
275.798	7004
275.858	2311
275.918	1029
275.978	2614
276.038	2421
276.098	1543
276.157	4282
276.217	18492
276.277	8548
276.337	6792
276.397	3016
276.457	3539
276.517	2391
276.576	596
276.636	1091
276.696	4044
276.756	10043
276.815	7954
276.875	3433
276.935	2393
276.995	4330
277.055	1531
277.114	1970
277.174	3580
277.234	14053
277.293	6812
277.353	2712
277.413	2458
277.472	2072
277.532	3179
277.592	1953
277.651	7902
277.711	18306
277.771	6111
277.830	21269
277.890	19374
277.950	10126
278.009	31493
278.069	13407
278.128	10655
278.188	19319
278.248	7600
278.307	17782
278.367	12218
278.426	3357
278.486	2300
278.545	2148
278.605	2072
278.664	1396
278.724	1451
278.783	6518
278.843	21547
278.902	6917
278.962	3972
279.021	2885
279.081	3154
279.140	3055
279.199	3548
279.259	3397
279.318	3252
279.378	3581
279.437	6173
279.496	25368
279.556	63487
279.615	56487
279.675	14535
279.734	8481
279.793	13506
279.853	23334
279.912	9851
279.971	5436
280.031	4703
280.090	8064
280.149	17837
280.208	9378
280.268	37710
280.327	48840
280.386	11815
280.445	11819
280.505	12427
280.564	4237
280.623	3295
280.682	5907
280.742	13520
280.801	3752
280.860	2334
280.919	1742
280.978	1635
281.037	1208
281.097	1047
281.156	1757
281.215	1224
281.274	1932
281.333	12571
281.392	11741
281.451	2741
281.510	2207
281.569	1096
281.628	1249
281.688	1223
281.747	1579
281.806	2643
281.865	1676
281.924	1308
281.983	1726
282.042	561
282.101	869
282.160	1413
282.219	1052
282.278	1277
282.337	9286
282.396	6501
282.454	1672
282.513	3082
282.572	14775
282.631	10582
282.690	2411
282.749	1215
282.808	2586
282.867	2163
282.926	3946
282.985	1112
283.043	957
283.102	1338
283.161	1239
283.220	5091
283.279	15607
283.338	4635
283.396	2381
283.455	2293
283.514	2219
283.573	6188
283.631	3709
283.690	2567
283.749	1403
283.808	5426
283.866	9176
283.925	1994
283.984	1973
284.043	3566
284.101	4444
284.160	2048
284.219	2155
284.277	3004
284.336	4356
284.395	19888
284.453	18883
284.512	6166
284.570	8553
284.629	7574
284.688	4938
284.746	5026
284.805	6324
284.863	8951
284.922	13302
284.981	13740
285.039	18909
285.098	29845
285.156	70907
285.215	120133
285.273	119015
285.332	88442
285.390	46494
285.449	26875
285.507	17031
285.566	13360
285.624	8658
285.683	7185
285.741	5307
285.799	5330
285.858	4915
285.916	5047
285.975	2888
286.033	2099
286.091	2684
286.150	2621
286.208	1956
286.267	2632
286.325	3382
286.383	7105
286.442	5695
286.500	1926
286.558	1914
286.616	1555
286.675	3587
286.733	3784
286.791	2633
286.850	3036
286.908	4117
286.966	9458
287.024	3203
287.083	1360
287.141	330
287.199	1734
287.257	4604
287.315	3026
287.374	1889
287.432	8923
287.490	6225
287.548	3940
287.606	1771
287.664	1979
287.723	3375
287.781	5376
287.839	2105
287.897	3062
287.955	2683
288.013	3766
288.071	6718
288.129	30185
288.187	105063
288.245	50961
288.303	15079
288.361	8561
288.419	4854
288.477	3107
288.535	1240
288.593	1842
288.651	1799
288.709	477
288.767	1139
288.825	1151
288.883	694
288.941	1072
288.999	861
289.057	1299
289.115	642
289.173	1217
289.231	1263
289.289	1289
289.346	962
289.404	1200
289.462	4609
289.520	5905
289.578	2582
289.636	1010
289.694	397
289.751	90
289.809	185
289.867	1124
289.925	1804
289.983	3087
290.040	839
290.098	134
290.156	1775
290.214	3193
290.271	418
290.329	355
290.387	582
290.444	162
290.502	18
290.560	769
290.617	807
290.675	965
290.733	748
290.790	2331
290.848	758
290.906	259
290.963	1302
291.021	1510
291.078	1427
291.136	789
291.194	4146
291.251	16442
291.309	5751
291.366	2056
291.424	696
291.481	1086
291.539	730
291.596	1530
291.654	-361
291.711	378
291.769	1725
291.826	5127
291.884	3151
291.941	1447
291.999	1769
292.056	2064
292.114	2737
292.171	1505
292.228	905
292.286	1764
292.343	5578
292.401	6831
292.458	4194
292.515	2451
292.573	3842
292.630	3582
292.687	3136
292.745	1853
292.802	1440
292.859	6768
292.917	18511
292.974	13024
293.031	3609
293.089	1516
293.146	1739
293.203	1690
293.260	758
293.318	1131
293.375	2620
293.432	1920
293.489	757
293.546	1013
293.604	2035
293.661	7988
293.718	27560
293.775	15121
293.832	7575
293.889	5082
293.947	3905
294.004	3381
294.061	3178
294.118	7214
294.175	16112
294.232	14364
294.289	7193
294.346	2565
294.403	3053
294.460	1827
294.517	1866
294.574	1606
294.631	1662
294.688	1266
294.745	6130
294.802	26565
294.859	28047
294.916	12525
294.973	7005
295.030	6804
295.087	5545
295.144	3560
295.201	1632
295.258	1750
295.315	3066
295.372	10587
295.429	23777
295.486	11408
295.542	4859
295.599	7157
295.656	13367
295.713	13294
295.770	22229
295.827	9899
295.883	3831
295.940	3862
295.997	6826
296.054	8181
296.111	4101
296.167	2175
296.224	1112
296.281	1903
296.338	1566
296.394	1989
296.451	2066
296.508	8297
296.564	20172
296.621	12139
296.678	23729
296.734	40070
296.791	15964
296.848	7454
296.904	7311
296.961	18277
297.018	28382
297.074	20094
297.131	7207
297.187	4565
297.244	6403
297.301	21652
297.357	45819
297.414	17975
297.470	6853
297.527	3836
297.583	3547
297.640	3099
297.696	2355
297.753	2061
297.809	1797
297.866	995
297.922	1056
297.979	868
298.035	1467
298.092	4661
298.148	14269
298.204	16031
298.261	6826
298.317	10441
298.374	31386
298.430	21061
298.486	8245
298.543	5549
298.599	3998
298.656	5110
298.712	8887
298.768	22297
298.824	15582
298.881	5648
298.937	2913
298.993	2572
299.050	4278
299.106	3952
299.162	3297
299.218	4425
299.275	2508
299.331	2039
299.387	5247
299.443	25880
299.500	33003
299.556	14456
299.612	6123
299.668	5095
299.724	5568
299.780	7695
299.837	3867
299.893	6517
299.949	23064
300.005	31283
300.061	24126
300.117	40797
300.173	22114
300.229	7742
300.285	9368
300.341	15303
300.397	7113
300.453	3993
300.510	3212
300.566	3788
300.622	4214
300.678	11742
300.734	28506
300.790	27607
300.845	29853
300.901	20052
300.957	26942
301.013	23096
301.069	8574
301.125	6009
301.181	6145
301.237	4092
301.293	2187
301.349	2305
301.405	1879
301.461	1878
301.516	2953
301.572	3835
301.628	9523
301.684	8827
301.740	11045
301.796	18613
301.851	12697
301.907	20916
301.963	20544
302.019	26887
302.074	76625
302.130	85926
302.186	41545
302.242	17371
302.297	9880
302.353	8879
302.409	16129
302.464	15666
302.520	11598
302.576	29402
302.631	38715
302.687	24719
302.743	10370
302.798	4960
302.854	3351
302.910	3364
302.965	4754
303.021	10086
303.076	10930
303.132	13809
303.187	18133
303.243	9402
303.299	4127
303.354	3302
303.410	2268
303.465	2336
303.521	2840
303.576	2426
303.632	3596
303.687	6462
303.743	24943
303.798	23601
303.853	9889
303.909	4757
303.964	4396
304.020	7091
304.075	13576
304.130	12070
304.186	22266
304.241	24913
304.297	19394
304.352	9857
304.358	9422
304.407	5899
304.449	5046
304.463	4766
304.518	5013
304.539	4978
304.573	4914
304.629	3898
304.630	3925
304.684	5321
304.720	13780
304.739	18057
304.794	30500
304.811	26397
304.850	16746
304.902	8071
304.905	7503
304.960	4819
304.992	3787
305.015	3041
305.071	2512
305.083	2371
305.126	1898
305.173	1483
305.181	1417
305.236	1507
305.264	1916
305.292	2301
305.347	3768
305.354	3803
305.402	4022
305.445	3623
305.457	3521
305.512	5294
305.535	5464
305.567	5683
305.622	4600
305.626	4719
305.678	7269
305.716	16721
305.733	20388
305.788	27687
305.807	24210
305.843	18128
305.897	22398
305.898	22438
305.953	25090
305.988	17213
306.008	12768
306.063	6641
306.078	6237
306.118	5395
306.168	3498
306.173	3312
306.228	1956
306.259	1610
306.283	1440
306.338	2101
306.349	2130
306.393	2068
306.440	2772
306.448	2926
306.503	2299
306.530	2091
306.558	1912
306.613	5541
306.620	6294
306.668	12112
306.711	20446
306.723	22104
306.778	19635
306.801	15402
306.833	10334
306.888	5231
306.892	5041
306.943	2897
306.982	2823
306.997	2825
307.052	2120
307.072	2134
307.107	2032
307.162	2457
307.163	2465
307.217	3116
307.253	3884
307.272	4198
307.327	4738
307.343	4339
307.381	3423
307.434	3143
307.436	3178
307.491	5294
307.524	10283
307.546	13056
307.600	17903
307.614	16048
307.655	9645
307.704	4762
307.710	4332
307.765	3140
307.795	3504
307.819	3718
307.874	6108
307.885	6016
307.929	5677
307.975	5098
307.984	5018
308.038	4935
308.065	5398
308.093	7955
308.148	17861
308.156	21543
308.202	40529
308.246	51222
308.257	52077
308.312	30292
308.336	24274
308.366	19412
308.421	14278
308.426	13598
308.475	7779
308.517	5123
308.530	4296
308.585	3052
308.607	2815
308.639	2692
308.694	2830
308.697	2886
308.748	4025
308.787	5484
308.803	5855
308.857	5885
308.877	5447
308.912	4754
308.967	4469
308.967	4490
309.021	5788
309.058	7369
309.076	8691
309.130	15710
309.148	18500
309.185	31447
309.238	56636
309.239	56713
309.293	73127
309.328	64243
309.348	56624
309.402	27579
309.418	21439
309.457	13359
309.508	8078
309.511	7817
309.566	7183
309.598	7855
309.620	9132
309.674	16191
309.688	17888
309.729	18330
309.778	13852
309.783	13485
309.837	9377
309.868	8028
309.892	8711
309.946	13325
309.959	15721
310.001	22609
310.049	27160
310.055	26651
310.109	16348
310.139	10444
310.163	7329
310.218	3104
310.229	2589
310.272	1838
310.319	1892
310.326	1884
310.381	1800
310.409	1816
310.435	1544
310.489	1090
310.499	1068
310.543	1023
310.589	914
310.598	978
310.652	1495
310.679	1657
310.706	1444
310.760	1142
310.769	1090
310.814	1031
310.859	1074
310.868	1084
310.923	1030
310.948	1061
310.977	1382
311.031	2153
311.038	2255
311.085	1529
311.128	656
311.139	687
311.193	1170
311.218	1283
311.247	1224
311.301	1181
311.308	1196
311.356	1278
311.398	1273
311.410	1150
311.464	607
311.488	382
311.518	500
311.572	692
311.578	738
311.626	1268
311.668	1725
311.680	1724
311.734	1652
311.758	1645
311.788	1299
311.842	698
311.847	653
311.896	1065
311.937	1484
311.950	1289
312.004	492
312.027	161
312.058	252
312.112	471
312.117	512
312.165	635
312.207	778
312.297	784
312.386	-3
312.476	1132
312.566	2130
312.656	1541
312.745	173
312.835	931
312.925	907
313.015	72
313.104	-404
313.194	1008
313.284	23
313.374	1360
313.463	609
313.553	1005
313.643	736
313.732	669
313.822	497
313.912	688
314.001	649
314.091	702
314.180	-55
314.270	1115
314.360	522
314.449	731
314.539	-1201
314.628	755
314.718	-96
314.808	594
314.897	363
314.987	1196
315.076	906
315.166	1730
315.255	404
315.345	2027
315.434	232
315.524	1029
315.613	999
315.703	1745
315.792	2045
315.881	4699
315.971	1625
316.060	2232
316.150	1004
316.239	1211
316.328	47
316.418	141
316.507	451
316.597	1770
316.686	1026
316.775	1490
316.865	1063
316.954	189
317.043	471
317.133	1784
317.222	513
317.311	742
317.400	-427
317.490	2438
317.579	1237
317.668	640
317.757	1109
317.847	3991
317.936	7997
318.025	4918
318.114	1514
318.203	1411
318.293	2302
318.382	3810
318.471	2907
318.560	2300
318.649	2072
318.738	936
318.828	1138
318.917	1358
319.006	954
319.095	2628
319.184	4943
319.273	5614
319.362	3778
319.451	1598
319.540	840
319.629	4366
319.718	5314
319.807	1773
319.896	2474
319.985	6402
320.074	3410
320.163	1221
320.252	1281
320.341	339
320.430	569
320.519	2717
320.608	301
320.697	852
320.786	1185
320.875	2015
320.964	2249
321.053	4247
321.142	5526
321.230	5743
321.319	4021
321.408	9850
321.497	3149
321.586	3941
321.675	1577
321.764	2604
321.852	2337
321.941	6641
322.030	2356
322.119	4416
322.207	10156
322.296	3320
322.385	1723
322.474	3753
322.562	12101
322.651	4586
322.740	4141
322.829	5063
322.917	2392
323.006	2447
323.095	2050
323.183	1095
323.272	2049
323.361	2969
323.449	4891
323.538	2437
323.626	4234
323.715	1346
323.804	1137
323.892	3909
323.981	2505
324.069	920
324.158	1222
324.246	1533
324.335	1368
324.424	3964
324.512	1314
324.601	948
324.689	921
324.778	1863
324.866	1647
324.954	1175
325.043	472
325.131	1106
325.220	2203
325.308	1754
325.397	1379
325.485	1421
325.574	352
325.662	408
325.750	359
325.839	910
325.927	-262
326.015	1028
326.104	478
326.192	993
326.280	111
326.369	733
326.457	1660
326.545	2963
326.634	96
326.722	680
326.810	264
326.898	783
326.987	840
327.075	2022
327.163	1695
327.251	779
327.340	102
327.428	737
327.516	-113
327.604	882
327.692	333
327.781	-205
327.869	813
327.957	254
328.045	957
328.133	830
328.221	560
328.309	850
328.397	440
328.485	911
328.574	1644
328.662	7179
328.750	956
328.838	246
328.926	629
329.014	-25
329.102	1163
329.190	2326
329.278	1805
329.366	527
329.454	-3
329.542	159
329.630	-357
329.718	445
329.806	668
329.893	1408
329.981	-287
330.069	1162
330.157	2607
330.245	6042
330.333	2609
330.421	908
330.509	2047
330.597	7992
330.684	4106
330.772	1417
330.860	451
330.948	1108
331.036	-166
331.123	288
331.211	231
331.299	1199
331.387	706
331.475	1567
331.562	319
331.650	-33
331.738	286
331.825	636
331.913	-79
332.001	15
332.089	466
332.176	510
332.264	732
332.352	724
332.439	338
332.527	-68
332.614	-159
332.702	669
332.790	-174
332.877	1509
332.965	1362
333.052	104
333.140	936
333.228	2796
333.315	-227
333.403	569
333.490	341
333.578	1580
333.665	3726
333.753	860
333.840	-557
333.928	624
334.015	597
334.103	2136
334.190	3592
334.278	1415
334.365	797
334.452	1303
334.540	-414
334.627	160
334.715	347
334.802	1951
334.889	4208
334.977	4405
335.064	1384
335.151	285
335.239	256
335.326	974
335.413	2472
335.501	2388
335.588	-264
335.675	430
335.762	114
335.850	917
335.937	288
336.024	2012
336.111	5505
336.199	3433
336.286	1134
336.373	1016
336.460	-766
336.547	1326
336.635	7
336.722	558
336.809	-13
336.896	773
336.983	1802
337.070	4560
337.157	3694
337.245	2569
337.332	1124
337.419	667
337.506	43
337.593	35
337.680	1089
337.767	2976
337.854	1851
337.941	1493
338.028	843
338.115	20
338.202	947
338.289	440
338.376	2400
338.463	1761
338.550	846
338.637	1183
338.724	208
338.811	1617
338.898	225
338.984	-92
339.071	-212
339.158	1060
339.245	3103
339.332	1580
339.419	795
339.506	584
339.593	-325
339.679	884
339.766	-381
339.853	1243
339.940	2682
340.027	222
340.113	133
340.200	2040
340.287	177
340.374	1027
340.460	1711
340.547	-512
340.634	2240
340.720	8932
340.807	3377
340.894	1385
340.980	-218
341.067	398
341.154	1554
341.240	1419
341.327	2982
341.414	1272
341.500	258
341.587	1074
341.674	480
341.760	3041
341.847	1987
341.933	504
342.020	-613
342.106	883
342.193	540
342.279	2033
342.366	932
342.452	2184
342.539	936
342.625	3316
342.712	8178
342.798	3246
342.885	771
342.971	-144
343.058	-86
343.144	186
343.230	405
343.317	1031
343.403	-38
343.490	705
343.576	69
343.662	612
343.749	534
343.835	627
343.921	1979
344.008	21693
344.094	43817
344.180	7827
344.267	2518
344.353	12019
344.439	9168
344.525	3811
344.612	1097
344.698	1001
344.784	-66
344.870	1185
344.957	-199
345.043	1886
345.129	-32
345.215	2482
345.301	1193
345.387	715
345.474	81
345.560	-73
345.646	-266
345.732	887
345.818	560
345.904	782
345.990	191
346.076	497
346.162	192
346.249	981
346.335	-512
346.421	1062
346.507	4973
346.593	17498
346.679	1676
346.765	669
346.851	-25
346.937	-97
347.023	774
347.108	1538
347.194	-34
347.280	470
347.366	420
347.452	5451
347.538	19726
347.624	15257
347.710	8594
347.796	1057
347.882	217
347.967	690
348.053	-517
348.139	279
348.225	-20
348.311	39
348.397	223
348.482	1593
348.568	693
348.654	535
348.740	242
348.825	-1088
348.911	2254
348.997	10154
349.083	17498
349.168	1277
349.254	-217
349.340	848
349.425	183
349.511	950
349.597	664
349.682	2560
349.768	11373
349.854	4741
349.939	693
350.025	457
350.110	219
350.196	885
350.282	101
350.367	702
350.453	281
350.538	713
350.624	130
350.709	1084
350.795	-126
350.880	191
350.966	-293
351.051	964
351.137	760
351.222	779
351.308	3209
351.393	8768
351.479	275
351.564	-428
351.649	616
351.735	226
351.820	626
351.906	79
351.991	-351
352.076	5913
352.162	8371
352.247	1112
352.332	93
352.418	733
352.503	3135
352.588	15250
352.673	8992
352.759	1754
352.844	-406
352.929	1595
353.014	460
353.100	1443
353.185	1796
353.270	2945
353.355	2247
353.441	288
353.526	-173
353.611	2542
353.696	2199
353.781	2888
353.866	-302
353.952	1456
354.037	2739
354.122	6818
354.207	4617
354.292	1863
354.377	508
354.462	376
354.547	310
354.632	1254
354.717	1341
354.802	1104
354.887	389
354.972	1226
355.057	48
355.142	-284
355.227	281
355.312	2117
355.397	3963
355.482	10062
355.567	3040
355.652	3812
355.737	3823
355.822	13612
355.907	8126
355.991	2331
356.076	140
356.161	985
356.246	-101
356.331	226
356.416	1704
356.501	23753
356.585	19040
356.670	1677
356.755	2194
356.840	2850
356.924	15715
357.009	52042
357.094	16304
357.179	3068
357.263	1956
357.348	2218
357.433	2018
357.517	2026
357.602	530
357.687	413
357.771	1067
357.856	2817
357.941	1387
358.025	12180
358.110	51365
358.195	21049
358.279	2060
358.364	2213
358.448	9207
358.533	25268
358.617	15342
358.702	16507
358.787	4783
358.871	3397
358.956	2049
359.040	126
359.125	-843
359.209	889
359.294	583
359.378	1363
359.462	1671
359.547	1350
359.631	294
359.716	-266
359.800	-187
359.885	1614
359.969	-547
360.053	1359
360.138	611
360.222	1611
360.306	2537
360.391	2283
360.475	2654
360.559	5861
360.644	7814
360.728	5218
360.812	12659
360.896	31950
360.981	9931
361.065	3625
361.149	1846
361.233	1481
361.318	-621
361.402	786
361.486	1240
361.570	1158
361.654	544
361.739	3985
361.823	21882
361.907	30803
361.991	3418
362.075	2829
362.159	4763
362.243	4347
362.327	2224
362.411	4947
362.495	1714
362.580	843
362.664	83
362.748	-525
362.832	490
362.916	-17
363.000	7383
363.084	25451
363.168	35299
363.252	7035
363.336	1520
363.420	3416
363.503	4075
363.587	3454
363.671	1223
363.755	1002
363.839	3394
363.923	-260
364.007	1863
364.091	2148
364.175	26
364.258	7411
364.342	6412
364.426	13166
364.510	5351
364.594	4368
364.677	5674
364.761	27817
364.845	18595
364.929	5892
365.013	4021
365.096	3895
365.180	1676
365.264	1976
365.347	5925
365.431	2251
365.515	372
365.598	378
365.682	2489
365.766	408
365.849	290
365.933	719
366.017	1909
366.100	-161
366.184	-721
366.267	1117
366.351	983
366.435	63
366.518	-199
366.602	357
366.685	106
366.769	829
366.852	827
366.936	1785
367.019	965
367.103	-54
367.186	1159
367.270	-76
367.353	-203
367.436	768
367.520	-1041
367.603	1061
367.687	875
367.770	3421
367.853	1842
367.937	9664
368.020	12723
368.104	1475
368.187	2997
368.270	3959
368.353	2553
368.437	3117
368.520	2394
368.603	3607
368.687	8631
368.770	16756
368.853	2691
368.936	2950
369.020	939
369.103	600
369.186	-398
369.269	592
369.352	2434
369.436	2525
369.519	1210
369.602	-699
369.685	1982
369.768	706
369.851	591
369.934	-562
370.018	432
370.101	2037
370.184	3235
370.267	891
370.350	2510
370.433	3983
370.516	13737
370.599	15769
370.682	2781
370.765	9766
370.848	13540
370.931	19556
371.014	6151
371.097	234
371.180	1983
371.263	838
371.346	-1447
371.429	916
371.511	-140
371.594	1065
371.677	2317
371.760	1943
371.843	2687
371.926	19929
372.009	39274
372.091	13170
372.174	7940
372.257	20897
372.340	6255
372.423	2562
372.505	2959
372.588	844
372.671	7736
372.754	21562
372.836	8942
372.919	2587
373.002	2906
373.085	1370
373.167	3748
373.250	8738
373.332	20833
373.415	30411
373.498	53286
373.580	19202
373.663	25597
373.746	33343
373.828	5480
373.911	3186
373.993	1238
374.076	3450
374.159	2734
374.241	5267
374.324	17117
374.406	11486
374.489	18961
374.571	48366
374.654	16253
374.736	9446
374.819	28735
374.901	43235
374.983	38464
375.066	5807
375.148	746
375.231	2628
375.313	3901
375.395	1538
375.478	533
375.560	1686
375.643	1719
375.725	8834
375.807	34778
375.890	22119
375.972	2631
376.054	3084
376.136	1916
376.219	2365
376.301	10829
376.383	29388
376.465	10176
376.548	5326
376.630	9114
376.712	24553
376.794	9845
376.877	1135
376.959	-458
377.041	1069
377.123	-95
377.205	507
377.287	-962
377.369	696
377.452	-446
377.534	1246
377.616	51
377.698	25
377.780	-1000
377.862	761
377.944	1614
378.026	-1003
378.108	-24
378.190	-279
378.272	490
378.354	216
378.436	235
378.518	64
378.600	2800
378.682	4490
378.764	12128
378.846	9177
378.928	923
379.010	2202
379.091	2132
379.173	716
379.255	-138
379.337	925
379.419	5634
379.501	17290
379.583	5101
379.664	745
379.746	3230
379.828	13050
379.910	16338
379.991	14484
380.073	568
380.155	641
380.237	699
380.318	477
380.400	223
380.482	2838
380.564	2659
380.645	2400
380.727	1994
380.809	2239
380.890	1368
380.972	-646
381.053	-153
381.135	1888
381.217	3295
381.298	13021
381.380	3963
381.461	5344
381.543	25333
381.624	28188
381.706	3466
381.787	2263
381.869	2145
381.951	12438
382.032	42692
382.113	26868
382.195	2023
382.276	3070
382.358	7273
382.439	23294
382.521	27099
382.602	39789
382.684	16749
382.765	28607
382.846	26599
382.928	33105
383.009	15980
383.090	11993
383.172	47000
383.253	70266
383.334	25027
383.416	32110
383.497	14893
383.578	5085
383.659	7936
383.741	40729
383.822	104968
383.903	49234
383.984	20600
384.066	40589
384.147	21168
384.228	4168
384.309	1964
384.390	1177
384.471	224
384.553	1647
384.634	1989
384.715	3567
384.796	396
384.877	1703
384.958	11112
385.039	12135
385.120	2931
385.201	2261
385.282	692
385.363	2321
385.444	-435
385.525	4811
385.606	17268
385.687	13775
385.768	1882
385.849	2694
385.930	21885
386.011	34105
386.092	7212
386.173	822
386.254	239
386.335	1810
386.416	1043
386.496	7652
386.577	11432
386.658	2565
386.739	384
386.820	2016
386.901	-441
386.981	1500
387.062	376
387.143	1941
387.224	11533
387.304	10052
387.385	3250
387.466	-825
387.547	1632
387.627	951
387.708	5449
387.789	22824
387.869	25761
387.950	6956
388.031	181
388.111	-2191
388.192	1106
388.273	1918
388.353	639
388.434	1235
388.514	4673
388.595	23107
388.676	27193
388.756	12515
388.837	10427
388.917	6163
388.998	-1458
389.078	859
389.159	550
389.239	-987
389.320	2763
389.400	-118
389.480	4945
389.561	12579
389.641	6377
389.722	1728
389.802	2372
389.883	6281
389.963	16069
390.043	7462
390.124	331
390.204	4794
390.284	13344
390.365	6233
390.445	3823
390.525	11097
390.605	14131
390.686	5107
390.766	1098
390.846	1699
390.927	-428
391.007	-372
391.087	1071
391.167	-365
391.247	-1363
391.328	1277
391.408	748
391.488	1540
391.568	-1262
391.648	797
391.728	2458
391.808	2391
391.888	1251
391.969	6864
392.049	10269
392.129	3479
392.209	5532
392.289	16014
392.369	6175
392.449	2267
392.529	564
392.609	2693
392.689	4200
392.769	14673
392.849	11157
392.929	7770
393.009	16912
393.089	10711
393.169	8058
393.248	28774
393.328	109392
393.408	109332
393.488	24947
393.568	6116
393.648	2357
393.728	1123
393.807	13
393.887	1141
393.967	1169
394.047	1302
394.127	1571
394.206	3440
394.286	11749
394.366	53441
394.446	52106
394.525	7602
394.605	1339
394.685	1153
394.764	3312
394.844	3441
394.924	1969
395.003	1539
395.083	776
395.163	977
395.242	498
395.322	1619
395.402	-1284
395.481	1857
395.561	980
395.640	6965
395.720	6151
395.799	4038
395.879	1767
395.958	2638
396.038	15980
396.117	68985
396.197	70579
396.276	12608
396.356	1633
396.435	1668
396.515	2759
396.594	3211
396.673	8281
396.753	34264
396.832	101288
396.912	73481
396.991	15994
397.070	4622
397.150	118
397.229	2330
397.308	1872
397.388	3610
397.467	1477
397.546	913
397.625	-1873
397.705	1992
397.784	1207
397.863	-303
397.942	-132
398.022	-239
398.101	361
398.180	2696
398.259	440
398.338	1883
398.417	-74
398.497	-364
398.576	572
398.655	-323
398.734	43
398.813	453
398.892	1390
398.971	2827
399.050	-309
399.129	-957
399.208	-436
399.287	544
399.366	-806
399.445	-40
399.524	57
399.603	-1429
399.682	203
399.761	2509
399.840	4495
399.919	3341
399.998	-296
400.077	-925
400.156	-1713
400.235	1515
400.313	-1034
400.392	-266
400.471	5928
400.550	10242
400.629	456
400.708	431
400.786	-1393
400.865	400
400.944	78
401.023	2610
401.102	-874
401.180	-445
401.259	-736
401.338	564
401.416	824
401.495	-859
401.574	617
401.652	-745
401.731	710
401.810	-1761
401.888	-709
401.967	-670
402.046	-824
402.124	672
402.203	-482
402.281	345
402.360	-265
402.438	2008
402.517	-1338
402.596	449
402.674	-522
402.753	-226
402.831	-521
402.910	1380
402.988	3605
403.066	11963
403.145	5920
403.223	4920
403.302	9258
403.380	8138
403.459	7068
403.537	2025
403.615	-39
403.694	-569
403.772	310
403.850	-278
403.929	-9
404.007	-250
404.085	1524
404.164	489
404.242	-474
404.320	263
404.398	737
404.477	6963
404.555	32285
404.633	26313
404.711	2006
404.789	951
404.868	-483
404.946	-530
405.024	-708
405.102	-255
405.180	-1281
405.258	-1230
405.336	-134
405.415	-480
405.493	-74
405.571	1066
405.649	-991
405.727	-1111
405.805	1427
405.883	279
405.961	445
406.039	-1122
406.117	-1527
406.195	728
406.273	6681
406.351	26959
406.429	13684
406.507	105
406.585	-619
406.663	149
406.740	-100
406.818	-239
406.896	-852
406.974	839
407.052	1044
407.130	15818
407.208	19995
407.285	3959
407.363	-1766
407.441	230
407.519	-960
407.596	295
407.674	749
407.752	3506
407.830	2913
407.907	1292
407.985	-1040
408.063	489
408.141	-539
408.218	1143
408.296	-1395
408.373	72
408.451	434
408.529	-299
408.606	-1364
408.684	62
408.762	-628
408.839	-487
408.917	-791
408.994	-124
409.072	-1851
409.149	-720
409.227	-300
409.304	-642
409.382	-448
409.459	-415
409.537	613
409.614	212
409.692	-609
409.769	-647
409.846	242
409.924	1350
410.001	-1685
410.079	236
410.156	628
410.233	-23
410.311	-1315
410.388	-849
410.465	-812
410.543	-748
410.620	-368
410.697	-25
410.775	-455
410.852	-950
410.929	-1
411.006	384
411.083	-521
411.161	526
411.238	232
411.315	-741
411.392	-1343
411.469	517
411.547	57
411.624	-1768
411.701	-267
411.778	663
411.855	-151
411.932	-513
412.009	-436
412.086	-206
412.163	-968
412.240	-978
412.317	-36
412.394	-656
412.471	-816
412.548	-1617
412.625	-877
412.702	-450
412.779	446
412.856	484
412.933	-2113
413.010	-401
413.087	-198
413.164	6152
413.241	8209
413.318	922
413.395	307
413.471	1483
413.548	-520
413.625	-271
413.702	-1240
413.779	-304
413.855	-976
413.932	-719
414.009	-2365
414.086	-1473
414.162	-1065
414.239	1346
414.316	6292
414.393	14125
414.469	2810
414.546	-564
414.623	-712
414.699	-190
414.776	-1379
414.853	-340
414.929	101
415.006	-661
415.082	-700
415.159	-649
415.236	-203
415.312	-513
415.389	518
415.465	509
415.542	-42
415.618	-796
415.695	514
415.771	-308
415.848	-425
415.924	756
416.000	-1148
416.077	-109
416.153	-1435
416.230	-1233
416.306	-774
416.383	-35
416.459	-908
416.535	-371
416.612	-916
416.688	-695
416.764	-1003
416.841	-801
416.917	-1199
416.993	-964
417.069	-636
417.146	-387
417.222	-708
417.298	-255
417.374	-824
417.451	27
417.527	-764
417.603	95
417.679	-215
417.755	-105
417.831	-1026
417.908	-772
417.984	-820
418.060	-345
418.136	480
418.212	1366
418.288	-60
418.364	-582
418.440	-1251
418.516	140
418.592	-97
418.668	2246
418.744	3046
418.820	2069
418.896	-471
418.972	-708
419.048	-614
419.124	2430
419.200	-706
419.276	320
419.352	-1451
419.428	-494
419.504	-546
419.579	-76
419.655	-702
419.731	276
419.807	2801
419.883	4207
419.959	1598
420.034	765
420.110	1482
420.186	8705
420.262	6266
420.337	130
420.413	13
420.489	145
420.565	704
420.640	-561
420.716	-248
420.792	-1290
420.867	-401
420.943	-1221
421.019	120
421.094	337
421.170	-1149
421.245	-1034
421.321	-1263
421.397	-943
421.472	568
421.548	1644
421.623	1891
421.699	281
421.774	-184
421.850	266
421.925	604
422.001	1059
422.076	-109
422.152	960
422.227	1773
422.302	3145
422.378	3586
422.453	7651
422.529	20405
422.604	59274
422.679	92863
422.755	54835
422.830	18343
422.905	6221
422.981	2471
423.056	2709
423.131	1275
423.207	490
423.282	105
423.357	2648
423.432	85
423.508	1942
423.583	3426
423.658	2514
423.733	322
423.808	509
423.883	397
423.959	601
424.034	-285
424.109	175
424.184	-1287
424.259	-571
424.334	-507
424.409	-1121
424.484	-474
424.559	11
424.634	-1335
424.709	-37
424.784	511
424.859	-78
424.934	679
425.009	6224
425.084	10334
425.159	2544
425.234	-501
425.309	-1222
425.384	-123
425.459	228
425.534	98
425.609	-718
425.683	-1411
425.758	-385
425.833	-481
425.908	843
425.983	3189
426.058	11857
426.132	3276
426.207	-567
426.282	291
426.357	-850
426.431	-661
426.506	-116
426.581	-917
426.655	-224
426.730	-635
426.805	-958
426.879	-664
426.954	-969
427.029	1256
427.103	11282
427.178	25019
427.253	9818
427.327	488
427.402	-1128
427.476	758
427.551	461
427.625	-677
427.700	135
427.774	-966
427.849	181
427.923	-1301
427.998	-903
428.072	-815
428.147	1382
428.221	5852
428.296	17482
428.370	6838
428.444	356
428.519	-785
428.593	319
428.667	351
428.742	523
428.816	2005
428.890	9435
428.965	14061
429.039	3524
429.113	619
429.188	654
429.262	-290
429.336	1252
429.410	4974
429.485	2423
429.559	483
429.633	152
429.707	-535
429.781	818
429.855	10244
429.930	16650
430.004	5355
430.078	5551
430.152	8198
430.226	24330
430.300	22990
430.374	2829
430.448	531
430.522	1549
430.596	4295
430.670	7066
430.744	24503
430.818	34404
430.892	6769
430.966	1056
431.040	-811
431.114	-962
431.188	-1268
431.262	-827
431.336	-747
431.410	234
431.484	1439
431.557	2022
431.631	-1242
431.705	-538
431.779	2299
431.853	14712
431.927	9536
432.000	786
432.074	-938
432.148	-576
432.222	-1141
432.295	-102
432.369	-1267
432.443	44
432.516	10090
432.590	27096
432.664	8716
432.737	134
432.811	-1383
432.885	71
432.958	-102
433.032	-639
433.106	-669
433.179	-384
433.253	-1947
433.326	-476
433.400	-730
433.473	-1097
433.547	-2075
433.620	-920
433.694	53
433.767	637
433.841	-1160
433.914	-949
433.988	-1146
434.061	-718
434.134	-1559
434.208	-584
434.281	-1499
434.355	-1127
434.428	-948
434.501	-916
434.575	-1163
434.648	-1073
434.721	-1293
434.795	-1085
434.868	-2023
434.941	-1466
435.014	-1347
435.088	-937
435.161	-586
435.234	261
435.307	-241
435.381	-541
435.454	-1247
435.527	803
435.600	-1214
435.673	-107
435.746	-873
435.819	-1561
435.892	-1228
435.966	-627
436.039	-1547
436.112	-442
436.185	-1987
436.258	-896
436.331	-1194
436.404	-729
436.477	-1183
436.550	-1370
436.623	-1367
436.696	-551
436.769	-1247
436.842	-455
436.915	-705
436.987	-300
437.060	-1469
437.133	-1307
437.206	-1616
437.279	-411
437.352	-1021
437.425	-1156
437.498	-148
437.570	1479
437.643	1147
437.716	-181
437.789	-1693
437.861	446
437.934	1321
438.007	987
438.080	-1018
438.152	-391
438.225	1159
438.298	15995
438.370	43622
438.443	18797
438.516	3035
438.588	84
438.661	-1049
438.734	-671
438.806	-1259
438.879	389
438.951	-577
439.024	1043
439.096	-1496
439.169	-1185
439.241	-960
439.314	-1428
439.386	-775
439.459	-406
439.531	-1107
439.604	-567
439.676	-945
439.749	-1077
439.821	-1179
439.893	-478
439.966	-974
440.038	-1099
440.110	-745
440.183	-787
440.255	-1385
440.327	-133
440.400	5472
440.472	27479
440.544	18997
440.617	2043
440.689	720
440.761	1687
440.833	2198
440.905	1831
440.978	-1257
441.050	-927
441.122	-606
441.194	-995
441.266	-1232
441.338	-887
441.411	359
441.483	8584
441.555	14446
441.627	3809
441.699	74
441.771	30
441.843	-1115
441.915	-915
441.987	-1444
442.059	-945
442.131	-701
442.203	-176
442.275	-494
442.347	361
442.419	1054
442.491	10074
442.563	27575
442.635	13980
442.706	3690
442.778	3991
442.850	-44
442.922	-888
442.994	-1061
443.066	467
443.137	-18
443.209	175
443.281	727
443.353	2775
443.425	14291
443.496	48298
443.568	52839
443.640	22331
443.711	4745
443.783	1243
443.855	128
443.926	127
443.998	-581
444.070	159
444.141	-1197
444.213	845
444.285	2779
444.356	683
444.428	-559
444.499	225
444.571	-1289
444.642	20
444.714	-971
444.785	1013
444.857	253
444.928	1430
445.000	883
445.071	1096
445.143	1501
445.214	1349
445.285	2450
445.357	8519
445.428	35122
445.500	78347
445.571	56151
445.642	31278
445.714	10755
445.785	5713
445.856	2039
445.928	2709
445.999	1625
446.070	997
446.141	1457
446.213	2380
446.284	597
446.355	-17
446.426	-474
446.497	-328
446.569	-555
446.640	1530
446.711	958
446.782	-45
446.853	-795
446.924	265
446.995	238
447.066	214
447.138	-433
447.209	-121
447.280	-1553
447.351	-527
447.422	-1538
447.493	-473
447.564	215
447.635	1311
447.706	389
447.777	-340
447.847	-1391
447.918	-1015
447.989	-967
448.060	406
448.131	107
448.202	1943
448.273	1665
448.344	1121
448.414	-220
448.485	-370
448.556	-420
448.627	-602
448.698	-561
448.768	-490
448.839	-1196
448.910	-315
448.981	234
449.051	-25
449.122	-741
449.193	-560
449.263	-1047
449.334	-950
449.405	233
449.475	2945
449.546	1852
449.616	140
449.687	729
449.758	-655
449.828	-1452
449.899	-435
449.969	-1598
450.040	-1338
450.110	-854
450.181	-665
450.251	-708
450.322	-43
450.392	-777
450.463	-797
450.533	-1263
450.604	-704
450.674	-1025
450.744	-85
450.815	-835
450.885	-528
450.955	-930
451.026	-995
451.096	-345
451.166	-378
451.237	-659
451.307	2488
451.377	613
451.447	-1351
451.518	-1292
451.588	-503
451.658	-644
451.728	-388
451.799	2573
451.869	4352
451.939	-261
452.009	-572
452.079	-1087
452.149	-704
452.219	-95
452.289	2485
452.360	2532
452.430	110
452.500	214
452.570	743
452.640	1904
452.710	4801
452.780	7775
452.850	8492
452.920	7584
452.990	2971
453.060	1105
453.129	1339
453.199	838
453.269	3891
453.339	10880
453.409	17913
453.479	13556
453.549	21824
453.619	23180
453.688	12742
453.758	898
453.828	-15
453.898	-1467
453.968	-404
454.037	172
454.087	-481
454.107	-776
454.168	-1359
454.177	-1474
454.247	-734
454.249	-700
454.316	-626
454.330	-466
454.386	-235
454.411	594
454.456	1262
454.492	2527
454.525	3647
454.574	2136
454.595	1542
454.655	317
454.665	155
454.734	679
454.736	850
454.804	3338
454.817	4096
454.873	4900
454.898	5329
454.943	5794
454.979	3124
455.013	1221
455.060	1293
455.082	1609
455.141	2962
455.152	2937
455.221	5717
455.222	5926
455.291	6437
455.303	6285
455.360	7166
455.384	8681
455.430	11730
455.465	11373
455.499	10255
455.546	8134
455.569	6268
455.627	4526
455.638	4465
455.707	1162
455.708	1190
455.777	816
455.789	715
455.846	80
455.869	187
455.916	336
455.950	678
455.985	931
456.031	673
456.054	504
456.112	566
456.124	610
456.193	984
456.193	952
456.262	1475
456.274	1700
456.332	2349
456.355	2155
456.401	1271
456.436	1131
456.470	1125
456.516	1084
456.540	1016
456.597	641
456.609	598
456.678	730
456.678	705
456.747	1351
456.759	1211
456.817	886
456.840	1084
456.886	1145
456.920	1136
456.955	1330
457.001	1731
457.024	1994
457.082	2328
457.093	2333
457.162	3797
457.163	3838
457.232	2691
457.243	2614
457.301	2461
457.324	2077
457.370	1748
457.405	2020
457.439	2167
457.485	1843
457.508	1715
457.566	2404
457.577	2614
457.646	3968
457.647	4002
457.715	6773
457.727	7433
457.784	11358
457.808	14260
457.853	16129
457.889	17136
457.922	16676
457.969	13272
457.991	14533
458.050	18296
458.060	18940
458.129	29053
458.130	29383
458.198	21362
458.211	18538
458.267	12704
458.292	9284
458.336	7138
458.372	7554
458.405	10777
458.453	16781
458.474	20483
458.533	33085
458.543	33337
458.611	41597
458.614	41837
458.680	24983
458.694	19130
458.749	10652
458.775	8216
458.818	4907
458.855	4282
458.887	4375
458.936	3927
458.955	3670
459.016	3999
459.024	4061
459.093	5197
459.097	5193
459.162	4609
459.177	4852
459.230	6076
459.257	6636
459.299	6667
459.338	6471
459.368	6426
459.418	6081
459.437	5636
459.499	4820
459.505	4839
459.574	4121
459.579	4125
459.643	3903
459.659	4001
459.711	4715
459.740	4991
459.780	4988
459.820	4972
459.849	5083
459.900	5308
459.917	5275
459.981	4893
459.986	4850
460.054	5022
460.061	5008
460.123	5362
460.141	5621
460.191	6941
460.222	7847
460.260	8514
460.302	9234
460.328	8155
460.382	5302
460.397	5409
460.462	5995
460.465	6065
460.534	8439
460.543	8721
460.602	15983
460.623	18999
460.671	27663
460.703	35684
460.739	30909
460.783	21731
460.808	19174
460.864	8360
460.876	7522
460.944	6134
460.945	6096
461.013	6086
461.024	5847
461.081	5594
461.104	6095
461.150	6114
461.184	5768
461.218	5636
461.264	5605
461.286	5801
461.345	5385
461.355	5259
461.423	5871
461.425	5867
461.491	7100
461.505	7510
461.559	14832
461.585	18029
461.628	26707
461.665	34902
461.696	34549
461.745	34423
461.764	28833
461.825	9171
461.832	9117
461.901	7518
461.905	7571
461.969	7279
461.985	6928
462.037	7172
462.065	7432
462.105	8894
462.145	10537
462.173	13837
462.225	20147
462.241	22080
462.305	29683
462.310	28580
462.378	11577
462.385	9523
462.446	7894
462.465	7635
462.514	7509
462.545	7412
462.582	7493
462.625	7780
462.650	7800
462.705	7453
462.718	7787
462.785	9768
462.786	9834
462.854	13291
462.865	13918
462.922	15585
462.945	16158
462.990	11983
463.025	8693
463.058	8300
463.104	7474
463.126	7350
463.184	7442
463.194	7590
463.262	8101
463.264	8142
463.330	9160
463.344	9216
463.398	9482
463.424	9660
463.466	9839
463.504	10236
463.533	10400
463.583	10279
463.601	10596
463.663	11650
463.669	12011
463.737	16435
463.743	16789
463.805	24462
463.823	26836
463.873	39451
463.903	46862
463.940	44846
463.982	42954
464.008	33262
464.062	11955
464.076	11419
464.142	8276
464.144	8277
464.211	8442
464.221	8520
464.279	9260
464.301	9480
464.347	10695
464.381	11647
464.414	12712
464.461	13985
464.482	13913
464.540	13717
464.550	13385
464.617	10913
464.620	10812
464.685	12564
464.699	12938
464.753	12694
464.779	12565
464.820	13224
464.859	13710
464.888	13578
464.938	13328
464.956	13677
465.018	14802
465.023	14528
465.091	10818
465.098	10401
465.158	10799
465.177	10915
465.226	11582
465.257	11986
465.293	12602
465.336	13331
465.361	14536
465.416	17105
465.428	18746
465.495	27757
465.496	27917
465.563	45304
465.575	48276
465.631	51897
465.654	53463
465.698	31362
465.734	12650
465.765	11931
465.813	10777
465.833	10861
465.893	11516
465.900	11494
465.968	10790
465.972	10733
466.035	10537
466.052	10469
466.102	10989
466.131	11241
466.170	11163
466.210	11014
466.237	11376
466.290	12113
466.304	12188
466.369	12148
466.372	12187
466.439	12831
466.449	12878
466.506	14926
466.528	15695
466.573	25838
466.607	33354
466.641	47522
466.687	67109
466.708	70244
466.766	78503
466.775	72090
466.842	22695
466.845	20304
466.909	16361
466.925	15403
466.977	15029
467.004	14849
467.044	14944
467.083	14974
467.111	16015
467.163	17866
467.178	17922
467.242	17992
467.245	18002
467.312	17448
467.321	17339
467.379	18080
467.400	18293
467.446	20948
467.480	22795
467.559	17297
467.638	15587
467.717	16921
467.796	18903
467.875	20661
467.955	20237
468.034	35825
468.113	76860
468.192	99343
468.271	19966
468.350	18373
468.429	22598
468.508	22348
468.588	18310
468.667	16714
468.746	15108
468.825	15419
468.904	15187
468.983	20557
469.062	32668
469.141	34502
469.220	14682
469.299	15222
469.378	15016
469.456	16249
469.535	15241
469.614	14583
469.693	17607
469.772	24485
469.851	34784
469.930	18843
470.009	14626
470.088	14832
470.166	17546
470.245	22947
470.324	23694
470.403	17287
470.482	15513
470.560	14336
470.639	16368
470.718	19478
470.797	15754
470.875	20064
470.954	28334
471.033	25923
471.111	13335
471.190	12474
471.269	12346
471.347	13174
471.426	15089
471.505	16531
471.583	14876
471.662	14641
471.740	13322
471.819	13963
471.898	13090
471.976	13406
472.055	13907
472.133	16700
472.212	22219
472.290	23393
472.369	13868
472.447	13998
472.526	12267
472.604	14163
472.683	15911
472.761	16506
472.839	14566
472.918	14489
472.996	13900
473.075	17686
473.153	16208
473.231	14768
473.310	17361
473.388	15971
473.466	16014
473.545	18012
473.623	22094
473.701	20655
473.780	14801
473.858	13067
473.936	15398
474.014	13299
474.093	17243
474.171	24954
474.249	35207
474.327	18514
474.405	11742
474.484	13100
474.562	13810
474.640	13383
474.718	14841
474.796	13839
474.874	13586
474.952	12287
475.030	12384
475.108	13260
475.187	14527
475.265	18766
475.343	30160
475.421	29772
475.499	13316
475.577	15308
475.655	22082
475.733	42265
475.811	67995
475.889	60741
475.966	30627
476.044	17580
476.122	25555
476.200	31480
476.278	21735
476.356	16958
476.434	18268
476.512	24156
476.590	30518
476.667	23365
476.745	16150
476.823	16215
476.901	16361
476.979	16929
477.056	16473
477.134	16766
477.212	16509
477.290	15635
477.367	14473
477.445	14142
477.523	14300
477.601	15830
477.678	16541
477.756	19764
477.834	19687
477.911	14648
477.989	14892
478.066	16236
478.144	19193
478.222	25414
478.299	41949
478.377	27732
478.454	13707
478.532	14582
478.609	15355
478.687	16432
478.764	14123
478.842	15122
478.919	16741
478.997	14849
479.074	14082
479.152	17558
479.229	21432
479.307	14590
479.384	13516
479.461	13997
479.539	15052
479.616	16832
479.694	14943
479.771	17160
479.848	17434
479.926	23367
480.003	21292
480.080	13808
480.157	14086
480.235	14012
480.312	13810
480.389	18302
480.467	27608
480.544	29146
480.621	17288
480.698	17613
480.775	19303
480.853	19166
480.930	15638
481.007	16961
481.084	18823
481.161	18664
481.238	18503
481.315	15003
481.392	15651
481.470	14709
481.547	15139
481.624	15137
481.701	16191
481.778	16155
481.855	18292
481.932	27765
482.009	43133
482.086	23793
482.163	18615
482.240	31553
482.317	53579
482.393	29728
482.470	17102
482.547	17573
482.624	14828
482.701	16091
482.778	14970
482.855	13291
482.932	14523
483.009	13861
483.085	14566
483.162	17645
483.239	17617
483.316	13935
483.393	15393
483.469	15243
483.546	17238
483.623	17805
483.699	14183
483.776	15590
483.853	17583
483.930	28213
484.006	64459
484.083	90748
484.160	29244
484.236	33137
484.313	27283
484.389	23298
484.466	22130
484.543	22042
484.619	23743
484.696	25266
484.772	27652
484.849	29169
484.925	20771
485.002	22700
485.078	23791
485.155	24719
485.231	20252
485.308	20515
485.384	22463
485.461	32617
485.537	55649
485.614	54785
485.690	22276
485.766	20904
485.843	25710
485.919	38207
485.995	34994
486.072	19499
486.148	19942
486.224	20472
486.301	22264
486.377	26087
486.453	26099
486.530	23041
486.606	25952
486.682	30311
486.758	42459
486.835	47253
486.911	40743
486.987	71757
487.063	72767
487.139	89676
487.215	53769
487.292	24205
487.368	22506
487.444	25134
487.520	32410
487.596	30964
487.672	54937
487.748	138338
487.824	164516
487.900	40981
487.976	25716
488.052	28188
488.128	33224
488.204	24748
488.280	22424
488.356	31297
488.432	67575
488.508	86068
488.584	24707
488.660	21429
488.736	20149
488.812	21606
488.888	29265
488.964	44331
489.039	102945
489.115	137240
489.191	58000
489.267	21591
489.343	20114
489.418	17155
489.494	16713
489.570	16395
489.646	18639
489.722	18151
489.797	20554
489.873	38059
489.949	74127
490.024	44676
490.100	16110
490.176	18541
490.251	24587
490.327	29193
490.403	17456
490.478	16228
490.554	14157
490.629	15015
490.705	15392
490.781	16586
490.856	17134
490.932	19985
491.007	20701
491.083	18706
491.158	18091
491.234	28652
491.309	60247
491.385	45187
491.460	18214
491.536	20533
491.611	17463
491.686	21085
491.762	29568
491.837	67673
491.913	102670
491.988	148844
492.063	145798
492.139	40664
492.214	23003
492.289	14634
492.365	15493
492.440	19250
492.515	20076
492.590	17084
492.666	15762
492.741	24079
492.816	33553
492.891	16158
492.967	13628
493.042	13093
493.117	13085
493.192	13711
493.267	17907
493.342	29206
493.418	27168
493.493	14175
493.568	12376
493.643	13867
493.718	20396
493.793	31509
493.868	30686
493.943	20571
494.018	15832
494.093	15480
494.168	14007
494.243	12860
494.318	12867
494.393	13818
494.468	12924
494.543	13137
494.618	17356
494.693	14787
494.768	14672
494.842	13966
494.917	13065
494.992	14110
495.067	13028
495.142	12699
495.217	14703
495.292	14400
495.366	18758
495.441	22088
495.516	28956
495.591	48234
495.665	154758
495.740	293671
495.815	76039
495.890	23435
495.964	18688
496.039	23210
496.114	19223
496.188	20821
496.263	21235
496.338	20316
496.412	22682
496.487	25515
496.561	26843
496.636	25353
496.710	20403
496.785	24145
496.860	24612
496.934	20015
497.009	20586
497.083	19266
497.158	20753
497.232	24589
497.307	28019
497.381	23818
497.455	28266
497.530	34006
497.604	23008
497.679	26290
497.753	40959
497.827	42944
497.902	33648
497.976	46090
498.050	131232
498.125	406091
498.199	259512
498.273	50220
498.348	38413
498.422	32265
498.496	34592
498.570	29853
498.645	23072
498.719	22813
498.793	30817
498.867	48368
498.941	66258
499.016	194678
499.090	396220
499.164	72782
499.238	21589
499.312	23437
499.386	30252
499.460	23131
499.534	23513
499.609	30530
499.683	41145
499.757	38696
499.831	102103
499.905	312981
499.979	183263
500.053	47840
500.127	45649
500.201	33995
500.275	23824
500.349	23724
500.422	27059
500.496	43675
500.570	92296
500.644	199976
500.718	268243
500.792	39165
500.866	24500
500.940	32450
501.013	24725
501.087	28363
501.161	49791
501.235	61385
501.309	136483
501.382	314020
501.456	169988
501.530	64515
501.603	99754
501.677	29302
501.751	20281
501.825	27511
501.898	54911
501.972	132270
502.046	50811
502.119	27968
502.193	70069
502.266	135236
502.340	47287
502.413	73924
502.487	113003
502.561	54744
502.634	19973
502.708	20066
502.781	17816
502.855	17369
502.928	14605
503.002	15696
503.075	15674
503.149	16111
503.222	16385
503.295	17799
503.369	21247
503.442	35446
503.516	113790
503.589	222198
503.662	102481
503.736	50006
503.809	114402
503.882	76458
503.956	140090
504.029	93904
504.102	93814
504.175	94820
504.249	28288
504.322	24458
504.395	20193
504.468	16495
504.542	16310
504.615	13133
504.688	13648
504.761	13291
504.834	19098
504.907	23584
504.980	33299
505.053	19330
505.127	25280
505.200	26336
505.273	24180
505.346	13365
505.419	12335
505.492	12950
505.565	10367
505.638	12291
505.711	12177
505.784	11091
505.857	11713
505.930	14205
506.003	11598
506.076	16130
506.149	19327
506.221	18751
506.294	23350
506.367	64276
506.440	168172
506.513	51153
506.586	20993
506.659	14233
506.731	13465
506.804	18448
506.877	23439
506.950	15244
507.022	13384
507.095	18249
507.168	17949
507.241	13465
507.313	11340
507.386	14095
507.459	18055
507.531	11181
507.604	11152
507.677	11544
507.749	9105
507.822	15548
507.894	25133
507.967	21074
508.040	12710
508.112	12340
508.185	13124
508.257	14700
508.330	22563
508.402	12238
508.475	11643
508.547	13068
508.620	14481
508.692	22843
508.765	12882
508.837	10528
508.909	10864
508.982	11685
509.054	13129
509.127	11210
509.199	10628
509.271	10060
509.344	9959
509.416	10111
509.488	10802
509.560	11454
509.633	11641
509.705	14364
509.777	14605
509.849	20105
509.922	11278
509.994	9033
510.066	10642
510.138	9592
510.210	15886
510.283	14543
510.355	12521
510.427	12148
510.499	11736
510.571	11352
510.643	13666
510.715	26943
510.787	18182
510.859	14124
510.931	17566
511.003	26514
511.076	18379
511.148	10596
511.219	12123
511.291	22791
511.363	21350
511.435	10961
511.507	9909
511.579	10627
511.651	11274
511.723	9955
511.795	9646
511.867	10672
511.939	15246
512.010	31399
512.082	18184
512.154	11902
512.226	11415
512.298	17170
512.369	21707
512.441	17331
512.513	17188
512.585	12353
512.656	16268
512.728	16723
512.800	11244
512.871	11851
512.943	11533
513.015	8965
513.086	12827
513.158	13536
513.230	13244
513.301	22563
513.373	24082
513.444	12797
513.516	9706
513.588	12156
513.659	14311
513.731	16851
513.802	15313
513.874	41807
513.945	54400
514.016	14083
514.088	11883
514.159	13661
514.231	19926
514.302	20008
514.374	13712
514.445	16040
514.516	36679
514.588	19530
514.659	17753
514.730	33090
514.802	18168
514.873	11373
514.944	14321
515.016	15394
515.087	19328
515.158	27279
515.229	27129
515.301	11126
515.372	13304
515.443	10057
515.514	9944
515.585	9213
515.656	11243
515.728	11120
515.799	10148
515.870	12212
515.941	12776
516.012	10721
516.083	15658
516.154	18181
516.225	25288
516.296	19754
516.367	16837
516.438	20169
516.509	26942
516.580	46881
516.651	151118
516.722	410143
516.793	114206
516.864	37753
516.935	33962
517.006	38455
517.077	61855
517.148	152030
517.219	436655
517.289	455851
517.360	172806
517.431	40844
517.502	21613
517.573	21990
517.643	20601
517.714	21874
517.785	21994
517.856	21857
517.926	25885
517.997	27526
518.068	30629
518.138	44335
518.209	80930
518.280	301450
518.350	776894
518.421	175682
518.492	32576
518.562	27016
518.633	29611
518.703	28853
518.774	54737
518.845	122245
518.915	84619
518.986	31034
519.056	33361
519.127	59025
519.197	91812
519.268	182026
519.338	66593
519.408	29081
519.479	38986
519.549	23603
519.620	18303
519.690	13649
519.760	15965
519.831	17608
519.901	16164
519.971	15043
520.042	15737
520.112	18559
520.182	21576
520.253	22574
520.323	14780
520.393	18433
520.463	22891
520.534	19078
520.604	28979
520.674	18467
520.744	21093
520.814	35942
520.885	34389
520.955	72244
521.025	188743
521.095	37387
521.165	16139
521.235	15308
521.305	13167
521.375	14788
521.445	16112
521.515	20275
521.585	27118
521.655	21238
521.725	19246
521.795	16000
521.865	11492
521.935	25526
522.005	16314
522.075	12153
522.145	15981
522.215	16695
522.285	25256
522.355	34572
522.424	56747
522.494	37910
522.564	25680
522.634	65077
522.704	149414
522.774	36402
522.843	15455
522.913	15652
522.983	19139
523.053	14069
523.122	15461
523.192	28387
523.262	88842
523.331	52383
523.401	14345
523.471	11887
523.540	13299
523.610	10408
523.680	11746
523.749	12950
523.819	16894
523.888	13572
523.958	11009
524.027	15077
524.097	14783
524.166	13347
524.236	14365
524.305	15259
524.375	11699
524.444	11481
524.514	15518
524.583	14039
524.653	16786
524.722	17563
524.791	11754
524.861	14509
524.930	12105
524.999	15392
525.069	19375
525.138	16994
525.207	18552
525.277	14002
525.346	13541
525.415	15105
525.484	16398
525.554	18044
525.623	15678
525.692	14441
525.761	16045
525.830	16407
525.900	19193
525.969	29805
526.038	44012
526.107	93373
526.176	209210
526.245	122820
526.314	59900
526.383	127282
526.452	132589
526.522	266791
526.591	176249
526.660	68642
526.729	36891
526.797	51208
526.867	128524
526.935	451684
527.004	554995
527.073	171736
527.142	23712
527.211	18366
527.280	21240
527.349	18722
527.418	11673
527.487	13815
527.555	11022
527.624	12009
527.693	9994
527.762	12669
527.831	9756
527.899	12343
527.968	11600
528.037	11024
528.106	16162
528.174	27054
528.243	20673
528.312	33922
528.380	32341
528.449	12290
528.518	12386
528.586	8625
528.655	10805
528.723	9952
528.792	10207
528.861	11677
528.929	9980
528.998	10842
529.066	9673
529.135	11105
529.203	10844
529.272	11734
529.340	12226
529.409	15146
529.477	12168
529.545	16525
529.614	16352
529.682	19851
529.751	18986
529.819	21161
529.887	14988
529.956	13874
530.024	14481
530.092	12813
530.161	16860
530.229	23053
530.297	14087
530.365	13103
530.434	13239
530.502	13298
530.570	12685
530.638	11248
530.707	15105
530.775	15118
530.843	12796
530.911	14267
530.979	12735
531.047	13162
531.115	14453
531.183	12764
531.252	13672
531.320	13398
531.388	12828
531.456	14421
531.524	11669
531.592	14958
531.660	16681
531.728	13337
531.796	13611
531.864	14070
531.932	15295
532.000	12980
532.067	14593
532.135	17082
532.203	19876
532.271	19596
532.339	32239
532.407	66223
532.475	29782
532.542	20595
532.610	24599
532.678	39652
532.746	155473
532.814	248160
532.881	48271
532.949	17136
533.017	15452
533.084	15681
533.152	13757
533.220	15961
533.287	16860
533.355	14830
533.423	15153
533.490	14742
533.558	14724
533.625	15084
533.693	14519
533.761	14816
533.828	14652
533.896	15552
533.963	28267
534.031	32419
534.098	44199
534.166	18865
534.233	13565
534.300	15478
534.368	14958
534.435	14354
534.503	15151
534.570	16811
534.637	15026
534.705	17430
534.772	20330
534.840	32880
534.907	113361
534.974	84495
535.041	17275
535.109	16670
535.176	12620
535.243	14189
535.310	14167
535.378	13296
535.445	13060
535.512	13338
535.579	13250
535.646	12147
535.714	12299
535.781	14742
535.848	14092
535.915	15120
535.982	14302
536.049	13986
536.116	14949
536.183	13268
536.250	13444
536.317	14653
536.384	16952
536.451	23522
536.518	22316
536.585	16978
536.652	22536
536.719	28627
536.786	20236
536.853	19071
536.920	28566
536.987	41168
537.053	47321
537.120	169316
537.187	85278
537.254	16469
537.321	14594
537.388	15070
537.454	13035
537.521	13381
537.588	12472
537.654	14875
537.721	14767
537.788	16011
537.855	12727
537.921	14117
537.988	13550
538.055	13699
538.121	12731
538.188	15890
538.254	21979
538.321	38240
538.388	19752
538.454	14605
538.521	14097
538.587	12553
538.654	12737
538.720	12677
538.787	13215
538.853	14093
538.920	17463
538.986	17800
539.053	15037
539.119	15683
539.185	15313
539.252	19342
539.318	24473
539.385	19205
539.451	15352
539.517	17965
539.583	23611
539.650	61777
539.716	104057
539.782	23308
539.849	14217
539.915	15525
539.981	15532
540.047	18322
540.114	16159
540.180	16309
540.246	16681
540.312	21781
540.378	40251
540.444	37348
540.510	60749
540.576	119475
540.643	26128
540.709	13800
540.775	13939
540.841	14569
540.907	18775
540.973	21911
541.039	21955
541.105	22638
541.171	14007
541.237	14082
541.303	15925
541.369	18189
541.435	22043
541.500	33478
541.566	18595
541.632	13202
541.698	12694
541.764	14291
541.830	13177
541.896	12200
541.961	13999
542.027	14807
542.093	14499
542.159	14808
542.224	15281
542.290	21646
542.356	33492
542.421	34763
542.487	18105
542.553	14494
542.618	16413
542.684	15674
542.750	15892
542.815	22871
542.881	40528
542.947	122574
543.012	54641
543.078	15074
543.143	13425
543.209	16423
543.274	15874
543.340	22793
543.405	53389
543.471	56415
543.536	15564
543.602	14464
543.667	12781
543.732	14340
543.798	12879
543.863	13563
543.928	12296
543.994	12447
544.059	13203
544.124	13714
544.190	13617
544.255	14013
544.320	14893
544.386	15323
544.451	21423
544.516	23823
544.581	28184
544.646	84247
544.712	84757
544.777	19869
544.842	19043
544.907	19138
544.972	17416
545.037	17456
545.102	19345
545.168	18687
545.233	18884
545.298	21811
545.363	22281
545.428	27315
545.493	50469
545.558	87173
545.623	28951
545.688	18387
545.753	17948
545.818	18369
545.883	19415
545.947	18649
546.012	21500
546.077	20179
546.142	20681
546.207	20202
546.272	24615
546.337	24742
546.401	21362
546.466	20932
546.531	19424
546.596	22382
546.661	22105
546.725	22899
546.790	21775
546.855	23498
546.919	23095
546.984	26115
547.049	28605
547.113	31781
547.178	29496
547.243	35431
547.307	39361
547.372	43766
547.436	42906
547.501	41385
547.565	43449
547.630	45243
547.695	42159
547.759	45424
547.823	38651
547.888	39112
547.952	39359
548.017	42721
548.081	45240
548.146	49954
548.210	45196
548.274	44464
548.339	42313
548.403	41897
548.468	39794
548.532	37697
548.596	39176
548.660	40389
548.725	45437
548.789	49821
548.853	45626
548.917	43897
548.982	49234
549.046	42634
549.110	34855
549.174	36746
549.238	41177
549.303	42454
549.367	46144
549.431	42313
549.495	39385
549.559	41716
549.623	48092
549.687	54923
549.751	61846
549.815	59138
549.879	56511
549.943	55227
550.007	58692
550.071	57056
550.135	59529
550.199	51544
550.263	49844
550.327	52283
550.391	54554
550.455	52689
550.519	56039
550.582	60111
550.646	75590
550.710	70384
550.774	62467
550.838	63975
550.901	65232
550.965	69267
551.029	70404
551.093	78003
551.156	87731
551.220	119951
551.284	114047
551.347	83218
551.411	111747
551.475	90320
551.538	67747
551.602	62279
551.666	58593
551.729	55473
551.793	55729
551.856	54616
551.920	53855
551.983	54384
552.047	54076
552.110	54092
552.174	54315
552.237	55648
552.301	51015
552.364	48823
552.428	50128
552.491	50522
552.554	51371
552.618	51854
552.681	54575
552.745	53020
552.808	64793
552.871	66646
552.934	54502
552.998	52325
553.061	51914
553.124	48451
553.187	48923
553.251	51296
553.314	50599
553.377	50990
553.440	55731
553.503	65162
553.567	64364
553.630	52565
553.693	53180
553.756	53773
553.819	50333
553.882	50546
553.945	50529
554.008	49751
554.071	51192
554.134	51076
554.197	48126
554.260	46870
554.323	51187
554.386	50099
554.449	51583
554.512	49830
554.575	49167
554.638	48911
554.701	47751
554.764	47560
554.827	45872
554.889	43986
554.952	41507
555.015	42451
555.078	42143
555.141	42982
555.203	42587
555.266	42421
555.329	42409
555.391	40521
555.454	42089
555.517	38364
555.580	37274
555.642	36509
555.705	36356
555.768	36196
555.830	34512
555.893	33632
555.955	33565
556.018	34391
556.080	33500
556.143	33360
556.206	34434
556.268	34460
556.330	35592
556.393	33794
556.455	34366
556.518	39344
556.580	35883
556.643	29871
556.705	29350
556.767	29911
556.830	30609
556.892	33492
556.955	39628
557.017	30685
557.079	29095
557.142	29261
557.204	32186
557.266	49263
557.328	35448
557.391	25224
557.453	24779
557.515	26478
557.577	29084
557.639	28291
557.701	25023
557.764	23869
557.826	25589
557.888	25619
557.950	26612
558.012	30404
558.074	39693
558.136	80583
558.198	127591
558.260	38991
558.322	27108
558.384	28691
558.446	30944
558.508	34706
558.570	42838
558.632	67031
558.694	85712
558.756	107731
558.818	303747
558.880	473439
558.942	123119
559.003	135453
559.065	49616
559.127	33816
559.189	34863
559.251	42517
559.312	64992
559.374	156098
559.436	363137
559.498	103306
559.559	32820
559.621	35287
559.683	46416
559.744	82939
559.806	223870
559.868	201643
559.929	41492
559.991	41374
560.052	66843
560.114	139126
560.176	67989
560.237	97626
560.299	103539
560.360	26637
560.422	20878
560.483	20366
560.545	20595
560.606	20130
560.667	19505
560.729	19350
560.790	19215
560.852	19663
560.913	18487
560.974	18529
561.036	18823
561.097	19192
561.158	19008
561.220	19808
561.281	19226
561.342	20793
561.403	23917
561.465	29495
561.526	60158
561.587	54972
561.648	20282
561.709	18535
561.771	18669
561.832	18080
561.893	18555
561.954	18161
562.015	17324
562.076	18288
562.137	18472
562.198	17905
562.259	18992
562.320	19213
562.381	20551
562.442	25616
562.503	19472
562.564	17652
562.625	18509
562.686	18080
562.747	18616
562.808	18400
562.869	19882
562.930	22588
562.991	20416
563.051	19848
563.112	18064
563.173	17869
563.234	17589
563.294	18047
563.355	18843
563.416	18650
563.477	17826
563.537	18510
563.598	17893
563.659	19266
563.720	18173
563.780	19017
563.841	19518
563.901	17836
563.962	17776
564.023	17939
564.083	17727
564.144	17632
564.204	17379
564.265	18697
564.325	21493
564.386	33061
564.446	23463
564.507	17294
564.567	17718
564.628	17210
564.688	17747
564.749	18052
564.809	20274
564.869	21066
564.930	17874
564.990	17745
565.050	17052
565.111	17307
565.171	17073
565.231	17030
565.292	17856
565.352	17098
565.412	17336
565.472	17521
565.532	18503
565.593	17225
565.653	16518
565.713	17803
565.773	18505
565.833	21510
565.893	23890
565.953	17572
566.013	16722
566.074	18339
566.134	23251
566.194	30580
566.254	26961
566.314	20406
566.374	16601
566.434	17882
566.494	17745
566.554	17447
566.614	17368
566.673	16374
566.733	17721
566.793	18578
566.853	18172
566.913	18568
566.973	18668
567.033	19203
567.092	19097
567.152	18259
567.212	18108
567.272	18436
567.331	18721
567.391	19196
567.451	19876
567.511	25161
567.570	21755
567.630	18086
567.690	17316
567.749	18690
567.809	17972
567.868	20023
567.928	19977
567.988	20276
568.047	20333
568.107	23211
568.166	27287
568.226	36450
568.285	41621
568.345	31616
568.404	27540
568.464	24330
568.523	23974
568.582	26084
568.642	28617
568.701	34455
568.761	48147
568.820	65349
568.879	52646
568.939	40537
568.998	30244
569.057	24156
569.116	22331
569.176	20728
569.235	18440
569.294	18055
569.353	17201
569.413	18307
569.472	17726
569.531	17854
569.590	16775
569.649	16444
569.708	16169
569.767	18468
569.827	19697
569.886	16723
569.945	16574
570.004	15806
570.063	16618
570.122	18723
570.181	18252
570.240	18859
570.299	17652
570.358	19221
570.417	15569
570.475	14737
570.534	16999
570.593	17679
570.652	17022
570.711	16872
570.770	16756
570.829	17084
570.887	17371
570.946	18881
571.005	15896
571.064	16500
571.122	17070
571.181	17171
571.240	15235
571.299	14936
571.357	15806
571.416	16320
571.475	18785
571.533	17426
571.592	16108
571.650	16972
571.709	15555
571.768	16364
571.826	15611
571.885	14969
571.943	15378
572.002	14892
572.060	15452
572.119	14479
572.177	14448
572.236	13732
572.294	14253
572.352	14358
572.411	14854
572.469	14516
572.528	14388
572.586	14209
572.644	16314
572.703	18430
572.761	14390
572.819	14203
572.877	13761
572.936	14890
572.994	13220
573.052	14319
573.110	14452
573.169	13489
573.227	13073
573.285	13652
573.343	13580
573.401	12818
573.459	13535
573.517	12705
573.576	13599
573.634	13491
573.692	14011
573.750	13676
573.808	12973
573.866	14156
573.924	15991
573.982	14835
574.040	12842
574.098	14024
574.155	11686
574.213	12797
574.271	12210
574.329	12955
574.387	12361
574.445	12526
574.503	11557
574.560	11289
574.618	11658
574.676	11872
574.734	11648
574.792	13296
574.849	11552
574.907	11265
574.965	10827
575.022	11720
575.080	11501
575.138	12564
575.195	12158
575.253	12411
575.311	12977
575.368	11694
575.426	12160
575.483	11268
575.541	11523
575.598	11392
575.656	12203
575.713	12895
575.771	11681
575.828	12007
575.886	12631
575.943	12676
576.001	12518
576.058	13079
576.115	13263
576.173	15680
576.230	16216
576.287	17705
576.345	14661
576.402	13172
576.459	12985
576.517	14007
576.574	13902
576.631	13957
576.688	12436
576.746	12814
576.803	11612
576.860	12171
576.917	13120
576.974	13267
577.031	11882
577.089	12255
577.146	11429
577.203	12980
577.260	12634
577.317	13735
577.374	14764
577.431	13325
577.488	12258
577.545	10977
577.602	12178
577.659	12147
577.716	11323
577.773	12187
577.830	11213
577.886	12499
577.943	11272
578.000	11825
578.057	12380
578.114	11452
578.171	11891
578.227	12144
578.284	11730
578.341	12130
578.398	11599
578.454	13269
578.511	13742
578.568	15377
578.625	11877
578.681	11468
578.738	12246
578.794	11834
578.851	12306
578.908	12096
578.964	14625
579.021	13242
579.077	12115
579.134	12575
579.190	12682
579.247	11553
579.303	12264
579.360	10997
579.416	11685
579.473	11147
579.529	11297
579.586	11522
579.642	11930
579.698	11332
579.755	11973
579.811	11601
579.867	12167
579.924	11311
579.980	11406
580.036	12572
580.093	11743
580.149	12905
580.205	12352
580.261	13215
580.317	13520
580.374	13407
580.430	14635
580.486	14295
580.542	11690
580.598	12462
580.619	12675
580.654	13065
580.692	13227
580.710	13340
580.765	12220
580.767	12202
580.823	13604
580.838	13421
580.879	13030
580.911	13139
580.935	13239
580.984	12257
580.991	12148
581.047	12903
581.057	12859
581.103	12716
581.130	12787
581.159	12903
581.203	13136
581.215	13218
581.270	12185
581.276	12132
581.326	11796
581.349	12282
581.382	13014
581.422	12839
581.438	12790
581.494	12933
581.494	12919
581.550	13057
581.567	13221
581.606	13597
581.640	12956
581.661	12607
581.713	13765
581.717	13870
581.773	12614
581.786	12820
581.829	13508
581.859	13206
581.885	13000
581.932	12439
581.940	12350
581.996	13698
582.004	13675
582.052	13559
582.077	13392
582.107	13238
582.150	13413
582.163	13495
582.219	13004
582.223	13020
582.274	13241
582.296	13249
582.330	13307
582.368	12985
582.386	12919
582.441	12597
582.441	12602
582.497	12986
582.514	12687
582.552	12276
582.587	12863
582.608	13240
582.659	12859
582.663	12822
582.719	12645
582.732	12467
582.774	12026
582.805	13144
582.830	14072
582.877	12831
582.885	12627
582.941	11905
582.950	12134
582.996	13234
583.023	13655
583.052	14248
583.095	13311
583.107	13015
583.162	12616
583.168	12606
583.218	12633
583.240	12552
583.273	12288
583.313	12178
583.328	12251
583.384	12632
583.385	12617
583.439	11671
583.458	11497
583.494	11229
583.531	11312
583.549	11517
583.603	12025
583.605	12032
583.660	11785
583.676	11822
583.715	11790
583.748	11868
583.770	11958
583.820	11745
583.825	11715
583.881	10621
583.893	10838
583.936	11712
583.965	11600
583.991	11417
584.038	11427
584.046	11429
584.101	10689
584.110	10738
584.156	10976
584.183	10885
584.211	10771
584.255	10869
584.266	10863
584.321	11182
584.328	11187
584.376	11381
584.400	11698
584.431	12008
584.472	11748
584.486	11588
584.541	10668
584.545	10720
584.596	11634
584.617	11452
584.651	11476
584.689	12142
584.706	12144
584.761	11643
584.762	11649
584.816	11394
584.834	11621
584.871	12147
584.906	12135
584.926	11977
584.978	11954
584.980	11952
585.035	12253
585.051	12528
585.090	13282
585.123	13761
585.145	13867
585.195	13544
585.200	13551
585.254	14450
585.267	14904
585.309	16081
585.340	16797
585.364	17258
585.412	18724
585.419	18896
585.473	21443
585.484	22330
585.528	26314
585.556	31977
585.583	38660
585.628	55811
585.637	60085
585.692	119710
585.700	126048
585.747	151855
585.772	109411
585.801	54565
585.845	24948
585.856	19891
585.910	16043
585.917	15704
585.965	14325
585.989	14321
586.019	14105
586.061	12972
586.074	12819
586.128	13602
586.133	13706
586.183	14037
586.205	14030
586.237	13808
586.277	13442
586.292	13403
586.346	12826
586.349	12886
586.401	13082
586.421	13390
586.455	13986
586.493	14458
586.509	14692
586.564	16577
586.565	16741
586.618	21856
586.637	20269
586.672	16962
586.709	15377
586.727	14502
586.781	14686
586.781	14650
586.835	13561
586.853	13484
586.889	13346
586.925	13122
586.944	12946
586.996	13748
586.998	13732
587.052	13915
587.068	13902
587.106	13645
587.140	13650
587.161	13729
587.212	14200
587.215	14189
587.269	14150
587.284	14389
587.323	14508
587.356	14500
587.377	14568
587.427	15179
587.431	15139
587.485	14960
587.499	15014
587.539	15798
587.571	16353
587.593	16383
587.643	16883
587.648	16907
587.702	17210
587.715	17553
587.755	18062
587.786	18332
587.810	18421
587.858	18461
587.864	18431
587.917	20547
587.930	20830
587.971	22285
588.001	23187
588.025	23086
588.073	24414
588.079	24671
588.133	27375
588.145	28144
588.187	29981
588.217	31595
588.241	33122
588.288	37258
588.295	37679
588.348	42172
588.360	43343
588.402	47451
588.431	51326
588.456	54481
588.503	63140
588.510	64360
588.564	78059
588.575	81934
588.617	96050
588.646	109112
588.671	121810
588.718	155093
588.725	161274
588.778	227645
588.789	245679
588.832	351017
588.861	438986
588.886	542443
588.932	719502
588.939	729091
588.993	728506
589.004	728039
589.047	559875
589.075	413526
589.100	322008
589.147	193671
589.154	183236
589.207	139464
589.218	133612
589.261	125083
589.290	125977
589.314	130663
589.361	150180
589.368	155622
589.421	219806
589.433	238468
589.475	363429
589.504	465119
589.528	550466
589.576	659860
589.582	641676
589.635	434708
589.647	384358
589.689	222722
589.718	135120
589.742	107141
589.790	69876
589.795	67061
589.849	49703
589.861	46922
589.902	41412
589.932	36550
589.955	33079
590.004	28209
590.009	27722
590.062	25178
590.075	24706
590.115	22427
590.146	21123
590.168	20491
590.218	19616
590.222	19352
590.275	17495
590.289	17128
590.328	16658
590.360	16561
590.381	16207
590.431	15469
590.435	15307
590.488	14573
590.503	14445
590.541	14067
590.574	14023
590.594	13614
590.645	12815
590.647	12726
590.700	12890
590.716	13090
590.753	12817
590.787	12613
590.806	12135
590.859	11461
590.859	11378
590.912	11835
590.930	12238
590.965	11875
591.001	11573
591.018	11352
591.071	10934
591.072	11022
591.124	10466
591.143	10408
591.177	10771
591.214	11477
591.230	11464
591.283	11619
591.285	11712
591.336	11362
591.356	11397
591.389	11188
591.427	11033
591.442	10752
591.495	10027
591.498	10073
591.547	9465
591.569	9353
591.600	9391
591.640	9503
591.653	9360
591.706	9257
591.711	9339
591.759	9250
591.782	9421
591.811	9367
591.853	9414
591.864	9343
591.917	9369
591.924	9484
591.969	8984
591.995	8881
592.022	8648
592.066	8463
592.075	8451
592.127	9102
592.137	9331
592.180	8620
592.208	8251
592.233	8057
592.279	8106
592.285	8039
592.338	8366
592.350	8559
592.390	7971
592.421	7721
592.443	7932
592.491	8702
592.495	8608
592.548	8732
592.562	8868
592.600	7917
592.633	7303
592.653	7379
592.704	7843
592.705	7882
592.775	7737
592.846	7799
592.916	7847
592.987	8557
593.058	8487
593.128	7582
593.199	7615
593.270	7543
593.341	7983
593.411	7368
593.482	8310
593.553	8633
593.623	8320
593.694	8392
593.764	8568
593.835	8601
593.906	8108
593.976	8177
594.047	7631
594.117	9187
594.188	8854
594.258	8524
594.329	9165
594.399	7546
594.470	8931
594.540	8682
594.611	8657
594.681	8551
594.751	8491
594.822	10090
594.892	9464
594.963	9683
595.033	10628
595.103	9212
595.174	9541
595.244	10666
595.314	11726
595.384	9647
595.455	10195
595.525	10577
595.595	10759
595.665	11409
595.736	10290
595.806	12065
595.876	10837
595.946	11470
596.016	10918
596.087	11527
596.157	11372
596.227	10742
596.297	11776
596.367	13413
596.437	14108
596.507	13802
596.577	13619
596.647	13750
596.717	14479
596.787	14048
596.857	13941
596.927	14600
596.997	14032
597.067	14731
597.137	15515
597.207	15584
597.277	14412
597.347	14504
597.417	13617
597.487	14994
597.557	15046
597.626	15504
597.696	15613
597.766	15366
597.836	14606
597.906	13981
597.975	14057
598.045	13128
598.115	14563
598.185	14796
598.254	17026
598.324	18403
598.394	17758
598.464	17213
598.533	16985
598.603	16778
598.672	14970
598.742	16596
598.812	15300
598.881	15999
598.951	17152
599.020	16280
599.090	17299
599.159	17933
599.229	17438
599.299	16562
599.368	17847
599.437	16446
599.507	14642
599.576	15066
599.646	15171
599.715	15261
599.785	14735
599.854	14122
599.924	14731
599.993	14859
600.062	14499
600.132	15342
600.201	15130
600.270	18547
600.340	19157
600.409	19519
600.478	18551
600.547	18790
600.617	16905
600.686	13993
600.755	13171
600.824	13517
600.894	13801
600.963	13320
601.032	12679
601.101	12837
601.170	12104
601.239	11003
601.308	11780
601.378	12309
601.447	12863
601.516	13000
601.585	12762
601.654	14193
601.723	12624
601.792	11970
601.861	13696
601.930	15045
601.999	15007
602.068	14285
602.137	14809
602.206	14726
602.275	14754
602.343	15446
602.412	15571
602.481	14627
602.550	13721
602.619	15146
602.688	15087
602.756	14988
602.825	15858
602.894	15201
602.963	14759
603.032	16640
603.100	15844
603.169	15138
603.238	16295
603.307	16198
603.375	15014
603.444	16787
603.513	16222
603.581	15243
603.650	17013
603.719	14847
603.787	15386
603.856	16673
603.924	17002
603.993	16267
604.061	18422
604.130	18991
604.198	18793
604.267	19623
604.335	19445
604.404	19126
604.472	18948
604.541	20674
604.609	20782
604.678	20649
604.746	20914
604.815	21580
604.883	20245
604.951	21694
605.020	21497
605.088	22023
605.156	21675
605.225	22445
605.293	21450
605.361	22326
605.429	22574
605.498	22959
605.566	23166
605.634	25203
605.702	24815
605.771	26171
605.839	26389
605.907	24937
605.975	24000
606.043	23451
606.111	24339
606.180	24835
606.248	23029
606.316	23568
606.384	23527
606.452	24178
606.520	25062
606.588	24568
606.656	22966
606.724	23208
606.792	22536
606.860	19305
606.928	18464
606.996	17511
607.064	17291
607.132	17541
607.200	18161
607.267	18817
607.335	18737
607.403	20546
607.471	18394
607.539	18724
607.607	19119
607.674	17053
607.742	17013
607.810	16563
607.878	16425
607.946	16859
608.013	17717
608.081	18389
608.149	18097
608.216	18170
608.284	20483
608.352	18681
608.419	17563
608.487	19867
608.555	17241
608.622	20097
608.690	20503
608.757	21750
608.825	22123
608.893	21549
608.960	20454
609.028	21243
609.095	19966
609.163	20311
609.230	17310
609.298	16606
609.365	16879
609.432	19210
609.500	19915
609.567	23002
609.635	26881
609.702	26729
609.769	26497
609.837	19548
609.904	17246
609.971	16734
610.039	21583
610.106	26290
610.173	46987
610.241	102877
610.308	56037
610.375	24304
610.442	19003
610.509	18220
610.577	19312
610.644	19621
610.711	19124
610.778	19568
610.845	19845
610.912	20998
610.980	22692
611.047	22901
611.114	22712
611.181	21970
611.248	20598
611.315	23385
611.382	22452
611.449	24119
611.516	25276
611.583	23956
611.650	24076
611.717	24346
611.784	24016
611.851	26529
611.918	27929
611.984	31805
612.051	45661
612.118	92400
612.185	221663
612.252	126402
612.319	35297
612.386	30624
612.452	28809
612.519	27288
612.586	27033
612.653	26740
612.719	28750
612.786	27665
612.853	25519
612.919	24399
612.986	25104
613.053	23918
613.120	21686
613.186	20938
613.253	22933
613.319	21889
613.386	21220
613.453	22597
613.519	23199
613.586	24147
613.652	26937
613.719	24847
613.785	24930
613.852	23355
613.918	21668
613.985	23085
614.051	24146
614.118	26317
614.184	25173
614.250	22294
614.317	22964
614.383	22153
614.449	22532
614.516	22569
614.582	23052
614.648	22274
614.715	22184
614.781	20827
614.847	20873
614.914	21530
614.980	20817
615.046	21771
615.112	21519
615.179	21896
615.245	22450
615.311	22258
615.377	24394
615.443	24453
615.509	23654
615.575	22945
615.642	22217
615.708	24614
615.774	25074
615.840	27660
615.906	29195
615.972	36559
616.038	56968
616.104	116426
616.170	273118
616.236	206289
616.302	49158
616.368	36856
616.434	27613
616.500	27896
616.565	29342
616.631	34731
616.697	28494
616.763	29619
616.829	42965
616.895	71849
616.961	64003
617.026	30115
617.092	23239
617.158	23710
617.224	22626
617.289	21111
617.355	19158
617.421	18785
617.487	20875
617.552	19253
617.618	17866
617.684	18133
617.749	20447
617.815	18518
617.880	17971
617.946	17988
618.012	19083
618.077	18566
618.143	18553
618.208	18563
618.274	20107
618.339	19917
618.405	15953
618.470	17540
618.536	16565
618.601	16587
618.667	14656
618.732	14866
618.798	14809
618.863	14383
618.928	14265
618.994	14727
619.059	16166
619.124	17520
619.190	15073
619.255	13852
619.320	14205
619.386	14539
619.451	13672
619.516	13979
619.581	14872
619.647	14006
619.712	14138
619.777	14012
619.842	15213
619.907	14205
619.972	14429
620.038	13700
620.103	13405
620.168	13273
620.233	14925
620.298	13719
620.363	14260
620.428	15490
620.493	14556
620.558	13549
620.623	15135
620.688	15450
620.753	15024
620.818	15500
620.883	14621
620.948	16170
621.013	14430
621.078	14544
621.143	12994
621.207	17200
621.272	15712
621.337	14685
621.402	14750
621.467	14679
621.532	14975
621.596	14908
621.661	14438
621.726	14054
621.791	14322
621.855	14919
621.920	14838
621.985	14093
622.049	15824
622.114	14976
622.179	15788
622.243	15141
622.308	15770
622.373	17536
622.437	16171
622.502	16165
622.566	15393
622.631	12612
622.695	16553
622.760	14983
622.824	14715
622.889	15911
622.953	15699
623.018	20144
623.082	19740
623.147	16559
623.211	16341
623.276	15389
623.340	14277
623.404	15345
623.469	14380
623.533	15238
623.597	13774
623.662	14223
623.726	12965
623.790	12184
623.854	11723
623.919	13519
623.983	12772
624.047	12861
624.111	13691
624.176	13048
624.240	13532
624.304	14344
624.368	13309
624.432	13635
624.496	13812
624.560	15256
624.625	14502
624.689	14117
624.753	14411
624.817	14360
624.881	12940
624.945	12489
625.009	12576
625.073	13439
625.137	12156
625.201	15122
625.265	15027
625.329	12978
625.393	12513
625.456	13014
625.520	14017
625.584	12636
625.648	14262
625.712	15173
625.776	16548
625.839	17511
625.903	11225
625.967	10015
626.031	13806
626.095	14763
626.158	11794
626.222	9102
626.286	9724
626.349	8488
626.413	7129
626.477	10355
626.540	8428
626.604	8094
626.668	9669
626.731	8162
626.795	7974
626.858	7883
626.922	7124
626.986	9543
627.049	6537
627.113	8408
627.176	8645
627.240	8177
627.303	7459
627.366	7609
627.430	8008
627.493	7498
627.557	7252
627.620	8256
627.684	7670
627.747	8918
627.810	5232
627.874	6789
627.937	5695
628.000	8431
628.064	7007
628.127	4842
628.190	6599
628.253	6306
628.317	5893
628.380	6227
628.443	5227
628.506	5192
628.569	5715
628.632	4858
628.696	5470
628.759	4906
628.822	5164
628.885	4079
628.948	4968
629.011	5190
629.074	5041
629.137	3756
629.200	3125
629.263	6195
629.326	3060
629.389	3849
629.452	4847
629.515	4005
629.578	3685
629.641	4917
629.704	3806
629.767	4272
629.830	4648
629.892	4631
629.955	3589
630.018	5305
630.081	3005
630.144	5441
630.207	3419
630.269	4951
630.332	3419
630.395	3106
630.458	3879
630.520	1810
630.583	4366
630.646	4578
630.708	3201
630.771	2624
630.834	4675
630.896	3845
630.959	3919
631.021	2798
631.084	3112
631.146	3297
631.209	3896
631.272	3511
631.334	3358
631.397	3655
631.459	2345
631.522	3528
631.584	3987
631.646	3576
631.709	4193
631.771	4375
631.834	3981
631.896	4393
631.958	3127
632.021	4199
632.083	2448
632.145	3490
632.208	3178
632.270	4406
632.332	2152
632.395	2507
632.457	3472
632.519	3498
632.581	4437
632.643	2307
632.706	3124
632.768	2591
632.830	3363
632.892	3648
632.954	2233
633.016	3991
633.078	2402
633.141	2974
633.203	2890
633.265	3452
633.327	3415
633.389	1628
633.451	3866
633.513	3289
633.575	3540
633.637	3462
633.698	2885
633.760	3849
633.822	3337
633.884	3706
633.946	2895
634.008	3183
634.070	3601
634.132	4080
634.193	4293
634.255	4684
634.317	3557
634.379	5546
634.441	3305
634.502	3055
634.564	3516
634.626	2616
634.687	2880
634.749	3032
634.811	2789
634.873	2266
634.934	2783
634.996	3678
635.057	2223
635.119	1507
635.181	2868
635.242	3577
635.304	1007
635.365	5066
635.427	2790
635.488	3063
635.550	1975
635.611	3441
635.673	532
635.734	3925
635.796	2404
635.857	4046
635.918	2603
635.980	5109
636.041	2862
636.102	4466
636.164	3334
636.225	5006
636.286	2032
636.348	3611
636.409	3250
636.470	1820
636.531	3119
636.593	2270
636.654	2459
636.715	2982
636.776	1912
636.838	1814
636.899	2996
636.960	1453
637.021	1998
637.082	2358
637.143	2162
637.204	1192
637.265	991
637.326	2559
637.387	3565
637.448	1765
637.509	2436
637.570	1714
637.631	2867
637.692	1749
637.753	533
637.814	2268
637.875	2345
637.936	3476
637.997	1708
638.058	1321
638.119	2477
638.179	1877
638.240	947
638.301	2329
638.362	383
638.423	1932
638.483	2750
638.544	1168
638.605	2526
638.666	1129
638.726	1878
638.787	2698
638.848	1436
638.908	999
638.969	1767
639.030	2069
639.090	774
639.151	1245
639.211	2413
639.272	2865
639.332	4403
639.393	2972
639.453	300
639.514	2163
639.574	2449
639.635	1440
639.695	2401
639.756	825
639.816	2486
639.877	2155
639.937	4721
639.997	5207
640.058	1575
640.118	1248
640.178	2852
640.239	1913
640.299	1566
640.359	661
640.420	1482
640.480	1238
640.540	1783
640.600	1993
640.661	2399
640.721	1167
640.781	3808
640.841	72
640.901	2418
640.961	2660
641.021	1753
641.082	1526
641.142	2845
641.202	3022
641.262	721
641.322	2503
641.382	-101
641.442	2235
641.502	698
641.562	1864
641.622	989
641.682	1485
641.742	1870
641.802	1604
641.861	2359
641.921	1675
641.981	2512
642.041	1946
642.101	2796
642.161	99
642.221	608
642.280	1094
642.340	1468
642.400	-314
642.460	1588
642.519	1297
642.579	1184
642.639	2540
642.698	-1150
642.758	4254
642.818	2334
642.877	923
642.937	2087
642.997	2803
643.056	3649
643.116	187
643.175	3333
643.235	507
643.294	2081
643.354	2541
643.414	1940
643.473	3455
643.532	2399
643.592	4050
643.651	8052
643.711	15618
643.770	31477
643.830	76925
643.889	162433
643.948	32766
644.008	5266
644.067	3302
644.126	1653
644.186	1811
644.245	2638
644.304	-47
644.363	3361
644.423	-52
644.482	1495
644.541	1868
644.600	-1473
644.659	2202
644.719	2020
644.778	3882
644.837	6453
644.896	16090
644.955	36604
645.014	10831
645.073	2208
645.132	871
645.191	2058
645.250	1585
645.309	2216
645.368	1529
645.427	2870
645.486	3093
645.545	7235
645.604	1764
645.663	1395
645.722	1072
645.781	1277
645.840	1381
645.898	2086
645.957	3931
646.016	6113
646.075	13089
646.134	26544
646.192	78208
646.251	109417
646.310	13080
646.369	3647
646.427	3833
646.486	1310
646.545	1647
646.603	1168
646.662	963
646.721	1270
646.779	427
646.838	121
646.896	2036
646.955	3175
647.014	4633
647.072	7028
647.131	22790
647.189	9417
647.248	794
647.306	2057
647.365	1337
647.423	-258
647.481	1813
647.540	-549
647.598	382
647.657	898
647.715	762
647.773	-581
647.832	1054
647.890	-772
647.948	-565
648.007	1116
648.065	-173
648.123	-273
648.181	1612
648.240	693
648.298	-538
648.356	445
648.414	137
648.472	217
648.531	976
648.589	246
648.647	302
648.705	-115
648.763	-118
648.821	295
648.879	352
648.937	582
648.995	1065
649.053	1782
649.111	2498
649.169	4721
649.227	9626
649.285	21661
649.343	65733
649.401	27711
649.459	7938
649.516	4731
649.574	475
649.632	3170
649.690	2402
649.748	1780
649.806	1347
649.863	5228
649.921	16163
649.979	9130
650.037	1260
650.094	-1142
650.152	653
650.210	-19
650.268	1756
650.325	119
650.383	392
650.440	-1117
650.498	348
650.556	-52
650.613	-598
650.671	1656
650.728	107
650.786	-649
650.843	-264
650.901	-1529
650.958	737
651.016	-672
651.073	-89
651.131	-671
651.188	-1515
651.246	-184
651.303	-768
651.360	914
651.418	-221
651.475	22
651.532	-278
651.590	615
651.647	-65
651.704	-254
651.762	-1007
651.819	425
651.876	-155
651.933	-883
651.990	1193
652.048	-1264
652.105	-238
652.162	175
652.219	-274
652.276	501
652.333	26
652.390	-1315
652.448	-479
652.505	-84
652.562	-383
652.619	-390
652.676	17
652.733	1399
652.790	-368
652.847	-1665
652.904	447
652.961	-855
653.017	-766
653.074	-319
653.131	29
653.188	-997
653.245	-152
653.302	464
653.359	-1145
653.415	623
653.472	-410
653.529	386
653.586	-1117
653.642	-728
653.699	322
653.756	-1403
653.813	-1312
653.869	92
653.926	-775
653.983	-1365
654.039	12
654.096	-827
654.152	358
654.209	-1562
654.266	211
654.322	-1449
654.379	146
654.435	632
654.492	-735
654.548	112
654.605	212
654.661	1076
654.717	-1104
654.774	-596
654.830	-551
654.887	-505
654.943	-764
655.000	-545
655.056	-276
655.112	-237
655.168	-1318
655.225	-740
655.281	-684
655.337	-359
655.394	-887
655.450	-179
655.506	-830
655.562	-370
655.618	470
655.675	-818
655.731	300
655.787	-757
655.843	298
655.899	-974
655.955	-76
656.011	-393
656.067	-1144
656.123	-730
656.179	-266
656.235	368
656.291	-2415
656.347	-142
656.403	-1201
656.459	-1415
656.515	-117
656.571	-994
656.627	-481
656.683	-1180
656.739	71
656.795	-330
656.850	-391
656.906	-917
656.962	-500
657.018	-760
657.074	130
657.129	-933
657.185	513
657.241	1280
657.297	206
657.352	487
657.408	-319
657.464	-35
657.519	-1035
657.575	-1401
657.630	-1451
657.686	-667
657.742	-1737
657.797	-1280
657.853	-1262
657.908	-180
657.964	-671
658.019	-256
658.075	-1095
658.130	-517
658.186	-1772
658.241	-314
658.297	-1631
658.352	-760
658.407	-931
658.463	-1213
658.518	-225
658.573	111
658.629	-1731
658.684	-386
658.739	-426
658.795	-1101
658.850	-512
658.905	-951
658.960	-468
659.016	-870
659.071	-417
659.126	-1120
659.181	-193
659.236	1175
659.291	977
659.346	77
659.401	-938
659.457	-438
659.512	-1918
659.567	349
659.622	-207
659.677	-995
659.732	-1479
659.787	-587
659.842	-626
659.897	12
659.952	-951
660.007	-53
660.061	-242
660.116	-1700
660.171	-549
660.226	-475
660.281	612
660.336	-545
660.391	-235
660.445	-1025
660.500	-1249
660.555	-493
660.610	-859
660.664	-526
660.719	-1297
660.774	-546
660.828	255
660.883	-390
660.938	-96
660.992	-1843
661.047	-479
661.101	-804
661.156	-1010
661.211	-916
661.265	-398
661.320	-1028
661.374	-1282
661.429	-1570
661.483	618
661.538	-1711
661.592	-792
661.647	-1114
661.701	-802
661.755	-1245
661.810	-142
661.864	-1236
661.919	-1404
661.973	-1038
662.027	-965
662.081	-1206
662.136	-1256
662.190	-427
662.244	-437
662.299	-325
662.353	-267
662.407	-1266
662.461	-566
662.515	-1015
662.569	-1148
662.624	273
662.678	-986
662.732	-1442
662.786	-904
662.840	-667
662.894	-1197
662.948	-942
663.002	-742
663.056	-953
663.110	-901
663.164	-1015
663.218	-1267
663.272	-585
663.326	-284
663.380	-497
663.434	335
663.488	-1624
663.542	-626
663.595	-636
663.649	-1027
663.703	-7
663.757	-924
663.811	-1212
663.864	-1253
663.918	-581
663.972	-633
664.026	-1556
664.079	-881
664.133	-621
664.187	-411
664.240	-1503
664.294	-1251
664.348	-168
664.401	-368
664.455	-881
664.508	-891
664.562	-1231
664.615	-570
664.669	-1261
664.722	-189
664.776	-1130
664.829	-377
664.883	-532
664.936	-1238
664.990	-1352
665.043	-440
665.097	-1154
665.150	-355
665.203	-628
665.257	-1156
665.310	-857
665.363	-71
665.417	23
665.470	8
665.523	-486
665.576	-1015
665.630	-719
665.683	-1129
665.736	-620
665.789	-1123
665.842	-941
665.895	-254
665.949	-783
666.002	-688
666.055	-520
666.108	-62
666.161	-636
666.214	158
666.267	297
666.320	-883
666.373	-553
666.426	-1234
666.479	-577
666.532	-861
666.585	-1020
666.638	-631
666.691	-534
666.744	-78
666.796	-1332
666.849	-557
666.902	-68
666.955	-484
667.008	-351
667.060	-1336
667.113	-1427
667.166	-843
667.219	-689
667.271	-685
667.324	-139
667.377	98
667.430	-690
667.482	-249
667.535	-458
667.587	-33
667.640	-961
667.693	-516
667.745	491
667.798	748
667.850	-798
667.903	-674
667.955	-1066
668.008	-785
668.060	-499
668.113	-418
668.165	-179
668.218	-608
668.270	-858
668.322	-290
668.375	-116
668.427	624
668.479	-947
668.532	-1149
668.584	-960
668.636	-484
668.689	-829
668.741	-827
668.793	-669
668.845	-900
668.898	-491
668.950	-317
669.002	-451
669.054	-1735
669.106	-773
669.158	-623
669.211	-680
669.263	-1004
669.315	-457
669.367	41
669.419	-831
669.471	-315
669.523	-339
669.575	-46
669.627	-936
669.679	-223
669.731	-527
669.783	-187
669.835	-491
669.886	-453
669.938	-736
669.990	-85
670.042	-1181
670.094	-794
670.146	-1046
670.197	372
670.249	-17
670.301	-2
670.353	152
670.404	1275
670.456	147
670.508	2543
670.560	4848
670.611	9754
670.663	16761
670.715	46967
670.766	77126
670.818	19912
670.869	2098
670.921	1293
670.972	117
671.024	-180
671.075	-220
671.127	-302
671.178	-285
671.230	-720
671.281	-6
671.333	39
671.384	-820
671.436	-334
671.487	407
671.538	272
671.590	1234
671.641	2189
671.692	5354
671.744	11139
671.795	5739
671.846	827
671.897	237
671.949	-823
672.000	-454
672.051	-315
672.102	-90
672.153	-790
672.204	-1194
672.256	-989
672.307	48
672.358	158
672.409	-1325
672.460	-948
672.511	-683
672.562	-406
672.613	-467
672.664	-850
672.715	-361
672.766	-128
672.817	-1097
672.868	-1299
672.919	-681
672.970	-1151
673.021	-845
673.071	-946
673.122	-1140
673.173	-242
673.224	-288
673.275	-1000
673.326	-516
673.376	-817
673.427	-893
673.478	-906
673.528	-499
673.579	-694
673.630	-502
673.680	-945
673.731	-562
673.782	-583
673.832	-832
673.883	-443
673.934	-1066
673.984	-380
674.035	-584
674.085	-94
674.136	-1177
674.186	-467
674.237	-1584
674.287	-995
674.338	-1027
674.388	-686
674.438	-953
674.489	-443
674.539	-754
674.589	-700
674.640	-1121
674.690	-771
674.740	-1203
674.791	-624
674.841	-325
674.891	65
674.942	-752
674.992	-1325
675.042	-942
675.092	-1134
675.142	-766
675.193	-1076
675.243	-1014
675.293	-567
675.343	-1647
675.393	-550
675.443	-479
675.493	-730
675.543	-1521
675.593	-386
675.643	-1049
675.693	159
675.743	-321
675.793	-75
675.843	-1210
675.893	-835
675.943	533
675.993	-1146
676.043	-1791
676.093	-296
676.142	-796
676.192	-1000
676.242	-1262
676.292	-72
676.341	-1233
676.391	-1015
676.441	-656
676.491	-1042
676.540	-1101
676.590	-765
676.640	-400
676.689	-429
676.739	-1652
676.789	-1090
676.838	-1052
676.888	-1442
676.937	-1088
676.987	-672
677.037	-1321
677.086	-1230
677.136	-1071
677.185	-881
677.235	-1407
677.284	-743
677.333	-1067
677.383	-1406
677.432	-1642
677.482	-705
677.531	-183
677.580	-1245
677.630	-211
677.679	-1817
677.728	-1309
677.778	-210
677.827	-930
677.876	-806
677.925	-168
677.975	-1068
678.024	-1113
678.073	-980
678.122	-508
678.171	-938
678.220	-684
678.269	-544
678.319	-698
678.368	-926
678.417	-1655
678.466	-1001
678.515	-576
678.564	-996
678.613	-402
678.662	-613
678.711	-1075
678.760	-640
678.809	-697
678.857	-1293
678.906	-1126
678.955	-505
679.004	-467
679.053	-686
679.102	-932
679.151	-1500
679.199	-1721
679.248	-35
679.297	-1125
679.346	-1012
679.394	-1491
679.443	-1232
679.492	-912
679.540	-527
679.589	-859
679.638	-237
679.686	-110
679.735	-809
679.784	-1498
679.832	-778
679.881	-1355
679.929	-1558
679.978	-1135
680.026	-1160
680.075	-1327
680.123	-1014
680.172	-1548
680.220	-887
680.268	-1298
680.317	-741
680.365	-1498
680.414	-1545
680.462	-975
680.510	-839
680.559	-687
680.607	-1026
680.655	-524
680.703	-839
680.752	-520
680.800	-764
680.848	-608
680.896	-762
680.945	-939
680.993	-928
681.041	-1036
681.089	-337
681.137	-876
681.185	-873
681.233	-1519
681.258	-1213
681.281	-939
681.329	-1036
681.377	-1053
681.380	-984
681.425	45
681.473	-231
681.502	-842
681.521	-1298
681.569	-861
681.617	-1369
681.624	-1294
681.665	-896
681.713	-979
681.745	-536
681.761	-347
681.809	-1385
681.857	-278
681.867	-377
681.904	-782
681.952	-732
681.989	-770
682.000	-795
682.048	-614
682.096	-996
682.111	-925
682.143	-832
682.191	-731
682.233	184
682.239	304
682.286	9
682.334	-895
682.354	-715
682.382	-477
682.430	-109
682.476	-506
682.477	-528
682.525	81
682.572	-930
682.598	-692
682.620	-487
682.667	98
682.715	-524
682.720	-452
682.763	26
682.810	235
682.841	-173
682.857	-369
682.905	-485
682.952	60
682.963	225
683.000	624
683.047	39
683.085	927
683.095	1187
683.142	-365
683.190	730
683.206	728
683.237	634
683.284	465
683.328	386
683.332	372
683.379	359
683.426	-176
683.449	-20
683.473	122
683.521	209
683.568	112
683.571	163
683.615	693
683.662	199
683.693	34
683.709	-86
683.757	-312
683.804	625
683.814	676
683.851	899
683.898	553
683.936	1019
683.945	1110
683.992	197
684.039	315
684.057	444
684.086	636
684.133	651
684.179	924
684.180	921
684.227	770
684.274	1166
684.300	1096
684.321	1068
684.368	989
684.415	1198
684.422	1159
684.462	750
684.509	172
684.543	457
684.556	572
684.603	892
684.649	914
684.665	1122
684.696	1585
684.743	1573
684.786	1835
684.790	1843
684.837	1143
684.883	1634
684.908	1255
684.930	905
684.977	1124
685.023	1731
685.029	1680
685.070	1217
685.117	1049
685.150	1228
685.164	1300
685.210	1037
685.257	1465
685.272	1633
685.303	1958
685.350	1480
685.393	1519
685.396	1530
685.443	1912
685.490	2409
685.514	2122
685.536	1727
685.583	1677
685.629	2075
685.636	1954
685.675	1208
685.722	2385
685.757	1700
685.768	1522
685.815	1747
685.861	1643
685.878	1611
685.908	1406
685.954	1749
686.000	1575
686.000	1570
686.047	1723
686.093	1776
686.121	1753
686.139	1741
686.185	2314
686.232	2224
686.242	2239
686.278	2173
686.324	2042
686.363	1702
686.370	1648
686.416	1869
686.463	2445
686.484	1842
686.509	1160
686.555	1820
686.601	1800
686.606	1830
686.647	2184
686.693	1843
686.727	2147
686.739	2238
686.785	1937
686.831	2045
686.848	2131
686.877	2269
686.923	2129
686.969	1686
686.969	1683
687.015	1918
687.061	1872
687.090	2098
687.107	2261
687.153	2908
687.199	2282
687.211	2402
687.245	2751
687.291	2238
687.332	2862
687.336	2908
687.382	2381
687.428	1714
687.453	1975
687.474	2245
687.520	2616
687.565	2774
687.574	2817
687.611	2966
687.657	3102
687.695	2971
687.702	2990
687.748	3037
687.794	3682
687.816	3683
687.839	3401
687.885	2692
687.931	3264
687.937	3154
687.976	2832
688.022	2335
688.058	2731
688.067	2818
688.113	2817
688.158	2633
688.179	2819
688.204	3013
688.249	2536
688.295	2835
688.300	2806
688.340	2729
688.386	3231
688.421	3003
688.431	2918
688.477	2790
688.522	3029
688.542	2924
688.567	2917
688.613	2850
688.658	3289
688.663	3305
688.703	3348
688.749	3320
688.784	3388
688.794	3361
688.839	2775
688.884	3221
688.905	3030
688.930	2962
688.975	2985
689.020	3405
689.026	3414
689.065	3297
689.110	2681
689.146	2757
689.155	2849
689.201	2821
689.246	3480
689.267	3356
689.291	3098
689.336	3286
689.381	2860
689.388	2871
689.426	3096
689.471	3154
689.509	3580
689.516	3660
689.561	3938
689.606	3743
689.630	3712
689.651	3648
689.696	3053
689.741	3692
689.750	3686
689.785	3748
689.830	3388
689.871	3467
689.875	3472
689.920	3909
689.965	3531
689.992	3683
690.010	3815
690.054	3653
690.099	3381
690.112	3458
690.144	3734
690.189	3648
690.233	3308
690.233	3313
690.278	3825
690.323	3667
690.354	3496
690.367	3451
690.412	3665
690.457	3456
690.474	3518
690.501	3661
690.546	3736
690.590	3434
690.595	3417
690.635	3595
690.680	3977
690.716	4457
690.724	4492
690.769	4080
690.813	4484
690.836	3795
690.857	3423
690.902	4215
690.946	4127
690.957	4274
690.991	4607
691.035	4981
691.077	4837
691.080	4844
691.124	4979
691.168	5468
691.198	5361
691.213	5116
691.257	4529
691.301	4284
691.318	4045
691.346	3980
691.390	3889
691.434	4167
691.439	4125
691.478	3998
691.522	4709
691.559	4571
691.567	4596
691.611	5138
691.655	5093
691.680	5290
691.699	5119
691.743	5085
691.787	4117
691.800	4073
691.831	4441
691.875	4802
691.919	4872
691.921	4869
691.964	4716
692.008	4490
692.041	4010
692.052	4008
692.096	4157
692.139	4681
692.162	4802
692.183	4694
692.227	4626
692.271	4419
692.282	4349
692.315	4554
692.359	4858
692.402	4948
692.403	4956
692.447	4443
692.490	4475
692.523	3996
692.534	4054
692.578	4646
692.622	4580
692.643	4978
692.666	5107
692.709	5008
692.753	4279
692.763	4276
692.797	4537
692.840	4429
692.884	4771
692.884	4786
692.928	4722
692.971	4844
693.004	4497
693.015	4445
693.059	4684
693.102	4921
693.124	4892
693.146	4812
693.189	4854
693.233	4765
693.245	4714
693.276	4692
693.320	4960
693.363	4906
693.365	4893
693.407	4840
693.450	5009
693.485	4720
693.493	4696
693.537	4978
693.580	5071
693.605	5166
693.624	5348
693.667	5522
693.710	5982
693.725	6000
693.753	6592
693.797	7894
693.840	8790
693.845	8954
693.883	9012
693.926	8439
693.966	7961
693.970	7881
694.013	7301
694.056	5997
694.086	5464
694.099	5453
694.142	5032
694.185	5031
694.206	4881
694.229	4997
694.272	5246
694.315	5344
694.326	5416
694.358	5817
694.401	6133
694.444	6660
694.446	6671
694.487	6816
694.530	6491
694.566	6538
694.573	6514
694.616	6092
694.659	5728
694.686	5463
694.702	5431
694.745	5065
694.787	5267
694.806	5184
694.830	5116
694.873	4984
694.916	4782
694.926	4764
694.959	5088
695.002	5316
695.044	5607
695.046	5601
695.087	5651
695.130	5696
695.166	5812
695.172	5834
695.215	5797
695.258	5700
695.286	5580
695.301	5593
695.343	5728
695.386	5823
695.406	5756
695.428	5800
695.471	6034
695.514	6210
695.526	6306
695.556	6415
695.599	6316
695.641	6320
695.646	6305
695.684	6303
695.726	5967
695.766	5883
695.769	5890
695.811	5593
695.854	5569
695.886	5377
695.896	5497
695.938	5922
695.981	6411
696.005	6551
696.023	6511
696.065	6746
696.108	6753
696.125	6720
696.150	6623
696.192	6491
696.235	6199
696.245	6170
696.277	6416
696.319	6512
696.361	6871
696.365	6860
696.404	7003
696.446	7136
696.485	7314
696.488	7313
696.530	7126
696.572	6743
696.604	6461
696.614	6469
696.656	6378
696.698	6476
696.724	6367
696.740	6382
696.783	6491
696.825	6651
696.844	6672
696.867	6730
696.909	6735
696.951	6830
696.964	6821
696.992	6825
697.034	6855
697.076	6924
697.083	6886
697.118	6818
697.160	6846
697.202	6928
697.203	6905
697.244	6708
697.286	6651
697.323	6388
697.327	6387
697.369	6259
697.411	6242
697.442	6157
697.453	6286
697.494	6690
697.536	7138
697.562	7429
697.578	7600
697.620	7914
697.661	8262
697.682	8395
697.703	8427
697.744	8406
697.786	8539
697.801	8507
697.828	8600
697.869	8793
697.911	8884
697.921	8908
697.952	8595
697.994	8055
698.035	7555
698.040	7470
698.077	7469
698.118	7434
698.160	7364
698.160	7339
698.201	7470
698.243	7565
698.279	7623
698.284	7632
698.325	7483
698.367	7356
698.399	7213
698.408	7260
698.449	7349
698.491	7500
698.518	7540
698.532	7670
698.573	8023
698.614	8376
698.638	8543
698.656	8356
698.697	7879
698.738	7381
698.757	7135
698.779	7285
698.820	7511
698.862	7746
698.877	7813
698.903	7966
698.944	8160
698.985	8362
698.996	8394
699.026	8325
699.067	8196
699.116	8019
699.235	8150
699.354	7749
699.474	6997
699.593	7328
699.713	7596
699.832	8779
699.951	8052
700.070	8352
700.190	7163
700.309	7757
700.428	7117
700.547	7424
700.667	6809
700.786	7420
700.905	7201
701.024	7783
701.143	6221
701.262	7802
701.381	7325
701.500	7818
701.619	8157
701.738	7869
701.857	7811
701.976	6259
702.095	6650
702.214	8495
702.333	7689
702.452	7261
702.571	6114
702.690	7359
702.809	7450
702.928	7046
703.047	6417
703.165	7846
703.284	7010
703.403	7332
703.522	6085
703.640	7385
703.759	6729
703.878	8066
703.997	6554
704.115	7286
704.234	5941
704.353	7623
704.471	6903
704.590	6469
704.708	5613
704.827	6963
704.946	6190
705.064	6032
705.183	6197
705.301	6187
705.420	7793
705.538	7557
705.656	5348
705.775	6981
705.893	7886
706.012	9180
706.130	6799
706.249	7498
706.367	6525
706.485	7218
706.604	5629
706.722	7024
706.840	7489
706.958	8554
707.077	6309
707.195	6341
707.313	5562
707.431	6575
707.549	5391
707.668	6112
707.786	5840
707.904	5686
708.022	5321
708.140	5439
708.258	5117
708.376	7077
708.494	5651
708.612	7279
708.730	6900
708.848	6975
708.966	6551
709.084	7072
709.202	6119
709.320	6052
709.438	5781
709.556	6682
709.674	6165
709.791	6703
709.909	6150
710.027	6723
710.145	5382
710.263	6105
710.380	5685
710.498	6360
710.616	5155
710.733	6230
710.851	5625
710.969	6061
711.086	5648
711.204	6549
711.322	5013
711.439	6081
711.557	5328
711.674	5257
711.792	4992
711.909	5986
712.027	5111
712.144	5150
712.262	5125
712.379	5437
712.497	6206
712.614	6299
712.732	5991
712.849	5976
712.966	6694
713.084	7975
713.201	7114
713.318	5880
713.436	5783
713.553	6559
713.670	6576
713.787	6725
713.905	6396
714.022	6870
714.139	6253
714.256	7667
714.373	9995
714.490	17633
714.608	45894
714.725	197725
714.842	211289
714.959	15611
715.076	7920
715.193	7287
715.310	6818
715.427	5983
715.544	5931
715.661	6827
715.778	6040
715.895	5447
716.011	5604
716.128	5388
716.245	6090
716.362	7133
716.479	6615
716.596	6333
716.713	4962
716.829	5538
716.946	4577
717.063	5077
717.180	4419
717.296	5219
717.413	4762
717.530	5228
717.646	4811
717.763	5515
717.880	4725
717.996	4894
718.113	5008
718.229	5940
718.346	4435
718.462	5241
718.579	6043
718.695	12287
718.812	6939
718.928	5700
719.045	4707
719.161	4008
719.277	4517
719.394	5928
719.510	3806
719.626	4268
719.743	6253
719.859	8099
719.975	12739
720.092	56254
720.208	137192
720.324	16420
720.440	5919
720.557	5330
720.673	8693
720.789	7568
720.905	8095
721.021	5274
721.137	4125
721.253	4347
721.369	5054
721.486	4790
721.602	4928
721.718	4872
721.834	3327
721.950	4426
722.066	4208
722.181	3586
722.297	4163
722.413	4858
722.529	3699
722.645	4822
722.761	4209
722.877	3688
722.993	4267
723.108	5129
723.224	3667
723.340	4472
723.456	3737
723.571	4142
723.687	2625
723.803	4643
723.918	3880
724.034	3538
724.150	3445
724.265	3659
724.381	5031
724.497	5211
724.612	3528
724.728	3662
724.843	3971
724.959	3813
725.074	4281
725.190	4700
725.305	3437
725.421	3012
725.536	4027
725.651	4755
725.767	3963
725.882	3780
725.997	3544
726.113	4156
726.228	3245
726.343	2909
726.459	2722
726.574	3714
726.689	2838
726.804	3688
726.920	4049
727.035	3107
727.150	2921
727.265	2252
727.380	2956
727.495	3768
727.610	2597
727.725	3790
727.841	3248
727.956	4900
728.071	3941
728.186	3721
728.301	2549
728.416	3346
728.531	2785
728.645	3392
728.760	3279
728.875	4262
728.990	2786
729.105	2900
729.220	3253
729.335	4095
729.449	3145
729.564	3666
729.679	2793
729.794	2596
729.908	2659
730.023	2864
730.138	2251
730.253	3353
730.367	2908
730.482	3330
730.596	3213
730.711	4484
730.826	3745
730.940	4112
731.055	2928
731.169	3662
731.284	3247
731.398	3708
731.513	3398
731.627	3670
731.742	3239
731.856	3828
731.970	3057
732.085	3786
732.199	5748
732.313	8926
732.428	21869
732.542	72064
732.656	42555
732.771	6779
732.885	4520
732.999	4858
733.113	3840
733.227	4025
733.342	3823
733.456	3820
733.570	3436
733.684	3258
733.798	3435
733.912	4089
734.026	2740
734.140	4204
734.254	3253
734.368	4275
734.482	4875
734.596	3900
734.710	3628
734.824	3440
734.938	3741
735.052	2681
735.166	3089
735.280	3373
735.393	3976
735.507	3096
735.621	3073
735.735	4744
735.849	2575
735.962	3273
736.076	2597
736.190	3556
736.303	3089
736.417	3778
736.531	2434
736.644	3556
736.758	2042
736.872	3298
736.985	2425
737.099	2816
737.212	2435
737.326	3636
737.439	2605
737.553	2930
737.666	3409
737.780	3105
737.893	2987
738.007	3454
738.120	2366
738.233	3217
738.347	3083
738.460	3131
738.573	2905
738.687	2794
738.800	3082
738.913	5082
739.026	3508
739.140	2382
739.253	2416
739.366	2307
739.479	2395
739.592	2265
739.705	1931
739.818	2614
739.932	2273
740.045	3110
740.158	2419
740.271	3049
740.384	2017
740.497	2386
740.610	2739
740.723	2705
740.836	1855
740.949	3650
741.062	4548
741.174	3922
741.287	1873
741.400	2742
741.513	2826
741.626	2637
741.739	2068
741.851	2492
741.964	2585
742.077	2314
742.189	2570
742.302	3620
742.415	2584
742.527	2536
742.640	3091
742.753	3225
742.865	1939
742.978	2870
743.090	2572
743.203	2703
743.316	2775
743.428	2886
743.541	2277
743.653	2128
743.766	1717
743.878	1765
743.990	2126
744.103	3543
744.215	2316
744.327	2541
744.440	3944
744.552	4977
744.664	2866
744.777	2378
744.889	2248
745.001	2781
745.113	2373
745.226	1834
745.338	1801
745.450	2626
745.562	2117
745.674	2179
745.786	1679
745.898	2461
746.010	2128
746.122	1628
746.234	1491
746.347	2837
746.459	2162
746.570	1659
746.682	2467
746.794	2746
746.906	1481
747.018	2202
747.130	2275
747.242	1845
747.354	2051
747.466	2454
747.577	1713
747.689	2367
747.801	1868
747.913	2332
748.024	1425
748.136	1173
748.248	1191
748.359	2267
748.471	915
748.583	1500
748.694	958
748.806	2720
748.918	810
749.029	2619
749.141	3336
749.252	3119
749.364	2788
749.475	6170
749.587	3047
749.698	2093
749.809	2623
749.921	1954
750.032	1666
750.144	1849
750.255	474
750.366	1762
750.478	2166
750.589	2308
750.700	1901
750.811	2257
750.923	2704
751.034	6202
751.145	6613
751.256	1728
751.367	1644
751.479	2032
751.590	1326
751.701	1194
751.812	1045
751.923	1357
752.034	1842
752.145	1914
752.256	1741
752.367	1970
752.478	1197
752.589	1357
752.700	2092
752.811	1257
752.922	913
753.032	1603
753.143	2143
753.254	1318
753.365	1834
753.476	2568
753.586	1474
753.697	1857
753.808	958
753.919	1862
754.029	1196
754.140	1841
754.251	1649
754.361	1164
754.472	1908
754.582	1050
754.693	1326
754.804	1911
754.914	365
755.025	1407
755.135	1302
755.246	1403
755.356	846
755.466	1800
755.577	1644
755.687	2140
755.798	1943
755.908	1698
756.018	1018
756.129	1530
756.239	1020
756.349	1345
756.460	1075
756.570	2378
756.680	1473
756.790	1229
756.900	1779
757.011	1802
757.121	1520
757.231	1214
757.341	1475
757.451	1952
757.561	729
757.671	1879
757.781	907
757.891	2223
758.001	1159
758.111	2187
758.221	1453
758.331	1893
758.441	1374
758.551	2722
758.661	2810
758.771	1606
758.880	593
758.990	2145
759.100	1372
759.210	1319
759.320	1313
759.429	1186
759.539	1975
759.649	1894
759.758	1887
759.868	2439
759.978	1089
760.087	2577
760.197	1899
760.307	1715
760.416	1614
760.526	973
760.635	2130
760.745	2561
760.854	645
760.964	3118
761.073	2505
761.182	1943
761.292	841
761.401	2106
761.511	836
761.620	1709
761.729	1072
761.839	929
761.948	1884
762.057	1462
762.166	1135
762.276	125
762.385	2445
762.494	1775
762.603	1794
762.712	2201
762.822	1403
762.931	2423
763.040	513
763.149	1014
763.258	1246
763.367	1189
763.476	1360
763.585	1807
763.694	1449
763.803	1328
763.912	2015
764.021	1449
764.130	1608
764.238	1658
764.347	1403
764.456	2413
764.565	1218
764.674	1930
764.783	1115
764.891	689
765.000	2707
765.109	2285
765.217	1528
765.326	2908
765.435	3432
765.543	3570
765.652	3205
765.761	3951
765.869	5758
765.978	9952
766.086	16182
766.195	33093
766.303	86812
766.412	249961
766.520	235714
766.629	58480
766.737	19304
766.846	10774
766.954	6648
767.062	6952
767.171	4630
767.279	4526
767.387	3063
767.496	3127
767.604	2009
767.712	3586
767.820	2681
767.928	2545
768.037	1619
768.145	2966
768.253	2546
768.361	1952
768.469	1453
768.577	1598
768.685	2396
768.793	1978
768.901	1177
769.009	2727
769.117	1295
769.225	3655
769.333	4874
769.441	6945
769.549	12660
769.657	30215
769.765	99289
769.873	229816
769.981	80285
770.088	16430
770.196	7774
770.304	5779
770.412	3655
770.519	3268
770.627	2897
770.735	2844
770.842	2717
770.950	2217
771.058	1510
771.165	1850
771.273	2159
771.380	2302
771.488	2891
771.595	2047
771.703	1789
771.810	2767
771.918	1747
772.025	2908
772.133	1344
772.240	2653
772.348	2808
772.455	2686
772.562	2018
772.670	2301
772.777	1823
772.884	2215
772.991	1774
773.099	1904
773.206	697
773.313	2529
773.420	1514
773.528	1320
773.635	1374
773.742	1861
773.849	1763
773.956	2119
774.063	1325
774.170	2007
774.277	1568
774.384	932
774.491	1349
774.598	2153
774.705	1940
774.812	2061
774.919	1117
775.026	2050
775.133	2343
775.239	2348
775.346	1211
775.453	2460
775.560	1426
775.667	2096
775.773	128
775.880	2832
775.987	1613
776.093	2316
776.200	1535
776.307	1344
776.413	2138
776.520	1159
776.627	1725
776.733	2042
776.840	210
776.946	2652
777.053	1126
777.159	2477
777.266	598
777.372	2759
777.478	1490
777.585	1884
777.691	1351
777.798	1696
777.904	1640
778.010	2544
778.117	2760
778.223	1765
778.329	897
778.435	1949
778.542	2027
778.648	1278
778.754	716
778.860	927
778.966	1497
779.072	1575
779.178	1475
779.284	2192
779.391	198
779.497	786
779.603	2480
779.708	1226
779.815	3041
779.920	5507
780.026	10938
780.132	2315
780.238	530
780.344	1436
780.450	1690
780.556	1326
780.661	15
780.767	1594
780.873	756
780.979	1780
781.085	19
781.190	1247
781.296	473
781.402	384
781.507	456
781.613	1666
781.719	-507
781.824	1492
781.930	904
782.035	1443
782.141	769
782.246	1090
782.352	326
782.457	1005
782.563	1187
782.668	1021
782.773	963
782.879	241
782.984	1317
783.090	2017
783.195	3214
783.300	1662
783.405	995
783.511	940
783.616	1671
783.721	782
783.826	-175
783.932	1574
784.037	711
784.142	897
784.247	490
784.352	817
784.457	1103
784.562	981
784.667	621
784.772	1165
784.877	93
784.982	1486
785.087	728
785.192	1905
785.297	570
785.402	1199
785.507	459
785.611	1106
785.716	748
785.821	1595
785.926	737
786.031	902
786.135	911
786.240	786
786.345	-507
786.450	1355
786.554	696
786.659	1447
786.763	-374
786.868	1284
786.973	1140
787.077	-339
787.182	1002
787.286	2
787.391	519
787.495	887
787.600	-50
787.704	550
787.809	384
787.913	1131
788.017	1647
788.122	737
788.226	441
788.330	545
788.435	302
788.539	1448
788.643	509
788.747	1005
788.852	1058
788.956	711
789.060	1029
789.164	387
789.268	135
789.372	750
789.476	176
789.580	647
789.684	284
789.788	1404
789.892	-16
789.996	804
790.100	-95
790.204	-318
790.308	-515
790.412	336
790.516	664
790.620	463
790.724	929
790.828	736
790.931	-664
791.035	1948
791.139	950
791.242	239
791.346	1248
791.450	0
791.554	-254
791.657	-602
791.761	1841
791.864	1191
791.968	394
792.072	803
792.175	189
792.279	215
792.382	439
792.486	739
792.589	-265
792.693	1572
792.796	-538
792.899	1229
793.003	967
793.106	-905
793.209	-143
793.313	1402
793.416	-1390
793.519	2418
793.623	1130
793.726	3281
793.829	235
793.932	1167
794.035	-135
794.138	978
794.242	546
794.345	667
794.448	1220
794.551	630
794.654	3520
794.757	5423
794.860	1612
794.963	710
795.066	-183
795.169	587
795.272	739
795.375	1274
795.477	-182
795.580	-240
795.683	-1109
795.786	536
795.889	-864
795.991	1180
796.094	1253
796.197	-634
796.300	1076
796.402	630
796.505	211
796.608	743
796.710	672
796.813	557
796.915	-657
797.018	1050
797.120	348
797.223	-745
797.326	608
797.428	88
797.530	923
797.633	40
797.735	911
797.838	1222
797.940	917
798.042	115
798.145	310
798.247	1316
798.349	-1305
798.452	77
798.554	324
798.656	68
798.758	469
798.860	478
798.962	-28
799.065	403
799.167	-1150
799.269	1669
799.371	605
799.473	1099
799.575	-596
799.677	781
799.779	2020
799.881	349
799.983	1301
800.085	376
800.187	303
800.289	371
800.390	210
800.492	754
800.594	1182
800.696	-268
800.798	738
800.899	236
801.001	-264
801.103	497
801.205	356
801.306	937
801.408	-180
801.509	768
801.611	420
801.713	142
801.814	313
801.916	207
802.017	17
802.119	206
802.220	6
802.322	-937
802.423	1914
802.525	-1479
802.626	-440
802.727	662
802.829	313
802.930	-1275
803.031	722
803.133	-81
803.234	-442
803.335	280
803.436	-1080
803.538	64
803.639	-915
803.740	1221
803.841	-551
803.942	825
804.043	581
804.144	56
804.245	233
804.346	-170
804.447	-253
804.548	971
804.649	1906
804.750	294
804.851	-479
804.952	-617
805.053	698
805.154	-214
805.255	1228
805.355	457
805.456	47
805.557	-133
805.658	-1163
805.758	627
805.859	-311
805.960	-420
806.061	-439
806.161	137
806.262	88
806.362	206
806.463	-232
806.564	496
806.664	-187
806.765	-661
806.865	258
806.966	36
807.066	-1452
807.166	128
807.267	96
807.367	284
807.468	-525
807.568	-740
807.668	593
807.769	950
807.869	-1268
807.969	505
808.069	32
808.170	730
808.270	272
808.370	471
808.470	310
808.570	-640
808.670	-777
808.770	353
808.870	-633
808.970	204
809.070	-22
809.170	106
809.271	869
809.370	-537
809.470	552
809.570	-101
809.670	-1293
809.770	643
809.870	693
809.970	818
810.070	-442
810.169	315
810.269	-1266
810.369	923
810.469	91
810.568	-474
810.668	-368
810.768	285
810.867	384
810.967	-90
811.066	345
811.166	-444
811.265	401
811.365	-82
811.464	-387
811.564	914
811.663	-484
811.763	-999
811.862	-306
811.962	244
812.061	-872
812.160	556
812.260	-415
812.359	333
812.458	-478
812.557	1390
812.657	-1146
812.756	707
812.855	129
812.954	353
813.053	72
813.153	491
813.252	-1358
813.351	-183
813.450	-213
813.549	-660
813.648	-3
813.747	620
813.846	-34
813.945	-663
814.044	-700
814.143	311
814.242	-101
814.341	-667
814.439	65
814.538	688
814.637	-356
814.736	-530
814.835	-333
814.933	150
815.032	-209
815.131	-274
815.229	-939
815.328	2135
815.427	-119
815.525	586
815.624	714
815.722	-27
815.821	-126
815.919	522
816.018	-812
816.116	773
816.215	150
816.313	-272
816.412	482
816.510	788
816.609	2020
816.707	900
816.805	423
816.904	-186
817.002	1051
817.100	2175
817.198	1949
817.296	590
817.395	679
817.493	2451
817.591	799
817.689	3168
817.787	2451
817.885	5225
817.983	8636
818.081	19375
818.179	51213
818.277	138572
818.375	114018
818.473	24085
818.571	9233
818.669	6437
818.767	5774
818.865	6023
818.963	6669
819.061	8909
819.158	16319
819.256	40871
819.354	97497
819.452	229878
819.549	138492
819.647	31287
819.745	11645
819.842	7276
819.940	4318
820.038	3311
820.135	2916
820.233	3289
820.330	1694
820.428	1947
820.525	957
820.623	2055
820.720	431
820.818	1780
820.915	537
821.012	1043
821.110	-1314
821.207	1722
821.304	820
821.402	361
821.499	622
821.596	1594
821.693	605
821.791	2223
821.888	1021
821.985	2497
822.082	1499
822.179	807
822.276	-726
822.373	678
822.470	-473
822.567	906
822.664	-802
822.761	938
822.858	286
822.955	824
823.052	-26
823.149	-845
823.246	-90
823.343	408
823.440	649
823.536	672
823.633	-1120
823.730	429
823.827	-54
823.923	370
824.020	643
824.117	115
824.213	-1254
824.310	-163
824.407	605
824.503	720
824.600	-94
824.696	197
824.793	728
824.889	-838
824.986	-24
825.082	-143
825.179	26
825.275	118
825.371	-638
825.468	463
825.564	-954
825.660	757
825.757	914
825.853	1025
825.949	-62
826.045	-347
826.142	-1032
826.238	1290
826.334	714
826.430	-581
826.526	-80
826.622	31
826.718	7
826.814	-811
826.910	1174
827.006	-465
827.102	-879
827.198	706
827.294	-764
827.390	557
827.486	477
827.582	-1044
827.678	-416
827.774	856
827.869	-923
827.965	586
828.061	-907
828.157	178
828.252	-471
828.348	-587
828.444	-287
828.539	-788
828.635	-214
828.731	596
828.826	-1312
828.922	192
829.017	-279
829.113	339
829.208	-102
829.304	-163
829.399	973
829.495	-715
829.590	691
829.685	101
829.781	477
829.876	-132
829.971	-613
830.066	-239
830.162	-161
830.257	-244
830.352	-1573
830.447	853
830.543	395
830.638	-1424
830.733	-283
830.828	-388
830.923	370
831.018	467
831.113	-743
831.208	-832
831.303	-52
831.398	257
831.493	-880
831.588	666
831.683	-1434
831.778	429
831.873	-590
831.967	1118
832.062	-358
832.157	-165
832.252	451
832.346	-262
832.441	610
832.536	313
832.631	1595
832.725	2410
832.820	-874
832.914	-1064
833.009	-776
833.104	333
833.198	637
833.293	-217
833.387	-661
833.482	217
833.576	-928
833.670	-21
833.765	-845
833.859	-782
833.954	-198
834.048	11
834.142	91
834.237	-752
834.331	-193
834.425	-667
834.519	-1137
834.613	233
834.708	-719
834.802	589
834.896	-671
834.990	-22
835.084	208
835.178	164
835.272	-53
835.366	-514
835.460	24
835.554	-1059
835.648	-27
835.742	117
835.836	-530
835.930	-777
836.024	-575
836.117	97
836.211	-1137
836.305	149
836.399	-438
836.493	-647
836.586	337
836.680	-363
836.774	-394
836.867	383
836.961	-982
837.055	-988
837.148	-71
837.242	24
837.335	-1053
837.429	-103
837.522	-732
837.616	67
837.709	199
837.803	-994
837.896	-309
837.989	263
838.083	-506
838.176	156
838.269	-322
838.363	383
838.456	-1671
838.549	993
838.642	1088
838.735	2920
838.829	1015
838.922	-777
839.015	-789
839.108	-1535
839.201	-240
839.294	331
839.387	-265
839.480	-141
839.573	-950
839.666	251
839.759	-602
839.852	-1049
839.945	-72
840.038	-513
840.131	-178
840.223	-438
840.316	1
840.409	-562
840.502	-1509
840.594	250
840.687	-1657
840.780	-218
840.873	-428
840.965	310
841.058	-587
841.150	369
841.243	-99
841.336	609
841.428	-44
841.521	-826
841.613	-117
841.706	349
841.798	-639
841.890	50
841.983	-1335
842.075	226
842.167	-401
842.260	-187
842.352	-232
842.444	-53
842.537	-287
842.629	1006
842.721	-953
842.813	-178
842.905	-908
842.997	26
843.090	147
843.182	-364
843.274	-993
843.366	1199
843.458	753
843.550	1068
843.642	-1020
843.734	-408
843.826	1
843.918	-348
844.009	-490
844.101	-860
844.193	-661
844.285	-905
844.377	-216
844.469	367
844.560	-1190
844.652	-1007
844.744	-344
844.835	-652
844.927	-984
845.019	98
845.110	-355
845.202	-207
845.293	-653
845.385	-387
845.476	-651
845.568	190
845.659	-737
845.751	-1042
845.842	-869
845.934	-969
846.025	-802
846.116	96
846.208	-237
846.299	126
846.390	-1004
846.482	153
846.573	-191
846.664	328
846.755	-917
846.846	299
846.937	-1025
847.029	-67
847.120	-565
847.211	-602
847.302	521
847.393	-1583
847.484	-132
847.575	-508
847.666	-1080
847.757	-340
847.847	-163
847.938	-103
848.029	-754
848.120	-1246
848.211	276
848.302	-403
848.392	-1860
848.483	-215
848.574	-961
848.664	-915
848.755	-190
848.846	-733
848.936	-877
849.027	-35
849.118	-736
849.208	-740
849.299	-860
849.389	833
849.480	1844
849.570	4250
849.661	9179
849.751	16331
849.841	5099
849.932	464
850.022	-728
850.112	280
850.203	-1119
850.293	-1102
850.383	-828
850.474	-1376
850.564	-1494
850.654	138
850.744	-979
850.834	27
850.924	-1028
851.014	-12
851.104	-301
851.194	-806
851.284	-131
851.374	62
851.464	-616
851.554	409
851.644	-768
851.734	-594
851.824	-981
851.914	-1266
852.004	-285
852.094	-744
852.183	-317
852.273	101
852.363	-364
852.452	-530
852.542	-834
852.632	-1017
852.721	-1017
852.811	-856
852.901	-762
852.990	-66
853.080	-634
853.169	-333
853.259	-913
853.348	-1036
853.438	-792
853.527	587
853.617	178
853.706	3507
853.795	4770
853.885	14031
853.974	28619
854.063	51678
854.152	90151
854.242	31959
854.331	2604
854.420	1322
854.509	579
854.598	214
854.687	-417
854.777	237
854.866	-335
854.955	-624
855.044	-1264
855.133	-372
855.222	-1051
855.311	-569
855.400	-393
855.488	-949
855.577	-1326
855.666	-30
855.755	-47
855.844	-314
855.933	-1598
856.021	51
856.110	-278
856.199	-1127
856.288	-1406
856.376	-784
856.465	-1532
856.554	843
856.642	-1277
856.731	199
856.819	-539
856.908	-336
856.996	-827
857.085	-300
857.173	-887
857.262	-470
857.350	-1091
857.438	-737
857.527	-201
857.615	-496
857.703	256
857.792	-1033
857.880	-1152
857.968	-1169
858.056	-616
858.145	-588
858.233	-1571
858.321	-563
858.409	-603
858.497	-1126
858.585	-1063
858.673	-426
858.761	-1546
858.849	-610
858.937	-1088
859.025	-4
859.113	-553
859.201	-880
859.289	-319
859.377	-1031
859.465	-809
859.552	-606
859.640	-841
859.728	-15
859.816	-1900
859.903	-348
859.991	-1197
860.079	-359
860.166	-668
860.254	-252
860.342	-351
860.429	-778
860.517	-1114
860.604	-1196
860.692	-486
860.779	-672
860.867	-1246
860.954	-137
861.042	-675
861.129	-879
861.216	-457
861.304	-573
861.391	-929
861.478	-574
861.565	-174
861.653	111
861.740	-750
861.827	-336
861.914	-984
862.001	-536
862.089	-1300
862.176	164
862.263	-1116
862.350	-889
862.437	-482
862.524	102
862.611	-1064
862.698	-37
862.785	40
862.871	-44
862.958	-947
863.045	-338
863.132	-1090
863.219	-627
863.306	-1846
863.392	-154
863.479	-1195
863.566	-639
863.652	-432
863.739	-779
863.826	-97
863.912	57
863.999	-1514
864.086	-97
864.172	-1096
864.259	-654
864.345	-1470
864.432	-671
864.518	-1241
864.604	-562
864.691	-578
864.777	-251
864.863	118
864.950	-563
865.036	-1026
865.122	297
865.209	576
865.295	-157
865.381	444
865.467	274
865.553	686
865.639	963
865.726	2816
865.812	7148
865.898	14813
865.984	22215
866.070	43037
866.156	50685
866.242	11623
866.328	2062
866.414	47
866.499	309
866.585	177
866.671	165
866.757	-60
866.843	662
866.928	-587
867.014	-366
867.100	255
867.186	-84
867.271	55
867.357	657
867.442	-263
867.528	-210
867.614	50
867.699	-5
867.785	648
867.870	-120
867.956	-145
868.041	249
868.127	-546
868.212	150
868.297	-8
868.383	291
868.468	785
868.553	1635
868.639	481
868.724	3346
868.809	3220
868.894	373
868.979	-1165
869.065	418
869.150	-683
869.235	357
869.320	-819
869.405	-762
869.490	-497
869.575	143
869.660	-208
869.745	1033
869.830	-618
869.915	-386
870.000	-260
870.085	-268
870.169	-659
870.254	10
870.339	-875
870.424	-832
870.509	-946
870.593	-242
870.678	-731
870.763	-709
870.847	-185
870.932	-77
871.016	-234
871.101	-439
871.186	185
871.270	-362
871.355	-1350
871.439	-339
871.523	-1098
871.608	-417
871.692	-537
871.777	-17
871.861	-191
871.945	-769
872.030	-181
872.114	-67
872.198	-485
872.282	-188
872.367	-594
872.451	34
872.535	-847
872.619	-198
872.703	-935
872.787	-487
872.871	-467
872.955	-441
873.039	-822
873.123	-827
873.207	-501
873.291	-673
873.375	-756
873.459	-572
873.543	-760
873.627	-830
873.711	-598
873.794	119
873.878	-998
873.962	-1321
874.045	-1154
874.129	-722
874.137	-701
874.213	-492
874.245	-588
874.296	-743
874.352	-632
874.380	-581
874.460	-123
874.464	-104
874.547	-949
874.568	-723
874.631	-80
874.676	-649
874.714	-1115
874.784	-788
874.798	-726
874.881	646
874.892	532
874.965	-194
874.999	-438
875.048	-842
875.107	-252
875.131	7
875.215	-153
875.215	-154
875.298	-622
875.323	-569
875.381	-428
875.430	-498
875.465	-564
875.538	-786
875.548	-814
875.631	-363
875.646	-458
875.714	-931
875.753	-653
875.798	-331
875.861	-856
875.881	-1005
875.964	-491
875.968	-501
876.047	-745
876.076	-652
876.130	-511
876.183	-720
876.213	-763
876.291	607
876.296	693
876.379	-388
876.398	-498
876.462	-887
876.506	-836
876.545	-803
876.613	-15
876.628	148
876.711	-588
876.721	-535
876.794	155
876.828	-135
876.877	-770
876.935	-371
876.960	-150
877.043	-323
877.043	-323
877.125	-179
877.150	-110
877.208	-127
877.258	-209
877.291	-104
877.365	-506
877.374	-597
877.456	76
877.472	-99
877.539	-569
877.579	-246
877.622	-89
877.687	-369
877.704	-368
877.787	-715
877.794	-723
877.869	-1114
877.901	-840
877.952	-89
878.008	-319
878.034	-540
878.115	-342
878.117	-332
878.199	-435
878.222	-351
878.282	-298
878.329	-521
878.364	-710
878.437	69
878.447	208
878.529	-1132
878.544	-899
878.611	50
878.651	-292
878.694	-585
878.758	-229
878.776	-118
878.858	-169
878.865	-134
878.941	150
878.972	41
879.023	-109
879.078	-172
879.105	-166
879.185	298
879.187	307
879.269	265
879.292	193
879.351	48
879.399	-88
879.433	-183
879.506	401
879.516	465
879.598	-97
879.613	-116
879.680	114
879.720	370
879.762	400
879.827	-241
879.844	-367
879.926	274
879.933	227
880.007	-225
880.040	-148
880.089	149
880.147	-27
880.171	-86
880.253	1201
880.254	1200
880.335	1123
880.360	1547
880.417	3220
880.467	3850
880.499	4423
880.574	6473
880.580	6379
880.662	2261
880.680	1513
880.744	296
880.787	126
880.825	191
880.893	372
880.907	409
880.989	311
881.000	389
881.070	651
881.106	421
881.152	254
881.213	78
881.233	-36
881.315	-168
881.319	-170
881.396	328
881.426	311
881.478	143
881.532	343
881.559	375
881.639	-130
881.641	-134
881.722	654
881.745	516
881.803	389
881.852	459
881.885	389
881.958	570
881.966	579
882.047	737
882.064	665
882.129	552
882.171	653
882.210	1008
882.277	1635
882.291	1675
882.372	1451
882.383	1444
882.454	779
882.489	460
882.535	460
882.596	131
882.616	78
882.697	714
882.702	696
882.778	59
882.808	132
882.859	534
882.914	451
882.940	380
883.020	637
883.021	646
883.102	786
883.127	877
883.183	629
883.233	440
883.264	418
883.339	691
883.345	700
883.426	119
883.445	41
883.507	90
883.551	211
883.587	277
883.657	456
883.668	552
883.749	618
883.763	757
883.830	502
883.869	-64
883.910	-121
883.975	559
883.991	563
884.072	-214
884.081	-263
884.152	476
884.187	703
884.233	598
884.292	789
884.314	713
884.394	62
884.398	20
884.475	112
884.504	208
884.555	433
884.610	851
884.636	893
884.716	514
884.716	521
884.797	929
884.821	1045
884.877	956
884.927	590
884.958	448
885.033	359
885.038	368
885.118	500
885.139	462
885.199	518
885.244	676
885.279	542
885.350	122
885.359	163
885.439	906
885.456	914
885.520	384
885.561	232
885.600	424
885.667	646
885.680	613
885.760	494
885.773	440
885.840	528
885.878	704
885.920	654
885.984	577
886.000	734
886.080	1096
886.089	1131
886.160	1093
886.195	1201
886.240	984
886.300	549
886.320	524
886.400	546
886.406	546
886.480	1054
886.511	1134
886.560	739
886.616	226
886.640	334
886.720	1120
886.722	1122
886.800	694
886.827	707
886.879	818
886.932	614
886.959	733
887.038	1278
887.039	1281
887.119	761
887.143	699
887.198	643
887.248	516
887.278	628
887.354	828
887.358	842
887.437	1032
887.459	1099
887.517	1183
887.564	1154
887.596	786
887.669	100
887.676	174
887.755	861
887.774	1042
887.835	1089
887.880	1092
887.914	857
887.985	534
887.994	549
888.073	444
888.090	432
888.153	946
888.195	1244
888.232	875
888.300	303
888.311	405
888.391	967
888.405	1079
888.470	1212
888.510	1236
888.549	1304
888.615	1482
888.628	1481
888.708	1442
888.720	1420
888.787	1365
888.825	1322
888.866	1099
888.930	747
888.945	765
889.024	850
889.035	858
889.103	811
889.140	744
889.182	899
889.245	1206
889.261	1278
889.340	1544
889.349	1567
889.419	1440
889.454	1371
889.498	1055
889.559	615
889.577	642
889.656	744
889.664	754
889.735	886
889.768	944
889.814	1105
889.873	1317
889.978	-109
890.083	993
890.187	273
890.292	1315
890.397	1391
890.501	1003
890.606	613
890.710	1519
890.815	656
890.919	1186
891.024	1137
891.128	1235
891.233	747
891.337	1087
891.442	1375
891.546	371
891.650	222
891.755	381
891.859	1669
891.963	1416
892.068	1039
892.172	210
892.276	162
892.380	1175
892.484	1483
892.589	1469
892.693	971
892.797	1015
892.901	971
893.005	1229
893.109	368
893.213	1948
893.317	573
893.421	1080
893.525	1202
893.629	295
893.733	1303
893.837	1739
893.941	930
894.045	1571
894.148	435
894.252	1683
894.356	1397
894.460	1498
894.564	1371
894.667	699
894.771	302
894.875	1444
894.978	777
895.082	865
895.186	747
895.289	1177
895.393	672
895.496	1702
895.600	305
895.703	509
895.807	563
895.910	863
896.014	976
896.117	292
896.221	594
896.324	1089
896.427	479
896.531	912
896.634	727
896.737	838
896.840	823
896.944	1869
897.047	689
897.150	1188
897.253	617
897.356	1010
897.460	274
897.563	535
897.666	1216
897.769	1164
897.872	827
897.975	1040
898.078	682
898.181	285
898.284	392
898.387	918
898.490	396
898.593	1504
898.695	464
898.798	957
898.901	933
899.004	1134
899.107	662
899.209	1729
899.312	1710
899.415	1220
899.518	1345
899.620	284
899.723	-89
899.826	2223
899.928	2943
900.031	1251
900.133	265
900.236	843
900.338	587
900.441	173
900.543	847
900.646	981
900.748	672
900.851	583
900.953	909
901.055	1102
901.158	1176
901.260	181
901.362	974
901.465	433
901.567	-45
901.669	81
901.771	453
901.873	661
901.976	736
902.078	-23
902.180	-20
902.282	279
902.384	503
902.486	1337
902.588	573
902.690	509
902.792	41
902.894	501
902.996	860
903.098	409
903.200	335
903.302	1113
903.404	584
903.505	765
903.607	547
903.709	486
903.811	1183
903.913	842
904.014	-443
904.116	929
904.218	176
904.319	793
904.421	616
904.523	1030
904.624	603
904.726	332
904.827	333
904.929	925
905.030	957
905.132	1533
905.233	650
905.335	301
905.436	267
905.537	476
905.639	160
905.740	-3
905.841	959
905.943	1207
906.044	407
906.145	722
906.247	334
906.348	911
906.449	861
906.550	847
906.651	1166
906.752	693
906.854	-585
906.955	379
907.056	236
907.157	517
907.258	390
907.359	551
907.460	416
907.561	893
907.662	363
907.762	813
907.863	696
907.964	-7
908.065	384
908.166	1050
908.267	693
908.367	116
908.468	646
908.569	-87
908.670	674
908.770	1988
908.871	1236
908.971	641
909.072	601
909.173	784
909.273	512
909.374	1457
909.474	830
909.575	618
909.675	4
909.776	1788
909.876	865
909.977	948
910.077	214
910.177	1057
910.278	420
910.378	807
910.478	595
910.579	407
910.679	205
910.779	1309
910.879	897
910.980	751
911.080	914
911.180	-12
911.280	2
911.380	41
911.480	664
911.580	441
911.680	1191
911.780	697
911.880	428
911.980	1215
912.080	690
912.180	1159
912.280	571
912.380	343
912.480	63
912.580	1052
912.679	389
912.779	332
912.879	607
912.979	159
913.078	689
913.178	1201
913.278	786
913.377	540
913.477	182
913.577	196
913.676	1049
913.776	-116
913.875	687
913.975	1136
914.074	438
914.174	-149
914.273	954
914.373	1582
914.472	1519
914.572	604
914.671	159
914.770	-336
914.870	177
914.969	42
915.068	1342
915.167	649
915.267	-134
915.366	399
915.465	1024
915.564	572
915.663	436
915.763	1181
915.862	-30
915.961	477
916.060	-364
916.159	1024
916.258	-509
916.357	673
916.456	1657
916.555	247
916.654	233
916.752	979
916.851	-524
916.950	174
917.049	368
917.148	46
917.247	197
917.345	685
917.444	985
917.543	964
917.642	422
917.740	1225
917.839	84
917.937	508
918.036	583
918.135	686
918.233	566
918.332	245
918.430	-741
918.529	730
918.627	532
918.726	483
918.824	761
918.923	269
919.021	1156
919.119	610
919.218	252
919.316	711
919.414	330
919.512	742
919.611	454
919.709	1152
919.807	454
919.905	807
920.003	-69
920.102	275
920.200	477
920.298	927
920.396	519
920.494	1265
920.592	188
920.690	1249
920.788	796
920.886	859
920.984	1208
921.082	786
921.180	982
921.277	752
921.375	510
921.473	584
921.571	1103
921.669	1103
921.766	574
921.864	1339
921.962	1373
922.060	-54
922.157	660
922.255	800
922.352	-129
922.450	2013
922.548	355
922.645	1621
922.743	642
922.840	1813
922.938	1322
923.035	2208
923.133	2218
923.230	1383
923.327	1674
923.425	2495
923.522	1591
923.619	2413
923.717	2098
923.814	2386
923.911	1811
924.008	2821
924.106	2059
924.203	2029
924.300	1288
924.397	1762
924.494	1536
924.591	1658
924.688	1170
924.786	1789
924.883	2014
924.979	1693
925.077	1996
925.173	2421
925.270	1408
925.367	2224
925.464	2719
925.561	2618
925.658	2227
925.755	2342
925.852	1908
925.948	2056
926.045	401
926.142	1730
926.239	1876
926.335	1349
926.432	1606
926.529	2016
926.625	1440
926.722	2615
926.818	2207
926.915	2294
927.011	1663
927.108	1284
927.204	1288
927.301	2296
927.397	1294
927.494	2181
927.590	1935
927.687	1095
927.783	1584
927.879	1948
927.976	1647
928.072	1978
928.168	2094
928.264	1821
928.361	693
928.457	2019
928.553	1247
928.649	1131
928.745	1004
928.841	944
928.937	1362
929.033	2203
929.129	1245
929.225	1646
929.321	1257
929.417	1664
929.513	1595
929.609	1796
929.705	430
929.801	1640
929.897	1362
929.993	1430
930.089	1053
930.184	1093
930.280	1247
930.376	1669
930.471	418
930.567	1132
930.663	859
930.758	619
930.854	546
930.950	1484
931.045	1482
931.141	1208
931.236	1772
931.332	1745
931.427	801
931.523	1624
931.618	1088
931.714	860
931.809	1061
931.905	1610
932.000	1001
932.095	969
932.191	830
932.286	1452
932.381	1238
932.476	1261
932.572	406
932.667	894
932.762	945
932.857	2114
932.952	1037
933.047	1460
933.142	624
933.237	1033
933.332	1067
933.427	2054
933.522	1288
933.617	1639
933.712	692
933.807	1122
933.902	1354
933.997	1029
934.092	-14
934.187	1339
934.282	927
934.376	1182
934.471	1102
934.566	470
934.661	1321
934.755	1851
934.850	355
934.945	1163
935.039	952
935.134	776
935.228	877
935.323	1579
935.417	900
935.512	849
935.606	372
935.701	977
935.795	1291
935.890	1027
935.984	686
936.079	660
936.173	559
936.267	1488
936.362	969
936.456	1445
936.550	1198
936.644	1208
936.738	120
936.833	836
936.927	334
937.021	695
937.115	1548
937.209	616
937.303	737
937.397	638
937.491	941
937.585	1127
937.679	1308
937.773	460
937.867	77
937.961	640
938.055	1288
938.149	1002
938.243	339
938.337	593
938.430	290
938.524	1255
938.618	767
938.712	1312
938.805	292
938.899	935
938.993	1217
939.086	426
939.180	1033
939.274	757
939.367	575
939.461	139
939.554	326
939.648	899
939.741	703
939.835	546
939.928	845
940.022	691
940.115	-213
940.208	1004
940.302	1092
940.395	1136
940.488	-215
940.582	165
940.675	-209
940.768	683
940.861	1214
940.954	1497
941.048	250
941.141	1343
941.234	485
941.327	391
941.420	1562
941.513	1821
941.606	358
941.699	765
941.792	363
941.885	741
941.978	391
942.071	893
942.164	104
942.257	170
942.349	746
942.442	1266
942.535	122
942.628	624
942.721	660
942.813	-281
942.906	1492
942.999	749
943.091	-150
943.184	356
943.277	49
943.369	520
943.462	-14
943.554	627
943.647	-436
943.739	390
943.832	245
943.924	42
944.017	453
944.109	-643
944.201	-194
944.294	858
944.386	368
944.478	107
944.571	413
944.663	1271
944.755	147
944.847	1684
944.940	-49
945.032	-584
945.124	-268
945.216	1855
945.308	889
945.400	729
945.492	-483
945.584	-127
945.676	677
945.768	887
945.860	923
945.952	407
946.044	598
946.136	693
946.228	583
946.320	-130
946.412	312
946.503	514
946.595	1254
946.687	284
946.779	-801
946.870	576
946.962	369
947.054	-32
947.145	475
947.237	-15
947.329	430
947.420	686
947.512	605
947.603	351
947.695	117
947.786	223
947.878	-49
947.969	1105
948.061	-492
948.152	509
948.243	127
948.335	551
948.426	-544
948.517	434
948.609	531
948.700	-83
948.791	-480
948.882	19
948.973	102
949.065	-80
949.156	-538
949.247	-661
949.338	41
949.429	-570
949.520	59
949.611	-362
949.702	886
949.793	-359
949.884	-713
949.975	-153
950.066	-792
950.157	-317
950.247	-669
950.338	-138
950.429	94
950.520	278
950.611	179
950.701	992
950.792	-93
950.883	631
950.973	-196
951.064	-747
951.155	-208
951.245	474
951.336	874
951.427	175
951.517	33
951.608	356
951.698	-83
951.788	227
951.879	-96
951.969	-376
952.060	-174
952.150	-123
952.240	321
952.331	-1035
952.421	904
952.511	296
952.602	528
952.692	243
952.782	-818
952.872	245
952.962	205
953.052	-393
953.143	-238
953.233	181
953.323	-702
953.413	84
953.503	-434
953.593	425
953.683	-277
953.773	-71
953.863	29
953.953	-1066
954.042	412
954.132	-830
954.222	-248
954.312	644
954.402	-486
954.492	-778
954.581	-362
954.671	-298
954.761	-677
954.850	1212
954.940	-21
955.030	-424
955.119	-664
955.209	-427
955.298	-370
955.388	-921
955.477	462
955.567	-952
955.656	-888
955.746	648
955.835	-185
955.925	-684
956.014	28
956.103	-38
956.193	-359
956.282	463
956.371	-261
956.461	91
956.550	-175
956.639	-383
956.728	-340
956.817	247
956.906	494
956.995	302
957.085	-689
957.174	-257
957.263	-467
957.352	308
957.441	-310
957.530	-99
957.619	-18
957.708	625
957.796	-1090
957.885	-529
957.974	-93
958.063	116
958.152	-1866
958.241	370
958.329	110
958.418	569
958.507	-909
958.596	849
958.684	-988
958.773	145
958.861	-442
958.950	461
959.039	407
959.127	-560
959.216	214
959.304	-210
959.393	-240
959.481	557
959.570	-609
959.658	-648
959.746	-1032
959.835	600
959.923	-427
960.011	-177
960.100	72
960.188	56
960.276	-597
960.365	-1114
960.453	-1194
960.541	-1310
960.629	-296
960.717	-423
960.805	-1410
960.893	-92
960.981	-1373
961.069	521
961.158	-1158
961.245	184
961.333	-829
961.421	-1362
961.509	-104
961.597	-165
961.685	-170
961.773	-412
961.861	-1608
961.949	248
962.036	-1365
962.124	-624
962.212	-1055
962.299	-865
962.387	-911
962.475	-482
962.562	-625
962.650	-434
962.738	-305
962.825	-85
962.913	-697
963.000	-1026
963.088	115
963.175	92
963.263	-405
963.350	-753
963.438	-1689
963.525	-685
963.612	803
963.700	239
963.787	5116
963.874	2423
963.962	-330
964.049	-1095
964.136	-444
964.223	-523
964.310	-1000
964.398	-410
964.485	-625
964.572	398
964.659	-58
964.746	-709
964.833	24
964.920	-728
965.007	-545
965.094	-454
965.181	-566
965.268	-419
965.355	-832
965.441	-415
965.528	-687
965.615	79
965.702	-674
965.789	-363
965.875	-1012
965.962	-320
966.049	-1044
966.136	220
966.222	-1060
966.309	455
966.395	-595
966.482	5
966.569	-631
966.655	-453
966.742	-595
966.828	-599
966.915	-551
967.001	-769
967.087	-1063
967.174	-283
967.260	-827
967.347	-712
967.433	233
967.519	3218
967.605	-286
967.692	-263
967.778	-902
967.864	-733
967.950	18
968.036	-893
968.123	-755
968.209	-1084
968.295	-2132
968.381	1078
968.467	-343
968.553	-443
968.639	467
968.725	-665
968.811	435
968.897	-61
968.983	-39
969.069	-665
969.154	-565
969.240	-194
969.326	-1427
969.412	-1938
969.497	-865
969.583	-1425
969.669	-489
969.755	-314
969.840	-342
969.926	-436
970.012	-869
970.097	431
970.183	294
970.268	-664
970.354	-58
970.439	-80
970.525	1454
970.610	-567
970.696	-195
970.781	-55
970.866	-1765
970.952	-807
971.037	-1411
971.122	-500
971.208	-109
971.293	-802
971.378	-2214
971.463	-771
971.549	-840
971.634	-1088
971.719	-610
971.804	-94
971.889	-538
971.974	-1452
972.059	-765
972.144	-52
972.229	-712
972.314	-1053
972.399	-619
972.484	-920
972.569	-878
972.654	-1572
972.739	979
972.824	587
972.908	-895
972.993	-610
973.078	-199
973.163	-482
973.247	-645
973.332	-1941
973.417	557
973.501	-1541
973.586	-688
973.671	-851
973.755	-1001
973.840	-361
973.924	48
974.009	-469
974.093	-1607
974.178	527
974.262	-404
974.346	345
974.431	-278
974.515	-1370
974.600	-1032
974.684	-348
974.768	-852
974.852	74
974.937	-2141
975.021	88
975.105	-676
975.189	-1139
975.273	-484
975.358	-1005
975.442	-2110
975.526	-373
975.610	-1971
975.694	-1742
975.778	10
975.862	-847
975.946	-2667
976.030	34
976.114	-1434
976.198	-1453
976.281	-1014
976.365	-9
976.449	-1218
976.533	-1067
976.617	-821
976.700	-1293
976.784	-288
976.868	-1211
976.951	-291
977.035	-589
977.119	-1077
977.202	-34
977.286	-618
977.369	-700
977.453	-459
977.536	-423
977.620	-1362
977.703	-275
977.787	-1464
977.870	-423
977.953	-264
978.037	-1259
978.120	289
978.203	-878
978.287	840
978.370	-190
978.453	-1163
978.536	-844
978.620	-476
978.703	385
978.786	-1209
978.869	-1234
978.952	-1457
979.035	698
979.118	-916
979.201	-968
979.284	-376
979.367	-1004
979.450	-1399
979.533	-1207
979.616	-850
979.699	-662
979.782	-948
979.865	54
979.948	-731
980.030	-1441
980.113	-550
980.196	-1716
980.279	-1246
980.361	-457
980.444	-931
980.526	-607
980.609	-1520
980.692	213
980.774	-401
980.857	-2056
980.939	-531
981.022	-462
981.104	-1145
981.187	-1089
981.269	-458
981.352	-582
981.434	-1613
981.516	-1114
981.599	16
981.681	-697
981.763	-1204
981.846	-594
981.928	-1025
982.010	-1318
982.092	-1402
982.174	38
982.256	-852
982.339	-902
982.421	-1128
982.503	-611
982.585	-1647
982.667	-969
982.749	-1847
982.831	188
982.913	-1926
982.995	-491
983.077	-1339
983.158	400
983.240	-1317
983.322	-413
983.404	-403
983.486	-1415
983.568	-785
983.649	-867
983.731	-761
983.813	-643
983.894	-1019
983.976	-1406
984.058	-1365
984.139	-9
984.221	-1985
984.302	-92
984.384	-990
984.465	-1098
984.547	-1087
984.628	-576
984.710	338
984.791	-1059
984.872	-1448
984.954	-1745
985.035	-881
985.116	-1389
985.198	-1068
985.279	-1079
985.360	-1531
985.441	-703
985.522	-601
985.604	-1457
985.685	-2017
985.766	-192
985.847	-77
985.928	-1247
986.009	-1746
986.090	-980
986.171	-1064
986.252	-84
986.333	-1412
986.414	-715
986.495	-25
986.576	-825
986.656	-1145
986.737	-146
986.818	-1265
986.899	-998
986.980	-1434
987.060	-391
987.141	-1809
987.222	-872
987.302	-1125
987.383	-915
987.464	-915
987.544	-208
987.625	-1809
987.705	-145
987.786	-1141
987.866	-1528
987.947	-900
988.027	-619
988.108	-1785
988.188	-58
988.268	-1124
988.349	-608
988.429	-1383
988.509	-324
988.589	-1117
988.670	-1598
988.750	-205
988.830	-385
988.910	-1424
988.990	-587
989.070	-877
989.151	-1721
989.231	-1954
989.311	-244
989.391	-1083
989.471	-265
989.551	-1472
989.631	-120
989.711	-852
989.791	-1693
989.870	-1716
989.950	-451
990.030	-1272
990.110	-484
990.190	-1182
990.269	-533
990.349	-1510
990.429	-468
990.509	-1236
990.588	-2067
990.668	-827
990.747	-87
990.827	-1485
990.907	-1372
990.986	-1344
991.066	-1126
991.145	-1509
991.225	-816
991.304	-543
991.383	-358
991.463	-976
991.542	-400
991.622	-1541
991.701	-1254
991.780	-1450
991.859	-1611
991.939	-958
992.018	-770
992.097	-449
992.176	-629
992.256	-754
992.335	-2036
992.414	-658
992.493	-952
992.572	-2215
992.651	196
992.730	-1488
992.809	-1026
992.888	-2076
992.967	-1013
993.046	-856
993.125	-1890
993.203	-615
993.282	-790
993.361	-1442
993.440	-645
993.519	-2231
993.597	-1241
993.676	-1611
993.755	-1241
993.834	-1173
993.912	-1934
993.991	-411
994.069	-1770
994.148	-1256
994.226	-467
994.305	-1056
994.384	-1449
994.462	-361
994.540	-1520
994.619	-1033
994.697	-1266
994.776	-2095
994.854	-681
994.932	-1695
995.011	-721
995.089	-1617
995.167	-1357
995.245	-1636
995.324	-1764
995.402	-821
995.480	-979
995.558	-541
995.636	-2050
995.714	-2063
995.792	-226
995.870	-1659
995.948	-631
996.026	-1067
996.104	-1884
996.182	-1317
996.260	-857
996.338	-1739
996.416	-2496
996.494	-1770
996.572	219
996.649	-1404
996.727	-1571
996.805	-543
996.883	-1369
996.960	-1062
997.038	108
997.116	-1739
997.193	-1750
997.271	-1484
997.348	-2064
997.426	-1075
997.504	-1326
997.581	-1442
997.658	-27
997.736	-1764
997.813	-1414
997.891	-641
997.968	-1577
998.046	-1332
998.123	-1320
998.200	-1138
998.277	-1901
998.355	-533
998.432	-1778
998.509	-1241
998.586	-680
998.663	-1260
998.741	-1068
998.818	-949
998.895	-1775
998.972	-737
999.049	-72
999.126	-2060
999.203	-99
999.280	-1949
999.357	-1607
999.434	-2073
999.511	-1393
999.587	-633
999.664	-948
999.741	-1509
999.818	-678
999.895	-2302
999.971	-1714
1000.048	-1722
1000.125	-979
1000.202	-2045
1000.278	-1942
1000.355	-1627
1000.431	-1300
1000.508	-1710
1000.584	-1834
1000.661	-1160
1000.738	-1680
1000.814	-1676
1000.890	-281
1000.967	-2004
1001.043	-910
1001.120	-2547
1001.196	-1225
1001.272	-1701
1001.349	-1456
1001.425	-945
1001.501	-1600
1001.577	-1931
1001.654	-1248
1001.730	-2143
1001.806	-940
1001.882	-2774
1001.958	-1489
1002.034	-1641
1002.110	-950
1002.186	-2629
1002.262	-2372
1002.338	-2149
1002.414	-1295
1002.490	-1373
1002.566	-1822
1002.642	-2329
1002.718	-227
1002.794	-1931
1002.870	-1498
1002.945	-1142
1003.021	-930
1003.097	-1553
1003.173	-1304
1003.248	-1946
1003.324	-1118
1003.400	-1234
1003.475	-1070
1003.551	-1815
1003.626	-919
1003.702	-1378
1003.777	-967
1003.853	-1699
1003.928	-1524
1004.004	-1640
1004.079	-1493
1004.155	-1048
1004.230	-1934
1004.305	-433
1004.381	-2265
1004.456	-1608
1004.531	-1620
1004.607	-1744
1004.682	-1550
1004.757	-1510
1004.832	-2175
1004.907	-2419
1004.982	-516
1005.057	-1781
1005.133	-2087
1005.208	-2070
1005.283	-1784
1005.358	-819
1005.433	-1707
1005.508	-765
1005.583	-2093
1005.657	-2314
1005.732	-1107
1005.807	-2363
1005.882	-1903
1005.957	-1027
1006.032	-896
1006.106	-2079
1006.181	-652
1006.256	-1380
1006.331	-2049
1006.405	-1127
1006.480	-1308
1006.554	-1788
1006.629	-1615
1006.704	-1953
1006.778	-1579
1006.853	-1143
1006.927	-2128
1007.002	-2703
1007.076	-1356
1007.150	-2060
1007.225	-1367
1007.299	-1502
1007.373	-1421
1007.448	-2555
1007.522	-418
1007.596	-963
1007.671	-2012
1007.745	-899
1007.819	-1582
1007.893	-2261
1007.967	-1257
1008.041	-3062
1008.115	-1521
1008.190	-2064
1008.264	-1181
1008.338	-1792
1008.412	-1110
1008.486	-1833
1008.560	-1786
1008.633	-1715
1008.707	-2172
1008.781	-2313
1008.855	-1809
1008.929	-2461
1009.003	-2508
1009.076	-1965
1009.150	-1973
1009.224	-1117
1009.298	-1884
1009.371	-2108
1009.445	-1642
1009.519	-1888
1009.592	-2075
1009.666	-1671
1009.739	-1475
1009.813	-2418
1009.886	-454
1009.960	-2756
1010.033	-1299
1010.107	-1999
1010.180	-2577
1010.253	-2354
1010.327	-2248
1010.400	-1932
1010.473	-1153
1010.547	-1164
1010.620	-1676
1010.693	-1763
1010.766	-2625
1010.840	-1426
1010.913	-1900
1010.986	-1902
1011.059	-1640
1011.132	-2679
1011.205	-1408
1011.278	-2144
1011.351	-2028
1011.424	-2004
1011.497	-2076
1011.570	-2380
1011.643	-2400
1011.716	-1906
1011.789	-1680
1011.862	-1542
1011.934	-1714
1012.007	-2460
1012.080	-1494
1012.153	-91
1012.225	-1037
1012.298	-2661
1012.371	-2208
1012.443	-2119
1012.516	-2718
1012.588	-2074
1012.661	-1331
1012.733	-2810
1012.806	-1235
1012.879	-2023
1012.951	-2302
1013.023	-2565
1013.096	-1747
1013.168	-2033
1013.241	-1245
1013.313	-1957
1013.385	-2133
1013.458	-3055
1013.530	-1651
1013.602	-2779
1013.674	-1741
1013.746	-2180
1013.819	-2168
1013.891	-1938
1013.963	-2466
1014.035	-2467
1014.107	-1372
1014.179	-1631
1014.251	-1963
1014.323	-2117
1014.395	-2162
1014.467	-2081
1014.539	-2041
1014.611	-2153
1014.683	-1821
1014.754	-1944
1014.826	-2311
1014.898	-1201
1014.970	-2559
1015.042	-1235
1015.113	-2515
1015.185	-2087
1015.257	-2737
1015.328	-1758
1015.400	-2232
1015.471	-2250
1015.543	-2153
1015.615	-2168
1015.686	-2145
1015.757	-2386
1015.829	-1433
1015.901	-2350
1015.972	-2062
1016.043	-2413
1016.115	-1997
1016.186	-2526
1016.257	-2201
1016.328	-702
1016.400	-1251
1016.471	-2679
1016.542	-2398
1016.613	-2471
1016.685	-1615
1016.756	-2223
1016.827	-1921
1016.898	-2618
1016.969	-1002
1017.040	-2466
1017.111	-2010
1017.182	-2323
1017.253	-1650
1017.324	-2932
1017.395	-2180
1017.466	-2330
1017.537	-3191
1017.608	-2741
1017.678	-1972
1017.749	-2083
1017.820	-2247
1017.891	-2244
1017.961	-1802
1018.032	-2331
1018.103	-1977
1018.173	-2323
1018.244	-1577
1018.315	-2502
1018.385	-1975
1018.456	-2744
1018.526	-2732
1018.597	-2654
1018.667	-1381
1018.738	-3078
1018.808	-2149
1018.878	-2083
1018.949	-2042
1019.019	-1997
1019.089	-2296
1019.160	-2100
1019.230	-2917
1019.300	-2081
1019.371	-2973
1019.441	-1895
1019.511	-2504
1019.581	-1903
1019.651	-1740
1019.721	-1960
1019.791	-2019
1019.861	-2744
1019.931	-1239
1020.001	-1970
1020.071	-2133
1020.141	-2322
1020.211	-2006
1020.281	-2687
1020.351	-1716
1020.421	-2459
1020.491	-1757
1020.560	-3221
1020.630	-1892
1020.700	-1839
1020.770	-1093
1020.839	-2520
1020.909	-1884
1020.979	-1961
1021.048	-2578
1021.118	-2797
1021.187	-1868
1021.257	-2501
1021.326	-1687
1021.396	-3057
1021.465	-1732
1021.535	-2438
1021.604	-2240
1021.674	-2484
1021.743	-2127
1021.812	-2003
1021.882	-2003
1021.951	-2848
1022.020	-2349
1022.089	-2346
1022.159	-2128
1022.228	-2291
1022.297	-2351
1022.366	-2387
1022.435	-1938
1022.504	-2337
1022.573	-2267
1022.642	-1894
1022.711	-3364
1022.781	-1700
1022.849	-1913
1022.918	-2452
1022.987	-1748
1023.056	-2450
1023.125	-2618
1023.194	-2717
1023.263	-2224
1023.331	-1688
1023.400	-2344
1023.469	-2340
1023.538	-1453
1023.606	-2684
1023.675	-1817
1023.744	-2421
1023.812	-2726
1023.881	-2444
1023.949	-1982
1024.018	-2467
1024.086	-1607
1024.155	-2447
1024.223	-2056
1024.292	-2012
1024.360	-1918
1024.429	-2875
1024.497	-1639
1024.565	-2288
1024.634	-2103
1024.702	-1910
1024.770	-2193
1024.838	-2199
1024.907	-1890
1024.975	-2139
1025.043	-1326
1025.111	-2565
1025.179	-1752
1025.247	-2851
1025.315	-2703
1025.383	-1830
1025.451	-1752
1025.519	-2620
1025.587	-2612
1025.655	-1568
1025.723	-2166
1025.791	-2238
1025.859	-2438
1025.927	-2538
1025.995	-2270
1026.062	-2327
1026.130	-1917
1026.198	-2274
1026.266	-2400
1026.333	-2529
1026.401	-1675
1026.469	-2889
1026.536	-2514
1026.604	-2414
1026.671	-2338
1026.739	-2906
1026.806	-1907
1026.874	-3061
1026.941	-2636
1027.009	-2010
1027.076	-2611
1027.144	-1867
1027.211	-1987
1027.278	-2211
1027.345	-2339
1027.413	-2597
1027.480	-2203
1027.547	-2696
1027.614	-1716
1027.682	-2319
1027.749	-1848
1027.816	-2161
1027.883	-2312
1027.950	-3254
1028.017	-3078
1028.084	-2024
1028.151	-3428
1028.218	-1137
1028.285	-2592
1028.352	-2954
1028.419	-2655
1028.486	-2066
1028.553	-1925
1028.619	-3026
1028.686	-2106
1028.753	-2615
1028.820	-1973
1028.886	-1899
1028.953	-2401
1029.020	-2540
1029.086	-2300
1029.153	-2525
1029.220	-3055
1029.286	-2376
1029.353	-2476
1029.419	-2165
1029.486	-2042
1029.552	-2839
1029.619	-2385
1029.685	-1990
1029.751	-2051
1029.818	-1801
1029.884	-2513
1029.951	-1573
1030.017	-2580
1030.083	-1724
1030.149	-2139
1030.216	-2453
1030.282	-1708
1030.348	-1900
1030.414	-2763
1030.480	-2358
1030.546	-2270
1030.612	-1891
1030.678	-3112
1030.744	-2721
1030.810	-2162
1030.876	-3329
1030.942	-2715
1031.008	-2668
1031.074	-2599
1031.140	-2381
1031.206	-1347
1031.272	-2723
1031.337	-2476
1031.403	-2053
1031.469	-2216
1031.534	-1958
1031.600	-2289
1031.666	-2440
1031.731	-2263
1031.797	-3082
1031.863	-2331
1031.928	-2407
1031.994	-3155
1032.059	-2833
1032.125	-2455
1032.190	-3542
1032.256	-2670
1032.321	-2456
1032.386	-2933
1032.452	-2049
1032.517	-2515
1032.582	-2485
1032.647	-1906
1032.713	-3009
1032.778	-2022
1032.843	-2531
1032.908	-2086
1032.974	-1815
1033.039	-2481
1033.104	-1781
1033.169	-2512
1033.234	-2106
1033.299	-2318
1033.364	-2219
1033.429	-1972
1033.494	-1639
1033.559	-2437
1033.624	-1838
1033.688	-1786
1033.753	-3032
1033.818	-3042
1033.883	-2350
1033.948	-2294
1034.013	-2609
1034.077	-1898
1034.142	-2485
1034.207	-2604
1034.271	-768
1034.336	-1062
1034.400	-1436
1034.465	-2187
1034.530	-2560
1034.594	-2338
1034.658	-3702
1034.723	-2588
1034.787	-2344
1034.852	-2381
1034.916	-3288
1034.981	-1991
1035.045	-2619
1035.109	-2312
1035.173	-1952
1035.238	-3145
1035.302	-2021
1035.366	-2293
1035.430	-2292
1035.495	-2111
1035.559	-2080
1035.623	-2530
1035.687	-2615
1035.751	-1940
1035.815	-2145
1035.879	-1754
1035.943	-2071
1036.007	-1917
1036.071	-2068
1036.135	-2537
1036.198	-2641
1036.262	-2556
1036.326	-2847
1036.390	-2282
1036.454	-2131
1036.517	-1887
1036.581	-2000
1036.645	-1689
1036.709	-2204
1036.772	-2294
1036.836	-2260
1036.900	-2011
1036.963	-2434
1037.026	-2995
1037.090	-2789
1037.154	-2305
1037.217	-2404
1037.280	-2406
1037.344	-2444
1037.407	-2529
1037.471	-2031
1037.534	-1755
1037.597	-2111
1037.661	-1879
1037.724	-2761
1037.787	-2096
1037.850	-2312
1037.913	-2191
1037.977	-2427
1038.040	-2785
1038.103	-2338
1038.166	-2093
1038.229	-2328
1038.292	-2254
1038.355	-1765
1038.418	-2892
1038.481	-1921
1038.544	-3332
1038.607	-2168
1038.670	-2486
1038.732	-2696
1038.795	-2324
1038.858	-2350
1038.921	-2540
1038.984	-2751
1039.046	-2473
1039.109	-3269
1039.172	-2740
1039.234	-1966
1039.297	-2531
1039.360	-2692
1039.422	-2436
1039.485	-2352
1039.547	-3297
1039.610	-3360
1039.672	-2555
1039.734	-2655
1039.797	-2059
1039.859	-2680
1039.922	-2088
1039.984	-2137
1040.046	-1956
1040.109	-2177
1040.171	-2361
1040.233	-2497
1040.295	-2825
1040.358	-2368
1040.420	-2620
1040.482	-2160
1040.544	-2898
1040.606	-2330
1040.668	-2709
1040.730	-2865
1040.792	-1923
1040.854	-2216
1040.916	-2750
1040.978	-2987
1041.040	-1532
1041.102	-2395
1041.164	-2724
1041.225	-3238
1041.287	-2006
1041.349	-3167
1041.411	-2973
1041.472	-2450
1041.534	-2601
1041.596	-2026
1041.657	-2803
1041.719	-2430
1041.781	-3166
1041.842	-2608
1041.904	-2929
1041.965	-2219
1042.027	-2098
1042.088	-2682
1042.150	-2134
1042.211	-2196
1042.272	-2256
1042.334	-1539
1042.395	-1867
1042.456	-2524
1042.518	-2004
1042.579	-2025
1042.640	-2738
1042.701	-2968
1042.763	-2822
1042.824	-3179
1042.885	-2167
1042.946	-2932
1043.007	-2910
1043.068	-2376
1043.129	-1879
1043.190	-2794
1043.251	-2560
1043.312	-2092
1043.373	-2379
1043.434	-2892
1043.495	-1496
1043.556	-2711
1043.616	-2307
1043.677	-2868
1043.738	-3170
1043.799	-3057
1043.859	-2024
1043.920	-2697
1043.981	-2627
1044.041	-1943
1044.102	-3088
1044.162	-2016
1044.223	-2646
1044.284	-2831
1044.344	-2208
1044.405	-2300
1044.465	-2096
1044.525	-2985
1044.586	-2457
1044.646	-2702
1044.707	-1192
1044.767	-2839
1044.827	-2867
1044.887	-2509
1044.948	-1794
1045.008	-2139
1045.068	-1804
1045.128	-1609
1045.188	-2163
1045.249	-1780
1045.309	-2635
1045.369	-2114
1045.429	-2096
1045.489	-2230
1045.549	-2648
1045.609	-2608
1045.669	-2843
1045.729	-2273
1045.789	-2356
1045.848	-2588
1045.908	-1724
1045.968	-1871
1046.028	-1350
1046.088	-1697
1046.147	-1108
1046.207	-2300
1046.267	-2124
1046.326	-2303
1046.386	-2262
1046.446	-1462
1046.505	-1689
1046.565	-1847
1046.624	-1183
1046.684	-2434
1046.743	-927
1046.803	-1036
1046.862	-753
1046.922	0
