'Start Wavelength	183.907
'End Wavelength	1046.922
'Gate Delay	5.000
'Gate Width (ms)	1.050
'Laser Output Level	0.000
'X Position	0.000
'Y Position	0.000
'Z Position	0.000
'Grid Point Number	1.000
'Shot Number	100.000
183.907	32.000
183.977	501.000
184.047	677
184.116	152
184.186	-786
184.256	-69
184.325	-453
184.395	-620
184.465	864
184.534	473
184.604	-287
184.674	1070
184.743	-203
184.813	153
184.883	-1205
184.952	461
185.022	432
185.092	777
185.161	-453
185.231	-457
185.301	79
185.370	764
185.440	-256
185.509	-150
185.579	-430
185.649	508
185.718	-113
185.788	1056
185.857	-431
185.927	46
185.996	-739
186.066	-640
186.136	-31
186.205	-28
186.275	-336
186.344	-38
186.414	293
186.483	-616
186.553	759
186.622	1620
186.692	-384
186.761	487
186.831	208
186.900	29
186.970	-67
187.039	499
187.109	614
187.178	88
187.248	289
187.317	1098
187.387	-465
187.456	405
187.526	779
187.595	661
187.664	87
187.734	873
187.803	-322
187.873	987
187.942	841
188.012	754
188.081	-869
188.150	145
188.220	490
188.289	990
188.358	-216
188.428	1165
188.497	-688
188.567	681
188.636	-261
188.705	907
188.775	-18
188.844	-24
188.913	-27
188.983	84
189.052	-277
189.121	792
189.191	-226
189.260	532
189.329	481
189.399	636
189.468	100
189.537	1010
189.606	-96
189.676	818
189.745	28
189.814	1559
189.883	-131
189.953	1673
190.022	290
190.091	1519
190.161	1856
190.230	1221
190.299	25
190.368	-105
190.437	784
190.507	554
190.576	-99
190.645	-163
190.714	-130
190.783	807
190.853	1125
190.922	610
190.991	-434
191.060	499
191.129	-280
191.198	842
191.268	-374
191.337	591
191.406	469
191.475	249
191.544	263
191.613	130
191.682	-625
191.752	465
191.821	326
191.890	-59
191.959	367
192.028	91
192.097	176
192.166	761
192.235	-712
192.304	1232
192.373	-342
192.442	708
192.511	603
192.580	-100
192.650	260
192.719	1154
192.788	117
192.857	937
192.926	863
192.995	949
193.064	1106
193.133	1713
193.202	1914
193.271	2298
193.340	1836
193.409	1058
193.478	1400
193.547	2849
193.615	4071
193.684	3684
193.753	1453
193.822	1546
193.891	375
193.960	1458
194.029	723
194.098	944
194.167	-76
194.236	1437
194.305	775
194.374	957
194.443	443
194.512	766
194.580	419
194.649	480
194.718	451
194.787	1516
194.856	145
194.925	1142
194.994	-494
195.062	737
195.131	999
195.200	822
195.269	878
195.338	1381
195.407	407
195.475	201
195.544	789
195.613	405
195.682	1212
195.751	1244
195.819	633
195.888	815
195.957	730
196.026	953
196.094	806
196.163	1769
196.232	1237
196.301	415
196.369	553
196.438	1283
196.507	728
196.576	1028
196.644	345
196.713	482
196.782	159
196.850	1140
196.919	1205
196.988	719
197.056	772
197.125	718
197.194	685
197.262	917
197.331	684
197.400	1399
197.468	858
197.537	274
197.606	663
197.674	1651
197.743	2272
197.812	1127
197.880	2280
197.949	2056
198.017	1837
198.086	1859
198.155	634
198.223	1234
198.292	2423
198.360	1141
198.429	667
198.497	1288
198.566	1564
198.635	3101
198.703	666
198.772	1415
198.840	2872
198.909	3672
198.977	1201
199.046	1730
199.114	1240
199.183	1065
199.251	904
199.320	1106
199.388	1
199.457	1054
199.525	1690
199.594	1009
199.662	-18
199.731	1335
199.799	542
199.867	1709
199.936	315
200.004	1127
200.073	1371
200.141	1166
200.210	4
200.278	745
200.346	1393
200.415	1536
200.483	1328
200.552	948
200.620	654
200.688	916
200.757	210
200.825	1090
200.893	698
200.962	1274
201.030	-14
201.098	1038
201.167	626
201.235	841
201.303	1279
201.372	1275
201.440	604
201.508	419
201.577	1342
201.645	1351
201.713	647
201.781	686
201.850	603
201.918	702
201.986	859
202.055	1467
202.123	942
202.191	904
202.259	644
202.327	1486
202.396	838
202.464	1410
202.532	682
202.600	3222
202.669	2168
202.737	1137
202.805	1055
202.873	1029
202.941	1325
203.009	790
203.078	313
203.146	1153
203.214	404
203.282	570
203.350	526
203.418	1605
203.487	1175
203.555	1252
203.623	268
203.691	1319
203.759	805
203.827	1710
203.895	1052
203.963	1854
204.031	602
204.099	1488
204.168	1266
204.236	1553
204.304	1117
204.372	1031
204.440	1370
204.508	697
204.576	310
204.644	1470
204.712	600
204.780	1225
204.848	1119
204.916	1393
204.984	953
205.052	1174
205.120	1163
205.188	1278
205.256	1507
205.324	1604
205.392	741
205.460	1723
205.528	858
205.596	1772
205.664	852
205.732	1771
205.799	4039
205.867	5609
205.935	1377
206.003	1628
206.071	1471
206.139	1840
206.207	1395
206.275	1745
206.343	1375
206.411	1621
206.478	2656
206.546	1225
206.614	1306
206.682	1113
206.750	569
206.818	2905
206.885	1553
206.953	992
207.021	2104
207.089	1811
207.157	1165
207.225	1753
207.292	1373
207.360	1827
207.428	1512
207.496	1887
207.563	930
207.631	2297
207.699	1379
207.767	2432
207.834	1107
207.902	2138
207.970	1403
208.038	2442
208.105	1749
208.173	2099
208.241	2060
208.309	2853
208.376	2482
208.444	3691
208.512	2223
208.579	1472
208.647	1867
208.715	2681
208.782	1350
208.850	2846
208.918	1351
208.985	2142
209.053	2171
209.120	2119
209.188	960
209.256	2208
209.323	600
209.391	2345
209.459	3049
209.526	2443
209.594	1795
209.661	1882
209.729	2340
209.796	1676
209.864	1717
209.932	505
209.999	2970
210.067	2240
210.134	2314
210.202	1740
210.269	3024
210.337	3047
210.404	1290
210.472	2304
210.539	1539
210.607	1976
210.674	2168
210.742	763
210.809	1433
210.877	1825
210.944	2757
211.012	771
211.079	2798
211.146	2273
211.214	1881
211.281	2783
211.349	2287
211.416	2441
211.484	2274
211.551	1853
211.618	2029
211.686	2622
211.753	1508
211.821	1425
211.888	1848
211.955	2672
212.023	2010
212.090	1978
212.157	1612
212.225	2828
212.292	4489
212.359	6453
212.427	15298
212.494	7062
212.561	3379
212.629	2802
212.696	2332
212.763	2289
212.831	2160
212.898	3064
212.965	1859
213.032	2364
213.100	2162
213.167	2692
213.234	2935
213.301	2086
213.369	2568
213.436	3052
213.503	1545
213.570	1818
213.638	2864
213.705	2094
213.772	1267
213.839	2447
213.906	2424
213.973	2445
214.041	1598
214.108	3376
214.175	2302
214.242	2576
214.309	2864
214.376	2030
214.444	2112
214.511	3612
214.578	2116
214.645	2893
214.712	3323
214.779	3630
214.846	1458
214.913	4125
214.980	3489
215.048	4784
215.115	3774
215.182	3611
215.249	2583
215.316	2559
215.383	3388
215.450	2490
215.517	1575
215.584	2684
215.651	2007
215.718	1720
215.785	1298
215.852	1560
215.919	1906
215.986	1624
216.053	876
216.120	1959
216.187	989
216.254	1984
216.321	1827
216.388	1864
216.455	2511
216.522	1984
216.589	2173
216.656	3880
216.722	3999
216.789	6073
216.856	5367
216.923	4087
216.990	2968
217.057	3466
217.124	3305
217.191	3245
217.258	5556
217.324	7433
217.391	8098
217.458	5764
217.525	4532
217.592	3803
217.659	2851
217.725	3768
217.792	3646
217.859	4495
217.926	1591
217.993	1937
218.059	2223
218.126	1905
218.193	1819
218.260	1606
218.327	1303
218.393	2636
218.460	1177
218.527	703
218.594	1350
218.660	3249
218.727	3350
218.794	2450
218.860	1671
218.927	1312
218.994	1017
219.061	2257
219.127	1519
219.194	2632
219.261	1493
219.327	518
219.394	1777
219.461	-59
219.527	974
219.594	2780
219.661	1150
219.727	251
219.794	1382
219.860	541
219.927	1943
219.994	2654
220.060	5152
220.127	4744
220.193	3073
220.260	2944
220.326	4538
220.393	9862
220.460	13105
220.526	8172
220.593	4271
220.659	5331
220.726	3800
220.792	9431
220.859	9033
220.925	14156
220.992	20916
221.058	18521
221.125	12683
221.191	9693
221.258	4188
221.324	3451
221.391	2490
221.457	1524
221.524	1587
221.590	3461
221.657	9839
221.723	6770
221.789	6526
221.856	6481
221.922	2577
221.989	2254
222.055	1777
222.121	1762
222.188	2966
222.254	2592
222.321	1744
222.387	1678
222.453	787
222.520	1150
222.586	561
222.652	2447
222.719	1277
222.785	1966
222.851	897
222.918	1704
222.984	892
223.050	987
223.116	-161
223.183	2055
223.249	971
223.315	994
223.382	1157
223.448	1958
223.514	870
223.580	1289
223.647	480
223.713	421
223.779	562
223.845	940
223.911	1173
223.978	1112
224.044	1019
224.110	1458
224.176	1009
224.242	1637
224.309	380
224.375	1157
224.441	586
224.507	1210
224.573	-497
224.639	1717
224.705	132
224.772	1191
224.838	-566
224.904	1351
224.970	818
225.036	1280
225.102	226
225.168	1831
225.234	1369
225.300	1156
225.366	1216
225.432	1756
225.499	1145
225.565	1263
225.631	901
225.697	1806
225.763	1918
225.829	3434
225.895	2719
225.961	4470
226.027	4032
226.093	2771
226.159	3958
226.225	6836
226.291	16619
226.357	31163
226.423	15279
226.489	7946
226.554	4063
226.620	5201
226.686	5259
226.752	7248
226.818	14365
226.884	36987
226.950	33923
227.016	13437
227.082	6735
227.148	4175
227.214	3941
227.279	3883
227.345	2245
227.411	2426
227.477	2598
227.543	7464
227.609	6348
227.674	2760
227.740	1384
227.806	1651
227.872	1243
227.938	2361
228.003	1918
228.069	918
228.135	941
228.201	1747
228.267	1142
228.332	2152
228.398	933
228.464	1858
228.530	252
228.595	1434
228.661	792
228.727	2120
228.792	2906
228.858	1083
228.924	-473
228.990	2931
229.055	670
229.121	2146
229.187	736
229.252	1423
229.318	317
229.384	1721
229.449	941
229.515	-253
229.581	-544
229.646	2123
229.712	1368
229.777	3115
229.843	2818
229.909	2952
229.974	2740
230.040	2249
230.105	1912
230.171	1510
230.236	2422
230.302	4449
230.368	2823
230.433	1485
230.499	1897
230.564	1825
230.630	617
230.695	1305
230.761	1625
230.826	443
230.892	3164
230.957	976
231.023	573
231.088	1404
231.154	879
231.219	1615
231.284	1123
231.350	2900
231.415	517
231.481	1549
231.546	784
231.612	1244
231.677	929
231.742	-21
231.808	2183
231.873	931
231.939	-310
232.004	3068
232.069	3378
232.135	1574
232.200	1322
232.265	1298
232.331	941
232.396	929
232.461	126
232.527	1102
232.592	-113
232.657	1164
232.723	831
232.788	619
232.853	304
232.918	966
232.984	52
233.049	593
233.114	162
233.179	1391
233.245	2713
233.310	3628
233.375	251
233.440	1743
233.506	297
233.571	452
233.636	670
233.701	596
233.766	1935
233.832	2715
233.897	876
233.962	-251
234.027	1570
234.092	1242
234.157	395
234.222	528
234.288	1902
234.353	5331
234.418	5137
234.483	3363
234.548	2458
234.613	2895
234.678	1720
234.743	1736
234.808	6198
234.873	3812
234.938	3011
235.004	1635
235.069	889
235.134	1069
235.199	1697
235.264	1935
235.329	642
235.394	1808
235.459	1775
235.524	756
235.589	1370
235.654	1234
235.719	708
235.784	2186
235.849	1295
235.913	2715
235.978	3361
236.043	4212
236.108	1743
236.173	1758
236.238	2023
236.303	2150
236.368	975
236.433	3633
236.498	3575
236.563	4338
236.627	10886
236.692	42150
236.757	37061
236.822	12691
236.887	6984
236.952	8086
237.017	4552
237.081	6633
237.146	6556
237.211	20558
237.276	41739
237.341	69059
237.405	32179
237.470	11223
237.535	6774
237.600	4841
237.664	4171
237.729	2955
237.794	4359
237.859	13512
237.923	6261
237.988	3299
238.053	2651
238.118	3905
238.182	7489
238.247	9351
238.312	2028
238.376	3825
238.441	1145
238.506	2387
238.570	480
238.635	3696
238.700	528
238.764	2271
238.829	3555
238.893	3624
238.958	2855
239.023	2512
239.087	1666
239.152	1601
239.216	1250
239.281	1965
239.346	1474
239.410	1198
239.475	929
239.539	7732
239.604	5090
239.668	2468
239.733	1391
239.797	2854
239.862	10630
239.926	9147
239.991	3881
240.055	1349
240.120	1491
240.184	1663
240.249	359
240.313	1282
240.378	590
240.442	3815
240.507	7022
240.571	1764
240.635	2334
240.700	4197
240.764	1429
240.829	990
240.893	-750
240.957	1606
241.022	3638
241.086	7885
241.151	2243
241.215	-134
241.279	2014
241.344	3110
241.408	2599
241.472	1181
241.537	2498
241.601	1908
241.665	720
241.730	791
241.794	2217
241.858	2050
241.922	1624
241.987	2576
242.051	573
242.115	929
242.179	963
242.244	676
242.308	1787
242.372	1805
242.436	1360
242.501	2153
242.565	689
242.629	1482
242.693	1959
242.757	2409
242.822	1567
242.886	2223
242.950	1482
243.014	1117
243.078	1663
243.142	2493
243.206	1199
243.271	2158
243.335	1837
243.399	3455
243.463	14679
243.527	49263
243.591	16203
243.655	5551
243.719	2016
243.783	3752
243.847	5482
243.911	8010
243.975	5528
244.040	3188
244.104	2916
244.168	1764
244.232	1833
244.296	4690
244.360	6881
244.424	2510
244.488	1712
244.552	2001
244.615	-126
244.679	1915
244.743	1708
244.807	2008
244.871	1743
244.935	2068
244.999	166
245.063	930
245.127	2383
245.191	4769
245.255	4473
245.319	2280
245.383	878
245.446	2820
245.510	640
245.574	1506
245.638	2627
245.702	786
245.766	5725
245.829	4095
245.893	1170
245.957	1572
246.021	2126
246.085	2071
246.149	1927
246.212	8006
246.276	11386
246.340	4756
246.404	2700
246.467	3565
246.531	4027
246.595	4109
246.659	3515
246.722	829
246.786	2869
246.850	3469
246.913	4626
246.977	1686
247.041	2103
247.104	2850
247.168	2943
247.232	5838
247.295	15658
247.359	7553
247.423	2777
247.486	5721
247.550	3825
247.614	2516
247.677	3487
247.741	3165
247.804	2066
247.868	2151
247.932	4659
247.995	14693
248.059	4352
248.122	2030
248.186	2748
248.249	4724
248.313	21809
248.376	24957
248.440	14954
248.503	4532
248.567	4949
248.630	5093
248.694	7606
248.757	10472
248.821	25183
248.884	15773
248.948	11152
249.011	17721
249.075	28958
249.138	25964
249.202	8940
249.265	5012
249.328	5676
249.392	4721
249.455	4397
249.519	3675
249.582	4075
249.645	7620
249.709	4895
249.772	3417
249.835	3908
249.899	4141
249.962	3440
250.025	3495
250.089	9142
250.152	13853
250.215	6330
250.279	4001
250.342	5186
250.405	4860
250.468	3743
250.532	5914
250.595	9047
250.658	40138
250.721	73380
250.785	23889
250.848	11253
250.911	6503
250.974	6004
251.038	7869
251.101	16916
251.164	8940
251.227	8788
251.290	7066
251.354	12515
251.417	57725
251.480	60185
251.543	37201
251.606	110669
251.669	85807
251.732	29327
251.795	24170
251.859	25376
251.922	67156
251.985	39299
252.048	13535
252.111	7848
252.174	7758
252.237	11799
252.300	30069
252.363	34919
252.426	88412
252.489	35781
252.552	13584
252.615	7923
252.678	8908
252.741	21905
252.804	35423
252.867	91445
252.930	49736
252.993	21454
253.056	12916
253.119	6784
253.182	6825
253.245	13503
253.308	10345
253.371	5833
253.434	6385
253.497	5874
253.559	14491
253.622	9158
253.685	8819
253.748	8865
253.811	4005
253.874	5422
253.937	4601
254.000	2595
254.062	8577
254.125	14143
254.188	11344
254.251	9379
254.314	4207
254.376	6293
254.439	8671
254.502	6222
254.565	8317
254.628	16397
254.690	7623
254.753	3726
254.816	3238
254.878	4067
254.941	9908
255.004	10965
255.067	3873
255.129	3412
255.192	3087
255.255	1195
255.317	2754
255.380	1954
255.443	2257
255.505	1308
255.568	1055
255.631	414
255.693	2840
255.756	585
255.819	2976
255.881	1763
255.944	2334
256.006	1548
256.069	1587
256.132	1321
256.194	2469
256.257	5568
256.319	4650
256.382	4167
256.444	4388
256.507	2778
256.569	2158
256.632	2982
256.694	4966
256.757	19179
256.819	70902
256.882	26736
256.944	9521
257.007	6299
257.069	5300
257.132	3016
257.194	3958
257.257	2661
257.319	3675
257.381	3982
257.444	14394
257.506	75469
257.569	87121
257.631	29025
257.693	14105
257.756	5832
257.818	5044
257.880	2568
257.943	3325
258.005	2270
258.067	2400
258.130	1981
258.192	2940
258.254	4432
258.317	3618
258.379	3069
258.441	8776
258.503	8413
258.566	7921
258.628	10787
258.690	3393
258.753	3238
258.815	5341
258.877	2478
258.939	2921
259.001	2503
259.064	2448
259.126	1815
259.188	3097
259.250	2911
259.312	3223
259.375	7510
259.437	5552
259.499	2692
259.561	2132
259.623	2144
259.685	2071
259.747	1993
259.809	6580
259.872	14459
259.934	23364
259.996	20817
260.058	5508
260.120	1953
260.182	2280
260.244	1143
260.306	1363
260.368	1856
260.430	1494
260.492	2674
260.554	6202
260.616	5067
260.678	11732
260.740	14099
260.802	3851
260.864	2579
260.926	1006
260.988	2882
261.050	2573
261.112	3375
261.174	14162
261.236	11988
261.298	3031
261.359	4919
261.421	8559
261.483	1601
261.545	3709
261.607	543
261.669	1570
261.731	3096
261.793	9965
261.854	3963
261.916	3464
261.978	1897
262.040	2428
262.102	1965
262.164	2172
262.225	2625
262.287	2525
262.349	5173
262.411	4926
262.472	2237
262.534	2586
262.596	7589
262.658	2932
262.719	597
262.781	2589
262.843	6862
262.904	3946
262.966	2706
263.028	3097
263.090	19865
263.151	63312
263.213	19629
263.275	7532
263.336	2860
263.398	2697
263.459	1003
263.521	2205
263.583	5595
263.644	4066
263.706	1825
263.767	1071
263.829	1268
263.891	1659
263.952	23
264.014	651
264.075	1199
264.137	4390
264.198	3294
264.260	1269
264.321	521
264.383	3809
264.444	8273
264.506	2964
264.567	1704
264.629	2819
264.690	4594
264.752	2368
264.813	1287
264.875	1425
264.936	2150
264.998	1159
265.059	630
265.120	2990
265.182	3924
265.243	36970
265.305	39694
265.366	8993
265.427	3924
265.489	3217
265.550	281
265.611	2230
265.673	1507
265.734	2059
265.795	1764
265.857	1753
265.918	1897
265.979	7062
266.040	59602
266.102	51212
266.163	11766
266.224	6147
266.286	2170
266.347	1646
266.408	1655
266.469	1946
266.530	1687
266.592	1288
266.653	2934
266.714	5813
266.775	1418
266.836	1983
266.898	756
266.959	1696
267.020	2092
267.081	2322
267.142	1072
267.203	752
267.264	796
267.326	2194
267.387	645
267.448	1151
267.509	1016
267.570	1515
267.631	596
267.692	624
267.753	852
267.814	890
267.875	2073
267.936	7627
267.997	3036
268.058	2824
268.119	1652
268.180	1501
268.241	813
268.302	1612
268.363	201
268.424	1052
268.485	1324
268.546	680
268.607	974
268.668	-342
268.729	635
268.790	945
268.851	474
268.912	3632
268.972	5233
269.033	2464
269.094	509
269.155	1240
269.216	49
269.277	1361
269.338	174
269.398	1345
269.459	527
269.520	2969
269.581	2139
269.642	3304
269.702	2106
269.763	1655
269.824	606
269.885	1577
269.945	3418
270.006	1828
270.067	251
270.128	1201
270.188	440
270.249	377
270.310	444
270.370	1140
270.431	-41
270.492	161
270.553	1227
270.613	2860
270.674	6906
270.734	2612
270.795	1042
270.856	2765
270.916	1678
270.977	1509
271.038	1503
271.098	1656
271.159	2406
271.219	2919
271.280	2229
271.340	1278
271.401	648
271.462	3057
271.522	2354
271.583	1618
271.643	1655
271.704	792
271.764	778
271.825	4713
271.885	18651
271.946	30985
272.006	8205
272.066	11379
272.127	25540
272.187	7423
272.248	3468
272.308	3805
272.369	17386
272.429	10300
272.489	4485
272.550	4248
272.610	5001
272.671	2924
272.731	2775
272.791	5204
272.852	3062
272.912	3540
272.972	1354
273.033	1658
273.093	2136
273.153	2414
273.214	1409
273.274	2021
273.334	8942
273.394	23878
273.455	7387
273.515	6964
273.575	17321
273.635	6525
273.696	8171
273.756	23338
273.816	8988
273.876	4236
273.936	6603
273.997	13033
274.057	2453
274.117	2281
274.177	3192
274.237	24973
274.297	22528
274.358	11852
274.418	17812
274.478	12258
274.538	3803
274.598	2479
274.658	9342
274.718	13199
274.778	5418
274.838	2732
274.898	4029
274.958	17556
275.018	21997
275.078	15073
275.138	4179
275.198	2469
275.258	1549
275.318	2343
275.378	3923
275.438	5050
275.498	2713
275.558	8068
275.618	18961
275.678	16228
275.738	7027
275.798	4952
275.858	2043
275.918	1325
275.978	1752
276.038	1924
276.098	1731
276.157	4038
276.217	11678
276.277	5296
276.337	3373
276.397	2558
276.457	2431
276.517	2140
276.576	474
276.636	980
276.696	2276
276.756	7577
276.815	5090
276.875	2211
276.935	1585
276.995	2883
277.055	1365
277.114	1385
277.174	1889
277.234	11868
277.293	4728
277.353	2521
277.413	1416
277.472	842
277.532	1166
277.592	2443
277.651	7051
277.711	16630
277.771	4953
277.830	18765
277.890	14996
277.950	10183
278.009	40156
278.069	13635
278.128	10742
278.188	15435
278.248	6052
278.307	17001
278.367	10100
278.426	3648
278.486	1552
278.545	2151
278.605	1579
278.664	2666
278.724	1136
278.783	7842
278.843	26421
278.902	7671
278.962	2503
279.021	2900
279.081	2490
279.140	3462
279.199	2148
279.259	2394
279.318	3703
279.378	3801
279.437	6901
279.496	33871
279.556	96061
279.615	79411
279.675	17625
279.734	9840
279.793	13249
279.853	29805
279.912	10637
279.971	4478
280.031	3989
280.090	10079
280.149	21741
280.208	11435
280.268	59969
280.327	70399
280.386	14435
280.445	10833
280.505	8232
280.564	4354
280.623	2823
280.682	5113
280.742	9803
280.801	2734
280.860	1680
280.919	1386
280.978	1066
281.037	1445
281.097	1070
281.156	1538
281.215	499
281.274	2103
281.333	15158
281.392	11842
281.451	1725
281.510	1736
281.569	1014
281.628	1890
281.688	734
281.747	1062
281.806	637
281.865	1129
281.924	386
281.983	1533
282.042	253
282.101	849
282.160	1319
282.219	177
282.278	978
282.337	5861
282.396	3478
282.454	1594
282.513	1298
282.572	9923
282.631	5158
282.690	1165
282.749	-326
282.808	480
282.867	1250
282.926	1767
282.985	840
283.043	682
283.102	239
283.161	1083
283.220	4516
283.279	12802
283.338	3278
283.396	1675
283.455	1402
283.514	1258
283.573	3093
283.631	1800
283.690	1563
283.749	1360
283.808	3921
283.866	4883
283.925	1332
283.984	2043
284.043	1647
284.101	3110
284.160	1531
284.219	2031
284.277	1042
284.336	2686
284.395	13290
284.453	11969
284.512	3672
284.570	4325
284.629	2855
284.688	3983
284.746	2572
284.805	3046
284.863	5052
284.922	6004
284.981	6087
285.039	8855
285.098	15393
285.156	46952
285.215	159022
285.273	158888
285.332	64542
285.390	28556
285.449	15684
285.507	10656
285.566	7324
285.624	5455
285.683	4031
285.741	2729
285.799	2736
285.858	3623
285.916	1752
285.975	2323
286.033	1229
286.091	1959
286.150	617
286.208	872
286.267	1479
286.325	2345
286.383	2315
286.442	2635
286.500	277
286.558	919
286.616	1012
286.675	2080
286.733	1616
286.791	1306
286.850	820
286.908	2465
286.966	4689
287.024	2129
287.083	515
287.141	1264
287.199	1477
287.257	1907
287.315	876
287.374	1739
287.432	5424
287.490	3845
287.548	1560
287.606	1832
287.664	685
287.723	2152
287.781	2970
287.839	1946
287.897	2367
287.955	3835
288.013	5831
288.071	14534
288.129	76562
288.187	244999
288.245	105609
288.303	32861
288.361	16812
288.419	10367
288.477	6504
288.535	4824
288.593	2628
288.651	2846
288.709	1215
288.767	1869
288.825	1315
288.883	1196
288.941	516
288.999	848
289.057	384
289.115	793
289.173	353
289.231	1375
289.289	1775
289.346	699
289.404	947
289.462	2740
289.520	2399
289.578	1055
289.636	759
289.694	552
289.751	173
289.809	890
289.867	491
289.925	1962
289.983	1137
290.040	857
290.098	-117
290.156	619
290.214	681
290.271	907
290.329	52
290.387	111
290.444	-59
290.502	111
290.560	230
290.617	1188
290.675	506
290.733	1105
290.790	906
290.848	832
290.906	531
290.963	603
291.021	690
291.078	773
291.136	45
291.194	4297
291.251	11587
291.309	2596
291.366	375
291.424	108
291.481	88
291.539	288
291.596	321
291.654	-154
291.711	-526
291.769	931
291.826	2225
291.884	1753
291.941	-167
291.999	211
292.056	484
292.114	1044
292.171	-202
292.228	1569
292.286	796
292.343	3410
292.401	3590
292.458	2619
292.515	136
292.573	1877
292.630	1756
292.687	1199
292.745	188
292.802	847
292.859	3707
292.917	12224
292.974	7574
293.031	2146
293.089	1131
293.146	557
293.203	374
293.260	816
293.318	-247
293.375	1225
293.432	1011
293.489	605
293.546	540
293.604	1462
293.661	7475
293.718	28105
293.775	10804
293.832	4973
293.889	3175
293.947	3257
294.004	1801
294.061	1423
294.118	4070
294.175	10392
294.232	9575
294.289	3833
294.346	1779
294.403	2097
294.460	1674
294.517	1889
294.574	968
294.631	991
294.688	1271
294.745	5450
294.802	27755
294.859	23291
294.916	8078
294.973	4555
295.030	3090
295.087	2750
295.144	1690
295.201	1665
295.258	1496
295.315	1422
295.372	10643
295.429	24473
295.486	8112
295.542	4223
295.599	6703
295.656	11292
295.713	10333
295.770	19064
295.827	6897
295.883	3161
295.940	2190
295.997	4038
296.054	3696
296.111	2008
296.167	1498
296.224	592
296.281	257
296.338	1578
296.394	1201
296.451	1979
296.508	7224
296.564	14272
296.621	7602
296.678	22271
296.734	32962
296.791	10086
296.848	4814
296.904	4736
296.961	10026
297.018	23669
297.074	16179
297.131	4460
297.187	2820
297.244	4657
297.301	23987
297.357	49120
297.414	16298
297.470	6020
297.527	3761
297.583	2340
297.640	1905
297.696	1880
297.753	1378
297.809	1061
297.866	437
297.922	1499
297.979	196
298.035	1854
298.092	2795
298.148	12994
298.204	11664
298.261	4663
298.317	9309
298.374	30318
298.430	16335
298.486	6140
298.543	2965
298.599	3208
298.656	1813
298.712	6931
298.768	25823
298.824	20710
298.881	4679
298.937	3149
298.993	1410
299.050	3048
299.106	1717
299.162	2543
299.218	1645
299.275	2745
299.331	1048
299.387	5192
299.443	27030
299.500	30426
299.556	13015
299.612	5814
299.668	4402
299.724	7917
299.780	8679
299.837	3647
299.893	3395
299.949	21090
300.005	24957
300.061	21557
300.117	40076
300.173	18288
300.229	7060
300.285	5981
300.341	6936
300.397	2867
300.453	1859
300.510	2248
300.566	1925
300.622	2673
300.678	17795
300.734	28726
300.790	22929
300.845	29182
300.901	17408
300.957	24732
301.013	15811
301.069	6595
301.125	3218
301.181	3187
301.237	1616
301.293	1748
301.349	1188
301.405	893
301.461	819
301.516	2177
301.572	636
301.628	3143
301.684	2522
301.740	5546
301.796	11038
301.851	7398
301.907	11341
301.963	11341
302.019	22486
302.074	76407
302.130	73220
302.186	30649
302.242	11431
302.297	7433
302.353	5562
302.409	12468
302.464	10555
302.520	8542
302.576	23203
302.631	28465
302.687	13405
302.743	6325
302.798	3457
302.854	2114
302.910	2089
302.965	2974
303.021	5159
303.076	5308
303.132	6803
303.187	8655
303.243	4370
303.299	2534
303.354	1559
303.410	1365
303.465	1180
303.521	1893
303.576	1049
303.632	2169
303.687	6674
303.743	26112
303.798	20679
303.853	7190
303.909	3301
303.964	3192
304.020	3876
304.075	5715
304.130	4710
304.186	9697
304.241	10579
304.297	8963
304.352	3933
304.358	3811
304.407	2821
304.449	2769
304.463	2755
304.518	2544
304.539	2138
304.573	1469
304.629	2200
304.630	2233
304.684	3996
304.720	13433
304.739	18114
304.794	28306
304.811	23916
304.850	13283
304.902	5708
304.905	5241
304.960	3979
304.992	4166
305.015	4241
305.071	3899
305.083	3460
305.126	1933
305.173	1639
305.181	1597
305.236	1236
305.264	1409
305.292	1597
305.347	1402
305.354	1635
305.402	3260
305.445	3721
305.457	3773
305.512	5007
305.535	4347
305.567	3624
305.622	3776
305.626	4010
305.678	10036
305.716	23717
305.733	28334
305.788	28780
305.807	24399
305.843	17863
305.897	26867
305.898	26949
305.953	26410
305.988	16909
306.008	11943
306.063	7151
306.078	6080
306.118	3682
306.168	2546
306.173	2472
306.228	1681
306.259	1807
306.283	1924
306.338	1512
306.349	1813
306.393	3168
306.440	4321
306.448	4483
306.503	4511
306.530	4249
306.558	5481
306.613	11357
306.620	12229
306.668	16610
306.711	22476
306.723	22979
306.778	18052
306.801	13575
306.833	9130
306.888	4329
306.892	4208
306.943	3425
306.982	2586
306.997	2402
307.052	2772
307.072	2840
307.107	3458
307.162	4712
307.163	4720
307.217	6833
307.253	8258
307.272	8292
307.327	8150
307.343	7842
307.381	7162
307.434	5584
307.436	5805
307.491	13094
307.524	19376
307.546	20070
307.600	19279
307.614	17214
307.655	11361
307.704	6753
307.710	6727
307.765	7947
307.795	9510
307.819	11505
307.874	17374
307.885	17965
307.929	15147
307.975	12100
307.984	12818
308.038	19535
308.065	24168
308.093	45943
308.148	107054
308.156	121895
308.202	196987
308.246	236280
308.257	228378
308.312	115755
308.336	73708
308.366	51646
308.421	30022
308.426	28325
308.475	18778
308.517	13071
308.530	11879
308.585	10151
308.607	9488
308.639	9390
308.694	9438
308.697	9532
308.748	17892
308.787	25273
308.803	24216
308.857	17624
308.877	14900
308.912	14005
308.967	13337
308.967	13336
309.021	19499
309.058	24117
309.076	31585
309.130	58528
309.148	70292
309.185	141494
309.238	272163
309.239	273014
309.293	291726
309.328	260161
309.348	220763
309.402	98313
309.418	68555
309.457	45874
309.508	26160
309.511	25511
309.566	20323
309.598	18410
309.620	19139
309.674	23591
309.688	24744
309.729	22746
309.778	18232
309.783	17892
309.837	13617
309.868	11781
309.892	14679
309.946	23323
309.959	25982
310.001	34149
310.049	41043
310.055	39572
310.109	23042
310.139	13514
310.163	10749
310.218	6709
310.229	6003
310.272	5514
310.319	5335
310.326	5275
310.381	4785
310.409	4571
310.435	4387
310.489	4175
310.499	4132
310.543	4599
310.589	4964
310.598	4960
310.652	5040
310.679	4922
310.706	4557
310.760	4027
310.769	3894
310.814	3538
310.859	3392
310.868	3398
310.923	3181
310.948	3183
310.977	3807
311.031	4798
311.038	4958
311.085	4635
311.128	3997
311.139	4017
311.193	4234
311.218	4283
311.247	3999
311.301	3560
311.308	3482
311.356	3661
311.398	3884
311.410	3870
311.464	3568
311.488	3503
311.518	3584
311.572	3604
311.578	3609
311.626	4777
311.668	5690
311.680	5968
311.734	7108
311.758	7603
311.788	7099
311.842	6151
311.847	6026
311.896	8019
311.937	9736
311.950	9581
312.004	8732
312.027	8318
312.058	7063
312.112	4791
312.117	4551
312.165	4711
312.207	4828
312.297	8751
312.386	6686
312.476	5465
312.566	8235
312.656	5078
312.745	4296
312.835	5880
312.925	5457
313.015	5400
313.104	6967
313.194	4594
313.284	5385
313.374	5525
313.463	5229
313.553	5238
313.643	4499
313.732	4645
313.822	4756
313.912	6008
314.001	6435
314.091	6688
314.180	9594
314.270	7576
314.360	8386
314.449	6831
314.539	4716
314.628	5250
314.718	6063
314.808	7693
314.897	5333
314.987	6038
315.076	5829
315.166	7407
315.255	8217
315.345	7114
315.434	7131
315.524	6503
315.613	7386
315.703	8524
315.792	14484
315.881	39879
315.971	13340
316.060	12516
316.150	19864
316.239	20259
316.328	7612
316.418	5453
316.507	4524
316.597	6756
316.686	5986
316.775	9637
316.865	21775
316.954	5931
317.043	4232
317.133	4730
317.222	3967
317.311	4485
317.400	3256
317.490	5484
317.579	6288
317.668	5503
317.757	9177
317.847	23903
317.936	67868
318.025	22856
318.114	15671
318.203	8885
318.293	9210
318.382	18189
318.471	14361
318.560	24844
318.649	58663
318.738	10903
318.828	6109
318.917	6293
319.006	9157
319.095	25037
319.184	69504
319.273	30045
319.362	12104
319.451	5345
319.540	4893
319.629	10217
319.718	14255
319.807	7981
319.896	22997
319.985	85323
320.074	22142
320.163	6459
320.252	12436
320.341	12248
320.430	9700
320.519	9228
320.608	5688
320.697	7074
320.786	5683
320.875	6974
320.964	8806
321.053	11544
321.142	14731
321.230	15744
321.319	15239
321.408	32195
321.497	14894
321.586	12817
321.675	19506
321.764	16670
321.852	11426
321.941	17582
322.030	10089
322.119	15216
322.207	30397
322.296	30338
322.385	15037
322.474	15904
322.562	37618
322.651	19918
322.740	14971
322.829	20916
322.917	26320
323.006	12415
323.095	9575
323.183	8500
323.272	11603
323.361	23702
323.449	72122
323.538	21868
323.626	53117
323.715	29036
323.804	13549
323.892	48930
323.981	21441
324.069	7940
324.158	28905
324.246	24341
324.335	8615
324.424	10707
324.512	5212
324.601	5885
324.689	6063
324.778	9226
324.866	17268
324.954	5828
325.043	5539
325.131	12594
325.220	22502
325.308	24995
325.397	17560
325.485	10989
325.574	4249
325.662	4422
325.750	4491
325.839	4867
325.927	3329
326.015	5641
326.104	8743
326.192	11042
326.280	4537
326.369	4560
326.457	5069
326.545	9890
326.634	5132
326.722	4254
326.810	4239
326.898	4473
326.987	4905
327.075	8544
327.163	9968
327.251	5666
327.340	4094
327.428	4919
327.516	4302
327.604	4074
327.692	4562
327.781	6144
327.869	9275
327.957	5778
328.045	3880
328.133	3767
328.221	5734
328.309	3361
328.397	3617
328.485	4531
328.574	6894
328.662	18551
328.750	10679
328.838	5965
328.926	3557
329.014	3669
329.102	4529
329.190	17249
329.278	8536
329.366	3633
329.454	4244
329.542	3974
329.630	2915
329.718	4166
329.806	4061
329.893	5234
329.981	4836
330.069	6058
330.157	28274
330.245	92063
330.333	42808
330.421	6507
330.509	5821
330.597	21242
330.684	14528
330.772	7109
330.860	11600
330.948	17094
331.036	5670
331.123	3002
331.211	3589
331.299	5596
331.387	14277
331.475	22688
331.562	6334
331.650	3794
331.738	4795
331.825	7089
331.913	3166
332.001	4109
332.089	6052
332.176	10897
332.264	28148
332.352	19805
332.439	6522
332.527	4882
332.614	4707
332.702	5998
332.790	3896
332.877	11472
332.965	24619
333.052	4934
333.140	5477
333.228	10840
333.315	3319
333.403	5523
333.490	16510
333.578	11447
333.665	8859
333.753	5609
333.840	3094
333.928	5786
334.015	16623
334.103	27009
334.190	88631
334.278	21397
334.365	10685
334.452	9992
334.540	5164
334.627	7340
334.715	8866
334.802	15115
334.889	93689
334.977	91426
335.064	16705
335.151	7075
335.239	7179
335.326	10070
335.413	46102
335.501	61078
335.588	6728
335.675	5287
335.762	8735
335.850	15741
335.937	8170
336.024	25193
336.111	112739
336.199	53180
336.286	11742
336.373	6435
336.460	3845
336.547	3779
336.635	5820
336.722	5297
336.809	4427
336.896	5432
336.983	23262
337.070	63660
337.157	94639
337.245	60351
337.332	39647
337.419	6255
337.506	4436
337.593	5905
337.680	21129
337.767	68753
337.854	16341
337.941	19232
338.028	21626
338.115	7280
338.202	9347
338.289	16268
338.376	58097
338.463	18353
338.550	39809
338.637	41082
338.724	12802
338.811	20060
338.898	4239
338.984	3513
339.071	4927
339.158	4775
339.245	11045
339.332	7358
339.419	14239
339.506	12896
339.593	2168
339.679	2977
339.766	2984
339.853	5133
339.940	8311
340.027	4161
340.113	4237
340.200	5480
340.287	4195
340.374	4414
340.460	6187
340.547	3217
340.634	5705
340.720	20583
340.807	11141
340.894	3989
340.980	3689
341.067	2830
341.154	3902
341.240	5303
341.327	9610
341.414	3589
341.500	1814
341.587	4524
341.674	3314
341.760	6955
341.847	8490
341.933	3519
342.020	2534
342.106	2907
342.193	3068
342.279	5971
342.366	4909
342.452	7120
342.539	3535
342.625	9326
342.712	21742
342.798	8490
342.885	4514
342.971	2219
343.058	2137
343.144	2328
343.230	2164
343.317	3129
343.403	2253
343.490	3404
343.576	2757
343.662	3321
343.749	2840
343.835	3979
343.921	7909
344.008	57983
344.094	135351
344.180	25219
344.267	7816
344.353	33962
344.439	36808
344.525	11223
344.612	4058
344.698	4237
344.784	2006
344.870	2883
344.957	2967
345.043	5422
345.129	2983
345.215	6494
345.301	2763
345.387	3124
345.474	2700
345.560	2242
345.646	3258
345.732	3664
345.818	3098
345.904	3185
345.990	3378
346.076	4854
346.162	8703
346.249	4083
346.335	2163
346.421	4151
346.507	14648
346.593	52359
346.679	11261
346.765	4963
346.851	3786
346.937	3054
347.023	2874
347.108	3831
347.194	3023
347.280	2889
347.366	3894
347.452	14951
347.538	64376
347.624	41236
347.710	34130
347.796	6289
347.882	3616
347.967	3244
348.053	6180
348.139	4023
348.225	2477
348.311	1750
348.397	2201
348.482	3434
348.568	4216
348.654	2549
348.740	6487
348.825	6129
348.911	5683
348.997	27797
349.083	60545
349.168	8339
349.254	2547
349.340	3568
349.425	2339
349.511	3806
349.597	4169
349.682	7905
349.768	31230
349.854	14446
349.939	3531
350.025	2313
350.110	2839
350.196	1606
350.282	530
350.367	2759
350.453	5734
350.538	5948
350.624	3259
350.709	4181
350.795	1564
350.880	2504
350.966	3398
351.051	5054
351.137	4544
351.222	3383
351.308	8440
351.393	22715
351.479	5175
351.564	2010
351.649	3160
351.735	1991
351.820	1848
351.906	2215
351.991	3109
352.076	16463
352.162	22183
352.247	4700
352.332	2662
352.418	3560
352.503	6246
352.588	33719
352.673	24284
352.759	5325
352.844	2535
352.929	2856
353.014	4200
353.100	4201
353.185	6498
353.270	7587
353.355	6914
353.441	3458
353.526	3233
353.611	6696
353.696	7104
353.781	5249
353.866	2448
353.952	3465
354.037	6256
354.122	13181
354.207	12619
354.292	5261
354.377	2108
354.462	2807
354.547	3030
354.632	4781
354.717	6072
354.802	6086
354.887	3199
354.972	2264
355.057	1692
355.142	2257
355.227	2895
355.312	5142
355.397	9246
355.482	22958
355.567	10652
355.652	8540
355.737	8848
355.822	33679
355.907	27101
355.991	3865
356.076	2156
356.161	3657
356.246	2675
356.331	3794
356.416	7457
356.501	62913
356.585	64747
356.670	6468
356.755	5660
356.840	6784
356.924	38016
357.009	143584
357.094	50369
357.179	7686
357.263	5563
357.348	6657
357.433	6936
357.517	5576
357.602	4032
357.687	4285
357.771	4843
357.856	5353
357.941	5241
358.025	29032
358.110	141770
358.195	62392
358.279	7006
358.364	5500
358.448	18557
358.533	56063
358.617	38525
358.702	41705
358.787	14494
358.871	7142
358.956	6869
359.040	3358
359.125	2225
359.209	2754
359.294	2796
359.378	3849
359.462	5625
359.547	4493
359.631	4689
359.716	2683
359.800	3354
359.885	6405
359.969	2669
360.053	4003
360.138	2802
360.222	4098
360.306	6371
360.391	5995
360.475	6843
360.559	13316
360.644	18419
360.728	14717
360.812	32378
360.896	95640
360.981	35617
361.065	17481
361.149	4686
361.233	5508
361.318	3439
361.402	5085
361.486	4664
361.570	2818
361.654	3795
361.739	10086
361.823	56424
361.907	96231
361.991	13261
362.075	7725
362.159	13266
362.243	12445
362.327	15243
362.411	28191
362.495	12230
362.580	5910
362.664	4010
362.748	3627
362.832	5150
362.916	9617
363.000	40020
363.084	110155
363.168	122550
363.252	25197
363.336	8546
363.420	12755
363.503	59236
363.587	75308
363.671	9222
363.755	6002
363.839	9179
363.923	3721
364.007	8059
364.091	11148
364.175	20834
364.258	102937
364.342	78025
364.426	106057
364.510	57959
364.594	18041
364.677	19240
364.761	80687
364.845	59179
364.929	13603
365.013	10631
365.096	8819
365.180	10067
365.264	23589
365.347	101527
365.431	45160
365.515	9327
365.598	3752
365.682	5277
365.766	9829
365.849	14203
365.933	4429
366.017	8295
366.100	7574
366.184	2541
366.267	3947
366.351	3126
366.435	3072
366.518	1757
366.602	2494
366.685	2976
366.769	3745
366.852	8290
366.936	13672
367.019	5742
367.103	6972
367.186	15868
367.270	4823
367.353	2312
367.436	3679
367.520	2577
367.603	3992
367.687	4785
367.770	8604
367.853	6162
367.937	23373
368.020	40222
368.104	8090
368.187	6766
368.270	9257
368.353	8550
368.437	13642
368.520	38320
368.603	21396
368.687	22798
368.770	46090
368.853	9973
368.936	11072
369.020	13634
369.103	4013
369.186	2716
369.269	3037
369.352	5508
369.436	8938
369.519	5310
369.602	1899
369.685	3944
369.768	3744
369.851	3314
369.934	2158
370.018	3347
370.101	7031
370.184	7012
370.267	6348
370.350	8121
370.433	13460
370.516	42436
370.599	61146
370.682	15847
370.765	22354
370.848	29132
370.931	59418
371.014	25900
371.097	4639
371.180	4009
371.263	2878
371.346	1033
371.429	3177
371.511	1814
371.594	5010
371.677	10361
371.760	15682
371.843	8961
371.926	46285
372.009	116538
372.091	35997
372.174	22588
372.257	64974
372.340	24930
372.423	17029
372.505	23177
372.588	8918
372.671	15594
372.754	53703
372.836	28814
372.919	26097
373.002	57069
373.085	15204
373.167	7632
373.250	22140
373.332	56194
373.415	75169
373.498	155904
373.580	57028
373.663	80521
373.746	114428
373.828	21008
373.911	9200
373.993	10755
374.076	52688
374.159	53483
374.241	16393
374.324	44793
374.406	30108
374.489	44635
374.571	138902
374.654	56598
374.736	24123
374.819	83084
374.901	116466
374.983	120769
375.066	20321
375.148	8674
375.231	43437
375.313	88186
375.395	31186
375.478	6432
375.560	4478
375.643	5738
375.725	23051
375.807	101497
375.890	86666
375.972	34145
376.054	17334
376.136	32275
376.219	14403
376.301	27686
376.383	84987
376.465	32622
376.548	12988
376.630	20734
376.712	70066
376.794	33264
376.877	4913
376.959	1744
377.041	3658
377.123	11347
377.205	15774
377.287	2359
377.369	2946
377.452	3106
377.534	2709
377.616	2015
377.698	3128
377.780	1252
377.862	2987
377.944	3823
378.026	878
378.108	2446
378.190	2678
378.272	2795
378.354	2060
378.436	913
378.518	5356
378.600	20768
378.682	15781
378.764	28256
378.846	25594
378.928	6506
379.010	8452
379.091	4541
379.173	2453
379.255	2462
379.337	4392
379.419	13959
379.501	44350
379.583	18771
379.664	5424
379.746	8571
379.828	27900
379.910	39947
379.991	36369
380.073	5815
380.155	4514
380.237	2855
380.318	1825
380.400	2368
380.482	6002
380.564	8422
380.645	9230
380.727	7299
380.809	5630
380.890	3187
380.972	2867
381.053	2748
381.135	4309
381.217	9402
381.298	29814
381.380	14443
381.461	13127
381.543	64951
381.624	83419
381.706	13359
381.787	6506
381.869	8425
381.951	29897
382.032	120844
382.113	77848
382.195	11958
382.276	8887
382.358	19967
382.439	63868
382.521	73169
382.602	115146
382.684	47443
382.765	73388
382.846	67758
382.928	59782
383.009	33255
383.090	22480
383.172	83122
383.253	137471
383.334	59673
383.416	89338
383.497	46946
383.578	11757
383.659	19030
383.741	75778
383.822	209004
383.903	111419
383.984	49857
384.066	104599
384.147	63785
384.228	13544
384.309	7694
384.390	6033
384.471	4549
384.553	5993
384.634	7116
384.715	8113
384.796	4281
384.877	6146
384.958	25736
385.039	32748
385.120	10435
385.201	6376
385.282	7605
385.363	9272
385.444	6466
385.525	12876
385.606	50865
385.687	48779
385.768	11301
385.849	12719
385.930	53620
386.011	101699
386.092	27347
386.173	6596
386.254	5911
386.335	6037
386.416	5417
386.496	18506
386.577	30904
386.658	14504
386.739	7477
386.820	10207
386.901	7227
386.981	6970
387.062	4837
387.143	7681
387.224	29370
387.304	31775
387.385	12657
387.466	8701
387.547	12555
387.627	7816
387.708	14707
387.789	56010
387.869	75542
387.950	22128
388.031	3918
388.111	4108
388.192	15941
388.273	24227
388.353	12813
388.434	6861
388.514	12645
388.595	61617
388.676	79479
388.756	30919
388.837	25238
388.917	16614
388.998	3112
389.078	5290
389.159	3286
389.239	1615
389.320	6414
389.400	3665
389.480	13836
389.561	37599
389.641	20230
389.722	6523
389.802	8866
389.883	16128
389.963	44403
390.043	31271
390.124	11069
390.204	11230
390.284	30216
390.365	23034
390.445	37452
390.525	88430
390.605	70489
390.686	19769
390.766	7151
390.846	6008
390.927	3378
391.007	3043
391.087	5840
391.167	5417
391.247	3921
391.328	9363
391.408	14921
391.488	11849
391.568	4005
391.648	5912
391.728	6724
391.808	7421
391.888	7593
391.969	19653
392.049	32269
392.129	17797
392.209	18120
392.289	43830
392.369	27867
392.449	28197
392.529	17575
392.609	12157
392.689	15523
392.769	44228
392.849	40486
392.929	32469
393.009	71594
393.089	59921
393.169	60614
393.248	185812
393.328	628444
393.408	701169
393.488	210213
393.568	56558
393.648	27639
393.728	17965
393.807	13664
393.887	12400
393.967	11175
394.047	12479
394.127	14352
394.206	26373
394.286	92437
394.366	386884
394.446	438380
394.525	104829
394.605	24701
394.685	18572
394.764	37252
394.844	63661
394.924	46609
395.003	13080
395.083	8751
395.163	8843
395.242	7247
395.322	8286
395.402	5796
395.481	10052
395.561	24006
395.640	68109
395.720	58938
395.799	77967
395.879	65650
395.958	41186
396.038	137892
396.117	509028
396.197	584437
396.276	177956
396.356	54351
396.435	38582
396.515	25207
396.594	25888
396.673	51843
396.753	195438
396.832	570308
396.912	442926
396.991	100565
397.070	28797
397.150	15389
397.229	13393
397.308	19276
397.388	33671
397.467	16558
397.546	7483
397.625	3835
397.705	7558
397.784	5915
397.863	4422
397.942	4085
398.022	5460
398.101	19781
398.180	64711
398.259	36917
398.338	9025
398.417	4521
398.497	4631
398.576	5348
398.655	2659
398.734	3659
398.813	4099
398.892	18867
398.971	67936
399.050	35849
399.129	4130
399.208	3257
399.287	3397
399.366	2668
399.445	3128
399.524	3218
399.603	1363
399.682	5285
399.761	16923
399.840	69357
399.919	60166
399.998	8077
400.077	1646
400.156	1942
400.235	4970
400.313	2003
400.392	4254
400.471	14800
400.550	23757
400.629	6376
400.708	4775
400.786	4028
400.865	15941
400.944	17393
401.023	8432
401.102	1200
401.180	1881
401.259	2151
401.338	3797
401.416	4607
401.495	3677
401.574	4264
401.652	2811
401.731	4746
401.810	2837
401.888	2360
401.967	1719
402.046	1843
402.124	3960
402.203	4056
402.281	3740
402.360	4260
402.438	18927
402.517	14473
402.596	4375
402.674	4384
402.753	2582
402.831	2569
402.910	4090
402.988	13411
403.066	50117
403.145	30998
403.223	15872
403.302	37443
403.380	30922
403.459	27153
403.537	11763
403.615	4473
403.694	1015
403.772	1832
403.850	1870
403.929	855
404.007	1861
404.085	4882
404.164	4977
404.242	2119
404.320	4033
404.398	7833
404.477	19009
404.555	81928
404.633	78058
404.711	12275
404.789	4780
404.868	1854
404.946	901
405.024	1460
405.102	1064
405.180	-337
405.258	-40
405.336	2167
405.415	1776
405.493	5321
405.571	6051
405.649	1192
405.727	1125
405.805	3660
405.883	3074
405.961	3712
406.039	5233
406.117	1338
406.195	4138
406.273	17447
406.351	69029
406.429	45474
406.507	8408
406.585	2566
406.663	1970
406.740	2634
406.818	2374
406.896	1206
406.974	2338
407.052	4345
407.130	37299
407.208	55773
407.285	11310
407.363	1154
407.441	2252
407.519	1877
407.596	2676
407.674	14477
407.752	61701
407.830	58712
407.907	14220
407.985	2094
408.063	2267
408.141	1314
408.218	5031
408.296	4245
408.373	2314
408.451	2286
408.529	2872
408.606	1118
408.684	1398
408.762	1099
408.839	835
408.917	1735
408.994	1853
409.072	1005
409.149	1909
409.227	3911
409.304	6326
409.382	4853
409.459	5036
409.537	8962
409.614	6637
409.692	3767
409.769	5077
409.846	8966
409.924	13323
410.001	6618
410.079	4506
410.156	4191
410.233	2251
410.311	1792
410.388	2630
410.465	2767
410.543	1909
410.620	1339
410.697	2118
410.775	2338
410.852	756
410.929	3680
411.006	4109
411.083	2520
411.161	4989
411.238	6544
411.315	4590
411.392	1621
411.469	3169
411.547	2363
411.624	636
411.701	719
411.778	2462
411.855	3716
411.932	2261
412.009	1592
412.086	2101
412.163	2392
412.240	1919
412.317	4279
412.394	3149
412.471	1787
412.548	487
412.625	930
412.702	2549
412.779	4938
412.856	3087
412.933	1327
413.010	1100
413.087	2580
413.164	12177
413.241	19063
413.318	4433
413.395	2686
413.471	4023
413.548	1526
413.625	2148
413.702	1486
413.779	1771
413.855	347
413.932	645
414.009	-644
414.086	737
414.162	1366
414.239	2758
414.316	12621
414.393	30028
414.469	10115
414.546	1605
414.623	106
414.699	1168
414.776	911
414.853	1590
414.929	1121
415.006	1429
415.082	2065
415.159	1470
415.236	1415
415.312	1378
415.389	2115
415.465	3117
415.542	2495
415.618	845
415.695	2425
415.771	1724
415.848	1373
415.924	2346
416.000	1100
416.077	1888
416.153	-423
416.230	-70
416.306	94
416.383	1511
416.459	580
416.535	1066
416.612	135
416.688	588
416.764	167
416.841	-159
416.917	932
416.993	1591
417.069	1705
417.146	2254
417.222	3071
417.298	1764
417.374	-354
417.451	1929
417.527	2026
417.603	1759
417.679	1472
417.755	1827
417.831	-537
417.908	828
417.984	556
418.060	-216
418.136	2836
418.212	4038
418.288	1612
418.364	1632
418.440	231
418.516	2630
418.592	4754
418.668	7224
418.744	7134
418.820	6480
418.896	1032
418.972	687
419.048	896
419.124	3920
419.200	1310
419.276	1357
419.352	-237
419.428	1305
419.504	556
419.579	1062
419.655	1039
419.731	749
419.807	4890
419.883	9322
419.959	6106
420.034	2816
420.110	4313
420.186	17792
420.262	15790
420.337	3113
420.413	2396
420.489	1316
420.565	2218
420.640	1379
420.716	1494
420.792	-108
420.867	2099
420.943	1199
421.019	2121
421.094	2737
421.170	1735
421.245	1131
421.321	2720
421.397	2435
421.472	11654
421.548	36277
421.623	23793
421.699	5644
421.774	4971
421.850	3576
421.925	5458
422.001	5408
422.076	5572
422.152	7552
422.227	10319
422.302	14627
422.378	22298
422.453	41594
422.529	106138
422.604	296319
422.679	465041
422.755	333746
422.830	123582
422.905	47914
422.981	25391
423.056	16098
423.131	12095
423.207	8423
423.282	6928
423.357	9570
423.432	6672
423.508	5913
423.583	9766
423.658	8745
423.733	3738
423.808	5068
423.883	3853
423.959	4377
424.034	4658
424.109	4621
424.184	1371
424.259	2225
424.334	1127
424.409	1884
424.484	1139
424.559	2231
424.634	579
424.709	1846
424.784	2585
424.859	1780
424.934	3120
425.009	12051
425.084	20959
425.159	8227
425.234	2076
425.309	109
425.384	813
425.459	78
425.534	1170
425.609	1753
425.683	902
425.758	1222
425.833	1960
425.908	2443
425.983	6606
426.058	20811
426.132	9890
426.207	2960
426.282	4917
426.357	4621
426.431	878
426.506	1661
426.581	1508
426.655	1190
426.730	751
426.805	31
426.879	1959
426.954	1236
427.029	4274
427.103	21970
427.178	57303
427.253	29060
427.327	3580
427.402	3486
427.476	6299
427.551	2577
427.625	2056
427.700	2035
427.774	989
427.849	2898
427.923	1166
427.998	845
428.072	2200
428.147	7160
428.221	29825
428.296	96168
428.370	56438
428.444	6183
428.519	6499
428.593	14193
428.667	12799
428.742	14857
428.816	17069
428.890	61586
428.965	97498
429.039	28811
429.113	17333
429.188	5925
429.262	1018
429.336	3266
429.410	10200
429.485	8202
429.559	11905
429.633	9474
429.707	2722
429.781	11054
429.855	65164
429.930	100948
430.004	46636
430.078	65018
430.152	66005
430.226	120995
430.300	130598
430.374	20440
430.448	5226
430.522	19767
430.596	59123
430.670	41856
430.744	90263
430.818	130985
430.892	25491
430.966	3819
431.040	2155
431.114	1038
431.188	725
431.262	1020
431.336	880
431.410	6531
431.484	15806
431.557	9792
431.631	1598
431.705	2114
431.779	18663
431.853	86117
431.927	65646
432.000	7391
432.074	1167
432.148	2379
432.222	1817
432.295	1348
432.369	336
432.443	3466
432.516	22903
432.590	60130
432.664	24440
432.737	2219
432.811	304
432.885	263
432.958	198
433.032	52
433.106	34
433.179	-106
433.253	159
433.326	-26
433.400	153
433.473	455
433.547	-1332
433.620	388
433.694	660
433.767	2661
433.841	548
433.914	-413
433.988	-823
434.061	175
434.134	-307
434.208	-512
434.281	-884
434.355	-238
434.428	300
434.501	-445
434.575	-277
434.648	774
434.721	-83
434.795	-170
434.868	-761
434.941	-474
435.014	-455
435.088	-592
435.161	212
435.234	1015
435.307	2417
435.381	1935
435.454	2428
435.527	4701
435.600	4876
435.673	3053
435.746	1334
435.819	1465
435.892	1347
435.966	439
436.039	148
436.112	971
436.185	-409
436.258	-592
436.331	-418
436.404	27
436.477	-715
436.550	-287
436.623	-551
436.696	-389
436.769	226
436.842	-320
436.915	-175
436.987	1883
437.060	499
437.133	-548
437.206	-259
437.279	503
437.352	89
437.425	169
437.498	134
437.570	2015
437.643	1591
437.716	-270
437.789	-554
437.861	1796
437.934	5353
438.007	2608
438.080	-85
438.152	1275
438.225	3850
438.298	31786
438.370	93953
438.443	40315
438.516	5768
438.588	841
438.661	95
438.734	281
438.806	188
438.879	328
438.951	1707
439.024	3490
439.096	7
439.169	612
439.241	-222
439.314	28
439.386	1573
439.459	3195
439.531	4063
439.604	1522
439.676	371
439.749	66
439.821	70
439.893	299
439.966	-170
440.038	655
440.110	1360
440.183	86
440.255	-470
440.327	1881
440.400	12097
440.472	52475
440.544	38002
440.617	4530
440.689	2451
440.761	3069
440.833	4860
440.905	3585
440.978	-171
441.050	247
441.122	11
441.194	-137
441.266	-254
441.338	175
441.411	1566
441.483	13900
441.555	22480
441.627	5903
441.699	2671
441.771	3834
441.843	929
441.915	711
441.987	143
442.059	497
442.131	1449
442.203	2795
442.275	3954
442.347	4407
442.419	6338
442.491	43040
442.563	114988
442.635	51941
442.706	18264
442.778	12284
442.850	2731
442.922	1854
442.994	1463
443.066	3464
443.137	2851
443.209	2889
443.281	4211
443.353	12256
443.425	54040
443.496	201552
443.568	205799
443.640	74498
443.711	12312
443.783	3844
443.855	2341
443.926	1442
443.998	1355
444.070	2978
444.141	987
444.213	2897
444.285	3680
444.356	3576
444.428	3170
444.499	852
444.571	439
444.642	1273
444.714	945
444.785	2696
444.857	4483
444.928	10817
445.000	7107
445.071	8097
445.143	9265
445.214	6486
445.285	10644
445.357	36079
445.428	124415
445.500	301820
445.571	194617
445.642	103345
445.714	35189
445.785	22800
445.856	5684
445.928	4443
445.999	3445
446.070	2492
446.141	2373
446.213	3665
446.284	2141
446.355	3237
446.426	1316
446.497	970
446.569	3261
446.640	4864
446.711	2764
446.782	1013
446.853	2207
446.924	3044
446.995	907
447.066	1354
447.138	3766
447.209	2586
447.280	11
447.351	185
447.422	-651
447.493	790
447.564	1281
447.635	1986
447.706	130
447.777	608
447.847	-17
447.918	-378
447.989	1707
448.060	2971
448.131	6872
448.202	5516
448.273	2914
448.344	1072
448.414	807
448.485	746
448.556	-468
448.627	-43
448.698	142
448.768	151
448.839	521
448.910	2995
448.981	2731
449.051	791
449.122	228
449.193	-247
449.263	436
449.334	-105
449.405	2189
449.475	3050
449.546	3121
449.616	4466
449.687	3164
449.758	1183
449.828	-437
449.899	256
449.969	-329
450.040	76
450.110	1278
450.181	1724
450.251	566
450.322	489
450.392	-78
450.463	449
450.533	26
450.604	276
450.674	-367
450.744	974
450.815	-179
450.885	1097
450.955	1144
451.026	782
451.096	450
451.166	997
451.237	5304
451.307	13344
451.377	3847
451.447	292
451.518	-674
451.588	607
451.658	840
451.728	2975
451.799	13730
451.869	14513
451.939	3264
452.009	937
452.079	415
452.149	1024
452.219	2960
452.289	17102
452.360	9869
452.430	2130
452.500	1662
452.570	1975
452.640	5341
452.710	18301
452.780	23872
452.850	12272
452.920	9008
452.990	3824
453.060	2114
453.129	2132
453.199	3126
453.269	15655
453.339	32081
453.409	48567
453.479	51859
453.549	76745
453.619	83402
453.688	26320
453.758	3691
453.828	1369
453.898	995
453.968	436
454.037	940
454.087	710
454.107	609
454.168	-22
454.177	-125
454.247	1150
454.249	1128
454.316	458
454.330	608
454.386	1130
454.411	3590
454.456	7757
454.492	9645
454.525	11408
454.574	4804
454.595	1885
454.655	539
454.665	326
454.734	557
454.736	643
454.804	3400
454.817	5355
454.873	13752
454.898	13962
454.943	14355
454.979	8751
455.013	3661
455.060	1951
455.082	1153
455.141	818
455.152	776
455.221	8845
455.222	8950
455.291	17173
455.303	15887
455.360	9811
455.384	13256
455.430	18806
455.465	15233
455.499	12214
455.546	12195
455.569	12182
455.627	7574
455.638	6759
455.707	420
455.708	435
455.777	892
455.789	948
455.846	1292
455.869	1091
455.916	589
455.950	1021
455.985	1537
456.031	1329
456.054	1155
456.112	1234
456.124	1262
456.193	764
456.193	750
456.262	681
456.274	892
456.332	2074
456.355	2210
456.401	2373
456.436	1939
456.470	1494
456.516	963
456.540	708
456.597	553
456.609	493
456.678	1116
456.678	1112
456.747	897
456.759	859
456.817	610
456.840	825
456.886	1202
456.920	1149
456.955	1067
457.001	838
457.024	747
457.082	918
457.093	969
457.162	1975
457.163	1985
457.232	2620
457.243	2506
457.301	1816
457.324	1359
457.370	622
457.405	836
457.439	1144
457.485	1309
457.508	1352
457.566	1938
457.577	2186
457.646	3343
457.647	3377
457.715	6742
457.727	7414
457.784	11497
457.808	15051
457.853	18481
457.889	21544
457.922	23243
457.969	16719
457.991	16328
458.050	18093
458.060	18419
458.129	32978
458.130	33394
458.198	33583
458.211	29393
458.267	16960
458.292	12081
458.336	7123
458.372	7083
458.405	9864
458.453	14798
458.474	17976
458.533	33100
458.543	33764
458.611	52436
458.614	52513
458.680	35185
458.694	27634
458.749	11824
458.775	8769
458.818	4454
458.855	3198
458.887	2272
458.936	1690
458.955	1409
459.016	1474
459.024	1554
459.093	2034
459.097	2045
459.162	2107
459.177	2225
459.230	2489
459.257	2674
459.299	2825
459.338	2758
459.368	2923
459.418	3452
459.437	3337
459.499	2534
459.505	2500
459.574	2073
459.579	2044
459.643	1912
459.659	1998
459.711	2313
459.740	2522
459.780	2511
459.820	2264
459.849	2101
459.900	2271
459.917	2360
459.981	2122
459.986	2093
460.054	1762
460.061	1751
460.123	1591
460.141	1529
460.191	2100
460.222	2675
460.260	2992
460.302	3298
460.328	3362
460.382	3188
460.397	3338
460.462	3736
460.465	3979
460.534	9943
460.543	10834
460.602	25244
460.623	30897
460.671	46748
460.703	64145
460.739	57757
460.783	40457
460.808	35942
460.864	9181
460.876	5881
460.944	2706
460.945	2668
461.013	2620
461.024	2557
461.081	2290
461.104	2440
461.150	2420
461.184	2145
461.218	2180
461.264	2283
461.286	2299
461.345	2183
461.355	2064
461.423	2211
461.425	2189
461.491	2303
461.505	2315
461.559	2767
461.585	3122
461.628	4585
461.665	6871
461.696	7272
461.745	9684
461.764	10155
461.825	4948
461.832	4637
461.901	2243
461.905	2289
461.969	2088
461.985	1908
462.037	2598
462.065	3028
462.105	2744
462.145	2439
462.173	2880
462.225	3695
462.241	3792
462.305	5946
462.310	5937
462.378	4921
462.385	4483
462.446	2968
462.465	2919
462.514	2283
462.545	2164
462.582	2446
462.625	2647
462.650	2513
462.705	2425
462.718	2515
462.785	2598
462.786	2596
462.854	2625
462.865	2669
462.922	3130
462.945	3444
462.990	3444
463.025	2641
463.058	2376
463.104	2291
463.126	2070
463.184	2131
463.194	2233
463.262	2386
463.264	2409
463.330	2422
463.344	2285
463.398	2834
463.424	3228
463.466	2657
463.504	2360
463.533	2852
463.583	3188
463.601	3172
463.663	3064
463.669	3029
463.737	3144
463.743	3153
463.805	4795
463.823	5190
463.873	6471
463.903	7704
463.940	7854
463.982	8506
464.008	8269
464.062	5011
464.076	4538
464.142	2840
464.144	2819
464.211	2667
464.221	2703
464.279	2845
464.301	2912
464.347	2912
464.381	2981
464.414	2973
464.461	2883
464.482	3110
464.540	3698
464.550	3606
464.617	2662
464.620	2636
464.685	4838
464.699	5279
464.753	6572
464.779	7342
464.820	7850
464.859	8300
464.888	7293
464.938	5384
464.956	5699
465.018	6663
465.023	6597
465.091	5787
465.098	5674
465.158	5161
465.177	5105
465.226	5476
465.257	5584
465.293	5658
465.336	5706
465.361	5760
465.416	5970
465.428	6183
465.495	7541
465.496	7563
465.563	9349
465.575	9708
465.631	11099
465.654	11966
465.698	9227
465.734	5797
465.765	5595
465.813	5738
465.833	5458
465.893	4960
465.900	5065
465.968	5972
465.972	6028
466.035	5492
466.052	5315
466.102	5405
466.131	5474
466.170	5432
466.210	5368
466.237	5807
466.290	6654
466.304	6554
466.369	6032
466.372	6062
466.439	6690
466.449	6771
466.506	7188
466.528	7346
466.573	9294
466.607	10674
466.641	12021
466.687	13982
466.708	14949
466.766	17916
466.775	17001
466.842	9611
466.845	9248
466.909	7952
466.925	7729
466.977	7286
467.004	7070
467.044	8282
467.083	9508
467.111	10054
467.163	11000
467.178	11310
467.242	12549
467.245	12481
467.312	10703
467.321	10453
467.379	9885
467.400	9656
467.446	9570
467.480	9482
467.559	7880
467.638	8480
467.717	8218
467.796	8574
467.875	9801
467.955	8112
468.034	12069
468.113	16343
468.192	20135
468.271	9479
468.350	12264
468.429	13554
468.508	15309
468.588	10010
468.667	7938
468.746	7475
468.825	7847
468.904	7628
468.983	7699
469.062	8656
469.141	9625
469.220	5895
469.299	7325
469.378	7196
469.456	12901
469.535	9070
469.614	8374
469.693	8058
469.772	9318
469.851	10452
469.930	8870
470.009	7530
470.088	8702
470.166	8637
470.245	11469
470.324	11596
470.403	8659
470.482	7674
470.560	7804
470.639	6880
470.718	8547
470.797	7427
470.875	7570
470.954	7596
471.033	9418
471.111	5613
471.190	6243
471.269	5035
471.347	6057
471.426	6887
471.505	8925
471.583	9782
471.662	8365
471.740	7350
471.819	7595
471.898	6491
471.976	7294
472.055	6908
472.133	8831
472.212	7979
472.290	7585
472.369	6125
472.447	6512
472.526	6093
472.604	7087
472.683	7109
472.761	7718
472.839	5503
472.918	7110
472.996	6407
473.075	6963
473.153	6418
473.231	6381
473.310	6259
473.388	6757
473.466	7583
473.545	8894
473.623	9370
473.701	8529
473.780	6655
473.858	6693
473.936	7717
474.014	7408
474.093	7142
474.171	8528
474.249	9266
474.327	7483
474.405	5583
474.484	6314
474.562	5588
474.640	6070
474.718	6213
474.796	6939
474.874	6286
474.952	5201
475.030	5158
475.108	5816
475.187	6144
475.265	8032
475.343	8807
475.421	9487
475.499	5959
475.577	6382
475.655	7322
475.733	10016
475.811	12059
475.889	12324
475.966	8216
476.044	6488
476.122	7179
476.200	8897
476.278	5613
476.356	5080
476.434	5163
476.512	6678
476.590	7152
476.667	7203
476.745	4767
476.823	5623
476.901	4231
476.979	5965
477.056	5655
477.134	5398
477.212	4801
477.290	5052
477.367	4805
477.445	5048
477.523	4543
477.601	5471
477.678	4834
477.756	5446
477.834	5129
477.911	4746
477.989	4563
478.066	4476
478.144	4466
478.222	6044
478.299	8688
478.377	7841
478.454	4055
478.532	4372
478.609	5470
478.687	5421
478.764	3164
478.842	4800
478.919	4516
478.997	4860
479.074	3889
479.152	4570
479.229	5117
479.307	3307
479.384	3836
479.461	4234
479.539	3656
479.616	4517
479.694	3395
479.771	4530
479.848	4528
479.926	3790
480.003	4922
480.080	3278
480.157	3439
480.235	4487
480.312	2629
480.389	4465
480.467	4494
480.544	6367
480.621	4305
480.698	4981
480.775	5125
480.853	4455
480.930	3949
481.007	4429
481.084	5270
481.161	7602
481.238	5035
481.315	4006
481.392	3279
481.470	4117
481.547	2777
481.624	3044
481.701	3322
481.778	4713
481.855	3753
481.932	6320
482.009	7449
482.086	6021
482.163	5163
482.240	8123
482.317	11380
482.393	7118
482.470	4488
482.547	3771
482.624	3650
482.701	5003
482.778	3405
482.855	4244
482.932	3638
483.009	3021
483.085	6459
483.162	6899
483.239	5737
483.316	5486
483.393	5085
483.469	4245
483.546	3865
483.623	5105
483.699	2984
483.776	3319
483.853	4047
483.930	5947
484.006	11795
484.083	20066
484.160	24851
484.236	41060
484.313	28762
484.389	21450
484.466	19828
484.543	19187
484.619	19509
484.696	22015
484.772	18963
484.849	19296
484.925	16158
485.002	17438
485.078	16614
485.155	16405
485.231	15617
485.308	15219
485.384	15335
485.461	17271
485.537	19558
485.614	20688
485.690	13574
485.766	14994
485.843	14968
485.919	18766
485.995	16496
486.072	13804
486.148	13396
486.224	13188
486.301	13623
486.377	14768
486.453	15270
486.530	16998
486.606	22843
486.682	24038
486.758	22256
486.835	21604
486.911	18951
486.987	25848
487.063	29072
487.139	32033
487.215	25125
487.292	17500
487.368	16869
487.444	18551
487.520	22624
487.596	26587
487.672	54436
487.748	131087
487.824	155536
487.900	37107
487.976	18549
488.052	17263
488.128	18504
488.204	14406
488.280	14123
488.356	16797
488.432	20450
488.508	23216
488.584	14677
488.660	12311
488.736	12618
488.812	13447
488.888	17011
488.964	20537
489.039	32816
489.115	41621
489.191	22316
489.267	12401
489.343	11055
489.418	10296
489.494	12281
489.570	9928
489.646	12700
489.722	11116
489.797	10739
489.873	13942
489.949	18914
490.024	15746
490.100	9522
490.176	10116
490.251	11460
490.327	13492
490.403	9396
490.478	10263
490.554	8664
490.629	10340
490.705	7845
490.781	9633
490.856	7671
490.932	10468
491.007	9940
491.083	9763
491.158	8544
491.234	11980
491.309	13594
491.385	13280
491.460	7517
491.536	8495
491.611	8100
491.686	10162
491.762	11432
491.837	20507
491.913	28218
491.988	39503
492.063	39584
492.139	11162
492.214	9168
492.289	7553
492.365	6586
492.440	9010
492.515	6751
492.590	7950
492.666	5609
492.741	9113
492.816	8684
492.891	6715
492.967	7025
493.042	6653
493.117	6319
493.192	7632
493.267	12664
493.342	29506
493.418	32137
493.493	8168
493.568	5330
493.643	5694
493.718	5977
493.793	7449
493.868	10389
493.943	7074
494.018	6478
494.093	4637
494.168	5246
494.243	4261
494.318	4549
494.393	5629
494.468	4490
494.543	5117
494.618	5624
494.693	4630
494.768	4018
494.842	5288
494.917	4815
494.992	4852
495.067	4181
495.142	4299
495.217	4914
495.292	3810
495.366	4845
495.441	5980
495.516	8215
495.591	13522
495.665	41031
495.740	74943
495.815	18892
495.890	5394
495.964	3582
496.039	7612
496.114	5439
496.188	9573
496.263	7095
496.338	4841
496.412	5049
496.487	6753
496.561	6199
496.636	6759
496.710	5839
496.785	6095
496.860	6022
496.934	5180
497.009	5284
497.083	5939
497.158	5541
497.232	6924
497.307	7511
497.381	7123
497.455	8140
497.530	10140
497.604	7641
497.679	8665
497.753	12721
497.827	16742
497.902	15251
497.976	19393
498.050	39514
498.125	104103
498.199	89480
498.273	26149
498.348	20896
498.422	15971
498.496	13159
498.570	11672
498.645	7945
498.719	7968
498.793	8399
498.867	11561
498.941	16406
499.016	46247
499.090	93826
499.164	27872
499.238	5886
499.312	6352
499.386	6739
499.460	6118
499.534	4610
499.609	7085
499.683	7676
499.757	9843
499.831	22085
499.905	65274
499.979	50781
500.053	8480
500.127	10670
500.201	7309
500.275	5608
500.349	5526
500.422	5675
500.496	10211
500.570	21202
500.644	41191
500.718	59785
500.792	11833
500.866	5097
500.940	6429
501.013	6627
501.087	6429
501.161	10760
501.235	11263
501.309	25286
501.382	56518
501.456	43656
501.530	11813
501.603	16848
501.677	7284
501.751	2942
501.825	6851
501.898	9890
501.972	21207
502.046	11602
502.119	5222
502.193	12936
502.266	23211
502.340	10806
502.413	12224
502.487	19132
502.561	10381
502.634	4650
502.708	5843
502.781	2753
502.855	4047
502.928	2029
503.002	3701
503.075	2239
503.149	3086
503.222	2876
503.295	3187
503.369	3905
503.442	6622
503.516	18404
503.589	39716
503.662	21971
503.736	10305
503.809	20527
503.882	18308
503.956	29008
504.029	36787
504.102	68697
504.175	76750
504.249	18110
504.322	8290
504.395	5406
504.468	3782
504.542	3566
504.615	2981
504.688	3512
504.761	2792
504.834	4977
504.907	6633
504.980	6897
505.053	3715
505.127	2657
505.200	6934
505.273	3983
505.346	3022
505.419	1811
505.492	3862
505.565	1681
505.638	2645
505.711	925
505.784	1139
505.857	655
505.930	3858
506.003	1232
506.076	4563
506.149	2902
506.221	2326
506.294	5138
506.367	11717
506.440	30350
506.513	14678
506.586	3829
506.659	2683
506.731	1298
506.804	3414
506.877	3118
506.950	3790
507.022	3569
507.095	1768
507.168	2905
507.241	3395
507.313	2319
507.386	2729
507.459	4114
507.531	2512
507.604	1445
507.677	3119
507.749	754
507.822	5867
507.894	12255
507.967	15100
508.040	8310
508.112	8217
508.185	6602
508.257	5274
508.330	8506
508.402	5038
508.475	5717
508.547	6333
508.620	5613
508.692	7525
508.765	5247
508.837	4423
508.909	4993
508.982	4145
509.054	5031
509.127	4700
509.199	4138
509.271	3374
509.344	3664
509.416	3593
509.488	4362
509.560	5335
509.633	3837
509.705	5415
509.777	4676
509.849	6135
509.922	3175
509.994	4309
510.066	5081
510.138	6540
510.210	16437
510.283	13357
510.355	9566
510.427	9485
510.499	7138
510.571	6875
510.643	6794
510.715	10354
510.787	5497
510.859	8416
510.931	7882
511.003	9542
511.076	7824
511.148	5594
511.219	5024
511.291	8168
511.363	8753
511.435	7153
511.507	4168
511.579	6678
511.651	6210
511.723	6524
511.795	5952
511.867	6139
511.939	6486
512.010	8093
512.082	7539
512.154	5346
512.226	6885
512.298	13173
512.369	15810
512.441	11179
512.513	10694
512.585	7390
512.656	9484
512.728	8225
512.800	6514
512.871	8025
512.943	7079
513.015	5848
513.086	7660
513.158	7716
513.230	6315
513.301	10887
513.373	9628
513.444	7646
513.516	5656
513.588	6420
513.659	7378
513.731	8033
513.802	6218
513.874	14641
513.945	16246
514.016	7137
514.088	6453
514.159	6279
514.231	9485
514.302	13158
514.374	10368
514.445	8028
514.516	13384
514.588	9083
514.659	8441
514.730	10236
514.802	10487
514.873	9340
514.944	10488
515.016	9112
515.087	8065
515.158	8945
515.229	11662
515.301	9498
515.372	12132
515.443	5834
515.514	6481
515.585	6256
515.656	6306
515.728	6164
515.799	5286
515.870	7326
515.941	6251
516.012	7442
516.083	10838
516.154	10140
516.225	11065
516.296	11565
516.367	7950
516.438	9418
516.509	11740
516.580	19318
516.651	56125
516.722	130358
516.793	37130
516.864	12338
516.935	11633
517.006	15695
517.077	23641
517.148	58261
517.219	190690
517.289	177880
517.360	40678
517.431	15949
517.502	7591
517.573	8563
517.643	8262
517.714	10486
517.785	10077
517.856	8978
517.926	11630
517.997	13210
518.068	13789
518.138	22661
518.209	40533
518.280	154887
518.350	373256
518.421	76232
518.492	13973
518.562	12942
518.633	15065
518.703	19665
518.774	47347
518.845	118540
518.915	81789
518.986	20458
519.056	14379
519.127	19782
519.197	24539
519.268	38594
519.338	22504
519.408	9737
519.479	10578
519.549	7374
519.620	7669
519.690	6668
519.760	5241
519.831	5509
519.901	4873
519.971	5400
520.042	5322
520.112	6049
520.182	6913
520.253	7869
520.323	5113
520.393	4610
520.463	7912
520.534	2892
520.604	8455
520.674	6244
520.744	4745
520.814	6358
520.885	8450
520.955	15985
521.025	40358
521.095	14497
521.165	5598
521.235	4829
521.305	3107
521.375	6109
521.445	5749
521.515	5462
521.585	8559
521.655	4407
521.725	6689
521.795	5738
521.865	2744
521.935	8172
522.005	5153
522.075	3964
522.145	6107
522.215	4867
522.285	6147
522.355	8086
522.424	12044
522.494	8117
522.564	7596
522.634	17194
522.704	35495
522.774	10206
522.843	4370
522.913	5116
522.983	5484
523.053	3954
523.122	5688
523.192	7775
523.262	21741
523.331	13220
523.401	4523
523.471	3818
523.540	4597
523.610	3041
523.680	3959
523.749	4443
523.819	5309
523.888	4006
523.958	3537
524.027	3379
524.097	3696
524.166	4407
524.236	3410
524.305	5187
524.375	3002
524.444	2780
524.514	5166
524.583	4195
524.653	2930
524.722	5544
524.791	2097
524.861	5201
524.930	3188
524.999	3526
525.069	5969
525.138	4471
525.207	4335
525.277	4819
525.346	4044
525.415	4986
525.484	5078
525.554	6099
525.623	5776
525.692	7943
525.761	6577
525.830	8444
525.900	11711
525.969	20889
526.038	37759
526.107	95132
526.176	224814
526.245	134545
526.314	47986
526.383	126934
526.452	142132
526.522	279770
526.591	173480
526.660	29640
526.729	18579
526.797	29447
526.867	68803
526.935	235614
527.004	513887
527.073	188984
527.142	13792
527.211	8102
527.280	6882
527.349	6591
527.418	2318
527.487	5007
527.555	3259
527.624	3398
527.693	1969
527.762	4407
527.831	1878
527.899	4367
527.968	3235
528.037	945
528.106	4044
528.174	6263
528.243	5125
528.312	7616
528.380	6863
528.449	3144
528.518	3352
528.586	532
528.655	2730
528.723	2208
528.792	2328
528.861	1200
528.929	1584
528.998	3506
529.066	2460
529.135	3187
529.203	1612
529.272	2697
529.340	3518
529.409	5053
529.477	2186
529.545	2810
529.614	4917
529.682	3111
529.751	3896
529.819	7283
529.887	3238
529.956	3324
530.024	4106
530.092	2548
530.161	4772
530.229	5427
530.297	2688
530.365	4541
530.434	2926
530.502	2005
530.570	3178
530.638	1754
530.707	3188
530.775	3692
530.843	2595
530.911	2626
530.979	3299
531.047	3119
531.115	3150
531.183	3658
531.252	3090
531.320	2987
531.388	2347
531.456	4257
531.524	783
531.592	4063
531.660	5608
531.728	2000
531.796	3276
531.864	3650
531.932	2985
532.000	2266
532.067	3397
532.135	4219
532.203	5935
532.271	4025
532.339	8841
532.407	16031
532.475	7311
532.542	5877
532.610	6324
532.678	10816
532.746	40293
532.814	64018
532.881	11409
532.949	4550
533.017	3896
533.084	2943
533.152	3275
533.220	4174
533.287	2939
533.355	3791
533.423	3343
533.490	3219
533.558	3655
533.625	3871
533.693	4121
533.761	4369
533.828	4812
533.896	4011
533.963	8020
534.031	8641
534.098	12113
534.166	5390
534.233	4026
534.300	5715
534.368	5251
534.435	3822
534.503	5116
534.570	6585
534.637	5583
534.705	8117
534.772	12306
534.840	29029
534.907	117513
534.974	93707
535.041	8514
535.109	5857
535.176	4050
535.243	4663
535.310	4649
535.378	3657
535.445	4239
535.512	5218
535.579	4384
535.646	4251
535.714	4609
535.781	5971
535.848	5321
535.915	6309
535.982	3803
536.049	4477
536.116	5959
536.183	4530
536.250	4939
536.317	5001
536.384	5504
536.451	6844
536.518	7011
536.585	3933
536.652	7713
536.719	8756
536.786	4354
536.853	6080
536.920	9538
536.987	11760
537.053	11767
537.120	41899
537.187	22889
537.254	4744
537.321	4300
537.388	6481
537.454	3040
537.521	4491
537.588	4138
537.654	7148
537.721	6922
537.788	7553
537.855	4914
537.921	6044
537.988	4424
538.055	6904
538.121	4395
538.188	6314
538.254	7075
538.321	11886
538.388	7352
538.454	5667
538.521	5321
538.587	5532
538.654	4317
538.720	4354
538.787	5049
538.853	5707
538.920	5518
538.986	6366
539.053	5021
539.119	5439
539.185	5945
539.252	8030
539.318	7522
539.385	9155
539.451	6895
539.517	8623
539.583	8527
539.650	15743
539.716	24157
539.782	7440
539.849	4812
539.915	6139
539.981	5523
540.047	6273
540.114	4902
540.180	7004
540.246	5323
540.312	7501
540.378	12118
540.444	11994
540.510	15934
540.576	29232
540.643	7491
540.709	3490
540.775	5085
540.841	5463
540.907	7863
540.973	9504
541.039	9444
541.105	9053
541.171	5654
541.237	6552
541.303	6073
541.369	9197
541.435	7325
541.500	10828
541.566	5597
541.632	5398
541.698	4434
541.764	6654
541.830	5522
541.896	4620
541.961	5629
542.027	5117
542.093	5951
542.159	6279
542.224	6323
542.290	10395
542.356	12321
542.421	10846
542.487	6859
542.553	6201
542.618	5714
542.684	5503
542.750	5100
542.815	8570
542.881	10215
542.947	29432
543.012	15542
543.078	5272
543.143	4446
543.209	7040
543.274	5644
543.340	7499
543.405	14019
543.471	14656
543.536	5725
543.602	6349
543.667	4654
543.732	6779
543.798	4492
543.863	7570
543.928	5372
543.994	4979
544.059	5878
544.124	6569
544.190	5645
544.255	6773
544.320	6496
544.386	5989
544.451	8312
544.516	8524
544.581	9494
544.646	22417
544.712	23228
544.777	8302
544.842	6287
544.907	6945
544.972	7006
545.037	6263
545.102	7602
545.168	6827
545.233	8093
545.298	9211
545.363	8299
545.428	11012
545.493	16290
545.558	22270
545.623	9522
545.688	7844
545.753	8157
545.818	9149
545.883	8845
545.947	8367
546.012	8409
546.077	8216
546.142	9856
546.207	9671
546.272	10550
546.337	11040
546.401	9948
546.466	11883
546.531	10019
546.596	12688
546.661	11554
546.725	11562
546.790	11612
546.855	13080
546.919	13307
546.984	16424
547.049	16102
547.113	19843
547.178	19735
547.243	23534
547.307	25525
547.372	29383
547.436	28068
547.501	29734
547.565	32013
547.630	29667
547.695	28658
547.759	29409
547.823	28799
547.888	29200
547.952	29811
548.017	32443
548.081	34563
548.146	33690
548.210	33758
548.274	34383
548.339	32241
548.403	31471
548.468	27460
548.532	28347
548.596	29535
548.660	29073
548.725	33678
548.789	35673
548.853	35400
548.917	32872
548.982	31756
549.046	29484
549.110	24786
549.174	27075
549.238	30626
549.303	32995
549.367	34848
549.431	32911
549.495	29379
549.559	31202
549.623	37633
549.687	40073
549.751	39741
549.815	46796
549.879	46529
549.943	44011
550.007	45866
550.071	45970
550.135	42553
550.199	38809
550.263	37477
550.327	37291
550.391	39053
550.455	42469
550.519	43808
550.582	48644
550.646	54246
550.710	54618
550.774	52439
550.838	52796
550.901	54578
550.965	59289
551.029	60130
551.093	66085
551.156	72977
551.220	91074
551.284	100458
551.347	70381
551.411	64752
551.475	62180
551.538	55772
551.602	51226
551.666	49619
551.729	45373
551.793	45834
551.856	45233
551.920	43191
551.983	43512
552.047	43693
552.110	44201
552.174	43903
552.237	45289
552.301	41512
552.364	39423
552.428	39148
552.491	40604
552.554	41600
552.618	40549
552.681	41301
552.745	40703
552.808	47048
552.871	47719
552.934	43153
552.998	40683
553.061	39469
553.124	37924
553.187	37546
553.251	40299
553.314	40078
553.377	41885
553.440	46792
553.503	60469
553.567	62307
553.630	43965
553.693	41607
553.756	42745
553.819	41061
553.882	40003
553.945	39003
554.008	39114
554.071	39177
554.134	40172
554.197	37659
554.260	36501
554.323	39290
554.386	39072
554.449	40838
554.512	40496
554.575	37027
554.638	38141
554.701	36646
554.764	36562
554.827	35317
554.889	34268
554.952	30946
555.015	32202
555.078	32260
555.141	33091
555.203	32892
555.266	31925
555.329	30974
555.391	29350
555.454	30144
555.517	29548
555.580	27705
555.642	26519
555.705	26504
555.768	27524
555.830	25641
555.893	24879
555.955	24517
556.018	23066
556.080	22920
556.143	24684
556.206	24036
556.268	24003
556.330	23326
556.393	22298
556.455	21398
556.518	24374
556.580	22174
556.643	19498
556.705	20557
556.767	18551
556.830	19093
556.892	19901
556.955	21783
557.017	20060
557.079	18314
557.142	18630
557.204	18892
557.266	24172
557.328	19177
557.391	15852
557.453	14579
557.515	16308
557.577	16558
557.639	17232
557.701	15788
557.764	16045
557.826	16037
557.888	17951
557.950	19940
558.012	24113
558.074	34969
558.136	83412
558.198	149981
558.260	38451
558.322	18956
558.384	19828
558.446	21873
558.508	26362
558.570	34064
558.632	49495
558.694	73267
558.756	129885
558.818	390151
558.880	653262
558.942	161100
559.003	157538
559.065	53600
559.127	26976
559.189	31935
559.251	42842
559.312	73035
559.374	190877
559.436	478114
559.498	143317
559.559	27874
559.621	30259
559.683	44566
559.744	81830
559.806	263090
559.868	265361
559.929	39412
559.991	35309
560.052	66943
560.114	162948
560.176	78252
560.237	103144
560.299	119181
560.360	19224
560.422	9236
560.483	10477
560.545	9195
560.606	9401
560.667	8193
560.729	7305
560.790	7694
560.852	7981
560.913	7721
560.974	7348
561.036	6811
561.097	7465
561.158	7811
561.220	7890
561.281	6808
561.342	7858
561.403	8890
561.465	10163
561.526	19697
561.587	18914
561.648	6997
561.709	6403
561.771	6880
561.832	7599
561.893	6695
561.954	6948
562.015	6482
562.076	6523
562.137	5821
562.198	6525
562.259	6018
562.320	6207
562.381	7610
562.442	8969
562.503	7035
562.564	5502
562.625	5583
562.686	6102
562.747	6284
562.808	7142
562.869	5783
562.930	7041
562.991	6166
563.051	6635
563.112	6226
563.173	6557
563.234	6040
563.294	6867
563.355	4601
563.416	5953
563.477	4611
563.537	5960
563.598	6449
563.659	6051
563.720	4737
563.780	6588
563.841	6232
563.901	6967
563.962	4974
564.023	6132
564.083	6460
564.144	6508
564.204	5527
564.265	6612
564.325	6180
564.386	9861
564.446	8361
564.507	6010
564.567	4745
564.628	5566
564.688	4890
564.749	5554
564.809	5978
564.869	6604
564.930	5378
564.990	7083
565.050	4065
565.111	5934
565.171	4829
565.231	5633
565.292	6062
565.352	4841
565.412	5849
565.472	5675
565.532	6553
565.593	5919
565.653	5654
565.713	5415
565.773	5321
565.833	6495
565.893	7548
565.953	5078
566.013	4344
566.074	6226
566.134	7182
566.194	9415
566.254	8906
566.314	7148
566.374	5033
566.434	5941
566.494	6396
566.554	6347
566.614	5926
566.673	7537
566.733	6952
566.793	6268
566.853	7150
566.913	7965
566.973	6719
567.033	8457
567.092	7162
567.152	8644
567.212	8071
567.272	7582
567.331	7179
567.391	8319
567.451	8478
567.511	10786
567.570	9122
567.630	8451
567.690	6440
567.749	7522
567.809	7302
567.868	10839
567.928	9603
567.988	12384
568.047	14145
568.107	18339
568.166	27883
568.226	46872
568.285	59745
568.345	40184
568.404	28223
568.464	23226
568.523	22170
568.582	24021
568.642	30113
568.701	41045
568.761	68688
568.820	112224
568.879	87047
568.939	52906
568.998	33532
569.057	24017
569.116	18793
569.176	15348
569.235	11953
569.294	11521
569.353	9724
569.413	9725
569.472	8425
569.531	9572
569.590	7266
569.649	7460
569.708	6847
569.767	7700
569.827	7228
569.886	7327
569.945	6659
570.004	6940
570.063	6037
570.122	6512
570.181	7318
570.240	7239
570.299	7446
570.358	6805
570.417	5455
570.475	6125
570.534	6170
570.593	6751
570.652	6660
570.711	6889
570.770	5896
570.829	7461
570.887	6279
570.946	7362
571.005	4705
571.064	6001
571.122	6382
571.181	6329
571.240	4953
571.299	5415
571.357	5506
571.416	5580
571.475	5942
571.533	6671
571.592	6176
571.650	6306
571.709	6112
571.768	6468
571.826	6305
571.885	5775
571.943	4855
572.002	4974
572.060	5311
572.119	5864
572.177	4880
572.236	4715
572.294	4850
572.352	5653
572.411	4984
572.469	5079
572.528	4422
572.586	5044
572.644	6253
572.703	6658
572.761	4941
572.819	5106
572.877	4164
572.936	4933
572.994	4261
573.052	4309
573.110	5039
573.169	4710
573.227	4505
573.285	4740
573.343	4474
573.401	4560
573.459	4034
573.517	4747
573.576	4350
573.634	4890
573.692	4953
573.750	4486
573.808	4473
573.866	4563
573.924	5112
573.982	5317
574.040	3833
574.098	4672
574.155	4262
574.213	4937
574.271	5107
574.329	5420
574.387	4272
574.445	4050
574.503	4786
574.560	3406
574.618	3230
574.676	4286
574.734	3114
574.792	5542
574.849	2884
574.907	3645
574.965	3558
575.022	2999
575.080	3075
575.138	4129
575.195	4948
575.253	4101
575.311	4094
575.368	3747
575.426	2631
575.483	3849
575.541	4053
575.598	3735
575.656	3459
575.713	3712
575.771	3688
575.828	4149
575.886	4030
575.943	4917
576.001	2954
576.058	4151
576.115	3624
576.173	5090
576.230	5496
576.287	5792
576.345	4650
576.402	4586
576.459	3601
576.517	3719
576.574	3727
576.631	4510
576.688	3068
576.746	4188
576.803	3484
576.860	3871
576.917	3842
576.974	3884
577.031	3735
577.089	4207
577.146	3480
577.203	4002
577.260	3735
577.317	4210
577.374	4351
577.431	3581
577.488	3675
577.545	3663
577.602	3554
577.659	3403
577.716	3741
577.773	3400
577.830	2669
577.886	4130
577.943	3307
578.000	3692
578.057	3592
578.114	3708
578.171	4060
578.227	3683
578.284	3184
578.341	4328
578.398	2982
578.454	4948
578.511	3370
578.568	4645
578.625	3203
578.681	3647
578.738	3613
578.794	2817
578.851	4001
578.908	4197
578.964	3088
579.021	3799
579.077	3564
579.134	3548
579.190	3173
579.247	3746
579.303	3426
579.360	3106
579.416	3524
579.473	3564
579.529	3470
579.586	4333
579.642	3551
579.698	3405
579.755	3150
579.811	4122
579.867	3683
579.924	3090
579.980	3562
580.036	4673
580.093	3810
580.149	4591
580.205	4111
580.261	4435
580.317	3613
580.374	5089
580.430	5366
580.486	4941
580.542	3466
580.598	4736
580.619	4516
580.654	4124
580.692	4179
580.710	4201
580.765	3731
580.767	3707
580.823	4716
580.838	4675
580.879	4531
580.911	4605
580.935	4646
580.984	4359
580.991	4318
581.047	5631
581.057	5416
581.103	4371
581.130	4750
581.159	5152
581.203	5062
581.215	5018
581.270	6140
581.276	5996
581.326	4568
581.349	4813
581.382	5119
581.422	5064
581.438	5034
581.494	5099
581.494	5107
581.550	4858
581.567	5140
581.606	5684
581.640	4952
581.661	4491
581.713	6000
581.717	6117
581.773	5485
581.786	5731
581.829	6391
581.859	6018
581.885	5733
581.932	6846
581.940	7031
581.996	6707
582.004	6616
582.052	6023
582.077	6158
582.107	6312
582.150	6449
582.163	6510
582.219	6266
582.223	6309
582.274	6532
582.296	6506
582.330	6570
582.368	7029
582.386	7165
582.441	6907
582.441	6899
582.497	7030
582.514	7019
582.552	7121
582.587	7644
582.608	7860
582.659	7535
582.663	7508
582.719	7927
582.732	7840
582.774	7717
582.805	7804
582.830	7790
582.877	7741
582.885	7726
582.941	7896
582.950	8046
582.996	8766
583.023	8727
583.052	8869
583.095	8590
583.107	8452
583.162	10045
583.168	9995
583.218	9357
583.240	8990
583.273	8374
583.313	8547
583.328	8812
583.384	9661
583.385	9662
583.439	8951
583.458	9055
583.494	9388
583.531	9025
583.549	8935
583.603	9701
583.605	9718
583.660	9668
583.676	9694
583.715	10004
583.748	10208
583.770	10499
583.820	10989
583.825	10963
583.881	10607
583.893	10547
583.936	10736
583.965	10670
583.991	10525
584.038	11319
584.046	11527
584.101	11507
584.110	11437
584.156	10688
584.183	10876
584.211	11180
584.255	11829
584.266	12077
584.321	11433
584.328	11570
584.376	12591
584.400	12384
584.431	12276
584.472	12409
584.486	12310
584.541	12485
584.545	12483
584.596	13102
584.617	13094
584.651	13800
584.689	14986
584.706	15107
584.761	14774
584.762	14759
584.816	15927
584.834	16222
584.871	16669
584.906	16379
584.926	16388
584.978	15883
584.980	15902
585.035	17924
585.051	18165
585.090	18836
585.123	19931
585.145	20697
585.195	20851
585.200	20962
585.254	23951
585.267	24628
585.309	27061
585.340	28829
585.364	30282
585.412	34272
585.419	34861
585.473	40738
585.484	42720
585.528	54835
585.556	64109
585.583	84628
585.628	130455
585.637	148866
585.692	308954
585.700	329543
585.747	380429
585.772	324572
585.801	191020
585.845	62464
585.856	52367
585.910	33770
585.917	31569
585.965	28274
585.989	27565
586.019	26813
586.061	24893
586.074	24800
586.128	26128
586.133	26092
586.183	27064
586.205	27517
586.237	28090
586.277	28528
586.292	28448
586.346	28240
586.349	28148
586.401	28366
586.421	28559
586.455	30327
586.493	32245
586.509	35906
586.564	48187
586.565	48372
586.618	69395
586.637	75058
586.672	59796
586.709	44410
586.727	42423
586.781	36774
586.781	36853
586.835	32958
586.853	32118
586.889	31747
586.925	30838
586.944	31212
586.996	33021
586.998	33134
587.052	33986
587.068	33946
587.106	34624
587.140	35091
587.161	35426
587.212	36431
587.215	36620
587.269	38128
587.284	38559
587.323	39568
587.356	39824
587.377	40482
587.427	42833
587.431	43082
587.485	43400
587.499	43670
587.539	45859
587.571	46989
587.593	47884
587.643	50179
587.648	50615
587.702	53600
587.715	54260
587.755	56416
587.786	57665
587.810	58883
587.858	61285
587.864	62008
587.917	67487
587.930	68588
587.971	74591
588.001	78592
588.025	81069
588.073	86386
588.079	87454
588.133	94321
588.145	95860
588.187	105056
588.217	110821
588.241	118314
588.288	133541
588.295	136114
588.348	155310
588.360	159172
588.402	178890
588.431	192497
588.456	207978
588.503	239184
588.510	245657
588.564	296526
588.575	307809
588.617	370863
588.646	415876
588.671	480980
588.718	613342
588.725	651099
588.778	954165
588.789	1019403
588.832	1469358
588.861	1793326
588.886	2040461
588.932	2448248
588.939	2442342
588.993	2230170
589.004	2188604
589.047	2079272
589.075	1936531
589.100	1606677
589.147	1020544
589.154	983531
589.207	713450
589.218	659749
589.261	609794
589.290	579757
589.314	611340
589.361	679375
589.368	715294
589.421	1015551
589.433	1083223
589.475	1568149
589.504	1916307
589.528	2061834
589.576	2236625
589.582	2207511
589.635	1849077
589.647	1754766
589.689	1175847
589.718	788120
589.742	653350
589.790	399836
589.795	391045
589.849	304864
589.861	284756
589.902	256217
589.932	233733
589.955	211151
590.004	162731
590.009	161340
590.062	140759
590.075	135479
590.115	126138
590.146	117844
590.168	114538
590.218	106304
590.222	106297
590.275	101459
590.289	99902
590.328	96470
590.360	92966
590.381	91023
590.431	85371
590.435	85529
590.488	82852
590.503	81926
590.541	81058
590.574	79485
590.594	78147
590.645	73825
590.647	74099
590.700	74089
590.716	73724
590.753	71794
590.787	69485
590.806	69590
590.859	69082
590.859	69340
590.912	68260
590.930	67754
590.965	67414
591.001	66388
591.018	66439
591.071	65962
591.072	65694
591.124	65237
591.143	64754
591.177	65174
591.214	65052
591.230	65582
591.283	66703
591.285	66467
591.336	66626
591.356	66378
591.389	66387
591.427	65538
591.442	65060
591.495	62600
591.498	62145
591.547	62644
591.569	62561
591.600	62127
591.640	60835
591.653	61501
591.706	63287
591.711	63210
591.759	67243
591.782	68867
591.811	72180
591.853	76226
591.864	74593
591.917	64705
591.924	62985
591.969	63614
591.995	63559
592.022	64730
592.066	65870
592.075	67384
592.127	75019
592.137	76090
592.180	84468
592.208	89335
592.233	82820
592.279	69365
592.285	69262
592.338	65877
592.350	64815
592.390	65092
592.421	64822
592.443	65464
592.491	65970
592.495	66285
592.548	66686
592.562	66508
592.600	66398
592.633	65766
592.653	65650
592.704	64242
592.705	64641
592.775	65979
592.846	67074
592.916	65809
592.987	69193
593.058	67783
593.128	67131
593.199	65738
593.270	64743
593.341	65892
593.411	65556
593.482	67429
593.553	67009
593.623	65847
593.694	70523
593.764	74340
593.835	68064
593.906	66579
593.976	68982
594.047	72238
594.117	85231
594.188	85089
594.258	69910
594.329	68340
594.399	71567
594.470	69969
594.540	72155
594.611	72696
594.681	72781
594.751	73552
594.822	77575
594.892	78832
594.963	82055
595.033	81313
595.103	83992
595.174	88722
595.244	114285
595.314	136742
595.384	89708
595.455	86009
595.525	90019
595.595	90319
595.665	91459
595.736	89762
595.806	91411
595.876	89280
595.946	90299
596.016	90014
596.087	93918
596.157	94308
596.227	93919
596.297	98264
596.367	103614
596.437	111842
596.507	133122
596.577	151799
596.647	112751
596.717	110226
596.787	111569
596.857	111417
596.927	112713
596.997	111769
597.067	113764
597.137	117010
597.207	118393
597.277	117896
597.347	114917
597.417	110364
597.487	109660
597.557	114764
597.626	116913
597.696	120822
597.766	133900
597.836	151873
597.906	115115
597.975	104738
598.045	105953
598.115	108160
598.185	114394
598.254	124121
598.324	132721
598.394	132313
598.464	130890
598.533	128141
598.603	120620
598.672	119002
598.742	121403
598.812	121327
598.881	124502
598.951	121168
599.020	122151
599.090	124774
599.159	128034
599.229	121921
599.299	119445
599.368	123695
599.437	122172
599.507	116235
599.576	116109
599.646	113476
599.715	111819
599.785	110561
599.854	114812
599.924	118704
599.993	114096
600.062	109609
600.132	112666
600.201	117549
600.270	132325
600.340	136772
600.409	133363
600.478	133768
600.547	135631
600.617	128031
600.686	108275
600.755	101201
600.824	99176
600.894	96648
600.963	95312
601.032	95009
601.101	93803
601.170	89543
601.239	91105
601.308	92101
601.378	91269
601.447	89216
601.516	88948
601.585	91596
601.654	97123
601.723	94448
601.792	95587
601.861	97397
601.930	103009
601.999	103388
602.068	100212
602.137	103561
602.206	103460
602.275	102147
602.343	108442
602.412	107424
602.481	104174
602.550	103130
602.619	105300
602.688	106802
602.756	107361
602.825	107103
602.894	111323
602.963	110048
603.032	113602
603.100	111468
603.169	111894
603.238	114011
603.307	112798
603.375	111847
603.444	115574
603.513	114068
603.581	116682
603.650	119697
603.719	113861
603.787	114846
603.856	118002
603.924	120599
603.993	125798
604.061	125623
604.130	133275
604.198	134713
604.267	135916
604.335	136528
604.404	139992
604.472	139654
604.541	142538
604.609	142072
604.678	143965
604.746	143170
604.815	149609
604.883	148902
604.951	149264
605.020	151625
605.088	153392
605.156	155256
605.225	156928
605.293	154221
605.361	156578
605.429	156871
605.498	159783
605.566	162758
605.634	168995
605.702	175424
605.771	180544
605.839	179164
605.907	175654
605.975	171027
606.043	168179
606.111	166309
606.180	169808
606.248	167365
606.316	167122
606.384	167850
606.452	175989
606.520	173109
606.588	169477
606.656	166507
606.724	165130
606.792	155428
606.860	141913
606.928	129476
606.996	124909
607.064	121553
607.132	127427
607.200	133890
607.267	138799
607.335	138812
607.403	143435
607.471	138066
607.539	135438
607.607	135542
607.674	120946
607.742	122457
607.810	122820
607.878	121059
607.946	121561
608.013	127614
608.081	131632
608.149	130243
608.216	136002
608.284	138550
608.352	139587
608.419	142121
608.487	159188
608.555	138719
608.622	136644
608.690	142306
608.757	157535
608.825	160470
608.893	158012
608.960	152630
609.028	153653
609.095	170574
609.163	145809
609.230	131742
609.298	120325
609.365	121316
609.432	131097
609.500	141807
609.567	161780
609.635	182177
609.702	191821
609.769	183731
609.837	153005
609.904	128684
609.971	129541
610.039	146809
610.106	194062
610.173	371663
610.241	854383
610.308	442113
610.375	165441
610.442	138152
610.509	130382
610.577	130331
610.644	132514
610.711	135558
610.778	141534
610.845	145934
610.912	153766
610.980	160277
611.047	165343
611.114	158705
611.181	150145
611.248	149434
611.315	158993
611.382	160826
611.449	167707
611.516	170743
611.583	168017
611.650	169363
611.717	171561
611.784	175090
611.851	183193
611.918	196704
611.984	232396
612.051	339435
612.118	706199
612.185	1733963
612.252	991326
612.319	262159
612.386	219157
612.452	202262
612.519	199862
612.586	218012
612.653	200269
612.719	196426
612.786	188623
612.853	173592
612.919	171846
612.986	172793
613.053	163618
613.120	153525
613.186	149917
613.253	152666
613.319	150661
613.386	152980
613.453	154449
613.519	157515
613.586	160346
613.652	173098
613.719	164932
613.785	163091
613.852	158459
613.918	154065
613.985	157956
614.051	168610
614.118	186516
614.184	176679
614.250	155812
614.317	156024
614.383	154815
614.449	156457
614.516	156707
614.582	159984
614.648	156453
614.715	152485
614.781	152739
614.847	154272
614.914	155082
614.980	150395
615.046	148459
615.112	152034
615.179	153234
615.245	156292
615.311	163400
615.377	185118
615.443	186586
615.509	165436
615.575	164456
615.642	162444
615.708	170363
615.774	177641
615.840	194963
615.906	219166
615.972	277912
616.038	456034
616.104	902713
616.170	2056075
616.236	1613514
616.302	375484
616.368	286566
616.434	213203
616.500	200558
616.565	219535
616.631	272026
616.697	216670
616.763	226387
616.829	341117
616.895	604315
616.961	541465
617.026	226375
617.092	172087
617.158	167560
617.224	161678
617.289	153392
617.355	146768
617.421	151894
617.487	147016
617.552	139680
617.618	136260
617.684	138613
617.749	139878
617.815	133286
617.880	129944
617.946	130641
618.012	131594
618.077	134626
618.143	129195
618.208	130145
618.274	141336
618.339	144284
618.405	119127
618.470	122809
618.536	123507
618.601	128752
618.667	120144
618.732	111886
618.798	108403
618.863	109255
618.928	107747
618.994	114003
619.059	115063
619.124	123618
619.190	113873
619.255	109397
619.320	109684
619.386	110136
619.451	105591
619.516	105607
619.581	105199
619.647	109462
619.712	108779
619.777	104536
619.842	106881
619.907	108712
619.972	109328
620.038	108900
620.103	106340
620.168	104634
620.233	106416
620.298	106540
620.363	106766
620.428	108733
620.493	112053
620.558	111738
620.623	113251
620.688	112863
620.753	111949
620.818	112002
620.883	113405
620.948	113046
621.013	112240
621.078	112780
621.143	113571
621.207	116872
621.272	115254
621.337	115742
621.402	121077
621.467	138772
621.532	140271
621.596	123447
621.661	115355
621.726	113391
621.791	113005
621.855	115142
621.920	115956
621.985	124189
622.049	131877
622.114	128341
622.179	119658
622.243	128778
622.308	127649
622.373	130976
622.437	127303
622.502	121832
622.566	122594
622.631	121671
622.695	123049
622.760	122164
622.824	119338
622.889	123649
622.953	123430
623.018	140235
623.082	136894
623.147	128223
623.211	122069
623.276	122730
623.340	115264
623.404	113983
623.469	112740
623.533	116070
623.597	112858
623.662	113544
623.726	106337
623.790	102077
623.854	100932
623.919	104106
623.983	103677
624.047	104689
624.111	101674
624.176	106059
624.240	109392
624.304	113607
624.368	105251
624.432	106066
624.496	108364
624.560	113254
624.625	115063
624.689	110919
624.753	111646
624.817	108269
624.881	106919
624.945	98087
625.009	97000
625.073	98031
625.137	102676
625.201	111518
625.265	110705
625.329	100196
625.393	105693
625.456	104124
625.520	106529
625.584	113791
625.648	126622
625.712	169692
625.776	316385
625.839	339523
625.903	149788
625.967	103030
626.031	147976
626.095	221050
626.158	113283
626.222	83301
626.286	78225
626.349	76326
626.413	71818
626.477	76179
626.540	71242
626.604	73295
626.668	71935
626.731	70349
626.795	75502
626.858	76724
626.922	71588
626.986	69929
627.049	68845
627.113	71776
627.176	69845
627.240	68186
627.303	69069
627.366	68470
627.430	68884
627.493	69883
627.557	72030
627.620	71660
627.684	72454
627.747	72668
627.810	68762
627.874	65381
627.937	62501
628.000	67168
628.064	64171
628.127	58086
628.190	58302
628.253	59022
628.317	56314
628.380	54916
628.443	52540
628.506	54769
628.569	52055
628.632	50480
628.696	48950
628.759	50532
628.822	48153
628.885	48215
628.948	47527
629.011	48219
629.074	47648
629.137	45459
629.200	46145
629.263	49840
629.326	42790
629.389	44757
629.452	47237
629.515	48038
629.578	44811
629.641	47468
629.704	45185
629.767	45665
629.830	42103
629.892	44040
629.955	41602
630.018	45383
630.081	43796
630.144	47888
630.207	42542
630.269	47294
630.332	49376
630.395	45233
630.458	39630
630.520	41183
630.583	40595
630.646	40557
630.708	40210
630.771	40761
630.834	41138
630.896	39679
630.959	39427
631.021	40216
631.084	41004
631.146	45025
631.209	48870
631.272	40890
631.334	39224
631.397	39393
631.459	37341
631.522	40423
631.584	42174
631.646	44821
631.709	44997
631.771	50626
631.834	45275
631.896	41274
631.958	37497
632.021	39918
632.083	37660
632.145	40947
632.208	36840
632.270	38956
632.332	35825
632.395	37565
632.457	39226
632.519	37529
632.581	36089
632.643	36123
632.706	37342
632.768	35020
632.830	36210
632.892	35628
632.954	37208
633.016	38783
633.078	34811
633.141	35261
633.203	35891
633.265	36054
633.327	34934
633.389	34246
633.451	38231
633.513	42571
633.575	42749
633.637	40063
633.698	37917
633.760	38554
633.822	36435
633.884	38575
633.946	37403
634.008	39282
634.070	38484
634.132	41962
634.193	43586
634.255	46549
634.317	45787
634.379	45936
634.441	41710
634.502	39452
634.564	36469
634.626	34878
634.687	34118
634.749	33978
634.811	33256
634.873	30888
634.934	32372
634.996	34731
635.057	33111
635.119	32816
635.181	34567
635.242	35251
635.304	31680
635.365	37252
635.427	32800
635.488	33232
635.550	32483
635.611	33822
635.673	31618
635.734	38125
635.796	37228
635.857	40010
635.918	39038
635.980	44363
636.041	43597
636.102	46836
636.164	46025
636.225	44737
636.286	40701
636.348	38614
636.409	35298
636.470	33635
636.531	33029
636.593	38625
636.654	34959
636.715	29762
636.776	29304
636.838	28775
636.899	30506
636.960	29857
637.021	27577
637.082	28733
637.143	28099
637.204	27683
637.265	26636
637.326	27042
637.387	27510
637.448	25941
637.509	28433
637.570	28857
637.631	26854
637.692	25480
637.753	24682
637.814	26081
637.875	24958
637.936	27148
637.997	25233
638.058	26092
638.119	28130
638.179	27047
638.240	25607
638.301	27040
638.362	25359
638.423	26836
638.483	27071
638.544	24657
638.605	26296
638.666	24554
638.726	24916
638.787	26374
638.848	24710
638.908	24486
638.969	24092
639.030	25068
639.090	22632
639.151	23652
639.211	24637
639.272	28769
639.332	35505
639.393	27645
639.453	24845
639.514	26695
639.574	23748
639.635	23247
639.695	23815
639.756	23298
639.816	22956
639.877	26009
639.937	30633
639.997	35682
640.058	21390
640.118	22609
640.178	22805
640.239	21933
640.299	22495
640.359	21677
640.420	22189
640.480	25325
640.540	27130
640.600	25998
640.661	24548
640.721	25837
640.781	29301
640.841	26549
640.901	23778
640.961	23169
641.021	23405
641.082	25143
641.142	27602
641.202	23535
641.262	19198
641.322	21993
641.382	21184
641.442	23249
641.502	21258
641.562	23448
641.622	20801
641.682	22825
641.742	23671
641.802	24285
641.861	23354
641.921	23036
641.981	23210
642.041	23800
642.101	24308
642.161	19680
642.221	20278
642.280	20797
642.340	19623
642.400	20350
642.460	21304
642.519	21195
642.579	19900
642.639	22632
642.698	19274
642.758	23348
642.818	20746
642.877	20791
642.937	22019
642.997	22588
643.056	26538
643.116	20867
643.175	21818
643.235	22112
643.294	21690
643.354	23085
643.414	24209
643.473	28895
643.532	32863
643.592	44522
643.651	68006
643.711	117981
643.770	238758
643.830	586765
643.889	1210557
643.948	254527
644.008	49966
644.067	34383
644.126	27589
644.186	24788
644.245	22474
644.304	20353
644.363	22672
644.423	20303
644.482	21035
644.541	22191
644.600	20288
644.659	27654
644.719	31268
644.778	45794
644.837	72419
644.896	145948
644.955	329546
645.014	100403
645.073	28981
645.132	25130
645.191	21981
645.250	21536
645.309	24596
645.368	23993
645.427	28549
645.486	44371
645.545	68738
645.604	26803
645.663	20193
645.722	20326
645.781	22061
645.840	25398
645.898	30272
645.957	42284
646.016	61978
646.075	113843
646.134	222630
646.192	615339
646.251	855501
646.310	112723
646.369	36328
646.427	31771
646.486	24515
646.545	23058
646.603	20829
646.662	20631
646.721	19780
646.779	18658
646.838	18742
646.896	24601
646.955	28187
647.014	43381
647.072	77727
647.131	211626
647.189	92869
647.248	21156
647.306	18393
647.365	18486
647.423	14531
647.481	17536
647.540	13707
647.598	16358
647.657	14636
647.715	16711
647.773	14767
647.832	17621
647.890	14765
647.948	15177
648.007	16759
648.065	14182
648.123	13908
648.181	15916
648.240	15440
648.298	14734
648.356	15485
648.414	16208
648.472	15705
648.531	15688
648.589	13870
648.647	14772
648.705	14762
648.763	15614
648.821	14998
648.879	14836
648.937	16479
648.995	20109
649.053	23104
649.111	34020
649.169	53017
649.227	92609
649.285	191425
649.343	555420
649.401	235656
649.459	50116
649.516	31375
649.574	23395
649.632	31902
649.690	34937
649.748	28560
649.806	34624
649.863	59831
649.921	148104
649.979	90261
650.037	19531
650.094	14035
650.152	14943
650.210	13112
650.268	14934
650.325	15069
650.383	16068
650.440	12259
650.498	13808
650.556	12234
650.613	12444
650.671	11580
650.728	13644
650.786	14162
650.843	15016
650.901	11287
650.958	12007
651.016	11296
651.073	12775
651.131	10723
651.188	11111
651.246	12446
651.303	11427
651.360	12234
651.418	12031
651.475	11492
651.532	10432
651.590	11555
651.647	10871
651.704	10982
651.762	11612
651.819	10747
651.876	11154
651.933	10451
651.990	11533
652.048	9263
652.105	10583
652.162	10462
652.219	10662
652.276	10219
652.333	10347
652.390	8581
652.448	10512
652.505	9826
652.562	10183
652.619	10080
652.676	12912
652.733	12056
652.790	10295
652.847	7653
652.904	10628
652.961	8791
653.017	10148
653.074	9049
653.131	10115
653.188	8310
653.245	10147
653.302	8884
653.359	9613
653.415	9152
653.472	9544
653.529	9859
653.586	8956
653.642	9590
653.699	9176
653.756	9216
653.813	10127
653.869	9135
653.926	9529
653.983	8650
654.039	9372
654.096	8252
654.152	11315
654.209	8353
654.266	10900
654.322	8762
654.379	11463
654.435	11791
654.492	12689
654.548	15028
654.605	24974
654.661	12986
654.717	10757
654.774	10919
654.830	10599
654.887	10331
654.943	12130
655.000	11723
655.056	10636
655.112	11818
655.168	10728
655.225	10764
655.281	13504
655.337	15992
655.394	27596
655.450	19212
655.506	16997
655.562	29064
655.618	21209
655.675	10354
655.731	10812
655.787	9898
655.843	10950
655.899	8646
655.955	10474
656.011	9682
656.067	8352
656.123	9429
656.179	10444
656.235	10719
656.291	8258
656.347	11669
656.403	10638
656.459	10125
656.515	13301
656.571	11999
656.627	10767
656.683	10361
656.739	10606
656.795	8883
656.850	10100
656.906	11416
656.962	10619
657.018	9616
657.074	10885
657.129	11291
657.185	15211
657.241	25505
657.297	15931
657.352	9040
657.408	10135
657.464	11546
657.519	11254
657.575	8282
657.630	9146
657.686	9374
657.742	9715
657.797	9584
657.853	10205
657.908	10873
657.964	8636
658.019	9549
658.075	10346
658.130	9665
658.186	8757
658.241	8535
658.297	8814
658.352	8953
658.407	10032
658.463	7809
658.518	10317
658.573	8896
658.629	8963
658.684	8218
658.739	9043
658.795	7410
658.850	9373
658.905	8831
658.960	9586
659.016	7879
659.071	9234
659.126	9439
659.181	9997
659.236	12129
659.291	13434
659.346	9852
659.401	11555
659.457	8940
659.512	9936
659.567	10697
659.622	9388
659.677	8904
659.732	8625
659.787	9443
659.842	11823
659.897	15044
659.952	9694
660.007	8188
660.061	9374
660.116	8511
660.171	8259
660.226	8783
660.281	9764
660.336	7570
660.391	9773
660.445	8484
660.500	8524
660.555	8650
660.610	9067
660.664	8757
660.719	9123
660.774	9283
660.828	8843
660.883	8869
660.938	9973
660.992	7662
661.047	9534
661.101	8624
661.156	8240
661.211	8810
661.265	8531
661.320	8398
661.374	8986
661.429	7252
661.483	9806
661.538	8714
661.592	9191
661.647	9769
661.701	11073
661.755	8606
661.810	10128
661.864	8074
661.919	8666
661.973	9123
662.027	9123
662.081	7947
662.136	9081
662.190	9778
662.244	10484
662.299	8492
662.353	10079
662.407	8329
662.461	9690
662.515	9529
662.569	10999
662.624	10596
662.678	10019
662.732	9337
662.786	9618
662.840	9380
662.894	9718
662.948	8008
663.002	7908
663.056	7972
663.110	7939
663.164	8562
663.218	8018
663.272	8792
663.326	8749
663.380	8726
663.434	10456
663.488	8580
663.542	9146
663.595	9536
663.649	9845
663.703	9343
663.757	9209
663.811	7989
663.864	9439
663.918	9119
663.972	9349
664.026	8948
664.079	9274
664.133	9239
664.187	8551
664.240	8285
664.294	9168
664.348	9051
664.401	8985
664.455	8156
664.508	8572
664.562	9435
664.615	9115
664.669	8256
664.722	8977
664.776	8263
664.829	9754
664.883	8124
664.936	9630
664.990	9965
665.043	10911
665.097	11521
665.150	12425
665.203	10430
665.257	10586
665.310	10425
665.363	10912
665.417	11042
665.470	11072
665.523	10309
665.576	10081
665.630	9525
665.683	10458
665.736	10799
665.789	10252
665.842	10089
665.895	10119
665.949	9735
666.002	10065
666.055	9128
666.108	11068
666.161	9684
666.214	11240
666.267	10434
666.320	10537
666.373	9630
666.426	10536
666.479	9591
666.532	12089
666.585	13223
666.638	14446
666.691	11630
666.744	13738
666.796	12616
666.849	12084
666.902	9499
666.955	9994
667.008	9430
667.060	9127
667.113	8794
667.166	9295
667.219	8576
667.271	10350
667.324	8378
667.377	10299
667.430	9071
667.482	9930
667.535	10055
667.587	10249
667.640	9891
667.693	12534
667.745	13420
667.798	14202
667.850	10870
667.903	10490
667.955	10809
668.008	11293
668.060	12352
668.113	13277
668.165	13209
668.218	12605
668.270	10739
668.322	11104
668.375	10524
668.427	11703
668.479	9896
668.532	12192
668.584	11134
668.636	11281
668.689	11225
668.741	11255
668.793	10844
668.845	11784
668.898	10338
668.950	10614
669.002	10633
669.054	10627
669.106	10858
669.158	11506
669.211	10709
669.263	11843
669.315	11879
669.367	11414
669.419	11693
669.471	13670
669.523	13322
669.575	16465
669.627	13797
669.679	11239
669.731	10504
669.783	11972
669.835	13104
669.886	11674
669.938	10900
669.990	10154
670.042	9838
670.094	9655
670.146	9524
670.197	11282
670.249	9809
670.301	10842
670.353	11323
670.404	14152
670.456	15852
670.508	21028
670.560	29703
670.611	47814
670.663	77189
670.715	187341
670.766	275172
670.818	62594
670.869	17534
670.921	13582
670.972	12482
671.024	11287
671.075	9873
671.127	10333
671.178	10363
671.230	11312
671.281	10193
671.333	11333
671.384	11821
671.436	14757
671.487	15798
671.538	19000
671.590	24381
671.641	36090
671.692	57060
671.744	105019
671.795	59374
671.846	22287
671.897	15377
671.949	14932
672.000	12174
672.051	12589
672.102	12547
672.153	11416
672.204	10690
672.256	11296
672.307	10539
672.358	11644
672.409	10025
672.460	10441
672.511	10092
672.562	11251
672.613	9246
672.664	10986
672.715	10317
672.766	11035
672.817	10207
672.868	10335
672.919	9955
672.970	10618
673.021	10073
673.071	9711
673.122	9632
673.173	10255
673.224	9074
673.275	9803
673.326	8512
673.376	9290
673.427	9722
673.478	9819
673.528	9028
673.579	9165
673.630	9537
673.680	11197
673.731	8816
673.782	8821
673.832	8841
673.883	10666
673.934	9002
673.984	9395
674.035	9675
674.085	9008
674.136	9873
674.186	11365
674.237	14125
674.287	19185
674.338	11302
674.388	9330
674.438	9452
674.489	9983
674.539	9572
674.589	11004
674.640	10651
674.690	10522
674.740	10349
674.791	12088
674.841	10044
674.891	11269
674.942	9441
674.992	10019
675.042	7694
675.092	8117
675.142	8346
675.193	8353
675.243	7223
675.293	9233
675.343	9854
675.393	10187
675.443	9574
675.493	8212
675.543	8234
675.593	9688
675.643	8745
675.693	10249
675.743	9335
675.793	8273
675.843	8094
675.893	9082
675.943	7741
675.993	8613
676.043	8270
676.093	9038
676.142	8446
676.192	9081
676.242	7518
676.292	8908
676.341	9285
676.391	9022
676.441	7944
676.491	8687
676.540	7810
676.590	8381
676.640	8480
676.689	8539
676.739	7080
676.789	7452
676.838	7462
676.888	8107
676.937	7530
676.987	8518
677.037	6677
677.086	6372
677.136	7291
677.185	8286
677.235	6748
677.284	7392
677.333	7165
677.383	7025
677.432	6631
677.482	7417
677.531	7405
677.580	7895
677.630	5981
677.679	6762
677.728	7090
677.778	7016
677.827	7458
677.876	7179
677.925	6090
677.975	7692
678.024	7161
678.073	6853
678.122	7655
678.171	8901
678.220	8094
678.269	10132
678.319	9605
678.368	8782
678.417	8444
678.466	8886
678.515	8246
678.564	8871
678.613	7429
678.662	7985
678.711	8319
678.760	8136
678.809	6814
678.857	7904
678.906	7919
678.955	8576
679.004	8227
679.053	8541
679.102	8019
679.151	8728
679.199	6782
679.248	7727
679.297	7634
679.346	8734
679.394	7899
679.443	7741
679.492	7663
679.540	8470
679.589	8347
679.638	8506
679.686	6590
679.735	7766
679.784	8135
679.832	8744
679.881	6900
679.929	7130
679.978	5706
680.026	6657
680.075	6260
680.123	7313
680.172	5986
680.220	6442
680.268	6676
680.317	6485
680.365	5825
680.414	7587
680.462	7065
680.510	7316
680.559	5258
680.607	6518
680.655	6663
680.703	7536
680.752	6209
680.800	5514
680.848	5476
680.896	5935
680.945	6051
680.993	6518
681.041	6367
681.089	6276
681.137	5611
681.185	6682
681.233	6952
681.258	6684
681.281	6420
681.329	5594
681.377	6135
681.380	6127
681.425	5803
681.473	7810
681.502	7447
681.521	7175
681.569	7419
681.617	6636
681.624	6717
681.665	7178
681.713	6223
681.745	6433
681.761	6516
681.809	5768
681.857	6410
681.867	6296
681.904	5883
681.952	6304
681.989	6394
682.000	6393
682.048	6986
682.096	5099
682.111	5641
682.143	6775
682.191	6282
682.233	7363
682.239	7518
682.286	6059
682.334	6510
682.354	6263
682.382	5898
682.430	6988
682.476	5506
682.477	5466
682.525	6137
682.572	5652
682.598	5908
682.620	6129
682.667	5779
682.715	6361
682.720	6308
682.763	5652
682.810	6209
682.841	6050
682.857	5948
682.905	5621
682.952	6168
682.963	6304
683.000	6711
683.047	6481
683.085	6838
683.095	6936
683.142	5628
683.190	5869
683.206	5709
683.237	5384
683.284	6636
683.328	5698
683.332	5608
683.379	5599
683.426	5721
683.449	5860
683.473	6003
683.521	5970
683.568	6083
683.571	6055
683.615	5574
683.662	6877
683.693	6602
683.709	6437
683.757	6026
683.804	5964
683.814	6051
683.851	6288
683.898	5692
683.936	5788
683.945	5812
683.992	6465
684.039	6521
684.057	6556
684.086	6603
684.133	6380
684.179	6386
684.180	6373
684.227	6708
684.274	6423
684.300	6590
684.321	6740
684.368	5518
684.415	7325
684.422	7160
684.462	6080
684.509	5883
684.543	5427
684.556	5265
684.603	6604
684.649	6173
684.665	6274
684.696	6487
684.743	6020
684.786	6294
684.790	6316
684.837	5458
684.883	7708
684.908	7513
684.930	7273
684.977	8649
685.023	6462
685.029	6511
685.070	6807
685.117	6122
685.150	6743
685.164	6999
685.210	8028
685.257	8138
685.272	7806
685.303	7072
685.350	7620
685.393	7702
685.396	7712
685.443	7599
685.490	8251
685.514	8269
685.536	8145
685.583	7844
685.629	7901
685.636	7750
685.675	6879
685.722	7650
685.757	7522
685.768	7487
685.815	8044
685.861	7378
685.878	7275
685.908	7102
685.954	7614
686.000	8287
686.000	8298
686.047	8247
686.093	10254
686.121	9778
686.139	9257
686.185	8346
686.232	7268
686.242	7324
686.278	7565
686.324	7263
686.363	7051
686.370	7041
686.416	6700
686.463	7739
686.484	7296
686.509	6774
686.555	7002
686.601	6536
686.606	6633
686.647	7419
686.693	6819
686.727	6673
686.739	6672
686.785	6923
686.831	7319
686.848	7289
686.877	7127
686.923	7316
686.969	6633
686.969	6629
687.015	7136
687.061	7548
687.090	7540
687.107	7451
687.153	6995
687.199	6951
687.211	6639
687.245	6116
687.291	7444
687.332	7909
687.336	7944
687.382	7965
687.428	7145
687.453	7775
687.474	8109
687.520	7277
687.565	6977
687.574	6920
687.611	7037
687.657	7373
687.695	7568
687.702	7662
687.748	8861
687.794	9344
687.816	9259
687.839	8668
687.885	8100
687.931	7240
687.937	7211
687.976	7396
688.022	7892
688.058	7088
688.067	6892
688.113	7782
688.158	6565
688.179	6776
688.204	7105
688.249	6948
688.295	7478
688.300	7551
688.340	8076
688.386	8211
688.421	7873
688.431	7790
688.477	7723
688.522	7821
688.542	7828
688.567	7822
688.613	7305
688.658	7683
688.663	7690
688.703	7576
688.749	7767
688.784	7095
688.794	6983
688.839	6923
688.884	7043
688.905	7127
688.930	7079
688.975	6741
689.020	7197
689.026	7088
689.065	6574
689.110	7227
689.146	7101
689.155	7087
689.201	7381
689.246	7473
689.267	7583
689.291	7659
689.336	7518
689.381	7713
689.388	7639
689.426	7174
689.471	7564
689.509	7396
689.516	7410
689.561	7157
689.606	7110
689.630	7386
689.651	7592
689.696	7089
689.741	7995
689.750	7861
689.785	7351
689.830	7639
689.871	7152
689.875	7107
689.920	7544
689.965	7002
689.992	7041
690.010	7091
690.054	6978
690.099	7367
690.112	7234
690.144	7141
690.189	7841
690.233	7429
690.233	7433
690.278	7963
690.323	7569
690.354	7800
690.367	7912
690.412	7454
690.457	7365
690.474	7300
690.501	7240
690.546	7433
690.590	6888
690.595	6903
690.635	7147
690.680	7062
690.716	7352
690.724	7425
690.769	7257
690.813	7696
690.836	7304
690.857	7108
690.902	7736
690.946	7632
690.957	7836
690.991	9045
691.035	10034
691.077	11173
691.080	11197
691.124	10741
691.168	10694
691.198	10512
691.213	10179
691.257	9723
691.301	8063
691.318	7913
691.346	8231
691.390	7806
691.434	7734
691.439	7752
691.478	7998
691.522	8430
691.559	7902
691.567	7901
691.611	9029
691.655	9112
691.680	9579
691.699	9428
691.743	8359
691.787	7947
691.800	7643
691.831	7633
691.875	8122
691.919	8151
691.921	8161
691.964	8543
692.008	8197
692.041	8405
692.052	8529
692.096	8242
692.139	8720
692.162	8466
692.183	8120
692.227	8686
692.271	8169
692.282	8198
692.315	8437
692.359	8037
692.402	8276
692.403	8290
692.447	7827
692.490	7958
692.523	8126
692.534	8309
692.578	8616
692.622	8798
692.643	9026
692.666	8888
692.709	8270
692.753	7859
692.763	7738
692.797	7917
692.840	8164
692.884	8249
692.884	8261
692.928	8539
692.971	8233
693.004	8463
693.015	8547
693.059	8222
693.102	8517
693.124	8193
693.146	8023
693.189	8404
693.233	8787
693.245	8840
693.276	8841
693.320	8592
693.363	8565
693.365	8546
693.407	8660
693.450	9015
693.485	8887
693.493	8865
693.537	9277
693.580	8958
693.605	9247
693.624	9710
693.667	9999
693.710	10848
693.725	11074
693.753	12411
693.797	14446
693.840	16456
693.845	16665
693.883	16110
693.926	14961
693.966	14525
693.970	14407
694.013	12390
694.056	10885
694.086	9652
694.099	9619
694.142	9964
694.185	9385
694.206	9496
694.229	9754
694.272	9552
694.315	9978
694.326	9911
694.358	9871
694.401	10115
694.444	10129
694.446	10115
694.487	10118
694.530	10212
694.566	10327
694.573	10245
694.616	9118
694.659	8379
694.686	7818
694.702	7871
694.745	8169
694.787	8165
694.806	8285
694.830	8444
694.873	8505
694.916	8745
694.926	8690
694.959	8484
695.002	8592
695.044	8389
695.046	8379
695.087	8790
695.130	8697
695.166	8856
695.172	8861
695.215	8685
695.258	8915
695.286	8512
695.301	8434
695.343	8712
695.386	8654
695.406	8711
695.428	8840
695.471	8943
695.514	9223
695.526	9233
695.556	9294
695.599	9700
695.641	9543
695.646	9547
695.684	9347
695.726	8860
695.766	8645
695.769	8697
695.811	8918
695.854	9393
695.886	9518
695.896	9496
695.938	9534
695.981	9396
696.005	9444
696.023	9559
696.065	9516
696.108	9656
696.125	9645
696.150	9769
696.192	10078
696.235	10060
696.245	10120
696.277	10111
696.319	9850
696.361	9912
696.365	9856
696.404	9632
696.446	9670
696.485	9696
696.488	9733
696.530	9738
696.572	9800
696.604	9996
696.614	10007
696.656	9582
696.698	9440
696.724	9259
696.740	9291
696.783	9467
696.825	9474
696.844	9507
696.867	9676
696.909	9825
696.951	10101
696.964	10103
696.992	9913
697.034	9893
697.076	9623
697.083	9568
697.118	9945
697.160	10324
697.202	10855
697.203	10839
697.244	10382
697.286	10121
697.323	9692
697.327	9737
697.369	10057
697.411	10254
697.442	10464
697.453	10532
697.494	10585
697.536	10748
697.562	10803
697.578	10910
697.620	11154
697.661	11310
697.682	11401
697.703	11530
697.744	11674
697.786	11881
697.801	11892
697.828	12117
697.869	12473
697.911	12810
697.921	12890
697.952	12404
697.994	11555
698.035	10844
698.040	10719
698.077	10654
698.118	10596
698.160	10459
698.160	10430
698.201	10743
698.243	10905
698.279	11076
698.284	11108
698.325	11135
698.367	11167
698.399	11116
698.408	11114
698.449	11041
698.491	10917
698.518	10831
698.532	10958
698.573	11259
698.614	11573
698.638	11702
698.656	11644
698.697	11483
698.738	11272
698.757	11166
698.779	11266
698.820	11366
698.862	11502
698.877	11517
698.903	11796
698.944	12204
698.985	12615
698.996	12700
699.026	12362
699.067	11854
699.116	11225
699.235	10658
699.354	11537
699.474	12047
699.593	13059
699.713	12439
699.832	12074
699.951	13451
700.070	12930
700.190	10527
700.309	11587
700.428	11669
700.547	11273
700.667	11078
700.786	12101
700.905	10332
701.024	11432
701.143	10346
701.262	10924
701.381	9976
701.500	11516
701.619	12664
701.738	11043
701.857	10495
701.976	10507
702.095	9750
702.214	11724
702.333	12408
702.452	10848
702.571	10012
702.690	10962
702.809	9979
702.928	10571
703.047	10411
703.165	10605
703.284	10077
703.403	10045
703.522	10935
703.640	11157
703.759	13207
703.878	14333
703.997	9582
704.115	9943
704.234	9560
704.353	9648
704.471	9449
704.590	8842
704.708	7861
704.827	9548
704.946	9455
705.064	9869
705.183	9496
705.301	10117
705.420	13001
705.538	11730
705.656	9713
705.775	10725
705.893	13984
706.012	15315
706.130	10076
706.249	12189
706.367	10724
706.485	11035
706.604	11035
706.722	11015
706.840	13847
706.958	16795
707.077	11740
707.195	10271
707.313	9931
707.431	9774
707.549	10139
707.668	9151
707.786	11148
707.904	10009
708.022	9294
708.140	9665
708.258	9430
708.376	10755
708.494	9036
708.612	11453
708.730	14597
708.848	13746
708.966	13083
709.084	13528
709.202	11734
709.320	12258
709.438	11942
709.556	12013
709.674	11087
709.791	11607
709.909	11574
710.027	10713
710.145	10552
710.263	11909
710.380	10330
710.498	10737
710.616	10485
710.733	11422
710.851	10745
710.969	11652
711.086	11059
711.204	11660
711.322	10590
711.439	10225
711.557	10228
711.674	10702
711.792	10406
711.909	10666
712.027	10446
712.144	9318
712.262	10369
712.379	11018
712.497	15405
712.614	14713
712.732	13189
712.849	12972
712.966	13629
713.084	16806
713.201	13224
713.318	13909
713.436	13134
713.553	13744
713.670	14201
713.787	14756
713.905	13838
714.022	12865
714.139	13888
714.256	18137
714.373	24309
714.490	45283
714.608	125018
714.725	553741
714.842	586825
714.959	40751
715.076	19155
715.193	15359
715.310	14659
715.427	12000
715.544	10966
715.661	11854
715.778	11924
715.895	12179
716.011	12536
716.128	12263
716.245	12386
716.362	14763
716.479	15126
716.596	11475
716.713	11132
716.829	10854
716.946	9830
717.063	10368
717.180	9425
717.296	10369
717.413	10274
717.530	10220
717.646	9406
717.763	10133
717.880	9058
717.996	9090
718.113	9789
718.229	10100
718.346	8860
718.462	10270
718.579	12250
718.695	23120
718.812	14689
718.928	12626
719.045	10609
719.161	9394
719.277	10011
719.394	9339
719.510	10523
719.626	10749
719.743	13641
719.859	19086
719.975	37514
720.092	154338
720.208	374271
720.324	40532
720.440	12336
720.557	12671
720.673	17660
720.789	20353
720.905	31694
721.021	13450
721.137	9132
721.253	9535
721.369	9653
721.486	9817
721.602	12111
721.718	7968
721.834	7521
721.950	8013
722.066	7867
722.181	8429
722.297	8808
722.413	7982
722.529	7401
722.645	8138
722.761	6989
722.877	7369
722.993	7294
723.108	10383
723.224	7600
723.340	7702
723.456	7551
723.571	7507
723.687	7371
723.803	6636
723.918	6503
724.034	7972
724.150	7410
724.265	8204
724.381	12560
724.497	15575
724.612	6473
724.728	6721
724.843	6677
724.959	7842
725.074	13336
725.190	14859
725.305	6897
725.421	6423
725.536	5838
725.651	6849
725.767	5893
725.882	6313
725.997	6380
726.113	6590
726.228	5777
726.343	5792
726.459	4836
726.574	6006
726.689	6148
726.804	6012
726.920	4990
727.035	6396
727.150	5821
727.265	5640
727.380	6536
727.495	6556
727.610	5471
727.725	5743
727.841	5823
727.956	8576
728.071	8201
728.186	5499
728.301	4796
728.416	6252
728.531	5831
728.645	6144
728.760	6368
728.875	8141
728.990	6646
729.105	6174
729.220	7306
729.335	6573
729.449	5702
729.564	5639
729.679	4953
729.794	5791
729.908	5604
730.023	5722
730.138	4867
730.253	5756
730.367	4375
730.482	5272
730.596	5230
730.711	6333
730.826	6336
730.940	6608
731.055	6096
731.169	6151
731.284	6514
731.398	5837
731.513	6502
731.627	6669
731.742	7839
731.856	7200
731.970	7986
732.085	9846
732.199	13356
732.313	22254
732.428	61679
732.542	200160
732.656	120416
732.771	19119
732.885	10411
732.999	9106
733.113	9506
733.227	7729
733.342	8106
733.456	7961
733.570	6049
733.684	7044
733.798	7648
733.912	6784
734.026	6235
734.140	6792
734.254	6998
734.368	9509
734.482	10425
734.596	6566
734.710	6266
734.824	6083
734.938	6301
735.052	5721
735.166	6814
735.280	7385
735.393	6141
735.507	5847
735.621	6485
735.735	10477
735.849	6482
735.962	6222
736.076	6374
736.190	6201
736.303	7329
736.417	9524
736.531	5599
736.644	5069
736.758	4950
736.872	5715
736.985	5703
737.099	5651
737.212	4591
737.326	5221
737.439	4739
737.553	4852
737.666	5715
737.780	5307
737.893	5158
738.007	5002
738.120	5096
738.233	4245
738.347	4379
738.460	5170
738.573	6057
738.687	6400
738.800	5737
738.913	6985
739.026	5596
739.140	5625
739.253	4714
739.366	5709
739.479	4860
739.592	3962
739.705	3932
739.818	4807
739.932	3558
740.045	5006
740.158	4872
740.271	4903
740.384	5062
740.497	5528
740.610	6611
740.723	5682
740.836	4935
740.949	5999
741.062	7732
741.174	5842
741.287	4871
741.400	5463
741.513	5140
741.626	7087
741.739	6031
741.851	5928
741.964	4245
742.077	4209
742.189	4523
742.302	5946
742.415	5810
742.527	4573
742.640	4203
742.753	4270
742.865	4440
742.978	3833
743.090	4396
743.203	3963
743.316	3299
743.428	3831
743.541	3460
743.653	3558
743.766	4074
743.878	3592
743.990	4680
744.103	5755
744.215	3816
744.327	3913
744.440	5408
744.552	8649
744.664	5237
744.777	3554
744.889	3205
745.001	4561
745.113	3365
745.226	3221
745.338	3947
745.450	4117
745.562	3490
745.674	3430
745.786	3748
745.898	3488
746.010	2743
746.122	2948
746.234	3293
746.347	3585
746.459	3906
746.570	3714
746.682	3398
746.794	3522
746.906	3463
747.018	3192
747.130	3480
747.242	2899
747.354	2942
747.466	4079
747.577	3269
747.689	3489
747.801	3530
747.913	3099
748.024	2887
748.136	4040
748.248	2611
748.359	2815
748.471	2955
748.583	2789
748.694	3461
748.806	4383
748.918	3314
749.029	3534
749.141	3741
749.252	4267
749.364	3625
749.475	9965
749.587	5212
749.698	2905
749.809	2736
749.921	2976
750.032	2860
750.144	2730
750.255	2813
750.366	2821
750.478	3036
750.589	2763
750.700	3412
750.811	3681
750.923	4525
751.034	10443
751.145	10296
751.256	3781
751.367	3243
751.479	2914
751.590	2780
751.701	2908
751.812	2125
751.923	3363
752.034	2725
752.145	3103
752.256	2619
752.367	2803
752.478	3237
752.589	3743
752.700	1745
752.811	2868
752.922	2372
753.032	2725
753.143	3573
753.254	2220
753.365	3706
753.476	3372
753.586	2445
753.697	2175
753.808	2564
753.919	1851
754.029	2345
754.140	3004
754.251	2519
754.361	2202
754.472	2917
754.582	2731
754.693	3074
754.804	3255
754.914	1842
755.025	2145
755.135	1840
755.246	2396
755.356	1943
755.466	2179
755.577	2833
755.687	3249
755.798	2233
755.908	2956
756.018	1901
756.129	2978
756.239	2664
756.349	2437
756.460	3300
756.570	3757
756.680	2146
756.790	2384
756.900	3445
757.011	2451
757.121	2482
757.231	3039
757.341	3115
757.451	2024
757.561	2757
757.671	2211
757.781	1248
757.891	3394
758.001	2283
758.111	2709
758.221	3194
758.331	3034
758.441	3038
758.551	5766
758.661	5344
758.771	3497
758.880	3156
758.990	3540
759.100	2819
759.210	3461
759.320	3366
759.429	3384
759.539	3258
759.649	3301
759.758	4190
759.868	5289
759.978	4380
760.087	4595
760.197	3872
760.307	4210
760.416	4594
760.526	3540
760.635	3328
760.745	4560
760.854	4597
760.964	5365
761.073	4430
761.182	4908
761.292	4332
761.401	4367
761.511	3804
761.620	2820
761.729	2872
761.839	3074
761.948	3303
762.057	3632
762.166	2806
762.276	2288
762.385	3507
762.494	2834
762.603	1835
762.712	3389
762.822	1629
762.931	3197
763.040	1718
763.149	2593
763.258	2447
763.367	3548
763.476	3098
763.585	2928
763.694	3381
763.803	2124
763.912	2628
764.021	3761
764.130	2835
764.238	3001
764.347	3387
764.456	2661
764.565	3612
764.674	3580
764.783	3655
764.891	2957
765.000	4293
765.109	4305
765.217	4211
765.326	5695
765.435	5725
765.543	6393
765.652	6332
765.761	8103
765.869	13171
765.978	20018
766.086	37717
766.195	80013
766.303	220272
766.412	602237
766.520	464407
766.629	103522
766.737	36290
766.846	21735
766.954	15093
767.062	12438
767.171	9350
767.279	8168
767.387	6975
767.496	6673
767.604	5110
767.712	4739
767.820	4284
767.928	5443
768.037	3863
768.145	4935
768.253	5368
768.361	3619
768.469	4162
768.577	4261
768.685	3858
768.793	4325
768.901	3636
769.009	5033
769.117	4943
769.225	6597
769.333	9173
769.441	16017
769.549	31241
769.657	76914
769.765	262875
769.873	499170
769.981	142960
770.088	29059
770.196	15027
770.304	10844
770.412	9068
770.519	7496
770.627	5585
770.735	4503
770.842	4563
770.950	4080
771.058	4233
771.165	4988
771.273	4013
771.380	4116
771.488	4594
771.595	5184
771.703	4320
771.810	4957
771.918	4410
772.025	4774
772.133	5266
772.240	4046
772.348	4946
772.455	4637
772.562	3799
772.670	4357
772.777	4507
772.884	4796
772.991	5005
773.099	4290
773.206	3317
773.313	4748
773.420	4004
773.528	3802
773.635	3909
773.742	4930
773.849	4304
773.956	3610
774.063	3720
774.170	3530
774.277	3594
774.384	3209
774.491	4081
774.598	4347
774.705	3262
774.812	5402
774.919	4841
775.026	3894
775.133	3346
775.239	3636
775.346	4136
775.453	3648
775.560	3299
775.667	4328
775.773	3042
775.880	4012
775.987	3539
776.093	4007
776.200	3320
776.307	2782
776.413	3648
776.520	3593
776.627	3274
776.733	3712
776.840	1901
776.946	4590
777.053	3819
777.159	4524
777.266	2686
777.372	4501
777.478	4624
777.585	4138
777.691	2562
777.798	4307
777.904	4203
778.010	5211
778.117	5360
778.223	2882
778.329	2533
778.435	3646
778.542	3814
778.648	2940
778.754	2139
778.860	3182
778.966	2872
779.072	2869
779.178	3418
779.284	3163
779.391	3405
779.497	1884
779.603	3898
779.708	1843
779.815	4346
779.920	6541
780.026	6965
780.132	3910
780.238	2487
780.344	3094
780.450	3841
780.556	3210
780.661	2300
780.767	2889
780.873	1828
780.979	3126
781.085	3341
781.190	2593
781.296	2610
781.402	2321
781.507	1528
781.613	3068
781.719	1992
781.824	2483
781.930	3953
782.035	3671
782.141	2276
782.246	2808
782.352	2326
782.457	2427
782.563	2032
782.668	2974
782.773	2845
782.879	2420
782.984	3702
783.090	3263
783.195	5442
783.300	4047
783.405	2874
783.511	2948
783.616	2710
783.721	4197
783.826	2783
783.932	3631
784.037	2859
784.142	3078
784.247	3215
784.352	2820
784.457	2923
784.562	2978
784.667	2453
784.772	3204
784.877	2280
784.982	4067
785.087	2358
785.192	2957
785.297	2490
785.402	2695
785.507	1634
785.611	3098
785.716	3071
785.821	2949
785.926	2771
786.031	1586
786.135	1541
786.240	1716
786.345	1394
786.450	2786
786.554	2474
786.659	1434
786.763	927
786.868	2454
786.973	4155
787.077	1376
787.182	2254
787.286	3077
787.391	2762
787.495	1788
787.600	1317
787.704	1566
787.809	1917
787.913	1623
788.017	1250
788.122	2082
788.226	1753
788.330	526
788.435	2038
788.539	2710
788.643	1370
788.747	1348
788.852	1500
788.956	1057
789.060	2227
789.164	2331
789.268	1225
789.372	2340
789.476	2546
789.580	1157
789.684	908
789.788	2613
789.892	1276
789.996	2303
790.100	589
790.204	1493
790.308	1804
790.412	1554
790.516	1634
790.620	1265
790.724	2064
790.828	1782
790.931	836
791.035	3317
791.139	1208
791.242	706
791.346	2311
791.450	824
791.554	1636
791.657	508
791.761	2209
791.864	3329
791.968	1592
792.072	2338
792.175	1629
792.279	1726
792.382	994
792.486	1540
792.589	1815
792.693	2100
792.796	581
792.899	2880
793.003	2102
793.106	181
793.209	1231
793.313	3180
793.416	658
793.519	1919
793.623	2724
793.726	5013
793.829	1644
793.932	2104
794.035	985
794.138	2102
794.242	2536
794.345	2088
794.448	2392
794.551	3755
794.654	4670
794.757	4250
794.860	2345
794.963	1663
795.066	195
795.169	2608
795.272	986
795.375	2087
795.477	825
795.580	2401
795.683	-47
795.786	1717
795.889	-448
795.991	1814
796.094	1481
796.197	147
796.300	1732
796.402	1219
796.505	166
796.608	706
796.710	1320
796.813	1362
796.915	1110
797.018	1371
797.120	1732
797.223	768
797.326	2151
797.428	1632
797.530	723
797.633	1569
797.735	2627
797.838	2426
797.940	2416
798.042	995
798.145	1289
798.247	1694
798.349	364
798.452	2080
798.554	666
798.656	693
798.758	1639
798.860	1577
798.962	679
799.065	271
799.167	446
799.269	2036
799.371	2426
799.473	2619
799.575	1270
799.677	1755
799.779	2957
799.881	2975
799.983	1929
800.085	930
800.187	1711
800.289	197
800.390	885
800.492	1581
800.594	2635
800.696	1582
800.798	1124
800.899	580
801.001	407
801.103	1554
801.205	-96
801.306	1205
801.408	687
801.509	1518
801.611	903
801.713	250
801.814	82
801.916	414
802.017	580
802.119	180
802.220	1438
802.322	-190
802.423	2726
802.525	245
802.626	1093
802.727	1339
802.829	1440
802.930	-1240
803.031	2085
803.133	422
803.234	21
803.335	1305
803.436	114
803.538	1061
803.639	133
803.740	1573
803.841	-18
803.942	688
804.043	854
804.144	900
804.245	820
804.346	185
804.447	412
804.548	2255
804.649	2692
804.750	84
804.851	493
804.952	270
805.053	333
805.154	-326
805.255	618
805.355	1519
805.456	751
805.557	17
805.658	308
805.758	1377
805.859	374
805.960	1176
806.061	-377
806.161	1232
806.262	819
806.362	1029
806.463	360
806.564	1216
806.664	1224
806.765	732
806.865	327
806.966	-57
807.066	444
807.166	1795
807.267	497
807.367	294
807.468	1506
807.568	-57
807.668	585
807.769	1028
807.869	141
807.969	-111
808.069	1341
808.170	-277
808.270	388
808.370	1209
808.470	1963
808.570	675
808.670	412
808.770	982
808.870	661
808.970	1175
809.070	-59
809.170	800
809.271	1472
809.370	-241
809.470	1172
809.570	703
809.670	367
809.770	805
809.870	533
809.970	727
810.070	1054
810.169	1691
810.269	-1257
810.369	485
810.469	191
810.568	347
810.668	16
810.768	128
810.867	943
810.967	848
811.066	1074
811.166	580
811.265	875
811.365	86
811.464	521
811.564	1127
811.663	1034
811.763	-116
811.862	1544
811.962	1580
812.061	-202
812.160	461
812.260	745
812.359	951
812.458	-92
812.557	1150
812.657	926
812.756	1957
812.855	509
812.954	552
813.053	1160
813.153	631
813.252	200
813.351	1032
813.450	469
813.549	-51
813.648	-141
813.747	513
813.846	690
813.945	366
814.044	637
814.143	443
814.242	1096
814.341	638
814.439	993
814.538	1006
814.637	1053
814.736	598
814.835	1649
814.933	456
815.032	1399
815.131	1279
815.229	1361
815.328	2577
815.427	2088
815.525	2701
815.624	1230
815.722	1536
815.821	1613
815.919	2651
816.018	1183
816.116	2360
816.215	2264
816.313	2284
816.412	2778
816.510	2828
816.609	3522
816.707	3493
816.805	3013
816.904	2998
817.002	3401
817.100	3754
817.198	4137
817.296	3621
817.395	4765
817.493	4867
817.591	4247
817.689	6967
817.787	7681
817.885	12319
817.983	24296
818.081	52550
818.179	129197
818.277	327028
818.375	270331
818.473	65302
818.571	24242
818.669	16629
818.767	14462
818.865	14024
818.963	16957
819.061	26505
819.158	47414
819.256	105436
819.354	250315
819.452	541687
819.549	337035
819.647	86751
819.745	33878
819.842	20865
819.940	13542
820.038	10423
820.135	7863
820.233	7994
820.330	5942
820.428	4127
820.525	5129
820.623	4788
820.720	3392
820.818	4309
820.915	3290
821.012	3117
821.110	2074
821.207	2814
821.304	1842
821.402	2698
821.499	2206
821.596	2372
821.693	2537
821.791	2989
821.888	3157
821.985	5791
822.082	4871
822.179	2494
822.276	2262
822.373	1567
822.470	1159
822.567	1709
822.664	5
822.761	2501
822.858	47
822.955	2139
823.052	1462
823.149	1084
823.246	1501
823.343	1771
823.440	1447
823.536	831
823.633	604
823.730	1033
823.827	1121
823.923	1564
824.020	2433
824.117	773
824.213	796
824.310	1152
824.407	1121
824.503	1561
824.600	1043
824.696	1494
824.793	1998
824.889	741
824.986	1314
825.082	149
825.179	1365
825.275	860
825.371	400
825.468	1436
825.564	-407
825.660	1157
825.757	2063
825.853	1929
825.949	378
826.045	589
826.142	32
826.238	1265
826.334	378
826.430	934
826.526	1766
826.622	644
826.718	429
826.814	1332
826.910	1301
827.006	-255
827.102	126
827.198	2130
827.294	460
827.390	947
827.486	485
827.582	0
827.678	-95
827.774	1120
827.869	-361
827.965	1933
828.061	-233
828.157	591
828.252	487
828.348	294
828.444	1741
828.539	-435
828.635	809
828.731	1497
828.826	621
828.922	1671
829.017	435
829.113	1305
829.208	516
829.304	-54
829.399	1687
829.495	-20
829.590	1851
829.685	1093
829.781	532
829.876	528
829.971	407
830.066	15
830.162	821
830.257	251
830.352	952
830.447	1564
830.543	592
830.638	-307
830.733	1627
830.828	643
830.923	1058
831.018	387
831.113	1486
831.208	-259
831.303	137
831.398	424
831.493	428
831.588	1159
831.683	-175
831.778	1469
831.873	822
831.967	1598
832.062	78
832.157	-608
832.252	1143
832.346	421
832.441	2261
832.536	2100
832.631	3307
832.725	2994
832.820	-23
832.914	662
833.009	-415
833.104	907
833.198	855
833.293	408
833.387	406
833.482	431
833.576	409
833.670	1453
833.765	437
833.859	-132
833.954	1377
834.048	486
834.142	799
834.237	341
834.331	93
834.425	714
834.519	209
834.613	1582
834.708	-106
834.802	1156
834.896	435
834.990	750
835.084	485
835.178	989
835.272	277
835.366	306
835.460	1019
835.554	33
835.648	711
835.742	-30
835.836	378
835.930	-578
836.024	1510
836.117	1904
836.211	189
836.305	1085
836.399	1085
836.493	76
836.586	1486
836.680	118
836.774	-436
836.867	532
836.961	-107
837.055	-13
837.148	125
837.242	41
837.335	-631
837.429	612
837.522	536
837.616	1205
837.709	1411
837.803	110
837.896	801
837.989	-382
838.083	1266
838.176	1871
838.269	657
838.363	1136
838.456	21
838.549	1666
838.642	1683
838.735	5558
838.829	1798
838.922	407
839.015	619
839.108	270
839.201	431
839.294	577
839.387	778
839.480	-538
839.573	893
839.666	825
839.759	-153
839.852	339
839.945	510
840.038	-302
840.131	362
840.223	99
840.316	835
840.409	-113
840.502	-334
840.594	1148
840.687	-645
840.780	-52
840.873	-252
840.965	603
841.058	499
841.150	2603
841.243	418
841.336	691
841.428	122
841.521	382
841.613	12
841.706	872
841.798	389
841.890	545
841.983	-721
842.075	208
842.167	619
842.260	720
842.352	1447
842.444	1042
842.537	1659
842.629	3248
842.721	636
842.813	767
842.905	-670
842.997	809
843.090	-77
843.182	500
843.274	491
843.366	4641
843.458	7345
843.550	6011
843.642	293
843.734	489
843.826	637
843.918	1510
844.009	455
844.101	386
844.193	242
844.285	364
844.377	303
844.469	1382
844.560	483
844.652	762
844.744	90
844.835	761
844.927	634
845.019	434
845.110	36
845.202	777
845.293	-196
845.385	91
845.476	167
845.568	1341
845.659	154
845.751	1473
845.842	-164
845.934	-470
846.025	-598
846.116	342
846.208	1162
846.299	120
846.390	495
846.482	121
846.573	-3
846.664	1444
846.755	896
846.846	1805
846.937	-1036
847.029	649
847.120	393
847.211	692
847.302	626
847.393	-584
847.484	588
847.575	-594
847.666	-337
847.757	-827
847.847	431
847.938	1167
848.029	-133
848.120	-423
848.211	284
848.302	133
848.392	-525
848.483	-402
848.574	-515
848.664	62
848.755	343
848.846	525
848.936	-464
849.027	328
849.118	618
849.208	995
849.299	1307
849.389	4374
849.480	10066
849.570	21437
849.661	40635
849.751	74482
849.841	26759
849.932	3411
850.022	1602
850.112	1507
850.203	439
850.293	655
850.383	72
850.474	61
850.564	-70
850.654	788
850.744	-353
850.834	87
850.924	1030
851.014	380
851.104	-129
851.194	-362
851.284	321
851.374	743
851.464	-453
851.554	325
851.644	29
851.734	1025
851.824	88
851.914	-83
852.004	942
852.094	441
852.183	432
852.273	712
852.363	-179
852.452	587
852.542	73
852.632	475
852.721	232
852.811	634
852.901	422
852.990	1532
853.080	-14
853.169	1111
853.259	745
853.348	675
853.438	2261
853.527	4167
853.617	5522
853.706	13109
853.795	23535
853.885	55637
853.974	106565
854.063	188218
854.152	311805
854.242	125991
854.331	21730
854.420	7940
854.509	4669
854.598	5083
854.687	2609
854.777	2932
854.866	1431
854.955	2141
855.044	580
855.133	930
855.222	245
855.311	532
855.400	880
855.488	485
855.577	511
855.666	1087
855.755	254
855.844	904
855.933	430
856.021	1016
856.110	682
856.199	527
856.288	-408
856.376	4
856.465	-128
856.554	-262
856.642	-271
856.731	-120
856.819	-198
856.908	421
856.996	-184
857.085	260
857.173	30
857.262	-141
857.350	14
857.438	-803
857.527	539
857.615	136
857.703	455
857.792	-604
857.880	-799
857.968	-199
858.056	-212
858.145	86
858.233	-1018
858.321	-427
858.409	177
858.497	-111
858.585	389
858.673	285
858.761	-1224
858.849	265
858.937	-288
859.025	-295
859.113	-257
859.201	-528
859.289	44
859.377	-654
859.465	208
859.552	-103
859.640	-1110
859.728	-34
859.816	-283
859.903	577
859.991	-204
860.079	-102
860.166	-313
860.254	-212
860.342	249
860.429	-204
860.517	-892
860.604	103
860.692	227
860.779	731
860.867	-359
860.954	388
861.042	494
861.129	625
861.216	-135
861.304	-670
861.391	-80
861.478	-224
861.565	28
861.653	657
861.740	-864
861.827	-88
861.914	584
862.001	224
862.089	8
862.176	-23
862.263	-441
862.350	-70
862.437	8
862.524	45
862.611	-317
862.698	292
862.785	-202
862.871	-166
862.958	-1443
863.045	249
863.132	167
863.219	-225
863.306	-1513
863.392	364
863.479	-502
863.566	54
863.652	-152
863.739	119
863.826	297
863.912	723
863.999	-1334
864.086	8
864.172	-221
864.259	49
864.345	105
864.432	407
864.518	-147
864.604	763
864.691	231
864.777	50
864.863	1025
864.950	1414
865.036	1283
865.122	2985
865.209	2596
865.295	2394
865.381	3135
865.467	3800
865.553	5072
865.639	6970
865.726	13891
865.812	28378
865.898	57431
865.984	85364
866.070	154842
866.156	179406
866.242	48433
866.328	9813
866.414	4540
866.499	3563
866.585	3502
866.671	1950
866.757	2594
866.843	2922
866.928	1091
867.014	1615
867.100	2202
867.186	1682
867.271	1804
867.357	2465
867.442	2146
867.528	1066
867.614	751
867.699	1329
867.785	1149
867.870	1126
867.956	1162
868.041	1078
868.127	1763
868.212	1704
868.297	934
868.383	1415
868.468	1847
868.553	3033
868.639	3433
868.724	6433
868.809	5127
868.894	1182
868.979	1320
869.065	990
869.150	937
869.235	684
869.320	1210
869.405	769
869.490	358
869.575	756
869.660	633
869.745	1098
869.830	331
869.915	698
870.000	419
870.085	581
870.169	1636
870.254	1105
870.339	-53
870.424	-152
870.509	1294
870.593	987
870.678	820
870.763	1204
870.847	1117
870.932	416
871.016	-21
871.101	49
871.186	368
871.270	1463
871.355	-478
871.439	115
871.523	178
871.608	105
871.692	577
871.777	1018
871.861	423
871.945	31
872.030	370
872.114	781
872.198	616
872.282	77
872.367	-637
872.451	643
872.535	732
872.619	919
872.703	-228
872.787	813
872.871	685
872.955	445
873.039	-548
873.123	669
873.207	267
873.291	570
873.375	405
873.459	1474
873.543	204
873.627	171
873.711	-22
873.794	837
873.878	-434
873.962	91
874.045	245
874.129	162
874.137	193
874.213	496
874.245	232
874.296	-196
874.352	-64
874.380	-3
874.460	969
874.464	1009
874.547	672
874.568	963
874.631	1807
874.676	1162
874.714	635
874.784	795
874.798	824
874.881	1339
874.892	1260
874.965	718
874.999	768
875.048	833
875.107	769
875.131	741
875.215	393
875.215	393
875.298	-81
875.323	-46
875.381	109
875.430	409
875.465	581
875.538	966
875.548	1024
875.631	287
875.646	270
875.714	131
875.753	423
875.798	878
875.861	606
875.881	443
875.964	-45
875.968	-71
876.047	-268
876.076	114
876.130	770
876.183	149
876.213	-171
876.291	1060
876.296	1132
876.379	308
876.398	214
876.462	-42
876.506	113
876.545	259
876.613	245
876.628	263
876.711	539
876.721	586
876.794	850
876.828	675
876.877	419
876.935	191
876.960	99
877.043	1145
877.043	1144
877.125	941
877.150	1064
877.208	1330
877.258	1598
877.291	1826
877.365	740
877.374	578
877.456	1172
877.472	1123
877.539	1250
877.579	1546
877.622	1674
877.687	1493
877.704	1501
877.787	1425
877.794	1385
877.869	659
877.901	662
877.952	888
878.008	893
878.034	805
878.115	820
878.117	824
878.199	425
878.222	451
878.282	338
878.329	617
878.364	899
878.437	777
878.447	738
878.529	-144
878.544	-88
878.611	272
878.651	230
878.694	230
878.758	468
878.776	559
878.858	655
878.865	669
878.941	513
878.972	415
879.023	322
879.078	187
879.105	138
879.185	627
879.187	637
879.269	306
879.292	349
879.351	576
879.399	568
879.433	462
879.506	319
879.516	288
879.598	-33
879.613	-3
879.680	382
879.720	441
879.762	446
879.827	254
879.844	187
879.926	264
879.933	229
880.007	-215
880.040	20
880.089	674
880.147	1199
880.171	1289
880.253	1409
880.254	1414
880.335	2309
880.360	2659
880.417	3360
880.467	4577
880.499	5499
880.574	7190
880.580	7224
880.662	2694
880.680	2021
880.744	-22
880.787	-7
880.825	234
880.893	5
880.907	-19
880.989	296
881.000	432
881.070	1019
881.106	717
881.152	426
881.213	832
881.233	887
881.315	384
881.319	375
881.396	644
881.426	595
881.478	264
881.532	378
881.559	506
881.639	289
881.641	278
881.722	84
881.745	5
881.803	103
881.852	110
881.885	21
881.958	-64
881.966	-92
882.047	5
882.064	-3
882.129	231
882.171	290
882.210	462
882.277	1240
882.291	1388
882.372	1226
882.383	1200
882.454	592
882.489	215
882.535	-100
882.596	22
882.616	-29
882.697	19
882.702	-20
882.778	23
882.808	161
882.859	237
882.914	50
882.940	-117
883.020	68
883.021	72
883.102	-83
883.127	30
883.183	59
883.233	-177
883.264	-87
883.339	503
883.345	500
883.426	-264
883.445	-261
883.507	525
883.551	882
883.587	660
883.657	230
883.668	308
883.749	601
883.763	747
883.830	357
883.869	-137
883.910	-23
883.975	350
883.991	270
884.072	-148
884.081	-169
884.152	581
884.187	748
884.233	195
884.292	-234
884.314	-62
884.394	419
884.398	441
884.475	5
884.504	-97
884.555	85
884.610	36
884.636	41
884.716	221
884.716	224
884.797	468
884.821	547
884.877	195
884.927	-71
884.958	138
885.033	509
885.038	482
885.118	-18
885.139	-144
885.199	-34
885.244	94
885.279	-29
885.350	-346
885.359	-265
885.439	531
885.456	661
885.520	389
885.561	422
885.600	586
885.667	430
885.680	301
885.760	-218
885.773	-318
885.840	-424
885.878	-412
885.920	-322
885.984	-70
886.000	128
886.080	606
886.089	703
886.160	554
886.195	379
886.240	371
886.300	365
886.320	277
886.400	-127
886.406	-136
886.480	190
886.511	243
886.560	314
886.616	426
886.640	427
886.720	357
886.722	353
886.800	-227
886.827	-351
886.879	95
886.932	469
886.959	573
887.038	982
887.039	976
887.119	41
887.143	-83
887.198	20
887.248	-83
887.278	127
887.354	650
887.358	607
887.437	-326
887.459	-547
887.517	99
887.564	640
887.596	484
887.669	12
887.676	32
887.755	435
887.774	463
887.835	20
887.880	-162
887.914	-78
887.985	27
887.994	57
888.073	303
888.090	372
888.153	473
888.195	408
888.232	280
888.300	347
888.311	356
888.391	125
888.405	113
888.470	-89
888.510	-300
888.549	-61
888.615	551
888.628	516
888.708	122
888.720	72
888.787	478
888.825	670
888.866	106
888.930	-712
888.945	-677
889.024	-494
889.035	-466
889.103	116
889.140	403
889.182	562
889.245	842
889.261	704
889.340	31
889.349	-48
889.419	208
889.454	359
889.498	147
889.559	-157
889.577	-96
889.656	191
889.664	223
889.735	299
889.768	333
889.814	397
889.873	486
889.978	-481
890.083	797
890.187	-406
890.292	633
890.397	-328
890.501	-65
890.606	-33
890.710	401
890.815	254
890.919	462
891.024	629
891.128	645
891.233	42
891.337	755
891.442	-1148
891.546	407
891.650	-343
891.755	533
891.859	579
891.963	-87
892.068	-265
892.172	785
892.276	-742
892.380	715
892.484	-103
892.589	741
892.693	-540
892.797	-124
892.901	-89
893.005	950
893.109	-152
893.213	850
893.317	171
893.421	176
893.525	-1127
893.629	-3
893.733	-238
893.837	-34
893.941	109
894.045	1590
894.148	-153
894.252	401
894.356	99
894.460	983
894.564	152
894.667	513
894.771	-1
894.875	-60
894.978	112
895.082	-570
895.186	-321
895.289	573
895.393	311
895.496	754
895.600	-988
895.703	-229
895.807	-294
895.910	-291
896.014	287
896.117	-190
896.221	891
896.324	281
896.427	108
896.531	647
896.634	-82
896.737	-171
896.840	-688
896.944	1133
897.047	219
897.150	569
897.253	-1266
897.356	616
897.460	-462
897.563	304
897.666	538
897.769	70
897.872	-758
897.975	123
898.078	-91
898.181	-320
898.284	7
898.387	663
898.490	-375
898.593	225
898.695	-319
898.798	15
898.901	2
899.004	478
899.107	-212
899.209	134
899.312	-219
899.415	56
899.518	30
899.620	-98
899.723	-538
899.826	385
899.928	-273
900.031	221
900.133	199
900.236	442
900.338	-294
900.441	173
900.543	405
900.646	433
900.748	-606
900.851	-171
900.953	-47
901.055	469
901.158	-486
901.260	-212
901.362	-266
901.465	261
901.567	-160
901.669	395
901.771	-1031
901.873	-162
901.976	-423
902.078	-6
902.180	-278
902.282	260
902.384	-765
902.486	650
902.588	-358
902.690	141
902.792	-802
902.894	446
902.996	-302
903.098	193
903.200	-441
903.302	120
903.404	-284
903.505	1060
903.607	-386
903.709	414
903.811	113
903.913	60
904.014	-767
904.116	-249
904.218	-685
904.319	2
904.421	775
904.523	386
904.624	34
904.726	405
904.827	-565
904.929	85
905.030	-149
905.132	763
905.233	176
905.335	414
905.436	-710
905.537	539
905.639	-18
905.740	760
905.841	63
905.943	429
906.044	190
906.145	451
906.247	-548
906.348	151
906.449	-664
906.550	552
906.651	-205
906.752	-120
906.854	-1105
906.955	75
907.056	-570
907.157	-44
907.258	71
907.359	509
907.460	-476
907.561	468
907.662	-108
907.762	-542
907.863	-265
907.964	1097
908.065	15
908.166	-10
908.267	-223
908.367	-119
908.468	24
908.569	450
908.670	-772
908.770	645
908.871	-89
908.971	743
909.072	-314
909.173	703
909.273	697
909.374	622
909.474	-101
909.575	780
909.675	-479
909.776	914
909.876	-386
909.977	-17
910.077	-102
910.177	194
910.278	-122
910.378	-334
910.478	155
910.579	-179
910.679	229
910.779	688
910.879	-72
910.980	-214
911.080	58
911.180	388
911.280	-342
911.380	807
911.480	-535
911.580	489
911.680	269
911.780	70
911.880	-676
911.980	-6
912.080	-761
912.180	693
912.280	-427
912.380	97
912.480	-630
912.580	357
912.679	22
912.779	912
912.879	56
912.979	504
913.078	-714
913.178	-298
913.278	-289
913.377	189
913.477	361
913.577	-28
913.676	30
913.776	254
913.875	107
913.975	1406
914.074	270
914.174	976
914.273	-844
914.373	392
914.472	442
914.572	-419
914.671	70
914.770	25
914.870	-138
914.969	33
915.068	-496
915.167	495
915.267	7
915.366	243
915.465	86
915.564	632
915.663	-800
915.763	638
915.862	-676
915.961	222
916.060	-656
916.159	-119
916.258	-469
916.357	186
916.456	-301
916.555	449
916.654	-247
916.752	238
916.851	-241
916.950	22
917.049	-546
917.148	262
917.247	-424
917.345	-108
917.444	-731
917.543	42
917.642	-238
917.740	-26
917.839	-232
917.937	461
918.036	-249
918.135	-111
918.233	-627
918.332	650
918.430	278
918.529	297
918.627	-955
918.726	305
918.824	190
918.923	-58
919.021	-473
919.119	-30
919.218	321
919.316	-126
919.414	-323
919.512	373
919.611	-290
919.709	1007
919.807	21
919.905	502
920.003	-69
920.102	1190
920.200	-416
920.298	-98
920.396	-251
920.494	570
920.592	-532
920.690	613
920.788	-476
920.886	780
920.984	894
921.082	-388
921.180	559
921.277	417
921.375	-500
921.473	1124
921.571	180
921.669	609
921.766	183
921.864	533
921.962	-47
922.060	159
922.157	389
922.255	508
922.352	-23
922.450	1206
922.548	-368
922.645	1545
922.743	727
922.840	493
922.938	2181
923.035	2315
923.133	458
923.230	1827
923.327	1902
923.425	2042
923.522	2185
923.619	2020
923.717	822
923.814	1482
923.911	1404
924.008	2088
924.106	967
924.203	1835
924.300	897
924.397	1376
924.494	1187
924.591	2368
924.688	627
924.786	1237
924.883	1566
924.979	1938
925.077	795
925.173	1715
925.270	904
925.367	1581
925.464	1534
925.561	2039
925.658	967
925.755	1811
925.852	879
925.948	2024
926.045	1007
926.142	1485
926.239	942
926.335	878
926.432	2270
926.529	1958
926.625	1029
926.722	1358
926.818	1052
926.915	1517
927.011	345
927.108	1538
927.204	405
927.301	1634
927.397	799
927.494	2047
927.590	238
927.687	1602
927.783	1115
927.879	1434
927.976	161
928.072	1110
928.168	739
928.264	1121
928.361	255
928.457	2004
928.553	492
928.649	1633
928.745	794
928.841	887
928.937	1025
929.033	711
929.129	1288
929.225	1265
929.321	445
929.417	1594
929.513	1214
929.609	1563
929.705	447
929.801	844
929.897	565
929.993	959
930.089	766
930.184	774
930.280	676
930.376	1777
930.471	-228
930.567	888
930.663	536
930.758	117
930.854	185
930.950	1574
931.045	255
931.141	910
931.236	794
931.332	757
931.427	219
931.523	1227
931.618	684
931.714	1023
931.809	876
931.905	739
932.000	-127
932.095	449
932.191	381
932.286	1616
932.381	558
932.476	546
932.572	585
932.667	727
932.762	72
932.857	1660
932.952	18
933.047	527
933.142	-221
933.237	1162
933.332	469
933.427	1853
933.522	-28
933.617	514
933.712	-364
933.807	177
933.902	606
933.997	1300
934.092	-387
934.187	242
934.282	523
934.376	578
934.471	72
934.566	634
934.661	-544
934.755	232
934.850	107
934.945	1142
935.039	258
935.134	494
935.228	126
935.323	1115
935.417	-117
935.512	621
935.606	453
935.701	770
935.795	-298
935.890	444
935.984	-635
936.079	539
936.173	245
936.267	751
936.362	12
936.456	530
936.550	-479
936.644	-168
936.738	-193
936.833	-147
936.927	-292
937.021	713
937.115	-495
937.209	-296
937.303	903
937.397	-696
937.491	-10
937.585	208
937.679	477
937.773	188
937.867	-164
937.961	694
938.055	92
938.149	1086
938.243	-616
938.337	513
938.430	-268
938.524	192
938.618	-209
938.712	1139
938.805	-356
938.899	321
938.993	-935
939.086	-273
939.180	-531
939.274	-235
939.367	-219
939.461	398
939.554	-525
939.648	398
939.741	-110
939.835	-283
939.928	413
940.022	974
940.115	-843
940.208	255
940.302	43
940.395	578
940.488	-1309
940.582	639
940.675	-173
940.768	216
940.861	-125
940.954	773
941.048	-697
941.141	620
941.234	-205
941.327	-65
941.420	579
941.513	468
941.606	-685
941.699	1086
941.792	-517
941.885	-139
941.978	-730
942.071	-153
942.164	-1359
942.257	539
942.349	-664
942.442	112
942.535	-1227
942.628	-501
942.721	-324
942.813	-812
942.906	-853
942.999	-361
943.091	-1200
943.184	226
943.277	-389
943.369	-179
943.462	-178
943.554	316
943.647	-439
943.739	532
943.832	-124
943.924	-953
944.017	-103
944.109	-69
944.201	-1085
944.294	324
944.386	-718
944.478	-4
944.571	-971
944.663	-54
944.755	-189
944.847	334
944.940	-773
945.032	-486
945.124	-1413
945.216	454
945.308	-681
945.400	-244
945.492	-461
945.584	672
945.676	-653
945.768	107
945.860	-447
945.952	7
946.044	-668
946.136	24
946.228	-81
946.320	-362
946.412	-66
946.503	308
946.595	448
946.687	47
946.779	-1196
946.870	-302
946.962	-806
947.054	204
947.145	-312
947.237	-936
947.329	-26
947.420	-230
947.512	-596
947.603	336
947.695	-936
947.786	-793
947.878	-1074
947.969	231
948.061	-628
948.152	-392
948.243	-1409
948.335	57
948.426	-671
948.517	-648
948.609	-745
948.700	16
948.791	-715
948.882	-231
948.973	-348
949.065	-79
949.156	-435
949.247	-967
949.338	-1175
949.429	-297
949.520	-641
949.611	-1111
949.702	-685
949.793	-386
949.884	-267
949.975	-92
950.066	-1762
950.157	-1139
950.247	-493
950.338	-622
950.429	-1070
950.520	-196
950.611	-1035
950.701	-946
950.792	-874
950.883	175
950.973	-1327
951.064	-299
951.155	-661
951.245	-194
951.336	-611
951.427	47
951.517	199
951.608	391
951.698	-713
951.788	476
951.879	-1523
951.969	664
952.060	-555
952.150	61
952.240	194
952.331	-1393
952.421	146
952.511	-1226
952.602	-512
952.692	39
952.782	-551
952.872	-317
952.962	-1572
953.052	-1222
953.143	-1317
953.233	594
953.323	-945
953.413	-805
953.503	-752
953.593	-267
953.683	-713
953.773	-666
953.863	11
953.953	-92
954.042	-982
954.132	-657
954.222	-853
954.312	5
954.402	-1438
954.492	389
954.581	-1490
954.671	-442
954.761	-1394
954.850	1142
954.940	-1416
955.030	-120
955.119	-739
955.209	503
955.298	-1514
955.388	-295
955.477	-377
955.567	-525
955.656	-149
955.746	57
955.835	-987
955.925	-508
956.014	-467
956.103	135
956.193	-110
956.282	-580
956.371	-930
956.461	-1205
956.550	-1186
956.639	-99
956.728	-882
956.817	-219
956.906	-1341
956.995	91
957.085	-844
957.174	-478
957.263	-483
957.352	-277
957.441	-1503
957.530	-268
957.619	-633
957.708	-839
957.796	-1195
957.885	-668
957.974	-1331
958.063	-53
958.152	-1981
958.241	-176
958.329	-1656
958.418	-904
958.507	-2041
958.596	666
958.684	-1628
958.773	246
958.861	-1057
958.950	-250
959.039	-752
959.127	-1274
959.216	-383
959.304	-888
959.393	-1580
959.481	10
959.570	-747
959.658	-775
959.746	-760
959.835	-476
959.923	-743
960.011	-627
960.100	-148
960.188	-10
960.276	-980
960.365	-84
960.453	-998
960.541	-1855
960.629	-1393
960.717	-532
960.805	-1894
960.893	-241
960.981	-1801
961.069	980
961.158	-594
961.245	3
961.333	-787
961.421	-130
961.509	-572
961.597	216
961.685	-1155
961.773	-64
961.861	-2065
961.949	234
962.036	-1775
962.124	816
962.212	-1628
962.299	-1215
962.387	-523
962.475	-342
962.562	-1448
962.650	-39
962.738	-988
962.825	-639
962.913	-1148
963.000	-469
963.088	-1360
963.175	-929
963.263	118
963.350	239
963.438	-1256
963.525	-1272
963.612	-842
963.700	-323
963.787	32
963.874	-836
963.962	-844
964.049	-764
964.136	-899
964.223	-425
964.310	-866
964.398	-1263
964.485	-1020
964.572	-643
964.659	-491
964.746	-582
964.833	-1052
964.920	-12
965.007	-434
965.094	-544
965.181	-1164
965.268	-532
965.355	-624
965.441	-731
965.528	-1816
965.615	6
965.702	-773
965.789	-521
965.875	-644
965.962	-75
966.049	-1794
966.136	-368
966.222	-1305
966.309	165
966.395	-1336
966.482	-282
966.569	-811
966.655	-885
966.742	-826
966.828	-524
966.915	-1131
967.001	-449
967.087	-2175
967.174	-1381
967.260	-757
967.347	-552
967.433	-1419
967.519	149
967.605	-621
967.692	-874
967.778	-1159
967.864	-523
967.950	-1242
968.036	-1235
968.123	-867
968.209	-754
968.295	-1773
968.381	132
968.467	-1053
968.553	-1844
968.639	-271
968.725	-658
968.811	-1265
968.897	-438
968.983	-1784
969.069	-1141
969.154	-777
969.240	-1066
969.326	-1571
969.412	-199
969.497	-1260
969.583	-864
969.669	-1039
969.755	89
969.840	-1217
969.926	241
970.012	-1177
970.097	859
970.183	-1075
970.268	-418
970.354	-682
970.439	-1234
970.525	58
970.610	-1154
970.696	-212
970.781	-966
970.866	-1473
970.952	-891
971.037	-1794
971.122	-335
971.208	-1343
971.293	-37
971.378	-1633
971.463	-416
971.549	-1203
971.634	-238
971.719	-1880
971.804	-1069
971.889	-853
971.974	-1343
972.059	-1515
972.144	68
972.229	-1548
972.314	-940
972.399	-857
972.484	-1457
972.569	-641
972.654	-485
972.739	206
972.824	-1262
972.908	-1407
972.993	-79
973.078	-1921
973.163	-678
973.247	-875
973.332	-1768
973.417	-137
973.501	-1552
973.586	-1229
973.671	-1137
973.755	-976
973.840	112
973.924	-725
974.009	148
974.093	-1348
974.178	100
974.262	-1496
974.346	280
974.431	-1272
974.515	-731
974.600	-854
974.684	-1238
974.768	-1983
974.852	32
974.937	-1968
975.021	76
975.105	-1023
975.189	-958
975.273	8
975.358	-794
975.442	-1486
975.526	-21
975.610	-1897
975.694	-1344
975.778	-33
975.862	-901
975.946	-2181
976.030	956
976.114	-1107
976.198	-863
976.281	-1445
976.365	-504
976.449	-1357
976.533	-117
976.617	-811
976.700	-217
976.784	-1103
976.868	-724
976.951	-1240
977.035	-97
977.119	-1863
977.202	-396
977.286	-1049
977.369	84
977.453	-72
977.536	-681
977.620	-2063
977.703	-327
977.787	-1530
977.870	-84
977.953	-961
978.037	-841
978.120	-824
978.203	-1592
978.287	-997
978.370	-833
978.453	-1786
978.536	-575
978.620	-907
978.703	262
978.786	-1168
978.869	-1013
978.952	-2810
979.035	783
979.118	-943
979.201	-502
979.284	-609
979.367	-865
979.450	-852
979.533	-1010
979.616	-952
979.699	-754
979.782	-909
979.865	-664
979.948	-1161
980.030	-760
980.113	-1143
980.196	-1426
980.279	-1225
980.361	-367
980.444	-1335
980.526	-297
980.609	-530
980.692	-579
980.774	-1533
980.857	-1820
980.939	51
981.022	-609
981.104	-985
981.187	-693
981.269	-389
981.352	-44
981.434	-1770
981.516	-1095
981.599	-344
981.681	155
981.763	-876
981.846	-78
981.928	-768
982.010	-876
982.092	-1448
982.174	59
982.256	-1300
982.339	-455
982.421	-950
982.503	-717
982.585	-1717
982.667	-1185
982.749	-627
982.831	-185
982.913	-2398
982.995	705
983.077	-1473
983.158	396
983.240	-2514
983.322	435
983.404	-967
983.486	-484
983.568	-914
983.649	-817
983.731	-342
983.813	-453
983.894	-1333
983.976	-1674
984.058	-1705
984.139	0
984.221	-1934
984.302	-356
984.384	-1255
984.465	-1010
984.547	-849
984.628	-1241
984.710	-1106
984.791	-1751
984.872	-1359
984.954	-805
985.035	-832
985.116	-1587
985.198	-1792
985.279	545
985.360	-1970
985.441	-267
985.522	-141
985.604	-146
985.685	-2805
985.766	-7
985.847	-577
985.928	-918
986.009	-1433
986.090	-762
986.171	-1100
986.252	-1127
986.333	-954
986.414	-311
986.495	-1007
986.576	-1145
986.656	-1503
986.737	-186
986.818	-1172
986.899	-903
986.980	-1524
987.060	-320
987.141	-1588
987.222	706
987.302	-1001
987.383	113
987.464	-999
987.544	41
987.625	-510
987.705	-378
987.786	-903
987.866	-552
987.947	-839
988.027	-399
988.108	-1009
988.188	-868
988.268	-1881
988.349	-838
988.429	-911
988.509	262
988.589	-1412
988.670	-1071
988.750	57
988.830	-105
988.910	-1004
988.990	-575
989.070	-516
989.151	-538
989.231	-1422
989.311	-273
989.391	-1170
989.471	-316
989.551	-2053
989.631	-829
989.711	-298
989.791	-997
989.870	-1528
989.950	-66
990.030	-1653
990.110	-1182
990.190	-1312
990.269	-1150
990.349	-1167
990.429	279
990.509	-1404
990.588	-1072
990.668	-846
990.747	-1019
990.827	-1492
990.907	-511
990.986	-1402
991.066	-174
991.145	-2055
991.225	-385
991.304	-1325
991.383	-696
991.463	-1511
991.542	59
991.622	-1590
991.701	-825
991.780	-1867
991.859	23
991.939	-1587
992.018	-304
992.097	-2102
992.176	-148
992.256	-1649
992.335	-1178
992.414	-1116
992.493	-540
992.572	-1571
992.651	-100
992.730	-1248
992.809	-1365
992.888	-1557
992.967	-510
993.046	-1200
993.125	-1580
993.203	-1165
993.282	-349
993.361	-235
993.440	-689
993.519	-2117
993.597	22
993.676	-2167
993.755	22
993.834	-976
993.912	-2260
993.991	-1092
994.069	-1975
994.148	-1471
994.226	-858
994.305	-1416
994.384	-1441
994.462	-717
994.540	-1685
994.619	-1406
994.697	-1003
994.776	-1332
994.854	-360
994.932	-1996
995.011	-880
995.089	-1920
995.167	-691
995.245	-1473
995.324	-2038
995.402	-1491
995.480	-590
995.558	-785
995.636	-1808
995.714	-2047
995.792	-98
995.870	-2388
995.948	-863
996.026	-1258
996.104	-2587
996.182	-438
996.260	-866
996.338	-1434
996.416	-1989
996.494	-1758
996.572	-319
996.649	-2044
996.727	-1601
996.805	-1625
996.883	-980
996.960	-2040
997.038	-1159
997.116	-931
997.193	-1224
997.271	-1898
997.348	-1192
997.426	-1550
997.504	-2044
997.581	-899
997.658	-1417
997.736	-2355
997.813	-676
997.891	-418
997.968	-1413
998.046	-1310
998.123	-1468
998.200	-1299
998.277	-1654
998.355	-1586
998.432	-2054
998.509	-1473
998.586	-423
998.663	-1154
998.741	-1519
998.818	-1896
998.895	-1437
998.972	-830
999.049	-1996
999.126	-1623
999.203	-1451
999.280	-1790
999.357	-1432
999.434	-1978
999.511	-1488
999.587	-968
999.664	-1575
999.741	-1907
999.818	-1355
999.895	-2237
999.971	-1211
1000.048	-1369
1000.125	-1132
1000.202	-2380
1000.278	-1242
1000.355	-1565
1000.431	-1259
1000.508	-2278
1000.584	-1676
1000.661	-1766
1000.738	-1829
1000.814	-1831
1000.890	-926
1000.967	-1675
1001.043	-1692
1001.120	-2398
1001.196	-1387
1001.272	-1769
1001.349	-1348
1001.425	-1758
1001.501	-1838
1001.577	-2769
1001.654	-1011
1001.730	-1797
1001.806	-1238
1001.882	-2152
1001.958	-970
1002.034	-1342
1002.110	-942
1002.186	-2129
1002.262	-1814
1002.338	-2378
1002.414	-1650
1002.490	-2040
1002.566	-1609
1002.642	-2553
1002.718	-1632
1002.794	-1645
1002.870	-1987
1002.945	-1644
1003.021	-2159
1003.097	-1566
1003.173	-1098
1003.248	-2634
1003.324	-1542
1003.400	-2204
1003.475	-1710
1003.551	-2922
1003.626	-1474
1003.702	-1917
1003.777	-1281
1003.853	-2018
1003.928	-1353
1004.004	-1829
1004.079	-348
1004.155	-2111
1004.230	-2248
1004.305	-1134
1004.381	-1601
1004.456	-2239
1004.531	-1163
1004.607	-1449
1004.682	-1309
1004.757	-1972
1004.832	-203
1004.907	-2190
1004.982	-783
1005.057	-2677
1005.133	-1763
1005.208	-2827
1005.283	-1689
1005.358	-1986
1005.433	-1830
1005.508	-1463
1005.583	-2227
1005.657	-2659
1005.732	-435
1005.807	-2859
1005.882	-1594
1005.957	-2337
1006.032	-1009
1006.106	-1916
1006.181	-1730
1006.256	-2729
1006.331	-1659
1006.405	-2186
1006.480	-1703
1006.554	-2674
1006.629	-1690
1006.704	-2123
1006.778	-1886
1006.853	-1291
1006.927	-1729
1007.002	-2504
1007.076	-368
1007.150	-2383
1007.225	-1674
1007.299	-1690
1007.373	-1869
1007.448	-1465
1007.522	-1538
1007.596	-1753
1007.671	-1795
1007.745	-1617
1007.819	-3000
1007.893	-2499
1007.967	-1658
1008.041	-3333
1008.115	-1189
1008.190	-2538
1008.264	-1045
1008.338	-3383
1008.412	-1417
1008.486	-1694
1008.560	-1313
1008.633	-2983
1008.707	-1826
1008.781	-1807
1008.855	-1537
1008.929	-1345
1009.003	-2001
1009.076	-3000
1009.150	-1037
1009.224	-2351
1009.298	-2217
1009.371	-2770
1009.445	-684
1009.519	-2381
1009.592	-2350
1009.666	-1920
1009.739	-1479
1009.813	-2685
1009.886	-231
1009.960	-3139
1010.033	-1348
1010.107	-2064
1010.180	-2127
1010.253	-2709
1010.327	-1791
1010.400	-2387
1010.473	-2243
1010.547	-880
1010.620	-1557
1010.693	-1636
1010.766	-2077
1010.840	-1755
1010.913	-1676
1010.986	-2096
1011.059	-2734
1011.132	-2591
1011.205	-1411
1011.278	-2313
1011.351	-1809
1011.424	-2484
1011.497	-2148
1011.570	-2679
1011.643	-2464
1011.716	-2322
1011.789	-1861
1011.862	-2084
1011.934	-1928
1012.007	-3565
1012.080	-1871
1012.153	-1790
1012.225	-1361
1012.298	-2874
1012.371	-1634
1012.443	-1867
1012.516	-1769
1012.588	-2558
1012.661	-2190
1012.733	-3610
1012.806	-1786
1012.879	-2656
1012.951	-1933
1013.023	-3078
1013.096	-1246
1013.168	-3393
1013.241	-1067
1013.313	-1855
1013.385	-1405
1013.458	-2021
1013.530	-1181
1013.602	-2809
1013.674	-2028
1013.746	-3037
1013.819	-1043
1013.891	-2378
1013.963	-3115
1014.035	-1901
1014.107	-1498
1014.179	-1793
1014.251	-2142
1014.323	-2308
1014.395	-1665
1014.467	-2259
1014.539	-1210
1014.611	-2969
1014.683	-1667
1014.754	-2519
1014.826	-2162
1014.898	-2012
1014.970	-2903
1015.042	-1473
1015.113	-1369
1015.185	-1723
1015.257	-2604
1015.328	-2373
1015.400	-2773
1015.471	-2153
1015.543	-2439
1015.615	-2325
1015.686	-2445
1015.757	-2099
1015.829	-1436
1015.901	-3269
1015.972	-1933
1016.043	-2318
1016.115	-1383
1016.186	-2793
1016.257	-2083
1016.328	-2152
1016.400	-966
1016.471	-2868
1016.542	-1743
1016.613	-2134
1016.685	-2170
1016.756	-1707
1016.827	-1658
1016.898	-2543
1016.969	-1171
1017.040	-2714
1017.111	-2165
1017.182	-1989
1017.253	-1929
1017.324	-2391
1017.395	-1718
1017.466	-2733
1017.537	-2005
1017.608	-2095
1017.678	-1295
1017.749	-3159
1017.820	-1826
1017.891	-3116
1017.961	-2440
1018.032	-1932
1018.103	-1302
1018.173	-2527
1018.244	-1815
1018.315	-2021
1018.385	-769
1018.456	-2462
1018.526	-1941
1018.597	-2539
1018.667	-2163
1018.738	-1939
1018.808	-1760
1018.878	-2373
1018.949	-934
1019.019	-1883
1019.089	-1823
1019.160	-2200
1019.230	-1797
1019.300	-2625
1019.371	-2424
1019.441	-1798
1019.511	-1512
1019.581	-2561
1019.651	-2125
1019.721	-1964
1019.791	-2080
1019.861	-2756
1019.931	-1031
1020.001	-2066
1020.071	-1481
1020.141	-2001
1020.211	-1734
1020.281	-2243
1020.351	-1954
1020.421	-2115
1020.491	-2310
1020.560	-2350
1020.630	-1981
1020.700	-2101
1020.770	-2255
1020.839	-2659
1020.909	-1959
1020.979	-3148
1021.048	-2330
1021.118	-2086
1021.187	-2560
1021.257	-2687
1021.326	-1936
1021.396	-2444
1021.465	-1958
1021.535	-2331
1021.604	-2720
1021.674	-1873
1021.743	-2359
1021.812	-2531
1021.882	-2122
1021.951	-2276
1022.020	-2004
1022.089	-2233
1022.159	-2077
1022.228	-2370
1022.297	-2134
1022.366	-2609
1022.435	-2107
1022.504	-2462
1022.573	-2154
1022.642	-1950
1022.711	-1701
1022.781	-3316
1022.849	-2427
1022.918	-3411
1022.987	-1766
1023.056	-2162
1023.125	-2347
1023.194	-1978
1023.263	-1767
1023.331	-2042
1023.400	-2352
1023.469	-2774
1023.538	-1536
1023.606	-2522
1023.675	-2576
1023.744	-3149
1023.812	-2400
1023.881	-2171
1023.949	-2516
1024.018	-2555
1024.086	-1716
1024.155	-1312
1024.223	-1970
1024.292	-2183
1024.360	-2152
1024.429	-2703
1024.497	-2213
1024.565	-2222
1024.634	-1677
1024.702	-2245
1024.770	-1790
1024.838	-3648
1024.907	-1737
1024.975	-1952
1025.043	-2237
1025.111	-2977
1025.179	-1379
1025.247	-2306
1025.315	-2641
1025.383	-3220
1025.451	-2510
1025.519	-2792
1025.587	-2156
1025.655	-1839
1025.723	-1924
1025.791	-2122
1025.859	-1933
1025.927	-2036
1025.995	-2243
1026.062	-3223
1026.130	-2343
1026.198	-3137
1026.266	-2359
1026.333	-2000
1026.401	-1625
1026.469	-2687
1026.536	-1944
1026.604	-2669
1026.671	-2056
1026.739	-2758
1026.806	-2461
1026.874	-2712
1026.941	-1667
1027.009	-2668
1027.076	-2333
1027.144	-2126
1027.211	-2723
1027.278	-3179
1027.345	-2079
1027.413	-2895
1027.480	-2292
1027.547	-2417
1027.614	-1764
1027.682	-2101
1027.749	-2349
1027.816	-2020
1027.883	-2167
1027.950	-2241
1028.017	-1947
1028.084	-2423
1028.151	-2478
1028.218	-2563
1028.285	-1881
1028.352	-2547
1028.419	-2188
1028.486	-2366
1028.553	-2206
1028.619	-2990
1028.686	-2510
1028.753	-3607
1028.820	-2926
1028.886	-2421
1028.953	-2564
1029.020	-2551
1029.086	-2532
1029.153	-2944
1029.220	-2395
1029.286	-2319
1029.353	-1611
1029.419	-2611
1029.486	-2304
1029.552	-2849
1029.619	-2076
1029.685	-2155
1029.751	-2181
1029.818	-2334
1029.884	-1794
1029.951	-1432
1030.017	-1920
1030.083	-2797
1030.149	-2571
1030.216	-3038
1030.282	-2361
1030.348	-3230
1030.414	-2320
1030.480	-3274
1030.546	-2294
1030.612	-2209
1030.678	-2849
1030.744	-3146
1030.810	-2622
1030.876	-2429
1030.942	-2050
1031.008	-2079
1031.074	-2686
1031.140	-2252
1031.206	-2265
1031.272	-2669
1031.337	-1604
1031.403	-2816
1031.469	-2119
1031.534	-2496
1031.600	-1596
1031.666	-2657
1031.731	-2493
1031.797	-2648
1031.863	-2227
1031.928	-2364
1031.994	-2769
1032.059	-2498
1032.125	-1392
1032.190	-3423
1032.256	-2494
1032.321	-3021
1032.386	-2103
1032.452	-2690
1032.517	-2172
1032.582	-2857
1032.647	-2063
1032.713	-3360
1032.778	-2229
1032.843	-3018
1032.908	-1803
1032.974	-2781
1033.039	-2241
1033.104	-2491
1033.169	-2920
1033.234	-2653
1033.299	-1597
1033.364	-2632
1033.429	-2732
1033.494	-2596
1033.559	-2559
1033.624	-2903
1033.688	-2601
1033.753	-3098
1033.818	-1543
1033.883	-3027
1033.948	-1864
1034.013	-2943
1034.077	-2250
1034.142	-2963
1034.207	-1829
1034.271	-1552
1034.336	-628
1034.400	-1491
1034.465	-2312
1034.530	-3511
1034.594	-2270
1034.658	-3201
1034.723	-1881
1034.787	-2329
1034.852	-2320
1034.916	-2688
1034.981	-2688
1035.045	-3002
1035.109	-2826
1035.173	-2276
1035.238	-2863
1035.302	-2529
1035.366	-1963
1035.430	-2867
1035.495	-2768
1035.559	-1556
1035.623	-1951
1035.687	-3027
1035.751	-2382
1035.815	-2953
1035.879	-1575
1035.943	-2732
1036.007	-2316
1036.071	-3056
1036.135	-2907
1036.198	-2706
1036.262	-2578
1036.326	-2394
1036.390	-2136
1036.454	-2217
1036.517	-2155
1036.581	-3117
1036.645	-2148
1036.709	-2340
1036.772	-1858
1036.836	-2785
1036.900	-2068
1036.963	-3190
1037.026	-1965
1037.090	-3234
1037.154	-3017
1037.217	-2701
1037.280	-2467
1037.344	-3171
1037.407	-2422
1037.471	-3038
1037.534	-2068
1037.597	-2285
1037.661	-2187
1037.724	-2396
1037.787	-2611
1037.850	-2510
1037.913	-1290
1037.977	-2172
1038.040	-2188
1038.103	-2380
1038.166	-2244
1038.229	-2684
1038.292	-2829
1038.355	-2757
1038.418	-2059
1038.481	-2277
1038.544	-1996
1038.607	-3239
1038.670	-2568
1038.732	-2761
1038.795	-2486
1038.858	-2180
1038.921	-1794
1038.984	-2600
1039.046	-2846
1039.109	-3365
1039.172	-1947
1039.234	-2744
1039.297	-3065
1039.360	-3054
1039.422	-2899
1039.485	-2615
1039.547	-2149
1039.610	-2383
1039.672	-2474
1039.734	-2720
1039.797	-2328
1039.859	-2347
1039.922	-2490
1039.984	-2843
1040.046	-1874
1040.109	-2824
1040.171	-2212
1040.233	-2925
1040.295	-2592
1040.358	-3115
1040.420	-2425
1040.482	-2588
1040.544	-2848
1040.606	-2939
1040.668	-2455
1040.730	-2554
1040.792	-2452
1040.854	-3173
1040.916	-2886
1040.978	-2431
1041.040	-1792
1041.102	-3202
1041.164	-2118
1041.225	-2956
1041.287	-2145
1041.349	-2864
1041.411	-2594
1041.472	-3159
1041.534	-1958
1041.596	-2310
1041.657	-2035
1041.719	-3332
1041.781	-2325
1041.842	-3619
1041.904	-2224
1041.965	-3343
1042.027	-1942
1042.088	-2209
1042.150	-1966
1042.211	-2325
1042.272	-2703
1042.334	-3394
1042.395	-1498
1042.456	-2613
1042.518	-2018
1042.579	-2667
1042.640	-2234
1042.701	-2469
1042.763	-2529
1042.824	-2879
1042.885	-2631
1042.946	-2675
1043.007	-2725
1043.068	-2079
1043.129	-2452
1043.190	-2311
1043.251	-1883
1043.312	-2863
1043.373	-2940
1043.434	-2830
1043.495	-2178
1043.556	-2690
1043.616	-2569
1043.677	-3007
1043.738	-2420
1043.799	-2869
1043.859	-2101
1043.920	-2824
1043.981	-2528
1044.041	-2910
1044.102	-2783
1044.162	-2718
1044.223	-2029
1044.284	-2923
1044.344	-2079
1044.405	-2361
1044.465	-1892
1044.525	-2975
1044.586	-2239
1044.646	-2654
1044.707	-2174
1044.767	-2584
1044.827	-2154
1044.887	-2919
1044.948	-1946
1045.008	-2536
1045.068	-2015
1045.128	-2635
1045.188	-2053
1045.249	-1809
1045.309	-2160
1045.369	-2182
1045.429	-2660
1045.489	-3337
1045.549	-1978
1045.609	-2105
1045.669	-1666
1045.729	-2275
1045.789	-1688
1045.848	-2361
1045.908	-2755
1045.968	-2719
1046.028	-2310
1046.088	-2616
1046.147	-1631
1046.207	-2644
1046.267	-1399
1046.326	-1721
1046.386	-1547
1046.446	-1272
1046.505	-1154
1046.565	-2021
1046.624	-824
1046.684	-1000
1046.743	-1052
1046.803	-1100
1046.862	-389
1046.922	0
