'Start Wavelength	183.907
'End Wavelength	1046.922
'Gate Delay	5.000
'Gate Width (ms)	1.050
'Laser Output Level	0.000
'X Position	0.000
'Y Position	0.000
'Z Position	0.000
'Grid Point Number	1.000
'Shot Number	100.000
183.907	228.000
183.977	496.000
184.047	-308
184.116	795
184.186	-634
184.256	175
184.325	-87
184.395	-626
184.465	257
184.534	-326
184.604	-755
184.674	-12
184.743	-183
184.813	120
184.883	-122
184.952	65
185.022	603
185.092	354
185.161	-659
185.231	84
185.301	-962
185.370	309
185.440	-478
185.509	77
185.579	371
185.649	160
185.718	151
185.788	248
185.857	-823
185.927	-443
185.996	255
186.066	-186
186.136	-686
186.205	222
186.275	-672
186.344	-346
186.414	-77
186.483	-237
186.553	-164
186.622	25
186.692	-681
186.761	-244
186.831	587
186.900	967
186.970	-91
187.039	548
187.109	641
187.178	1023
187.248	193
187.317	50
187.387	-46
187.456	-725
187.526	-840
187.595	46
187.664	-596
187.734	392
187.803	-459
187.873	-15
187.942	-198
188.012	498
188.081	-79
188.150	581
188.220	-423
188.289	227
188.358	335
188.428	385
188.497	-496
188.567	426
188.636	-715
188.705	257
188.775	458
188.844	-844
188.913	-442
188.983	-75
189.052	-1151
189.121	-153
189.191	-460
189.260	671
189.329	592
189.399	-870
189.468	-737
189.537	-788
189.606	-383
189.676	474
189.745	-370
189.814	677
189.883	73
189.953	-243
190.022	-542
190.091	138
190.161	1619
190.230	804
190.299	-859
190.368	294
190.437	-724
190.507	-64
190.576	22
190.645	12
190.714	-1010
190.783	29
190.853	-428
190.922	859
190.991	-577
191.060	591
191.129	-958
191.198	498
191.268	-571
191.337	89
191.406	-222
191.475	-64
191.544	-340
191.613	446
191.682	-269
191.752	-203
191.821	-964
191.890	-122
191.959	-715
192.028	34
192.097	-155
192.166	599
192.235	387
192.304	410
192.373	-671
192.442	324
192.511	-741
192.580	-8
192.650	-118
192.719	430
192.788	-37
192.857	696
192.926	-431
192.995	612
193.064	636
193.133	1243
193.202	942
193.271	756
193.340	143
193.409	1314
193.478	543
193.547	1087
193.615	742
193.684	2265
193.753	290
193.822	962
193.891	39
193.960	640
194.029	-608
194.098	136
194.167	-941
194.236	624
194.305	-406
194.374	745
194.443	-294
194.512	58
194.580	-221
194.649	101
194.718	471
194.787	497
194.856	-311
194.925	709
194.994	-58
195.062	513
195.131	-301
195.200	341
195.269	-444
195.338	1287
195.407	-155
195.475	49
195.544	97
195.613	372
195.682	406
195.751	-131
195.819	-481
195.888	309
195.957	1131
196.026	-457
196.094	977
196.163	152
196.232	-104
196.301	177
196.369	113
196.438	1125
196.507	212
196.576	409
196.644	-257
196.713	698
196.782	-414
196.850	1311
196.919	-43
196.988	524
197.056	-919
197.125	130
197.194	-246
197.262	93
197.331	-160
197.400	-282
197.468	-651
197.537	225
197.606	-215
197.674	-114
197.743	1198
197.812	1227
197.880	948
197.949	1406
198.017	1098
198.086	897
198.155	-1077
198.223	1061
198.292	1070
198.360	435
198.429	-358
198.497	337
198.566	467
198.635	1794
198.703	77
198.772	333
198.840	1019
198.909	2601
198.977	159
199.046	346
199.114	-126
199.183	-56
199.251	-234
199.320	717
199.388	-31
199.457	571
199.525	-120
199.594	278
199.662	-590
199.731	582
199.799	-724
199.867	197
199.936	-898
200.004	270
200.073	461
200.141	1033
200.210	-281
200.278	663
200.346	-346
200.415	233
200.483	-483
200.552	276
200.620	172
200.688	-566
200.757	389
200.825	86
200.893	-774
200.962	290
201.030	-638
201.098	-548
201.167	144
201.235	-423
201.303	-283
201.372	1002
201.440	417
201.508	-21
201.577	-659
201.645	974
201.713	-338
201.781	47
201.850	536
201.918	703
201.986	-447
202.055	191
202.123	-218
202.191	-48
202.259	252
202.327	311
202.396	-283
202.464	674
202.532	-29
202.600	1545
202.669	851
202.737	972
202.805	120
202.873	473
202.941	257
203.009	295
203.078	-96
203.146	142
203.214	-100
203.282	133
203.350	497
203.418	890
203.487	699
203.555	638
203.623	-6
203.691	868
203.759	86
203.827	-82
203.895	-78
203.963	119
204.031	-77
204.099	-397
204.168	162
204.236	680
204.304	-242
204.372	543
204.440	-62
204.508	906
204.576	-48
204.644	262
204.712	-432
204.780	332
204.848	436
204.916	205
204.984	233
205.052	840
205.120	389
205.188	1130
205.256	53
205.324	717
205.392	167
205.460	828
205.528	-782
205.596	990
205.664	124
205.732	280
205.799	1410
205.867	3110
205.935	133
206.003	1011
206.071	-440
206.139	511
206.207	973
206.275	665
206.343	235
206.411	970
206.478	682
206.546	617
206.614	1
206.682	674
206.750	-1044
206.818	475
206.885	900
206.953	284
207.021	554
207.089	1170
207.157	-73
207.225	1123
207.292	319
207.360	1385
207.428	-74
207.496	132
207.563	-303
207.631	741
207.699	433
207.767	768
207.834	-93
207.902	1242
207.970	36
208.038	787
208.105	378
208.173	213
208.241	136
208.309	1683
208.376	-155
208.444	2603
208.512	426
208.579	411
208.647	754
208.715	458
208.782	416
208.850	719
208.918	-584
208.985	1254
209.053	-199
209.120	670
209.188	-32
209.256	1060
209.323	143
209.391	258
209.459	1565
209.526	725
209.594	293
209.661	518
209.729	360
209.796	790
209.864	451
209.932	204
209.999	966
210.067	1341
210.134	942
210.202	593
210.269	1006
210.337	1382
210.404	737
210.472	491
210.539	569
210.607	901
210.674	19
210.742	1064
210.809	176
210.877	1589
210.944	682
211.012	573
211.079	2124
211.146	1056
211.214	-76
211.281	974
211.349	450
211.416	1599
211.484	559
211.551	609
211.618	589
211.686	1476
211.753	356
211.821	1603
211.888	255
211.955	1368
212.023	660
212.090	1075
212.157	317
212.225	1112
212.292	2128
212.359	4053
212.427	9597
212.494	4514
212.561	1306
212.629	905
212.696	622
212.763	1295
212.831	57
212.898	1208
212.965	778
213.032	1564
213.100	249
213.167	102
213.234	1176
213.301	1613
213.369	844
213.436	1217
213.503	722
213.570	1247
213.638	596
213.705	405
213.772	106
213.839	729
213.906	1016
213.973	1183
214.041	284
214.108	1607
214.175	53
214.242	252
214.309	783
214.376	1425
214.444	426
214.511	1700
214.578	992
214.645	1571
214.712	513
214.779	935
214.846	1135
214.913	1800
214.980	1064
215.048	1336
215.115	2226
215.182	2346
215.249	640
215.316	782
215.383	2120
215.450	1462
215.517	550
215.584	914
215.651	113
215.718	741
215.785	513
215.852	135
215.919	167
215.986	956
216.053	492
216.120	480
216.187	1014
216.254	1146
216.321	-259
216.388	430
216.455	878
216.522	1102
216.589	537
216.656	2153
216.722	1707
216.789	1839
216.856	2079
216.923	2269
216.990	1075
217.057	2039
217.124	1728
217.191	818
217.258	2024
217.324	3671
217.391	5115
217.458	3660
217.525	1950
217.592	2032
217.659	-191
217.725	1625
217.792	1338
217.859	2167
217.926	45
217.993	1240
218.059	680
218.126	842
218.193	610
218.260	739
218.327	-75
218.393	567
218.460	-203
218.527	299
218.594	-440
218.660	1562
218.727	1714
218.794	-28
218.860	1222
218.927	569
218.994	204
219.061	424
219.127	664
219.194	1426
219.261	195
219.327	-181
219.394	243
219.461	-189
219.527	590
219.594	1662
219.661	457
219.727	106
219.794	644
219.860	552
219.927	709
219.994	1371
220.060	1812
220.127	1560
220.193	598
220.260	1485
220.326	2053
220.393	5584
220.460	7243
220.526	5277
220.593	1612
220.659	3739
220.726	1546
220.792	5588
220.859	5464
220.925	8245
220.992	13310
221.058	11680
221.125	7885
221.191	6647
221.258	2475
221.324	2462
221.391	292
221.457	918
221.524	1009
221.590	1764
221.657	5146
221.723	4488
221.789	3340
221.856	3823
221.922	731
221.989	1643
222.055	1183
222.121	231
222.188	1034
222.254	775
222.321	132
222.387	-242
222.453	729
222.520	303
222.586	-863
222.652	1182
222.719	-236
222.785	1272
222.851	-176
222.918	1046
222.984	-250
223.050	187
223.116	-663
223.183	1638
223.249	-1099
223.315	340
223.382	246
223.448	488
223.514	-133
223.580	-643
223.647	-308
223.713	-285
223.779	322
223.845	69
223.911	-539
223.978	114
224.044	294
224.110	-164
224.176	450
224.242	48
224.309	-565
224.375	33
224.441	141
224.507	318
224.573	-434
224.639	607
224.705	-621
224.772	944
224.838	-801
224.904	776
224.970	-412
225.036	276
225.102	85
225.168	703
225.234	168
225.300	624
225.366	-219
225.432	1127
225.499	-680
225.565	48
225.631	-269
225.697	705
225.763	1460
225.829	1010
225.895	732
225.961	1210
226.027	1054
226.093	537
226.159	2236
226.225	3843
226.291	9553
226.357	18426
226.423	8723
226.489	3464
226.554	1242
226.620	2466
226.686	1481
226.752	3546
226.818	7623
226.884	21906
226.950	21309
227.016	7612
227.082	3159
227.148	902
227.214	1333
227.279	1604
227.345	1084
227.411	469
227.477	207
227.543	3772
227.609	2015
227.674	1928
227.740	559
227.806	1087
227.872	-63
227.938	1076
228.003	1199
228.069	692
228.135	162
228.201	833
228.267	-292
228.332	786
228.398	-598
228.464	1554
228.530	112
228.595	388
228.661	-274
228.727	234
228.792	2057
228.858	93
228.924	-1686
228.990	1811
229.055	-485
229.121	670
229.187	204
229.252	-513
229.318	-164
229.384	612
229.449	257
229.515	-774
229.581	-1177
229.646	2017
229.712	-135
229.777	1313
229.843	946
229.909	971
229.974	63
230.040	1303
230.105	415
230.171	353
230.236	1102
230.302	2216
230.368	855
230.433	585
230.499	897
230.564	931
230.630	-408
230.695	357
230.761	407
230.826	-413
230.892	1081
230.957	-347
231.023	56
231.088	597
231.154	90
231.219	933
231.284	-204
231.350	1167
231.415	-683
231.481	1264
231.546	187
231.612	625
231.677	-316
231.742	-472
231.808	725
231.873	-526
231.939	-1230
232.004	2199
232.069	1512
232.135	687
232.200	-151
232.265	632
232.331	-711
232.396	-249
232.461	-548
232.527	-541
232.592	-1002
232.657	486
232.723	-144
232.788	1220
232.853	243
232.918	-95
232.984	-1243
233.049	221
233.114	-731
233.179	550
233.245	985
233.310	1905
233.375	-1309
233.440	595
233.506	-579
233.571	26
233.636	-215
233.701	353
233.766	455
233.832	1467
233.897	7
233.962	-1219
234.027	1942
234.092	737
234.157	-298
234.222	783
234.288	922
234.353	3310
234.418	3374
234.483	2557
234.548	199
234.613	96
234.678	447
234.743	621
234.808	3886
234.873	1503
234.938	1345
235.004	1302
235.069	743
235.134	-31
235.199	1450
235.264	1881
235.329	-883
235.394	467
235.459	790
235.524	-451
235.589	440
235.654	704
235.719	-668
235.784	1629
235.849	74
235.913	1722
235.978	1730
236.043	2665
236.108	869
236.173	697
236.238	1475
236.303	241
236.368	-11
236.433	2139
236.498	2543
236.563	2591
236.627	4967
236.692	25281
236.757	23317
236.822	7704
236.887	3722
236.952	3745
237.017	1556
237.081	3923
237.146	3426
237.211	10900
237.276	23707
237.341	44365
237.405	19826
237.470	6704
237.535	2876
237.600	3372
237.664	2453
237.729	583
237.794	1833
237.859	8229
237.923	4317
237.988	1593
238.053	2147
238.118	1939
238.182	5209
238.247	7856
238.312	1312
238.376	1505
238.441	-981
238.506	2540
238.570	-1336
238.635	2053
238.700	201
238.764	326
238.829	2911
238.893	2348
238.958	2044
239.023	1111
239.087	-152
239.152	956
239.216	-304
239.281	377
239.346	-97
239.410	791
239.475	-95
239.539	5777
239.604	4553
239.668	2586
239.733	704
239.797	1031
239.862	5536
239.926	4835
239.991	2312
240.055	1647
240.120	-72
240.184	1135
240.249	-789
240.313	708
240.378	413
240.442	3219
240.507	5351
240.571	907
240.635	1374
240.700	2992
240.764	670
240.829	-248
240.893	-661
240.957	421
241.022	2319
241.086	5580
241.151	1324
241.215	519
241.279	599
241.344	2030
241.408	1638
241.472	150
241.537	1112
241.601	1170
241.665	-695
241.730	77
241.794	1253
241.858	571
241.922	-62
241.987	1017
242.051	364
242.115	-182
242.179	1170
242.244	459
242.308	136
242.372	1194
242.436	-144
242.501	876
242.565	-656
242.629	-559
242.693	376
242.757	69
242.822	-708
242.886	910
242.950	563
243.014	349
243.078	-78
243.142	854
243.206	38
243.271	1381
243.335	300
243.399	1963
243.463	8666
243.527	32081
243.591	10000
243.655	3362
243.719	15
243.783	2603
243.847	2484
243.911	4741
243.975	1781
244.040	806
244.104	1305
244.168	772
244.232	390
244.296	1813
244.360	3449
244.424	654
244.488	-33
244.552	908
244.615	-1356
244.679	1420
244.743	1005
244.807	148
244.871	626
244.935	870
244.999	-960
245.063	785
245.127	765
245.191	1952
245.255	1601
245.319	877
245.383	-507
245.446	1415
245.510	-371
245.574	474
245.638	499
245.702	-605
245.766	2724
245.829	2409
245.893	-761
245.957	74
246.021	1697
246.085	680
246.149	-250
246.212	4295
246.276	5497
246.340	1830
246.404	869
246.467	2150
246.531	-106
246.595	1667
246.659	1855
246.722	-155
246.786	1680
246.850	2101
246.913	2219
246.977	980
247.041	81
247.104	221
247.168	-9
247.232	3731
247.295	9245
247.359	4325
247.423	839
247.486	3168
247.550	2347
247.614	373
247.677	1388
247.741	861
247.804	-11
247.868	1234
247.932	2129
247.995	7985
248.059	2526
248.122	-120
248.186	1034
248.249	2947
248.313	11759
248.376	14697
248.440	9129
248.503	1929
248.567	3208
248.630	1975
248.694	3991
248.757	5397
248.821	15469
248.884	8642
248.948	5925
249.011	11325
249.075	16977
249.138	14907
249.202	5731
249.265	2139
249.328	4155
249.392	2225
249.455	2163
249.519	2070
249.582	964
249.645	4218
249.709	2496
249.772	2488
249.835	1495
249.899	2505
249.962	2162
250.025	1549
250.089	4977
250.152	7808
250.215	3147
250.279	1824
250.342	2273
250.405	2643
250.468	2344
250.532	3513
250.595	5571
250.658	23459
250.721	49761
250.785	15437
250.848	7413
250.911	3096
250.974	3414
251.038	4872
251.101	10859
251.164	5671
251.227	4600
251.290	4578
251.354	7151
251.417	37631
251.480	42107
251.543	23465
251.606	72715
251.669	58526
251.732	18442
251.795	15121
251.859	16239
251.922	44107
251.985	28385
252.048	9392
252.111	5303
252.174	4751
252.237	7059
252.300	18590
252.363	20612
252.426	59696
252.489	22856
252.552	9232
252.615	5333
252.678	5652
252.741	13289
252.804	21378
252.867	60640
252.930	32495
252.993	12605
253.056	6932
253.119	4072
253.182	3535
253.245	8880
253.308	6492
253.371	2935
253.434	3472
253.497	2951
253.559	8613
253.622	4944
253.685	3376
253.748	3564
253.811	1874
253.874	3069
253.937	2495
254.000	1822
254.062	3903
254.125	8088
254.188	6502
254.251	4845
254.314	2607
254.376	3010
254.439	4547
254.502	3398
254.565	3809
254.628	10083
254.690	4207
254.753	1095
254.816	1001
254.878	1152
254.941	5585
255.004	5739
255.067	2084
255.129	1286
255.192	1383
255.255	338
255.317	1026
255.380	765
255.443	245
255.505	522
255.568	-153
255.631	-261
255.693	1262
255.756	-579
255.819	1421
255.881	122
255.944	1132
256.006	47
256.069	558
256.132	-319
256.194	903
256.257	3312
256.319	2677
256.382	1579
256.444	1819
256.507	1132
256.569	1371
256.632	1415
256.694	2027
256.757	10363
256.819	42430
256.882	15315
256.944	4771
257.007	3361
257.069	1739
257.132	1421
257.194	2299
257.257	1179
257.319	1976
257.381	1737
257.444	8341
257.506	45974
257.569	53175
257.631	15611
257.693	7141
257.756	3627
257.818	2534
257.880	2088
257.943	1505
258.005	331
258.067	1056
258.130	915
258.192	1212
258.254	1807
258.317	1333
258.379	892
258.441	3497
258.503	4255
258.566	5065
258.628	8287
258.690	1720
258.753	1247
258.815	1903
258.877	181
258.939	769
259.001	557
259.064	178
259.126	-73
259.188	668
259.250	1366
259.312	971
259.375	2152
259.437	2593
259.499	513
259.561	110
259.623	650
259.685	269
259.747	569
259.809	4559
259.872	10763
259.934	16846
259.996	15775
260.058	2940
260.120	1
260.182	1789
260.244	28
260.306	555
260.368	813
260.430	404
260.492	959
260.554	2836
260.616	1479
260.678	6361
260.740	10783
260.802	2902
260.864	1827
260.926	-147
260.988	1548
261.050	311
261.112	1482
261.174	9372
261.236	9667
261.298	1536
261.359	2573
261.421	7452
261.483	192
261.545	1887
261.607	-877
261.669	1135
261.731	1283
261.793	6631
261.854	219
261.916	1244
261.978	96
262.040	1111
262.102	686
262.164	1224
262.225	1549
262.287	929
262.349	1679
262.411	3153
262.472	1008
262.534	979
262.596	4863
262.658	1931
262.719	-294
262.781	1858
262.843	4115
262.904	2119
262.966	954
263.028	2188
263.090	12503
263.151	45353
263.213	12979
263.275	3468
263.336	1348
263.398	1789
263.459	-203
263.521	941
263.583	1773
263.644	1662
263.706	-810
263.767	847
263.829	582
263.891	-27
263.952	-527
264.014	472
264.075	-558
264.137	2762
264.198	973
264.260	-80
264.321	-1045
264.383	440
264.444	4323
264.506	1102
264.567	-330
264.629	1212
264.690	2820
264.752	1253
264.813	-284
264.875	10
264.936	315
264.998	-20
265.059	32
265.120	875
265.182	1503
265.243	19716
265.305	24293
265.366	4265
265.427	1602
265.489	1520
265.550	-904
265.611	939
265.673	86
265.734	440
265.795	632
265.857	530
265.918	237
265.979	4190
266.040	33931
266.102	31802
266.163	5953
266.224	2847
266.286	1137
266.347	511
266.408	-109
266.469	537
266.530	228
266.592	-25
266.653	859
266.714	2173
266.775	-107
266.836	24
266.898	-1414
266.959	470
267.020	-577
267.081	1649
267.142	-334
267.203	385
267.264	-478
267.326	795
267.387	-424
267.448	-300
267.509	-338
267.570	47
267.631	-516
267.692	-915
267.753	-379
267.814	-497
267.875	950
267.936	3887
267.997	535
268.058	948
268.119	-317
268.180	134
268.241	-1232
268.302	-390
268.363	-818
268.424	-236
268.485	-333
268.546	-523
268.607	-908
268.668	-1008
268.729	-1486
268.790	-759
268.851	-68
268.912	1388
268.972	1387
269.033	674
269.094	-821
269.155	-540
269.216	-724
269.277	163
269.338	-453
269.398	193
269.459	-795
269.520	506
269.581	-307
269.642	1190
269.702	237
269.763	-585
269.824	-194
269.885	392
269.945	795
270.006	-112
270.067	-608
270.128	-550
270.188	-1103
270.249	-1251
270.310	-1511
270.370	-97
270.431	-1314
270.492	-910
270.553	-1005
270.613	1179
270.674	2430
270.734	1420
270.795	-555
270.856	-238
270.916	243
270.977	-62
271.038	190
271.098	-85
271.159	309
271.219	840
271.280	-357
271.340	307
271.401	159
271.462	2414
271.522	798
271.583	142
271.643	-174
271.704	353
271.764	-650
271.825	2042
271.885	9833
271.946	18620
272.006	4293
272.066	6260
272.127	15033
272.187	4041
272.248	1192
272.308	834
272.369	9785
272.429	6671
272.489	1870
272.550	2279
272.610	2015
272.671	719
272.731	1248
272.791	2584
272.852	516
272.912	1944
272.972	-539
273.033	122
273.093	341
273.153	1427
273.214	165
273.274	561
273.334	4782
273.394	13698
273.455	3920
273.515	3969
273.575	10377
273.635	3654
273.696	4973
273.756	14940
273.816	5199
273.876	1601
273.936	2905
273.997	11662
274.057	1160
274.117	1224
274.177	1930
274.237	13073
274.297	15794
274.358	8711
274.418	9722
274.478	8069
274.538	1370
274.598	1561
274.658	6302
274.718	11082
274.778	2964
274.838	1004
274.898	2568
274.958	14151
275.018	15271
275.078	9692
275.138	1926
275.198	697
275.258	-16
275.318	982
275.378	1286
275.438	1928
275.498	711
275.558	5802
275.618	14899
275.678	9444
275.738	3188
275.798	2418
275.858	738
275.918	-228
275.978	-516
276.038	183
276.098	-228
276.157	941
276.217	5131
276.277	2710
276.337	630
276.397	305
276.457	458
276.517	583
276.576	513
276.636	433
276.696	270
276.756	3429
276.815	1920
276.875	541
276.935	646
276.995	448
277.055	-13
277.114	612
277.174	-331
277.234	6269
277.293	1835
277.353	686
277.413	697
277.472	738
277.532	573
277.592	1183
277.651	5566
277.711	17309
277.771	3483
277.830	14790
277.890	15181
277.950	9024
278.009	36650
278.069	13813
278.128	9414
278.188	16956
278.248	5096
278.307	16041
278.367	11433
278.426	2809
278.486	1904
278.545	1241
278.605	764
278.664	900
278.724	429
278.783	4958
278.843	17056
278.902	4971
278.962	1763
279.021	2637
279.081	3037
279.140	3645
279.199	1805
279.259	3302
279.318	3475
279.378	5153
279.437	5723
279.496	25609
279.556	94520
279.615	91964
279.675	21530
279.734	9258
279.793	10412
279.853	20289
279.912	8056
279.971	4291
280.031	3217
280.090	5911
280.149	12897
280.208	9471
280.268	60856
280.327	81116
280.386	15577
280.445	9001
280.505	6381
280.564	3242
280.623	1611
280.682	3073
280.742	5308
280.801	1403
280.860	194
280.919	1168
280.978	-52
281.037	583
281.097	-569
281.156	1184
281.215	151
281.274	1306
281.333	7807
281.392	7570
281.451	937
281.510	403
281.569	-128
281.628	740
281.688	-63
281.747	1164
281.806	330
281.865	-80
281.924	-1105
281.983	155
282.042	-533
282.101	251
282.160	-248
282.219	-103
282.278	-8
282.337	2740
282.396	1064
282.454	447
282.513	-471
282.572	4460
282.631	2644
282.690	1136
282.749	-390
282.808	747
282.867	-525
282.926	386
282.985	3
283.043	-371
283.102	-23
283.161	608
283.220	1962
283.279	8610
283.338	2106
283.396	383
283.455	-98
283.514	945
283.573	1000
283.631	923
283.690	694
283.749	346
283.808	1982
283.866	3115
283.925	-288
283.984	746
284.043	99
284.101	916
284.160	-116
284.219	1011
284.277	583
284.336	2187
284.395	8366
284.453	8872
284.512	2354
284.570	2378
284.629	2293
284.688	3002
284.746	2707
284.805	3354
284.863	4420
284.922	6574
284.981	6976
285.039	10889
285.098	18446
285.156	49222
285.215	140293
285.273	150415
285.332	73717
285.390	32033
285.449	17629
285.507	10941
285.566	7314
285.624	6248
285.683	3894
285.741	3842
285.799	3488
285.858	3033
285.916	1900
285.975	1515
286.033	1498
286.091	924
286.150	1115
286.208	1648
286.267	1055
286.325	1528
286.383	1383
286.442	1517
286.500	-179
286.558	976
286.616	-240
286.675	739
286.733	317
286.791	1759
286.850	390
286.908	1386
286.966	1316
287.024	613
287.083	-275
287.141	186
287.199	477
287.257	1142
287.315	830
287.374	-9
287.432	2555
287.490	2351
287.548	246
287.606	320
287.664	290
287.723	2545
287.781	1564
287.839	1544
287.897	1618
287.955	3313
288.013	4706
288.071	10888
288.129	52484
288.187	190870
288.245	92434
288.303	26752
288.361	12242
288.419	7409
288.477	4525
288.535	3108
288.593	2225
288.651	1515
288.709	322
288.767	1398
288.825	666
288.883	642
288.941	344
288.999	76
289.057	-223
289.115	-151
289.173	-432
289.231	-368
289.289	-57
289.346	321
289.404	52
289.462	1147
289.520	541
289.578	517
289.636	-85
289.694	-18
289.751	-272
289.809	471
289.867	-727
289.925	883
289.983	371
290.040	316
290.098	-688
290.156	375
290.214	-115
290.271	-45
290.329	-44
290.387	-12
290.444	-549
290.502	-490
290.560	-733
290.617	-16
290.675	-1053
290.733	-159
290.790	-477
290.848	-152
290.906	201
290.963	336
291.021	-854
291.078	31
291.136	-1168
291.194	3410
291.251	7481
291.309	2368
291.366	-150
291.424	-199
291.481	-768
291.539	-614
291.596	416
291.654	-650
291.711	-1001
291.769	-939
291.826	802
291.884	742
291.941	-1178
291.999	-215
292.056	-654
292.114	500
292.171	-1001
292.228	302
292.286	-337
292.343	639
292.401	983
292.458	721
292.515	-221
292.573	567
292.630	561
292.687	449
292.745	-27
292.802	-27
292.859	3038
292.917	9813
292.974	4666
293.031	928
293.089	-371
293.146	-766
293.203	-740
293.260	-470
293.318	11
293.375	1249
293.432	-155
293.489	-21
293.546	-680
293.604	1435
293.661	5128
293.718	21145
293.775	9041
293.832	3977
293.889	1151
293.947	1085
294.004	169
294.061	143
294.118	2106
294.175	7661
294.232	10586
294.289	4317
294.346	1309
294.403	983
294.460	1025
294.517	858
294.574	-40
294.631	-92
294.688	136
294.745	2917
294.802	20206
294.859	21851
294.916	6888
294.973	3142
295.030	1187
295.087	1392
295.144	883
295.201	1139
295.258	535
295.315	775
295.372	5152
295.429	17529
295.486	6232
295.542	2586
295.599	5595
295.656	12592
295.713	9037
295.770	14550
295.827	5262
295.883	2214
295.940	429
295.997	1622
296.054	1327
296.111	1356
296.167	824
296.224	201
296.281	327
296.338	555
296.394	2
296.451	1329
296.508	3912
296.564	11537
296.621	5610
296.678	15097
296.734	26890
296.791	9181
296.848	3791
296.904	2645
296.961	6248
297.018	15668
297.074	13745
297.131	4592
297.187	1588
297.244	3651
297.301	15408
297.357	39014
297.414	13915
297.470	5317
297.527	1256
297.583	1478
297.640	1686
297.696	229
297.753	142
297.809	1014
297.866	-104
297.922	506
297.979	320
298.035	-944
298.092	909
298.148	8618
298.204	8846
298.261	3674
298.317	5671
298.374	23503
298.430	14939
298.486	5549
298.543	2447
298.599	2517
298.656	2489
298.712	4902
298.768	19043
298.824	18730
298.881	5170
298.937	2916
298.993	1705
299.050	807
299.106	318
299.162	1083
299.218	1959
299.275	729
299.331	1832
299.387	3305
299.443	17493
299.500	24114
299.556	9672
299.612	4338
299.668	2262
299.724	3143
299.780	4919
299.837	1777
299.893	2271
299.949	13760
300.005	17499
300.061	14794
300.117	30191
300.173	16312
300.229	5454
300.285	5370
300.341	5239
300.397	3051
300.453	1489
300.510	1150
300.566	918
300.622	1915
300.678	8511
300.734	17909
300.790	15684
300.845	22036
300.901	12845
300.957	14430
301.013	10822
301.069	4156
301.125	2069
301.181	2486
301.237	1723
301.293	470
301.349	508
301.405	730
301.461	-39
301.516	2012
301.572	1144
301.628	1738
301.684	1982
301.740	5132
301.796	8156
301.851	6095
301.907	7280
301.963	9506
302.019	15642
302.074	57658
302.130	61655
302.186	29611
302.242	10653
302.297	6038
302.353	3908
302.409	9139
302.464	8174
302.520	6666
302.576	16953
302.631	23258
302.687	11322
302.743	4689
302.798	1647
302.854	1864
302.910	1429
302.965	2723
303.021	3229
303.076	4446
303.132	4327
303.187	6499
303.243	3670
303.299	1221
303.354	616
303.410	1394
303.465	780
303.521	1384
303.576	532
303.632	1319
303.687	4231
303.743	18885
303.798	18669
303.853	7593
303.909	2657
303.964	2743
304.020	1686
304.075	3833
304.130	2797
304.186	6437
304.241	7316
304.297	6222
304.352	3273
304.358	3128
304.407	1950
304.449	1764
304.463	1704
304.518	1528
304.539	1239
304.573	763
304.629	870
304.630	918
304.684	3208
304.720	9298
304.739	12339
304.794	23292
304.811	20039
304.850	12293
304.902	4642
304.905	4150
304.960	2443
304.992	2598
305.015	2687
305.071	3969
305.083	3558
305.126	2104
305.173	1289
305.181	1161
305.236	226
305.264	1112
305.292	1948
305.347	737
305.354	877
305.402	1933
305.445	2385
305.457	2483
305.512	3495
305.535	3217
305.567	2819
305.622	1930
305.626	2056
305.678	5179
305.716	14834
305.733	18390
305.788	22323
305.807	19077
305.843	13846
305.897	18394
305.898	18431
305.953	20284
305.988	13716
306.008	10082
306.063	4884
306.078	4081
306.118	2436
306.168	1614
306.173	1528
306.228	1379
306.259	1415
306.283	1480
306.338	525
306.349	706
306.393	1422
306.440	2360
306.448	2527
306.503	2574
306.530	2421
306.558	2636
306.613	5861
306.620	6348
306.668	9459
306.711	13360
306.723	13944
306.778	12468
306.801	9728
306.833	6722
306.888	2259
306.892	2234
306.943	2023
306.982	1062
306.997	769
307.052	1396
307.072	1343
307.107	1455
307.162	2143
307.163	2156
307.217	3313
307.253	4296
307.272	4710
307.327	5184
307.343	4953
307.381	4432
307.434	3182
307.436	3202
307.491	6579
307.524	10012
307.546	11310
307.600	12442
307.614	11166
307.655	6986
307.704	4222
307.710	4082
307.765	3136
307.795	4386
307.819	5739
307.874	9507
307.885	9842
307.929	9712
307.975	8330
307.984	8541
308.038	11746
308.065	14947
308.093	27031
308.148	62990
308.156	72887
308.202	122235
308.246	152669
308.257	151481
308.312	81978
308.336	55196
308.366	37641
308.421	21231
308.426	20203
308.475	12949
308.517	9100
308.530	8017
308.585	6668
308.607	6134
308.639	5676
308.694	6052
308.697	6106
308.748	8902
308.787	12608
308.803	12951
308.857	11279
308.877	10097
308.912	9143
308.967	8736
308.967	8765
309.021	12248
309.058	15322
309.076	19446
309.130	34818
309.148	42073
309.185	82923
309.238	162904
309.239	163374
309.293	187116
309.328	167760
309.348	146022
309.402	69070
309.418	51216
309.457	33610
309.508	19557
309.511	18943
309.566	15449
309.598	14575
309.620	15566
309.674	20986
309.688	22680
309.729	21807
309.778	17219
309.783	16817
309.837	11483
309.868	9156
309.892	9406
309.946	11762
309.959	12833
310.001	15844
310.049	18534
310.055	18105
310.109	12117
310.139	8324
310.163	6567
310.218	3973
310.229	3571
310.272	3127
310.319	3150
310.326	3018
310.381	1876
310.409	1570
310.435	1690
310.489	1733
310.499	1785
310.543	1983
310.589	1972
310.598	1903
310.652	1825
310.679	1561
310.706	1491
310.760	1648
310.769	1626
310.814	1400
310.859	1498
310.868	1523
310.923	1455
310.948	1517
310.977	1869
311.031	2312
311.038	2397
311.085	1741
311.128	972
311.139	1063
311.193	1619
311.218	1822
311.247	1551
311.301	1145
311.308	1087
311.356	1181
311.398	1318
311.410	1308
311.464	1185
311.488	1117
311.518	1102
311.572	1116
311.578	1117
311.626	1410
311.668	1636
311.680	1728
311.734	2168
311.758	2354
311.788	2097
311.842	1626
311.847	1576
311.896	2354
311.937	3074
311.950	2930
312.004	2282
312.027	2002
312.058	1889
312.112	1689
312.117	1673
312.165	1871
312.207	2047
312.297	1521
312.386	1158
312.476	2275
312.566	2812
312.656	1897
312.745	1370
312.835	1660
312.925	1546
313.015	1515
313.104	1459
313.194	1667
313.284	1407
313.374	2543
313.463	1972
313.553	1626
313.643	872
313.732	1655
313.822	271
313.912	1654
314.001	1838
314.091	1581
314.180	2233
314.270	2333
314.360	2653
314.449	1838
314.539	1512
314.628	1563
314.718	916
314.808	1802
314.897	2174
314.987	967
315.076	1202
315.166	1839
315.255	2203
315.345	2002
315.434	1434
315.524	1725
315.613	1662
315.703	3617
315.792	4994
315.881	18432
315.971	4372
316.060	4058
316.150	4512
316.239	4267
316.328	943
316.418	1495
316.507	1420
316.597	2664
316.686	1755
316.775	2582
316.865	5038
316.954	1937
317.043	1597
317.133	1159
317.222	481
317.311	1200
317.400	-162
317.490	3134
317.579	1581
317.668	1387
317.757	2970
317.847	10470
317.936	31420
318.025	8804
318.114	5973
318.203	3391
318.293	2962
318.382	4299
318.471	3886
318.560	6471
318.649	12449
318.738	3264
318.828	1787
318.917	1694
319.006	2112
319.095	6501
319.184	17339
319.273	8067
319.362	4056
319.451	1791
319.540	1512
319.629	3405
319.718	4521
319.807	1859
319.896	6310
319.985	23068
320.074	4958
320.163	1991
320.252	2537
320.341	2548
320.430	1992
320.519	2315
320.608	1077
320.697	1810
320.786	1689
320.875	2713
320.964	1969
321.053	3458
321.142	4444
321.230	4755
321.319	4146
321.408	8688
321.497	4280
321.586	3795
321.675	4257
321.764	4165
321.852	3320
321.941	5303
322.030	2686
322.119	4497
322.207	9230
322.296	7046
322.385	3788
322.474	5140
322.562	10948
322.651	5372
322.740	4593
322.829	6162
322.917	5876
323.006	2795
323.095	2476
323.183	2394
323.272	3249
323.361	7758
323.449	22030
323.538	6501
323.626	15282
323.715	7945
323.804	3634
323.892	12624
323.981	5324
324.069	2447
324.158	8136
324.246	5520
324.335	2236
324.424	3414
324.512	1469
324.601	1498
324.689	1506
324.778	2652
324.866	3815
324.954	1312
325.043	819
325.131	2052
325.220	5263
325.308	5672
325.397	3767
325.485	2122
325.574	491
325.662	1415
325.750	1510
325.839	1936
325.927	714
326.015	945
326.104	2063
326.192	3582
326.280	682
326.369	424
326.457	996
326.545	2906
326.634	953
326.722	331
326.810	-40
326.898	716
326.987	1388
327.075	1429
327.163	2882
327.251	921
327.340	816
327.428	1505
327.516	518
327.604	1044
327.692	1447
327.781	1019
327.869	2168
327.957	1217
328.045	1646
328.133	1878
328.221	528
328.309	1555
328.397	557
328.485	1456
328.574	1412
328.662	6171
328.750	2985
328.838	1493
328.926	582
329.014	1097
329.102	1107
329.190	3329
329.278	1190
329.366	635
329.454	594
329.542	430
329.630	617
329.718	1565
329.806	327
329.893	1690
329.981	652
330.069	3088
330.157	16524
330.245	50631
330.333	22366
330.421	2790
330.509	2206
330.597	6996
330.684	3568
330.772	1999
330.860	2418
330.948	2866
331.036	1405
331.123	477
331.211	778
331.299	1398
331.387	2690
331.475	3902
331.562	1375
331.650	905
331.738	156
331.825	1493
331.913	406
332.001	599
332.089	1947
332.176	2551
332.264	7333
332.352	3742
332.439	1582
332.527	1008
332.614	13
332.702	1575
332.790	741
332.877	3148
332.965	5711
333.052	2093
333.140	1989
333.228	5281
333.315	1406
333.403	1076
333.490	3554
333.578	3155
333.665	7325
333.753	2480
333.840	892
333.928	1519
334.015	3667
334.103	8151
334.190	23653
334.278	4207
334.365	2680
334.452	2319
334.540	492
334.627	1781
334.715	2360
334.802	4353
334.889	28853
334.977	27948
335.064	5172
335.151	1568
335.239	1964
335.326	2327
335.413	11624
335.501	13867
335.588	1856
335.675	1366
335.762	1410
335.850	3042
335.937	2516
336.024	8367
336.111	31661
336.199	14302
336.286	2978
336.373	1636
336.460	1210
336.547	1511
336.635	1398
336.722	661
336.809	609
336.896	1956
336.983	5906
337.070	15877
337.157	24709
337.245	17353
337.332	11205
337.419	1557
337.506	284
337.593	1308
337.680	4368
337.767	12326
337.854	3183
337.941	3933
338.028	4768
338.115	2172
338.202	2096
338.289	3865
338.376	15687
338.463	4109
338.550	8661
338.637	7433
338.724	3009
338.811	4720
338.898	956
338.984	904
339.071	720
339.158	843
339.245	2997
339.332	2754
339.419	3052
339.506	3131
339.593	138
339.679	804
339.766	244
339.853	863
339.940	2113
340.027	977
340.113	776
340.200	1145
340.287	546
340.374	1157
340.460	2003
340.547	-36
340.634	1551
340.720	7427
340.807	3008
340.894	541
340.980	1117
341.067	753
341.154	1238
341.240	1534
341.327	2928
341.414	1368
341.500	1787
341.587	1400
341.674	1200
341.760	2463
341.847	1822
341.933	543
342.020	-542
342.106	486
342.193	748
342.279	1351
342.366	1149
342.452	2190
342.539	749
342.625	3190
342.712	7399
342.798	2544
342.885	993
342.971	541
343.058	462
343.144	507
343.230	820
343.317	982
343.403	618
343.490	662
343.576	307
343.662	1110
343.749	485
343.835	1463
343.921	2618
344.008	28098
344.094	60778
344.180	9351
344.267	2740
344.353	12702
344.439	11099
344.525	3293
344.612	1578
344.698	1279
344.784	736
344.870	786
344.957	651
345.043	2422
345.129	156
345.215	1798
345.301	478
345.387	778
345.474	664
345.560	852
345.646	552
345.732	1462
345.818	113
345.904	595
345.990	946
346.076	803
346.162	1833
346.249	1096
346.335	645
346.421	1563
346.507	5655
346.593	19532
346.679	2550
346.765	1690
346.851	489
346.937	188
347.023	293
347.108	409
347.194	617
347.280	802
347.366	481
347.452	5848
347.538	24591
347.624	15180
347.710	10380
347.796	1093
347.882	-305
347.967	58
348.053	635
348.139	546
348.225	703
348.311	288
348.397	1272
348.482	1203
348.568	232
348.654	1313
348.740	1424
348.825	178
348.911	2792
348.997	11362
349.083	22820
349.168	2871
349.254	1021
349.340	1081
349.425	508
349.511	479
349.597	591
349.682	3050
349.768	10554
349.854	3856
349.939	209
350.025	271
350.110	1576
350.196	351
350.282	-169
350.367	1298
350.453	1035
350.538	1235
350.624	-2
350.709	1162
350.795	-118
350.880	238
350.966	1455
351.051	1185
351.137	586
351.222	1587
351.308	2522
351.393	8142
351.479	1959
351.564	612
351.649	862
351.735	599
351.820	-192
351.906	943
351.991	975
352.076	5096
352.162	6587
352.247	864
352.332	1231
352.418	2326
352.503	2781
352.588	10643
352.673	7138
352.759	2134
352.844	356
352.929	1367
353.014	243
353.100	1494
353.185	-326
353.270	2004
353.355	3249
353.441	1204
353.526	677
353.611	1866
353.696	1173
353.781	1939
353.866	145
353.952	744
354.037	1755
354.122	5665
354.207	3614
354.292	2127
354.377	208
354.462	66
354.547	441
354.632	1175
354.717	1216
354.802	991
354.887	236
354.972	12
355.057	544
355.142	819
355.227	472
355.312	1072
355.397	2926
355.482	7337
355.567	2456
355.652	3066
355.737	2306
355.822	12513
355.907	8403
355.991	2862
356.076	247
356.161	776
356.246	764
356.331	822
356.416	1463
356.501	28101
356.585	24525
356.670	1818
356.755	2886
356.840	2758
356.924	16698
357.009	64101
357.094	19213
357.179	2998
357.263	2412
357.348	2315
357.433	1679
357.517	2064
357.602	586
357.687	633
357.771	2654
357.856	10630
357.941	6459
358.025	14751
358.110	71303
358.195	27059
358.279	2662
358.364	2377
358.448	6768
358.533	19463
358.617	12558
358.702	14121
358.787	4299
358.871	1737
358.956	1930
359.040	320
359.125	918
359.209	818
359.294	5386
359.378	8634
359.462	2310
359.547	1072
359.631	345
359.716	-216
359.800	239
359.885	1877
359.969	8
360.053	1408
360.138	858
360.222	1178
360.306	1372
360.391	2181
360.475	4916
360.559	9785
360.644	7075
360.728	4153
360.812	14746
360.896	40797
360.981	11036
361.065	4294
361.149	2139
361.233	740
361.318	-613
361.402	1246
361.486	1720
361.570	690
361.654	854
361.739	3658
361.823	24399
361.907	41453
361.991	5370
362.075	2124
362.159	3577
362.243	5001
362.327	4261
362.411	9313
362.495	2913
362.580	1793
362.664	536
362.748	244
362.832	1726
362.916	1980
363.000	14199
363.084	41110
363.168	49666
363.252	8521
363.336	2559
363.420	3183
363.503	15355
363.587	18652
363.671	2910
363.755	705
363.839	3073
363.923	545
364.007	3403
364.091	3185
364.175	4860
364.258	30154
364.342	20345
364.426	35134
364.510	16646
364.594	5629
364.677	7762
364.761	35322
364.845	23458
364.929	4598
365.013	3503
365.096	3108
365.180	2830
365.264	7215
365.347	28027
365.431	10077
365.515	680
365.598	172
365.682	1690
365.766	629
365.849	2119
365.933	554
366.017	2192
366.100	59
366.184	-535
366.267	1052
366.351	473
366.435	242
366.518	-71
366.602	176
366.685	830
366.769	198
366.852	1690
366.936	3176
367.019	1141
367.103	484
367.186	3018
367.270	229
367.353	-478
367.436	1913
367.520	-92
367.603	1611
367.687	-484
367.770	2516
367.853	2088
367.937	9238
368.020	12856
368.104	2246
368.187	1477
368.270	2517
368.353	2260
368.437	3735
368.520	9803
368.603	4379
368.687	7621
368.770	15054
368.853	3074
368.936	3000
369.020	2571
369.103	964
369.186	-555
369.269	-155
369.352	1906
369.436	1913
369.519	1236
369.602	-698
369.685	2402
369.768	-114
369.851	921
369.934	-168
370.018	268
370.101	1869
370.184	3735
370.267	1426
370.350	1941
370.433	4447
370.516	17039
370.599	23361
370.682	4030
370.765	7145
370.848	10780
370.931	21542
371.014	7736
371.097	-96
371.180	1579
371.263	820
371.346	-1318
371.429	1048
371.511	356
371.594	1042
371.677	2822
371.760	4090
371.843	2683
371.926	24562
372.009	56346
372.091	15904
372.174	7819
372.257	24598
372.340	8048
372.423	4576
372.505	6072
372.588	1724
372.671	6046
372.754	19140
372.836	9308
372.919	6998
373.002	12892
373.085	3216
373.167	2803
373.250	7639
373.332	21167
373.415	35744
373.498	76001
373.580	25734
373.663	41148
373.746	53892
373.828	7973
373.911	4135
373.993	2814
374.076	12800
374.159	11953
374.241	5837
374.324	16049
374.406	11678
374.489	21411
374.571	60902
374.654	21021
374.736	10500
374.819	36517
374.901	54360
374.983	54086
375.066	7727
375.148	2498
375.231	11313
375.313	21839
375.395	5865
375.478	1843
375.560	1497
375.643	1686
375.725	9979
375.807	44605
375.890	32927
375.972	8089
376.054	5271
376.136	7286
376.219	3523
376.301	11997
376.383	35167
376.465	11610
376.548	4973
376.630	8130
376.712	27271
376.794	11421
376.877	850
376.959	129
377.041	725
377.123	1357
377.205	2493
377.287	-1031
377.369	908
377.452	-260
377.534	1094
377.616	475
377.698	305
377.780	-795
377.862	1314
377.944	1254
378.026	-416
378.108	537
378.190	311
378.272	836
378.354	200
378.436	218
378.518	719
378.600	4339
378.682	3852
378.764	9241
378.846	8256
378.928	1960
379.010	1388
379.091	1523
379.173	1015
379.255	-206
379.337	1021
379.419	4134
379.501	15789
379.583	5482
379.664	1103
379.746	1872
379.828	9375
379.910	13198
379.991	12633
380.073	1623
380.155	285
380.237	1004
380.318	427
380.400	464
380.482	2052
380.564	2883
380.645	2849
380.727	1617
380.809	1871
380.890	972
380.972	487
381.053	153
381.135	1794
381.217	2588
381.298	10565
381.380	4488
381.461	5225
381.543	27576
381.624	33365
381.706	4846
381.787	3219
381.869	2325
381.951	15603
382.032	59454
382.113	35444
382.195	3224
382.276	4448
382.358	7327
382.439	25247
382.521	33472
382.602	54380
382.684	20282
382.765	31148
382.846	36439
382.928	55550
383.009	28554
383.090	20064
383.172	85339
383.253	129817
383.334	40836
383.416	40327
383.497	20384
383.578	7943
383.659	15949
383.741	73803
383.822	198012
383.903	95323
383.984	26018
384.066	42436
384.147	23226
384.228	5541
384.309	2597
384.390	3157
384.471	2032
384.553	2162
384.634	1970
384.715	3484
384.796	991
384.877	2569
384.958	10160
385.039	9693
385.120	2597
385.201	2516
385.282	1552
385.363	3489
385.444	1731
385.525	5033
385.606	20602
385.687	17892
385.768	3030
385.849	4408
385.930	26092
386.011	50027
386.092	10782
386.173	1431
386.254	1416
386.335	2367
386.416	924
386.496	6474
386.577	9602
386.658	3861
386.739	1205
386.820	2540
386.901	425
386.981	1814
387.062	606
387.143	2116
387.224	9270
387.304	10303
387.385	3550
387.466	613
387.547	2640
387.627	1446
387.708	5203
387.789	20771
387.869	26589
387.950	7573
388.031	494
388.111	-883
388.192	3284
388.273	3972
388.353	2446
388.434	1363
388.514	4706
388.595	27190
388.676	30197
388.756	11237
388.837	8099
388.917	4845
388.998	-633
389.078	2225
389.159	1273
389.239	-625
389.320	2828
389.400	92
389.480	4689
389.561	11637
389.641	5994
389.722	2672
389.802	1420
389.883	5216
389.963	16892
390.043	8934
390.124	1514
390.204	3027
390.284	11005
390.365	6098
390.445	12381
390.525	41047
390.605	35668
390.686	5898
390.766	2477
390.846	2302
390.927	487
391.007	766
391.087	2640
391.167	1139
391.247	293
391.328	2911
391.408	3377
391.488	2683
391.568	-200
391.648	1470
391.728	3001
391.808	2978
391.888	1477
391.969	7115
392.049	10512
392.129	5440
392.209	4981
392.289	15796
392.369	7689
392.449	4469
392.529	3531
392.609	4128
392.689	6114
392.769	15289
392.849	13845
392.929	10554
393.009	22360
393.089	19789
393.169	23123
393.248	89362
393.328	342702
393.408	353239
393.488	83427
393.568	20708
393.648	10152
393.728	6604
393.807	4105
393.887	5127
393.967	4489
394.047	4690
394.127	5530
394.206	12084
394.286	51302
394.366	215215
394.446	222074
394.525	44952
394.605	9726
394.685	6534
394.764	9552
394.844	15004
394.924	9842
395.003	3756
395.083	3152
395.163	2868
395.242	2260
395.322	3532
395.402	894
395.481	4663
395.561	6482
395.640	16881
395.720	16572
395.799	20897
395.879	17022
395.958	18037
396.038	75943
396.117	284657
396.197	295393
396.276	74008
396.356	17698
396.435	11124
396.515	8879
396.594	9636
396.673	21777
396.753	99574
396.832	306553
396.912	205976
396.991	37651
397.070	10982
397.150	4733
397.229	4453
397.308	6201
397.388	10875
397.467	5300
397.546	2863
397.625	-268
397.705	3421
397.784	1349
397.863	1079
397.942	457
398.022	1711
398.101	4388
398.180	14211
398.259	6252
398.338	2846
398.417	326
398.497	225
398.576	1826
398.655	179
398.734	814
398.813	619
398.892	5074
398.971	16022
399.050	6898
399.129	-242
399.208	816
399.287	638
399.366	142
399.445	-167
399.524	1069
399.603	-645
399.682	1557
399.761	4450
399.840	17956
399.919	14152
399.998	914
400.077	-614
400.156	-886
400.235	2601
400.313	35
400.392	153
400.471	4882
400.550	8099
400.629	404
400.708	1138
400.786	-708
400.865	2528
400.944	1511
401.023	2512
401.102	-777
401.180	-185
401.259	-854
401.338	-225
401.416	327
401.495	-139
401.574	796
401.652	-487
401.731	693
401.810	-1300
401.888	-257
401.967	-519
402.046	-10
402.124	1091
402.203	-396
402.281	798
402.360	12
402.438	3486
402.517	660
402.596	230
402.674	566
402.753	716
402.831	152
402.910	512
402.988	1801
403.066	8412
403.145	5323
403.223	2869
403.302	5880
403.380	5960
403.459	4263
403.537	2042
403.615	-67
403.694	-1070
403.772	1489
403.850	-666
403.929	-124
404.007	-854
404.085	1074
404.164	890
404.242	-219
404.320	2378
404.398	6173
404.477	10802
404.555	36455
404.633	30848
404.711	6122
404.789	2250
404.868	-200
404.946	-558
405.024	-3
405.102	-169
405.180	-677
405.258	-1214
405.336	-122
405.415	-731
405.493	1096
405.571	1089
405.649	-857
405.727	-1399
405.805	803
405.883	1228
405.961	944
406.039	-214
406.117	-656
406.195	603
406.273	5676
406.351	26333
406.429	15319
406.507	477
406.585	-819
406.663	944
406.740	134
406.818	-425
406.896	-686
406.974	995
407.052	668
407.130	15640
407.208	19729
407.285	3833
407.363	-923
407.441	411
407.519	-323
407.596	1715
407.674	13830
407.752	59031
407.830	42307
407.907	5155
407.985	-437
408.063	-341
408.141	-403
408.218	1469
408.296	-927
408.373	-881
408.451	434
408.529	426
408.606	-1115
408.684	-573
408.762	-494
408.839	-928
408.917	225
408.994	-165
409.072	-1722
409.149	-92
409.227	1035
409.304	964
409.382	320
409.459	764
409.537	2435
409.614	1485
409.692	541
409.769	772
409.846	1829
409.924	4112
410.001	-387
410.079	386
410.156	912
410.233	449
410.311	-895
410.388	-449
410.465	-439
410.543	-865
410.620	23
410.697	567
410.775	-31
410.852	-1865
410.929	-283
411.006	474
411.083	-1325
411.161	915
411.238	982
411.315	-121
411.392	-438
411.469	623
411.547	57
411.624	-1487
411.701	-1110
411.778	-161
411.855	457
411.932	-328
412.009	-932
412.086	-109
412.163	-953
412.240	-200
412.317	255
412.394	-126
412.471	521
412.548	16
412.625	-319
412.702	-329
412.779	435
412.856	898
412.933	-1315
413.010	-322
413.087	-496
413.164	3559
413.241	5193
413.318	565
413.395	290
413.471	530
413.548	-495
413.625	-262
413.702	-930
413.779	36
413.855	-750
413.932	-1268
414.009	-1243
414.086	-519
414.162	-430
414.239	793
414.316	3736
414.393	10742
414.469	1432
414.546	-691
414.623	-1063
414.699	-367
414.776	-1289
414.853	-946
414.929	-714
415.006	-477
415.082	-376
415.159	-431
415.236	-277
415.312	840
415.389	663
415.465	47
415.542	-339
415.618	-1322
415.695	-64
415.771	-533
415.848	-697
415.924	416
416.000	196
416.077	650
416.153	-932
416.230	-1629
416.306	-136
416.383	-479
416.459	-697
416.535	-673
416.612	-884
416.688	-616
416.764	-701
416.841	-1473
416.917	-1059
416.993	-476
417.069	-573
417.146	-80
417.222	-366
417.298	-425
417.374	-1006
417.451	222
417.527	-168
417.603	-608
417.679	-64
417.755	-645
417.831	-1303
417.908	-581
417.984	-665
418.060	-1971
418.136	491
418.212	521
418.288	-128
418.364	-41
418.440	-1693
418.516	251
418.592	360
418.668	811
418.744	1959
418.820	2247
418.896	-655
418.972	-712
419.048	-977
419.124	1478
419.200	-962
419.276	-222
419.352	-1151
419.428	-315
419.504	-1484
419.579	-773
419.655	-567
419.731	-162
419.807	1373
419.883	2418
419.959	1148
420.034	50
420.110	869
420.186	5449
420.262	3960
420.337	200
420.413	-277
420.489	-263
420.565	55
420.640	-453
420.716	435
420.792	-1449
420.867	-25
420.943	-871
421.019	-318
421.094	-359
421.170	-305
421.245	-190
421.321	1137
421.397	634
421.472	11981
421.548	36807
421.623	19001
421.699	2691
421.774	894
421.850	201
421.925	1813
422.001	1949
422.076	1267
422.152	1377
422.227	2248
422.302	4130
422.378	6373
422.453	12308
422.529	40215
422.604	137392
422.679	240448
422.755	140484
422.830	38983
422.905	14034
422.981	7037
423.056	4169
423.131	3608
423.207	1866
423.282	1912
423.357	2736
423.432	1850
423.508	1768
423.583	1955
423.658	2313
423.733	7
423.808	1072
423.883	1446
423.959	-53
424.034	269
424.109	388
424.184	-518
424.259	-465
424.334	-31
424.409	-755
424.484	-320
424.559	-426
424.634	-660
424.709	168
424.784	121
424.859	361
424.934	-148
425.009	3530
425.084	7265
425.159	2012
425.234	370
425.309	-1337
425.384	1860
425.459	3541
425.534	1326
425.609	-808
425.683	-792
425.758	-568
425.833	-232
425.908	166
425.983	976
426.058	7737
426.132	2362
426.207	-163
426.282	1234
426.357	-206
426.431	-432
426.506	-565
426.581	-87
426.655	749
426.730	-899
426.805	-790
426.879	67
426.954	-362
427.029	355
427.103	8771
427.178	23174
427.253	11024
427.327	538
427.402	672
427.476	3651
427.551	2028
427.625	349
427.700	537
427.774	-849
427.849	-169
427.923	-892
427.998	-1272
428.072	-760
428.147	2115
428.221	12026
428.296	40307
428.370	20933
428.444	1449
428.519	323
428.593	2425
428.667	2078
428.742	2710
428.816	4299
428.890	23627
428.965	40188
429.039	11696
429.113	2786
429.188	928
429.262	-380
429.336	32
429.410	2870
429.485	2068
429.559	1670
429.633	1449
429.707	-930
429.781	3337
429.855	22253
429.930	34537
430.004	12777
430.078	15789
430.152	20995
430.226	61382
430.300	62726
430.374	8155
430.448	1299
430.522	5391
430.596	15683
430.670	13643
430.744	40190
430.818	54832
430.892	10175
430.966	296
431.040	187
431.114	-520
431.188	-1233
431.262	-405
431.336	-1219
431.410	917
431.484	2615
431.557	2603
431.631	-101
431.705	594
431.779	7937
431.853	38213
431.927	27332
432.000	1952
432.074	326
432.148	-645
432.222	-171
432.295	-978
432.369	-306
432.443	487
432.516	9193
432.590	27164
432.664	10288
432.737	207
432.811	-732
432.885	-246
432.958	-230
433.032	-1438
433.106	-461
433.179	-128
433.253	-1393
433.326	-973
433.400	-953
433.473	-50
433.547	-899
433.620	-535
433.694	-308
433.767	309
433.841	-1166
433.914	-410
433.988	-1764
434.061	-454
434.134	-1004
434.208	-1110
434.281	-1108
434.355	-1032
434.428	-663
434.501	-216
434.575	-1748
434.648	-168
434.721	-1510
434.795	-1240
434.868	-1552
434.941	-1000
435.014	-522
435.088	-381
435.161	-417
435.234	-28
435.307	135
435.381	-742
435.454	512
435.527	1312
435.600	1148
435.673	1382
435.746	-327
435.819	-536
435.892	-443
435.966	-244
436.039	-538
436.112	-604
436.185	-1129
436.258	-983
436.331	-945
436.404	-950
436.477	-1687
436.550	-774
436.623	-483
436.696	-965
436.769	-550
436.842	-448
436.915	-363
436.987	-439
437.060	-7
437.133	-791
437.206	-769
437.279	-8
437.352	-1224
437.425	-736
437.498	-224
437.570	743
437.643	-335
437.716	-1213
437.789	-1124
437.861	-469
437.934	768
438.007	-195
438.080	-877
438.152	119
438.225	1394
438.298	15494
438.370	49115
438.443	22759
438.516	2111
438.588	-491
438.661	-862
438.734	-462
438.806	-1399
438.879	-211
438.951	-746
439.024	631
439.096	-315
439.169	-563
439.241	-334
439.314	-1095
439.386	-396
439.459	578
439.531	758
439.604	-363
439.676	-359
439.749	-813
439.821	-432
439.893	-67
439.966	-673
440.038	-963
440.110	-358
440.183	-860
440.255	-726
440.327	-57
440.400	4977
440.472	25901
440.544	20835
440.617	1858
440.689	447
440.761	727
440.833	1232
440.905	888
440.978	-540
441.050	-644
441.122	-114
441.194	-1731
441.266	-134
441.338	-569
441.411	22
441.483	5652
441.555	11437
441.627	2327
441.699	862
441.771	1051
441.843	-594
441.915	-265
441.987	-1210
442.059	-697
442.131	-685
442.203	423
442.275	705
442.347	1088
442.419	1887
442.491	18359
442.563	49538
442.635	24480
442.706	6377
442.778	4353
442.850	483
442.922	-513
442.994	-170
443.066	768
443.137	193
443.209	327
443.281	909
443.353	5142
443.425	25070
443.496	96053
443.568	99286
443.640	36501
443.711	5785
443.783	1417
443.855	425
443.926	347
443.998	47
444.070	-280
444.141	633
444.213	869
444.285	1569
444.356	839
444.428	632
444.499	56
444.571	-846
444.642	-663
444.714	-615
444.785	159
444.857	920
444.928	3021
445.000	3114
445.071	1960
445.143	3085
445.214	2921
445.285	3949
445.357	15255
445.428	65509
445.500	159234
445.571	102097
445.642	50443
445.714	15733
445.785	9372
445.856	2800
445.928	1660
445.999	1190
446.070	591
446.141	386
446.213	927
446.284	-278
446.355	-23
446.426	-938
446.497	116
446.569	234
446.640	822
446.711	743
446.782	-209
446.853	-104
446.924	256
446.995	-17
447.066	-543
447.138	85
447.209	354
447.280	-1458
447.351	-1355
447.422	-898
447.493	9
447.564	-159
447.635	715
447.706	49
447.777	-355
447.847	-1228
447.918	-1657
447.989	-580
448.060	428
448.131	1542
448.202	2598
448.273	990
448.344	575
448.414	-703
448.485	-643
448.556	-31
448.627	-829
448.698	-544
448.768	-445
448.839	-1192
448.910	314
448.981	1135
449.051	117
449.122	-401
449.193	-41
449.263	-645
449.334	-560
449.405	136
449.475	1636
449.546	1064
449.616	1384
449.687	762
449.758	416
449.828	-817
449.899	-379
449.969	-366
450.040	-95
450.110	283
450.181	240
450.251	-348
450.322	-1032
450.392	-44
450.463	228
450.533	-805
450.604	-323
450.674	-664
450.744	258
450.815	-761
450.885	377
450.955	326
451.026	-1001
451.096	-1515
451.166	112
451.237	1261
451.307	3918
451.377	1582
451.447	-567
451.518	-51
451.588	-248
451.658	17
451.728	706
451.799	4920
451.869	7149
451.939	1129
452.009	-536
452.079	-598
452.149	107
452.219	201
452.289	6089
452.360	5615
452.430	845
452.500	497
452.570	804
452.640	2581
452.710	7266
452.780	10457
452.850	7341
452.920	5073
452.990	1822
453.060	696
453.129	892
453.199	1423
453.269	8129
453.339	22111
453.409	36150
453.479	28176
453.549	41300
453.619	42908
453.688	21918
453.758	2958
453.828	465
453.898	-51
453.968	-158
454.037	-701
454.087	-249
454.107	-73
454.168	-432
454.177	-502
454.247	-70
454.249	-85
454.316	-716
454.330	-574
454.386	-148
454.411	717
454.456	2052
454.492	3526
454.525	4858
454.574	2597
454.595	1605
454.655	72
454.665	-178
454.734	-316
454.736	-254
454.804	1211
454.817	2166
454.873	5810
454.898	6836
454.943	8744
454.979	5957
455.013	3454
455.060	1753
455.082	1072
455.141	1383
455.152	1544
455.221	5946
455.222	6129
455.291	15275
455.303	17464
455.360	25135
455.384	36400
455.430	53142
455.465	43155
455.499	35389
455.546	17707
455.569	9492
455.627	5616
455.638	4938
455.707	654
455.708	665
455.777	336
455.789	225
455.846	-247
455.869	47
455.916	510
455.950	535
455.985	544
456.031	294
456.054	191
456.112	358
456.124	390
456.193	285
456.193	272
456.262	453
456.274	585
456.332	1090
456.355	1105
456.401	1162
456.436	936
456.470	543
456.516	133
456.540	26
456.597	-88
456.609	-133
456.678	-97
456.678	-106
456.747	-416
456.759	-437
456.817	-143
456.840	53
456.886	223
456.920	167
456.955	33
457.001	235
457.024	395
457.082	523
457.093	554
457.162	1486
457.163	1498
457.232	1220
457.243	1178
457.301	1115
457.324	548
457.370	-399
457.405	169
457.439	583
457.485	555
457.508	646
457.566	1255
457.577	1380
457.646	1357
457.647	1371
457.715	2881
457.727	3343
457.784	5862
457.808	7682
457.853	9633
457.889	11230
457.922	11792
457.969	9407
457.991	9768
458.050	10642
458.060	10751
458.129	17936
458.130	18135
458.198	17094
458.211	15338
458.267	10401
458.292	7553
458.336	4656
458.372	4239
458.405	5332
458.453	8176
458.474	9904
458.533	17679
458.543	18167
458.611	27561
458.614	27718
458.680	19894
458.694	15913
458.749	7854
458.775	6042
458.818	3491
458.855	2672
458.887	2107
458.936	1398
458.955	1105
459.016	1040
459.024	1077
459.093	1981
459.097	1935
459.162	742
459.177	871
459.230	1353
459.257	1488
459.299	1537
459.338	1468
459.368	1550
459.418	1804
459.437	1838
459.499	1825
459.505	1776
459.574	740
459.579	760
459.643	1705
459.659	1665
459.711	1281
459.740	1327
459.780	1323
459.820	1119
459.849	1056
459.900	1616
459.917	1751
459.981	1344
459.986	1312
460.054	1492
460.061	1523
460.123	1836
460.141	2017
460.191	2809
460.222	2621
460.260	2119
460.302	2616
460.328	2903
460.382	2840
460.397	3078
460.462	3971
460.465	4354
460.534	13325
460.543	14624
460.602	40335
460.623	50309
460.671	78533
460.703	105077
460.739	89285
460.783	60611
460.808	52592
460.864	13112
460.876	9210
460.944	2556
460.945	2483
461.013	2373
461.024	2339
461.081	2068
461.104	2144
461.150	2117
461.184	1966
461.218	1994
461.264	1680
461.286	1571
461.345	1446
461.355	1390
461.423	1895
461.425	1887
461.491	1862
461.505	1969
461.559	3282
461.585	3851
461.628	6062
461.665	8455
461.696	8790
461.745	10498
461.764	9916
461.825	4964
461.832	4878
461.901	2306
461.905	2322
461.969	1791
461.985	1604
462.037	2254
462.065	2501
462.105	2380
462.145	2478
462.173	3306
462.225	4766
462.241	5020
462.305	6902
462.310	6754
462.378	4558
462.385	4064
462.446	2734
462.465	2514
462.514	2085
462.545	2006
462.582	2024
462.625	2307
462.650	2271
462.705	1845
462.718	1895
462.785	2055
462.786	2062
462.854	2593
462.865	2743
462.922	3593
462.945	3889
462.990	3159
463.025	2276
463.058	2015
463.104	1740
463.126	1743
463.184	2058
463.194	2067
463.262	1622
463.264	1634
463.330	2280
463.344	2255
463.398	2643
463.424	2948
463.466	2174
463.504	1508
463.533	1696
463.583	1918
463.601	1939
463.663	1788
463.669	1839
463.737	2885
463.743	2967
463.805	5130
463.823	5795
463.873	8627
463.903	10473
463.940	9935
463.982	9711
464.008	8450
464.062	4451
464.076	4305
464.142	2786
464.144	2743
464.211	2120
464.221	2065
464.279	1893
464.301	1768
464.347	2227
464.381	2749
464.414	2942
464.461	3109
464.482	3285
464.540	3854
464.550	3836
464.617	3389
464.620	3369
464.685	4139
464.699	4312
464.753	5874
464.779	6751
464.820	7784
464.859	8670
464.888	7701
464.938	5938
464.956	6030
465.018	6203
465.023	6207
465.091	6236
465.098	6222
465.158	5486
465.177	5290
465.226	5276
465.257	5189
465.293	5336
465.336	5449
465.361	5765
465.416	6656
465.428	6948
465.495	8455
465.496	8483
465.563	10782
465.575	11204
465.631	13461
465.654	14495
465.698	10704
465.734	7105
465.765	6330
465.813	4996
465.833	5161
465.893	6169
465.900	6094
465.968	5272
465.972	5209
466.035	5685
466.052	5784
466.102	6286
466.131	6622
466.170	6379
466.210	5998
466.237	6303
466.290	6996
466.304	7075
466.369	7244
466.372	7281
466.439	8035
466.449	8124
466.506	8474
466.528	8622
466.573	11128
466.607	12935
466.641	15578
466.687	19247
466.708	20199
466.766	22909
466.775	21692
466.842	12195
466.845	11722
466.909	10721
466.925	10506
466.977	9260
467.004	8645
467.044	9267
467.083	9848
467.111	10696
467.163	12246
467.178	12436
467.242	13140
467.245	13101
467.312	11827
467.321	11642
467.379	10225
467.400	9679
467.446	10121
467.480	10415
467.559	10058
467.638	8327
467.717	8633
467.796	9062
467.875	9268
467.955	9095
468.034	12258
468.113	21647
468.192	25582
468.271	8444
468.350	8433
468.429	10790
468.508	11958
468.588	8356
468.667	6856
468.746	6584
468.825	7222
468.904	6671
468.983	8319
469.062	8967
469.141	10887
469.220	6565
469.299	6531
469.378	7029
469.456	11374
469.535	10405
469.614	8347
469.693	8713
469.772	9468
469.851	11974
469.930	8785
470.009	7345
470.088	8294
470.166	8645
470.245	12042
470.324	13260
470.403	9656
470.482	7999
470.560	7362
470.639	7212
470.718	7279
470.797	5756
470.875	7248
470.954	8643
471.033	9206
471.111	6399
471.190	5685
471.269	5591
471.347	5452
471.426	6382
471.505	8471
471.583	9100
471.662	8080
471.740	6678
471.819	6722
471.898	5853
471.976	6879
472.055	7195
472.133	8741
472.212	11798
472.290	8046
472.369	6399
472.447	6112
472.526	5341
472.604	7210
472.683	6531
472.761	5934
472.839	5978
472.918	5764
472.996	5814
473.075	6087
473.153	6872
473.231	4984
473.310	5825
473.388	6206
473.466	6350
473.545	6716
473.623	8178
473.701	6865
473.780	6014
473.858	4760
473.936	7382
474.014	6281
474.093	8013
474.171	10160
474.249	10704
474.327	7565
474.405	4566
474.484	5701
474.562	4847
474.640	5221
474.718	6025
474.796	6247
474.874	6855
474.952	4360
475.030	4155
475.108	6220
475.187	7179
475.265	6925
475.343	7621
475.421	8075
475.499	5611
475.577	5912
475.655	7258
475.733	11413
475.811	16216
475.889	14832
475.966	9146
476.044	4508
476.122	5285
476.200	5123
476.278	4377
476.356	4599
476.434	5095
476.512	4914
476.590	5971
476.667	5169
476.745	4129
476.823	4893
476.901	3952
476.979	5336
477.056	4484
477.134	4666
477.212	4883
477.290	5629
477.367	3692
477.445	4186
477.523	4293
477.601	4298
477.678	4262
477.756	6190
477.834	4874
477.911	3797
477.989	4236
478.066	3706
478.144	4271
478.222	4313
478.299	5671
478.377	7400
478.454	4550
478.532	3660
478.609	4722
478.687	3849
478.764	3412
478.842	3706
478.919	4288
478.997	4265
479.074	3881
479.152	4391
479.229	5143
479.307	3750
479.384	4163
479.461	4255
479.539	3239
479.616	4265
479.694	2733
479.771	4166
479.848	4421
479.926	4455
480.003	5744
480.080	3569
480.157	3214
480.235	2943
480.312	2903
480.389	3949
480.467	5349
480.544	6034
480.621	4072
480.698	4061
480.775	4622
480.853	4335
480.930	3757
481.007	4677
481.084	9113
481.161	14894
481.238	6896
481.315	2816
481.392	2299
481.470	3051
481.547	2451
481.624	2946
481.701	2147
481.778	2998
481.855	4072
481.932	5723
482.009	8849
482.086	3915
482.163	3807
482.240	4401
482.317	5854
482.393	4610
482.470	3571
482.547	3577
482.624	2869
482.701	2549
482.778	2871
482.855	2677
482.932	3132
483.009	2485
483.085	5640
483.162	9021
483.239	6432
483.316	2685
483.393	4115
483.469	3443
483.546	4471
483.623	4072
483.699	2478
483.776	2443
483.853	3653
483.930	6050
484.006	14692
484.083	24979
484.160	22969
484.236	39255
484.313	26898
484.389	19892
484.466	18073
484.543	15790
484.619	17554
484.696	18716
484.772	16566
484.849	17231
484.925	15386
485.002	16177
485.078	16215
485.155	15575
485.231	14419
485.308	13101
485.384	14446
485.461	17184
485.537	21890
485.614	21846
485.690	13036
485.766	12714
485.843	13966
485.919	16115
485.995	15160
486.072	12779
486.148	12473
486.224	12422
486.301	13005
486.377	13883
486.453	13511
486.530	15467
486.606	21427
486.682	22689
486.758	22677
486.835	23193
486.911	19199
486.987	26708
487.063	25958
487.139	29925
487.215	27856
487.292	18958
487.368	15243
487.444	17076
487.520	20453
487.596	22699
487.672	34347
487.748	75601
487.824	91157
487.900	26676
487.976	15807
488.052	13438
488.128	15910
488.204	12654
488.280	12961
488.356	14366
488.432	23133
488.508	27462
488.584	13041
488.660	10961
488.736	11140
488.812	12398
488.888	14533
488.964	16992
489.039	26865
489.115	35028
489.191	20924
489.267	11876
489.343	10940
489.418	9844
489.494	10881
489.570	9153
489.646	10531
489.722	9201
489.797	10029
489.873	13427
489.949	23436
490.024	17810
490.100	8372
490.176	9135
490.251	10138
490.327	12146
490.403	8247
490.478	8323
490.554	8745
490.629	8058
490.705	7416
490.781	8923
490.856	7711
490.932	9289
491.007	7841
491.083	8604
491.158	7152
491.234	10327
491.309	16778
491.385	14118
491.460	7479
491.536	9256
491.611	7974
491.686	8711
491.762	9346
491.837	15635
491.913	24111
491.988	32190
492.063	33645
492.139	11499
492.214	9006
492.289	6457
492.365	6186
492.440	7900
492.515	6212
492.590	7317
492.666	5753
492.741	8693
492.816	10742
492.891	7008
492.967	8063
493.042	7328
493.117	8153
493.192	10660
493.267	33023
493.342	114120
493.418	123897
493.493	12087
493.568	6103
493.643	5884
493.718	6193
493.793	8290
493.868	8441
493.943	5684
494.018	5514
494.093	4550
494.168	5086
494.243	4871
494.318	4370
494.393	3713
494.468	4010
494.543	4077
494.618	4459
494.693	4352
494.768	4384
494.842	4407
494.917	4344
494.992	4003
495.067	3840
495.142	4102
495.217	4358
495.292	4993
495.366	5755
495.441	4935
495.516	7196
495.591	9991
495.665	30777
495.740	61407
495.815	17647
495.890	5241
495.964	3767
496.039	8309
496.114	9120
496.188	15655
496.263	10037
496.338	3936
496.412	5918
496.487	5836
496.561	5455
496.636	6807
496.710	6808
496.785	8380
496.860	7780
496.934	5563
497.009	6224
497.083	6249
497.158	6432
497.232	7934
497.307	10157
497.381	8903
497.455	10467
497.530	12738
497.604	10789
497.679	12262
497.753	18580
497.827	22534
497.902	23343
497.976	27510
498.050	55590
498.125	162201
498.199	121748
498.273	33397
498.348	30157
498.422	23889
498.496	19696
498.570	16489
498.645	11915
498.719	10753
498.793	11688
498.867	16192
498.941	21725
499.016	68151
499.090	148512
499.164	31261
499.238	6681
499.312	6441
499.386	8567
499.460	6527
499.534	6072
499.609	7268
499.683	9747
499.757	11016
499.831	30315
499.905	104401
499.979	65267
500.053	11187
500.127	11346
500.201	6906
500.275	5683
500.349	5493
500.422	5602
500.496	10043
500.570	21265
500.644	56321
500.718	85489
500.792	13024
500.866	6267
500.940	6613
501.013	6801
501.087	5862
501.161	9712
501.235	11139
501.309	34355
501.382	82922
501.456	50482
501.530	13814
501.603	23008
501.677	7030
501.751	2420
501.825	6671
501.898	12863
501.972	31955
502.046	12873
502.119	4928
502.193	15249
502.266	32117
502.340	11179
502.413	16125
502.487	25879
502.561	10744
502.634	4100
502.708	4391
502.781	1242
502.855	3270
502.928	1824
503.002	2944
503.075	1750
503.149	3455
503.222	3021
503.295	3344
503.369	4143
503.442	7049
503.516	26434
503.589	52839
503.662	26977
503.736	9717
503.809	27165
503.882	18210
503.956	34802
504.029	28736
504.102	37019
504.175	43567
504.249	11042
504.322	6050
504.395	4963
504.468	3482
504.542	2952
504.615	2092
504.688	3321
504.761	1489
504.834	4290
504.907	3968
504.980	5305
505.053	2988
505.127	2141
505.200	6802
505.273	3881
505.346	3073
505.419	1773
505.492	2493
505.565	1430
505.638	2543
505.711	2406
505.784	1031
505.857	687
505.930	3271
506.003	487
506.076	3722
506.149	2759
506.221	2795
506.294	5486
506.367	12949
506.440	43053
506.513	13723
506.586	3881
506.659	1768
506.731	2318
506.804	2795
506.877	3190
506.950	3052
507.022	2916
507.095	1902
507.168	2954
507.241	2770
507.313	1586
507.386	1049
507.459	3961
507.531	1653
507.604	1489
507.677	2563
507.749	559
507.822	4856
507.894	9707
507.967	13168
508.040	6495
508.112	6237
508.185	5815
508.257	3725
508.330	7756
508.402	4822
508.475	4551
508.547	5638
508.620	4346
508.692	6842
508.765	4003
508.837	2518
508.909	4135
508.982	3179
509.054	5194
509.127	3439
509.199	3475
509.271	2322
509.344	3667
509.416	3351
509.488	3743
509.560	4137
509.633	4544
509.705	3474
509.777	4428
509.849	6396
509.922	2388
509.994	3629
510.066	5311
510.138	5730
510.210	15095
510.283	10553
510.355	8600
510.427	7952
510.499	6758
510.571	6418
510.643	5201
510.715	9612
510.787	4949
510.859	7204
510.931	6455
511.003	7866
511.076	7138
511.148	4314
511.219	5844
511.291	8819
511.363	7908
511.435	5230
511.507	3827
511.579	6363
511.651	6036
511.723	4426
511.795	4027
511.867	4602
511.939	6839
512.010	9855
512.082	7626
512.154	4668
512.226	5754
512.298	11476
512.369	13326
512.441	10463
512.513	8584
512.585	6001
512.656	8197
512.728	7059
512.800	5717
512.871	7337
512.943	6445
513.015	4714
513.086	7047
513.158	6995
513.230	5465
513.301	7139
513.373	8759
513.444	6342
513.516	5268
513.588	4420
513.659	6367
513.731	6791
513.802	4766
513.874	11774
513.945	12813
514.016	5189
514.088	5743
514.159	5209
514.231	8305
514.302	11437
514.374	8865
514.445	7172
514.516	14081
514.588	7719
514.659	7525
514.730	10324
514.802	10556
514.873	9770
514.944	11471
515.016	7325
515.087	6846
515.158	9043
515.229	12648
515.301	11511
515.372	15907
515.443	7657
515.514	6567
515.585	5053
515.656	7132
515.728	6380
515.799	5023
515.870	6468
515.941	5309
516.012	4817
516.083	10053
516.154	9450
516.225	9634
516.296	10523
516.367	8238
516.438	8899
516.509	11248
516.580	17819
516.651	63215
516.722	165798
516.793	44658
516.864	13777
516.935	13195
517.006	16205
517.077	24095
517.148	62970
517.219	254324
517.289	260317
517.360	55023
517.431	16246
517.502	8042
517.573	8692
517.643	7774
517.714	10531
517.785	10672
517.856	9816
517.926	13379
517.997	13167
518.068	15588
518.138	23751
518.209	46011
518.280	188608
518.350	514476
518.421	115592
518.492	16238
518.562	12495
518.633	11919
518.703	11093
518.774	28152
518.845	63902
518.915	47674
518.986	13222
519.056	11542
519.127	16187
519.197	22607
519.268	47149
519.338	22683
519.408	8626
519.479	8157
519.549	6265
519.620	6945
519.690	4526
519.760	4479
519.831	3832
519.901	5508
519.971	4293
520.042	4525
520.112	4309
520.182	5432
520.253	6299
520.323	5248
520.393	7171
520.463	12550
520.534	6926
520.604	17011
520.674	6993
520.744	7918
520.814	18121
520.885	12995
520.955	18729
521.025	52319
521.095	12154
521.165	5696
521.235	4387
521.305	3559
521.375	4151
521.445	5651
521.515	4246
521.585	6938
521.655	2737
521.725	6038
521.795	5688
521.865	2778
521.935	7987
522.005	3694
522.075	2690
522.145	4683
522.215	4463
522.285	5751
522.355	7308
522.424	14423
522.494	8855
522.564	5809
522.634	12373
522.704	28584
522.774	7166
522.843	4346
522.913	4203
522.983	4479
523.053	3121
523.122	3642
523.192	5042
523.262	16529
523.331	10844
523.401	3744
523.471	2425
523.540	2875
523.610	2120
523.680	3335
523.749	2927
523.819	5920
523.888	4173
523.958	2629
524.027	3028
524.097	3054
524.166	2964
524.236	2022
524.305	4077
524.375	2284
524.444	1753
524.514	5026
524.583	2207
524.653	3012
524.722	3619
524.791	2045
524.861	4630
524.930	1135
524.999	2866
525.069	3982
525.138	2958
525.207	2561
525.277	2984
525.346	2349
525.415	3280
525.484	3757
525.554	3432
525.623	5694
525.692	7377
525.761	5029
525.830	5333
525.900	6433
525.969	10605
526.038	19532
526.107	48533
526.176	121092
526.245	73033
526.314	26349
526.383	67590
526.452	76925
526.522	158795
526.591	102515
526.660	19971
526.729	12278
526.797	17652
526.867	41028
526.935	150255
527.004	313190
527.073	113761
527.142	8913
527.211	5084
527.280	5070
527.349	4373
527.418	2151
527.487	4006
527.555	1236
527.624	2574
527.693	732
527.762	3459
527.831	831
527.899	1796
527.968	1881
528.037	332
528.106	3648
528.174	5180
528.243	3676
528.312	5477
528.380	5450
528.449	659
528.518	2377
528.586	-161
528.655	1613
528.723	1778
528.792	990
528.861	642
528.929	300
528.998	2260
529.066	1342
529.135	1141
529.203	1295
529.272	825
529.340	2902
529.409	3338
529.477	1293
529.545	1691
529.614	4167
529.682	1869
529.751	2731
529.819	6097
529.887	3137
529.956	975
530.024	2845
530.092	2005
530.161	2749
530.229	3911
530.297	1324
530.365	3239
530.434	2637
530.502	1158
530.570	1743
530.638	403
530.707	2172
530.775	2607
530.843	830
530.911	1435
530.979	1735
531.047	1233
531.115	2772
531.183	1478
531.252	2463
531.320	1694
531.388	1139
531.456	2290
531.524	-19
531.592	2022
531.660	3151
531.728	1632
531.796	912
531.864	1796
531.932	1975
532.000	1722
532.067	1885
532.135	2548
532.203	4723
532.271	2486
532.339	5792
532.407	11765
532.475	5405
532.542	4227
532.610	4876
532.678	6043
532.746	30677
532.814	48356
532.881	8424
532.949	3611
533.017	3304
533.084	2529
533.152	1248
533.220	1955
533.287	1485
533.355	1877
533.423	3028
533.490	1782
533.558	2990
533.625	2681
533.693	2518
533.761	2997
533.828	3061
533.896	730
533.963	6164
534.031	5273
534.098	7484
534.166	3370
534.233	2003
534.300	3916
534.368	3294
534.435	2308
534.503	2555
534.570	4239
534.637	3394
534.705	4259
534.772	6073
534.840	13565
534.907	63158
534.974	50601
535.041	4724
535.109	3437
535.176	1969
535.243	2779
535.310	2649
535.378	1646
535.445	1984
535.512	1846
535.579	2363
535.646	1840
535.714	2887
535.781	4576
535.848	3861
535.915	3959
535.982	3120
536.049	2409
536.116	4167
536.183	1688
536.250	2743
536.317	2111
536.384	2970
536.451	4782
536.518	4246
536.585	2485
536.652	4979
536.719	4783
536.786	2379
536.853	2769
536.920	5776
536.987	7581
537.053	7466
537.120	29626
537.187	15696
537.254	2217
537.321	1810
537.388	3106
537.454	1415
537.521	2650
537.588	2203
537.654	3666
537.721	4821
537.788	4228
537.855	2919
537.921	2349
537.988	2758
538.055	3249
538.121	1514
538.188	3145
538.254	4033
538.321	7550
538.388	4378
538.454	2466
538.521	3328
538.587	2192
538.654	2320
538.720	2099
538.787	3299
538.853	2670
538.920	4507
538.986	3650
539.053	1820
539.119	2133
539.185	2334
539.252	3705
539.318	4040
539.385	5364
539.451	3697
539.517	4534
539.583	4602
539.650	9921
539.716	17017
539.782	4748
539.849	2366
539.915	4047
539.981	2587
540.047	2692
540.114	4205
540.180	4335
540.246	2136
540.312	4208
540.378	7689
540.444	8591
540.510	10943
540.576	20770
540.643	4279
540.709	1265
540.775	2472
540.841	2114
540.907	5443
540.973	7634
541.039	5451
541.105	4946
541.171	2910
541.237	2394
541.303	4358
541.369	5822
541.435	5296
541.500	6914
541.566	3135
541.632	2036
541.698	2775
541.764	3387
541.830	2229
541.896	2015
541.961	2970
542.027	2269
542.093	2953
542.159	3898
542.224	3725
542.290	5685
542.356	7905
542.421	7576
542.487	5342
542.553	3345
542.618	3811
542.684	2725
542.750	2657
542.815	4872
542.881	6373
542.947	20384
543.012	10198
543.078	2144
543.143	2184
543.209	3148
543.274	2702
543.340	4078
543.405	9306
543.471	9288
543.536	3519
543.602	3672
543.667	1529
543.732	4856
543.798	2526
543.863	3859
543.928	2064
543.994	1584
544.059	3336
544.124	3311
544.190	2527
544.255	3043
544.320	3479
544.386	2527
544.451	4727
544.516	4751
544.581	5501
544.646	15036
544.712	15969
544.777	5704
544.842	3789
544.907	4532
544.972	3260
545.037	4136
545.102	5108
545.168	3725
545.233	3623
545.298	4638
545.363	4509
545.428	6106
545.493	10538
545.558	13963
545.623	6024
545.688	3495
545.753	4165
545.818	2856
545.883	5311
545.947	3820
546.012	5109
546.077	4535
546.142	5275
546.207	4607
546.272	6112
546.337	4749
546.401	5963
546.466	4931
546.531	4603
546.596	6193
546.661	5150
546.725	6704
546.790	5219
546.855	6445
546.919	5001
546.984	7742
547.049	7077
547.113	8425
547.178	8313
547.243	9938
547.307	12761
547.372	12941
547.436	12336
547.501	11936
547.565	12718
547.630	12656
547.695	12460
547.759	13902
547.823	13393
547.888	11859
547.952	13477
548.017	15246
548.081	20034
548.146	15717
548.210	14141
548.274	13883
548.339	13114
548.403	12973
548.468	11989
548.532	11686
548.596	12810
548.660	12833
548.725	14267
548.789	14474
548.853	15159
548.917	13621
548.982	15140
549.046	13054
549.110	10217
549.174	11564
549.238	12090
549.303	13263
549.367	15338
549.431	13375
549.495	12940
549.559	12184
549.623	15078
549.687	16509
549.751	17630
549.815	18676
549.879	18725
549.943	17248
550.007	19252
550.071	18440
550.135	17862
550.199	16122
550.263	15813
550.327	16992
550.391	19143
550.455	18029
550.519	17685
550.582	19456
550.646	22637
550.710	22444
550.774	20793
550.838	21197
550.901	22258
550.965	24014
551.029	24642
551.093	26657
551.156	31381
551.220	43870
551.284	46317
551.347	31820
551.411	32909
551.475	29685
551.538	23131
551.602	21014
551.666	19318
551.729	17950
551.793	17850
551.856	17842
551.920	18400
551.983	17929
552.047	16801
552.110	18017
552.174	18902
552.237	18300
552.301	16147
552.364	15767
552.428	14502
552.491	16009
552.554	16128
552.618	15708
552.681	18221
552.745	16545
552.808	24050
552.871	25972
552.934	18834
552.998	16483
553.061	16580
553.124	15555
553.187	15445
553.251	16834
553.314	17853
553.377	21137
553.440	32740
553.503	84515
553.567	91114
553.630	21583
553.693	17277
553.756	16653
553.819	15271
553.882	15102
553.945	15988
554.008	16990
554.071	14505
554.134	15959
554.197	14157
554.260	14133
554.323	15356
554.386	15437
554.449	15429
554.512	15447
554.575	13443
554.638	14780
554.701	14207
554.764	14568
554.827	13291
554.889	12412
554.952	11970
555.015	11397
555.078	11215
555.141	12005
555.203	11457
555.266	12449
555.329	12744
555.391	11751
555.454	11686
555.517	11655
555.580	12176
555.642	10756
555.705	9656
555.768	9960
555.830	9781
555.893	8029
555.955	9379
556.018	9439
556.080	9233
556.143	9149
556.206	9576
556.268	9315
556.330	10385
556.393	9088
556.455	9128
556.518	9675
556.580	9737
556.643	7674
556.705	6976
556.767	5476
556.830	8358
556.892	7905
556.955	9396
557.017	7088
557.079	6836
557.142	7706
557.204	7190
557.266	11641
557.328	7820
557.391	5072
557.453	6025
557.515	6532
557.577	7150
557.639	6990
557.701	6823
557.764	5540
557.826	6914
557.888	8378
557.950	8820
558.012	11486
558.074	15920
558.136	42629
558.198	77623
558.260	19543
558.322	9425
558.384	9930
558.446	12392
558.508	13980
558.570	18223
558.632	26023
558.694	40461
558.756	73096
558.818	232263
558.880	404904
558.942	92037
559.003	84185
559.065	29892
559.127	14642
559.189	15389
559.251	21599
559.312	38115
559.374	105296
559.436	275427
559.498	82429
559.559	14842
559.621	14605
559.683	23047
559.744	43827
559.806	144230
559.868	148427
559.929	20886
559.991	17497
560.052	33876
560.114	83665
560.176	41119
560.237	53495
560.299	61644
560.360	10176
560.422	4273
560.483	4033
560.545	3807
560.606	3765
560.667	3712
560.729	4143
560.790	4413
560.852	3110
560.913	3887
560.974	3352
561.036	3551
561.097	3077
561.158	3696
561.220	3836
561.281	2430
561.342	3395
561.403	4874
561.465	5295
561.526	12007
561.587	12215
561.648	2630
561.709	2467
561.771	3957
561.832	2315
561.893	3186
561.954	3162
562.015	3472
562.076	3000
562.137	2071
562.198	2304
562.259	3179
562.320	2211
562.381	3494
562.442	4992
562.503	3807
562.564	1819
562.625	3148
562.686	3421
562.747	3303
562.808	2883
562.869	2833
562.930	3399
562.991	2764
563.051	2890
563.112	3569
563.173	2565
563.234	1994
563.294	3059
563.355	2176
563.416	2848
563.477	2440
563.537	3418
563.598	2584
563.659	2306
563.720	2705
563.780	3199
563.841	3275
563.901	2791
563.962	2135
564.023	2798
564.083	2981
564.144	2757
564.204	2803
564.265	3122
564.325	3396
564.386	7291
564.446	5463
564.507	3145
564.567	1883
564.628	2670
564.688	2442
564.749	2320
564.809	3312
564.869	3522
564.930	2425
564.990	3476
565.050	2620
565.111	2923
565.171	2826
565.231	2856
565.292	3241
565.352	2017
565.412	3103
565.472	2348
565.532	2764
565.593	1805
565.653	2562
565.713	2538
565.773	3868
565.833	4281
565.893	4445
565.953	2915
566.013	3198
566.074	3077
566.134	4833
566.194	7574
566.254	5850
566.314	4646
566.374	2825
566.434	3828
566.494	3885
566.554	3890
566.614	4427
566.673	4777
566.733	4920
566.793	4621
566.853	5252
566.913	5486
566.973	5631
567.033	6050
567.092	5518
567.152	5775
567.212	4980
567.272	5427
567.331	7386
567.391	6068
567.451	8939
567.511	8992
567.570	9076
567.630	6951
567.690	6860
567.749	6420
567.809	7868
567.868	9129
567.928	10380
567.988	12340
568.047	16035
568.107	22432
568.166	33762
568.226	58448
568.285	76285
568.345	54318
568.404	39049
568.464	31884
568.523	30279
568.582	30807
568.642	37078
568.701	52968
568.761	89229
568.820	139038
568.879	116115
568.939	72668
568.998	48209
569.057	34074
569.116	26124
569.176	19271
569.235	16887
569.294	13730
569.353	11813
569.413	10972
569.472	8633
569.531	8207
569.590	7114
569.649	5868
569.708	6122
569.767	6609
569.827	6066
569.886	5200
569.945	4391
570.004	5033
570.063	5295
570.122	4700
570.181	4202
570.240	4299
570.299	5186
570.358	4237
570.417	3951
570.475	3594
570.534	4404
570.593	3634
570.652	3875
570.711	3703
570.770	3744
570.829	4826
570.887	3451
570.946	4631
571.005	3246
571.064	3689
571.122	3955
571.181	3220
571.240	3017
571.299	2531
571.357	3556
571.416	3357
571.475	3696
571.533	3200
571.592	2895
571.650	3227
571.709	2581
571.768	2728
571.826	3078
571.885	2943
571.943	2024
572.002	1595
572.060	2821
572.119	1955
572.177	3299
572.236	1635
572.294	1789
572.352	2080
572.411	1979
572.469	2048
572.528	2613
572.586	2732
572.644	2531
572.703	3176
572.761	2810
572.819	1674
572.877	1817
572.936	1593
572.994	2310
573.052	2169
573.110	2480
573.169	1976
573.227	1823
573.285	1965
573.343	1737
573.401	2261
573.459	2069
573.517	2472
573.576	1329
573.634	3471
573.692	2515
573.750	2399
573.808	2266
573.866	2341
573.924	3534
573.982	2325
574.040	2923
574.098	1743
574.155	1908
574.213	1319
574.271	1689
574.329	2268
574.387	1584
574.445	1384
574.503	1385
574.560	1565
574.618	1540
574.676	1064
574.734	1667
574.792	1865
574.849	1725
574.907	1312
574.965	1642
575.022	822
575.080	1630
575.138	1642
575.195	1764
575.253	1903
575.311	2313
575.368	1753
575.426	812
575.483	2040
575.541	891
575.598	1520
575.656	1734
575.713	1771
575.771	1338
575.828	1085
575.886	1895
575.943	1915
576.001	2005
576.058	1415
576.115	1912
576.173	2127
576.230	3050
576.287	3221
576.345	2415
576.402	2022
576.459	2569
576.517	1827
576.574	2404
576.631	3201
576.688	2382
576.746	1487
576.803	2029
576.860	1190
576.917	1835
576.974	2392
577.031	2545
577.089	2465
577.146	1345
577.203	2133
577.260	2985
577.317	1934
577.374	2600
577.431	1532
577.488	2148
577.545	2463
577.602	2799
577.659	2236
577.716	3615
577.773	4346
577.830	2005
577.886	2110
577.943	1796
578.000	1537
578.057	2519
578.114	2018
578.171	2819
578.227	3845
578.284	2554
578.341	2444
578.398	2396
578.454	2158
578.511	3649
578.568	3333
578.625	1986
578.681	2003
578.738	1847
578.794	2029
578.851	2742
578.908	2632
578.964	2353
579.021	2535
579.077	2394
579.134	1835
579.190	1349
579.247	2276
579.303	1940
579.360	1548
579.416	1571
579.473	1910
579.529	1551
579.586	2289
579.642	2302
579.698	2110
579.755	2750
579.811	2051
579.867	1937
579.924	1890
579.980	2337
580.036	2869
580.093	3176
580.149	3853
580.205	4825
580.261	2681
580.317	3385
580.374	3130
580.430	4451
580.486	3634
580.542	2190
580.598	2171
580.619	2311
580.654	2553
580.692	1826
580.710	1466
580.765	1357
580.767	1354
580.823	2267
580.838	2344
580.879	2526
580.911	2737
580.935	2898
580.984	2679
580.991	2653
581.047	3054
581.057	2981
581.103	2638
581.130	2752
581.159	2862
581.203	2936
581.215	2963
581.270	2578
581.276	2586
581.326	2696
581.349	2556
581.382	2263
581.422	2739
581.438	2964
581.494	2819
581.494	2813
581.550	2237
581.567	2502
581.606	3100
581.640	2674
581.661	2388
581.713	3390
581.717	3470
581.773	2749
581.786	2689
581.829	2499
581.859	2484
581.885	2588
581.932	2661
581.940	2612
581.996	2823
582.004	2782
582.052	2770
582.077	3020
582.107	3241
582.150	3064
582.163	3041
582.219	3403
582.223	3365
582.274	2799
582.296	2941
582.330	3232
582.368	2918
582.386	2793
582.441	2784
582.441	2782
582.497	3390
582.514	3675
582.552	4489
582.587	4536
582.608	4509
582.659	3467
582.663	3380
582.719	3144
582.732	3218
582.774	3644
582.805	3688
582.830	3666
582.877	3445
582.885	3429
582.941	3897
582.950	3770
582.996	2691
583.023	2889
583.052	3555
583.095	3742
583.107	3684
583.162	4342
583.168	4428
583.218	5211
583.240	5000
583.273	4590
583.313	4125
583.328	4067
583.384	3536
583.385	3537
583.439	3092
583.458	3091
583.494	3323
583.531	3275
583.549	3264
583.603	3348
583.605	3344
583.660	3890
583.676	3848
583.715	3898
583.748	4105
583.770	4208
583.820	4090
583.825	4071
583.881	4866
583.893	4724
583.936	4375
583.965	3967
583.991	3505
584.038	4103
584.046	4232
584.101	4391
584.110	4399
584.156	4353
584.183	4517
584.211	4733
584.255	4273
584.266	4168
584.321	3975
584.328	4047
584.376	4714
584.400	5134
584.431	5634
584.472	4745
584.486	4402
584.541	5153
584.545	5144
584.596	4729
584.617	4571
584.651	5041
584.689	5807
584.706	5821
584.761	5382
584.762	5376
584.816	5514
584.834	5811
584.871	6295
584.906	5935
584.926	5649
584.978	6449
584.980	6502
585.035	7154
585.051	7560
585.090	8500
585.123	8991
585.145	9217
585.195	8608
585.200	8631
585.254	10452
585.267	11325
585.309	14298
585.340	15785
585.364	16529
585.412	15776
585.419	15622
585.473	17222
585.484	17941
585.528	22584
585.556	27710
585.583	36404
585.628	56720
585.637	63674
585.692	128671
585.700	137897
585.747	167102
585.772	135417
585.801	77720
585.845	27011
585.856	21315
585.910	13592
585.917	12815
585.965	11121
585.989	10807
586.019	10522
586.061	10149
586.074	10064
586.128	9462
586.133	9496
586.183	10183
586.205	10048
586.237	9701
586.277	9681
586.292	9790
586.346	9730
586.349	9764
586.401	10220
586.421	10296
586.455	10757
586.493	11690
586.509	12388
586.564	14603
586.565	14685
586.618	18492
586.637	18234
586.672	16177
586.709	14596
586.727	14080
586.781	14465
586.781	14475
586.835	12969
586.853	12937
586.889	12980
586.925	12561
586.944	12610
586.996	13562
586.998	13593
587.052	13864
587.068	14002
587.106	14769
587.140	15405
587.161	15496
587.212	15506
587.215	15556
587.269	17158
587.284	17271
587.323	17360
587.356	17985
587.377	18389
587.427	18981
587.431	19074
587.485	20416
587.499	20681
587.539	21558
587.571	22334
587.593	22993
587.643	25107
587.648	25343
587.702	27044
587.715	27593
587.755	29017
587.786	30033
587.810	31224
587.858	33870
587.864	34219
587.917	37886
587.930	38579
587.971	41858
588.001	44895
588.025	47294
588.073	51719
588.079	52410
588.133	58978
588.145	60497
588.187	67096
588.217	71950
588.241	76989
588.288	87582
588.295	89206
588.348	103713
588.360	106914
588.402	121557
588.431	132477
588.456	143699
588.503	167909
588.510	172268
588.564	210129
588.575	219409
588.617	265620
588.646	300808
588.671	345536
588.718	441875
588.725	465504
588.778	666316
588.789	711834
588.832	977271
588.861	1167371
588.886	1297097
588.932	1456338
588.939	1447306
588.993	1307120
589.004	1299305
589.047	1311802
589.075	1237157
589.100	1048663
589.147	701317
589.154	673304
589.207	494533
589.218	461875
589.261	424233
589.290	406838
589.314	423553
589.361	469405
589.368	489998
589.421	675843
589.433	720415
589.475	995192
589.504	1185617
589.528	1256606
589.576	1304252
589.582	1286519
589.635	1142002
589.647	1089788
589.689	751749
589.718	527747
589.742	432426
589.790	266704
589.795	258364
589.849	189120
589.861	174087
589.902	146473
589.932	126270
589.955	116000
590.004	95986
590.009	94780
590.062	81337
590.075	78229
590.115	70987
590.146	65391
590.168	62945
590.218	57163
590.222	56778
590.275	51383
590.289	49972
590.328	47238
590.360	44550
590.381	43437
590.431	41460
590.435	41301
590.488	37386
590.503	36287
590.541	34900
590.574	33525
590.594	32845
590.645	31234
590.647	31259
590.700	30531
590.716	30299
590.753	28436
590.787	26657
590.806	26605
590.859	26367
590.859	26403
590.912	25741
590.930	25529
590.965	24671
591.001	23659
591.018	23438
591.071	22714
591.072	22668
591.124	22510
591.143	22443
591.177	21921
591.214	21114
591.230	21248
591.283	21837
591.285	21810
591.336	20532
591.356	20004
591.389	20510
591.427	20961
591.442	20490
591.495	18532
591.498	18355
591.547	18789
591.569	18948
591.600	18149
591.640	16988
591.653	17145
591.706	17747
591.711	17769
591.759	18006
591.782	18100
591.811	18601
591.853	19119
591.864	18912
591.917	17782
591.924	17567
591.969	17538
591.995	17487
592.022	17733
592.066	18044
592.075	18078
592.127	17991
592.137	17950
592.180	17692
592.208	17418
592.233	17524
592.279	17641
592.285	17654
592.338	17439
592.350	17348
592.390	16730
592.421	16202
592.443	16425
592.491	16808
592.495	16865
592.548	17108
592.562	17134
592.600	16704
592.633	16269
592.653	16230
592.704	15960
592.705	16046
592.775	15739
592.846	15843
592.916	17334
592.987	16822
593.058	16390
593.128	16065
593.199	15491
593.270	15511
593.341	15118
593.411	15467
593.482	16146
593.553	16510
593.623	16008
593.694	16293
593.764	17215
593.835	16616
593.906	15258
593.976	16026
594.047	16273
594.117	19207
594.188	17378
594.258	16883
594.329	16218
594.399	17744
594.470	17752
594.540	18030
594.611	17019
594.681	17926
594.751	17653
594.822	19484
594.892	19769
594.963	19195
595.033	18237
595.103	19437
595.174	19749
595.244	23268
595.314	23527
595.384	20517
595.455	19401
595.525	21778
595.595	21399
595.665	22360
595.736	20868
595.806	22555
595.876	21271
595.946	21945
596.016	23181
596.087	22971
596.157	22123
596.227	22707
596.297	23821
596.367	25436
596.437	27005
596.507	27665
596.577	28769
596.647	27721
596.717	27098
596.787	28596
596.857	27486
596.927	29057
596.997	27861
597.067	28826
597.137	31506
597.207	30838
597.277	29382
597.347	29775
597.417	27365
597.487	29350
597.557	28510
597.626	28643
597.696	28924
597.766	30191
597.836	29458
597.906	26840
597.975	26262
598.045	26107
598.115	27873
598.185	29713
598.254	31137
598.324	34488
598.394	35065
598.464	34546
598.533	32687
598.603	31381
598.672	30127
598.742	31994
598.812	31498
598.881	31980
598.951	31533
599.020	31401
599.090	31649
599.159	34689
599.229	32346
599.299	31636
599.368	32053
599.437	32491
599.507	29681
599.576	29032
599.646	29281
599.715	30518
599.785	28582
599.854	27928
599.924	27096
599.993	27466
600.062	27633
600.132	28311
600.201	29357
600.270	34990
600.340	35651
600.409	35432
600.478	34159
600.547	35500
600.617	32545
600.686	26851
600.755	24729
600.824	24476
600.894	22216
600.963	24194
601.032	22597
601.101	23262
601.170	21150
601.239	22056
601.308	21336
601.378	21790
601.447	21232
601.516	21715
601.585	22489
601.654	22618
601.723	22155
601.792	24330
601.861	25468
601.930	28470
601.999	25549
602.068	26294
602.137	24849
602.206	26933
602.275	25955
602.343	26804
602.412	26697
602.481	26094
602.550	26583
602.619	27011
602.688	27466
602.756	28600
602.825	27656
602.894	29303
602.963	27274
603.032	29500
603.100	29323
603.169	29427
603.238	28490
603.307	28954
603.375	29378
603.444	30868
603.513	29655
603.581	31769
603.650	31753
603.719	29679
603.787	29961
603.856	31636
603.924	30784
603.993	32692
604.061	34645
604.130	35127
604.198	36118
604.267	37432
604.335	36859
604.404	38432
604.472	37600
604.541	38491
604.609	38980
604.678	39612
604.746	39338
604.815	40968
604.883	39999
604.951	41127
605.020	41429
605.088	42464
605.156	42729
605.225	43593
605.293	43804
605.361	43618
605.429	42377
605.498	44864
605.566	45773
605.634	46706
605.702	48924
605.771	50926
605.839	50630
605.907	49815
605.975	47846
606.043	47305
606.111	47188
606.180	47579
606.248	47237
606.316	48921
606.384	45775
606.452	46484
606.520	45143
606.588	47556
606.656	45280
606.724	45353
606.792	43142
606.860	39476
606.928	34064
606.996	34375
607.064	32513
607.132	34340
607.200	36014
607.267	38538
607.335	37492
607.403	40504
607.471	36884
607.539	35926
607.607	37023
607.674	31828
607.742	32190
607.810	32766
607.878	31952
607.946	33576
608.013	34180
608.081	35100
608.149	34646
608.216	35853
608.284	38252
608.352	38249
608.419	35739
608.487	38838
608.555	35273
608.622	36959
608.690	39029
608.757	44058
608.825	44366
608.893	41851
608.960	41120
609.028	41295
609.095	41607
609.163	38689
609.230	34638
609.298	32552
609.365	31652
609.432	36009
609.500	39000
609.567	46351
609.635	52822
609.702	55080
609.769	51724
609.837	40292
609.904	34250
609.971	34973
610.039	41600
610.106	56671
610.173	112953
610.241	266508
610.308	134177
610.375	46479
610.442	36130
610.509	35742
610.577	36744
610.644	36882
610.711	36185
610.778	38692
610.845	39911
610.912	43398
610.980	46554
611.047	50458
611.114	45457
611.181	42221
611.248	40201
611.315	46413
611.382	44356
611.449	47636
611.516	49098
611.583	47716
611.650	47690
611.717	49425
611.784	49550
611.851	52975
611.918	57602
611.984	70700
612.051	107961
612.118	238961
612.185	602935
612.252	331449
612.319	78565
612.386	64056
612.452	56768
612.519	56114
612.586	54661
612.653	54662
612.719	56235
612.786	53295
612.853	49577
612.919	47800
612.986	49587
613.053	46517
613.120	43632
613.186	41442
613.253	42632
613.319	41922
613.386	42355
613.453	43565
613.519	43858
613.586	43302
613.652	46615
613.719	44585
613.785	44156
613.852	45034
613.918	43879
613.985	47622
614.051	55447
614.118	80679
614.184	72339
614.250	45697
614.317	44875
614.383	43568
614.449	43994
614.516	44903
614.582	44932
614.648	44230
614.715	43965
614.781	41955
614.847	42737
614.914	42086
614.980	40138
615.046	41368
615.112	42720
615.179	42864
615.245	45332
615.311	49438
615.377	61308
615.443	61395
615.509	48359
615.575	48445
615.642	45071
615.708	48505
615.774	51248
615.840	56542
615.906	65811
615.972	92255
616.038	165136
616.104	325027
616.170	752262
616.236	572658
616.302	115541
616.368	83028
616.434	58663
616.500	56388
616.565	61810
616.631	75571
616.697	59934
616.763	64071
616.829	99706
616.895	178768
616.961	158165
617.026	65306
617.092	46112
617.158	45525
617.224	43953
617.289	41908
617.355	38074
617.421	37360
617.487	38034
617.552	36253
617.618	34767
617.684	34651
617.749	37040
617.815	34347
617.880	32295
617.946	33042
618.012	34272
618.077	34159
618.143	32044
618.208	35406
618.274	35777
618.339	36919
618.405	29168
618.470	30601
618.536	29706
618.601	30377
618.667	27227
618.732	26751
618.798	25181
618.863	25702
618.928	24660
618.994	27220
619.059	27131
619.124	29002
619.190	26311
619.255	24953
619.320	24750
619.386	25951
619.451	24141
619.516	24573
619.581	24068
619.647	25973
619.712	24596
619.777	24470
619.842	24258
619.907	24451
619.972	24987
620.038	25282
620.103	24276
620.168	23738
620.233	24186
620.298	24476
620.363	24921
620.428	26104
620.493	25839
620.558	26073
620.623	26087
620.688	27415
620.753	27020
620.818	27303
620.883	27182
620.948	27704
621.013	25737
621.078	26317
621.143	24587
621.207	29469
621.272	26475
621.337	26346
621.402	26741
621.467	27589
621.532	26475
621.596	25990
621.661	25034
621.726	24399
621.791	24485
621.855	24841
621.920	25285
621.985	25417
622.049	26937
622.114	26637
622.179	26377
622.243	27949
622.308	27739
622.373	30197
622.437	28026
622.502	26262
622.566	26661
622.631	24503
622.695	26892
622.760	27100
622.824	26518
622.889	26717
622.953	26247
623.018	32006
623.082	31485
623.147	28389
623.211	27309
623.276	28116
623.340	25270
623.404	25923
623.469	24676
623.533	26433
623.597	24138
623.662	25205
623.726	21984
623.790	21395
623.854	20401
623.919	21198
623.983	22046
624.047	21434
624.111	22454
624.176	23314
624.240	22045
624.304	25544
624.368	21563
624.432	23217
624.496	23414
624.560	25223
624.625	25333
624.689	25350
624.753	25521
624.817	25119
624.881	23834
624.945	21964
625.009	20285
625.073	21072
625.137	21037
625.201	24724
625.265	23458
625.329	22893
625.393	21885
625.456	23222
625.520	22950
625.584	24969
625.648	26351
625.712	29549
625.776	39681
625.839	41031
625.903	23644
625.967	18259
626.031	25506
626.095	32215
626.158	22306
626.222	16841
626.286	16574
626.349	15806
626.413	13872
626.477	16085
626.540	13959
626.604	13510
626.668	14326
626.731	13457
626.795	13865
626.858	15113
626.922	12953
626.986	14555
627.049	11715
627.113	15096
627.176	13846
627.240	14377
627.303	13169
627.366	13263
627.430	13821
627.493	13758
627.557	12161
627.620	15086
627.684	13691
627.747	14607
627.810	11501
627.874	13092
627.937	10619
628.000	14773
628.064	11523
628.127	9011
628.190	11167
628.253	10340
628.317	8276
628.380	10217
628.443	9050
628.506	8686
628.569	8593
628.632	7835
628.696	8185
628.759	7788
628.822	7356
628.885	8554
628.948	8076
629.011	8454
629.074	8245
629.137	7445
629.200	6601
629.263	8644
629.326	6398
629.389	7169
629.452	6559
629.515	7603
629.578	6140
629.641	7786
629.704	6313
629.767	7305
629.830	7164
629.892	6903
629.955	5736
630.018	8372
630.081	6251
630.144	8176
630.207	5527
630.269	9352
630.332	7252
630.395	6543
630.458	7003
630.520	5318
630.583	6741
630.646	6464
630.708	5801
630.771	6575
630.834	6837
630.896	6386
630.959	6709
631.021	6986
631.084	5684
631.146	7110
631.209	7948
631.272	6253
631.334	6493
631.397	5741
631.459	6192
631.522	7725
631.584	7609
631.646	9096
631.709	7978
631.771	9145
631.834	7897
631.896	8301
631.958	6116
632.021	7214
632.083	5275
632.145	7661
632.208	5651
632.270	8498
632.332	5114
632.395	4776
632.457	7162
632.519	7190
632.581	6846
632.643	6150
632.706	6721
632.768	5560
632.830	6517
632.892	6003
632.954	5428
633.016	7541
633.078	5579
633.141	5449
633.203	6161
633.265	7174
633.327	6059
633.389	5130
633.451	6144
633.513	6874
633.575	6635
633.637	6544
633.698	6083
633.760	7662
633.822	7152
633.884	7301
633.946	6812
634.008	7835
634.070	7909
634.132	9905
634.193	8617
634.255	9909
634.317	8202
634.379	10221
634.441	8536
634.502	7036
634.564	7340
634.626	6268
634.687	6102
634.749	6738
634.811	5734
634.873	5650
634.934	5679
634.996	6347
635.057	4597
635.119	5418
635.181	5998
635.242	7261
635.304	3860
635.365	8470
635.427	4336
635.488	6184
635.550	4034
635.611	6183
635.673	3395
635.734	7789
635.796	6145
635.857	8483
635.918	6335
635.980	8967
636.041	8170
636.102	11039
636.164	9134
636.225	10267
636.286	6845
636.348	7986
636.409	6065
636.470	5358
636.531	6177
636.593	5587
636.654	5448
636.715	5725
636.776	4905
636.838	5179
636.899	5586
636.960	5102
637.021	4533
637.082	5314
637.143	5322
637.204	4119
637.265	3968
637.326	5633
637.387	4191
637.448	3835
637.509	4481
637.570	4556
637.631	4970
637.692	3049
637.753	2028
637.814	5274
637.875	3981
637.936	5363
637.997	3408
638.058	4243
638.119	4362
638.179	4148
638.240	3751
638.301	3860
638.362	2932
638.423	3923
638.483	4688
638.544	2689
638.605	4230
638.666	4170
638.726	3256
638.787	4566
638.848	3208
638.908	4552
638.969	4317
639.030	4275
639.090	2478
639.151	3839
639.211	3840
639.272	5142
639.332	5938
639.393	5875
639.453	2749
639.514	4385
639.574	3796
639.635	3769
639.695	4098
639.756	2467
639.816	3620
639.877	4356
639.937	6493
639.997	6753
640.058	2109
640.118	2833
640.178	3408
640.239	2567
640.299	2455
640.359	3426
640.420	2904
640.480	4549
640.540	4291
640.600	5359
640.661	4893
640.721	5034
640.781	9727
640.841	8164
640.901	4235
640.961	3997
641.021	4207
641.082	3916
641.142	4501
641.202	4347
641.262	1424
641.322	3964
641.382	1207
641.442	3827
641.502	2579
641.562	3721
641.622	2250
641.682	4029
641.742	3757
641.802	3305
641.861	3407
641.921	3996
641.981	4172
642.041	3784
642.101	2890
642.161	2376
642.221	2257
642.280	3495
642.340	1943
642.400	2260
642.460	4260
642.519	2353
642.579	2298
642.639	3710
642.698	216
642.758	5840
642.818	3255
642.877	2637
642.937	2427
642.997	3415
643.056	3816
643.116	1986
643.175	4378
643.235	3958
643.294	2341
643.354	4400
643.414	4224
643.473	6059
643.532	7061
643.592	11310
643.651	21809
643.711	41746
643.770	87773
643.830	222255
643.889	456384
643.948	89097
644.008	14237
644.067	8643
644.126	5135
644.186	5892
644.245	4823
644.304	3441
644.363	5753
644.423	3574
644.482	3605
644.541	4349
644.600	2263
644.659	5519
644.719	6224
644.778	10413
644.837	18801
644.896	44253
644.955	100176
645.014	28466
645.073	6921
645.132	4553
645.191	4468
645.250	3459
645.309	4210
645.368	4612
645.427	7068
645.486	9672
645.545	18176
645.604	5395
645.663	4193
645.722	3228
645.781	4844
645.840	5299
645.898	5995
645.957	11829
646.016	18515
646.075	38055
646.134	78088
646.192	225660
646.251	311281
646.310	37522
646.369	9486
646.427	8426
646.486	3808
646.545	4035
646.603	3631
646.662	3643
646.721	3417
646.779	2699
646.838	2090
646.896	5126
646.955	6821
647.014	12047
647.072	22421
647.131	63733
647.189	26179
647.248	3936
647.306	3482
647.365	3469
647.423	1457
647.481	3564
647.540	356
647.598	2413
647.657	2208
647.715	3116
647.773	904
647.832	3250
647.890	43
647.948	1944
648.007	2404
648.065	1757
648.123	1603
648.181	3306
648.240	3074
648.298	2302
648.356	1213
648.414	2477
648.472	1682
648.531	2374
648.589	1233
648.647	2211
648.705	1467
648.763	2011
648.821	2301
648.879	1933
648.937	2026
648.995	3577
649.053	3865
649.111	8043
649.169	14175
649.227	28875
649.285	63102
649.343	186555
649.401	76333
649.459	12475
649.516	8283
649.574	7674
649.632	18927
649.690	22668
649.748	7672
649.806	10346
649.863	20692
649.921	44704
649.979	24431
650.037	4645
650.094	1440
650.152	2579
650.210	1533
650.268	3405
650.325	2980
650.383	4830
650.440	1144
650.498	1863
650.556	805
650.613	851
650.671	1634
650.728	1198
650.786	1684
650.843	2546
650.901	-1130
650.958	1512
651.016	246
651.073	1166
651.131	4
651.188	593
651.246	1261
651.303	576
651.360	1116
651.418	543
651.475	384
651.532	332
651.590	1053
651.647	302
651.704	505
651.762	950
651.819	511
651.876	1320
651.933	-327
651.990	1766
652.048	-329
652.105	431
652.162	1612
652.219	217
652.276	786
652.333	827
652.390	-524
652.448	1520
652.505	225
652.562	963
652.619	1067
652.676	3377
652.733	3172
652.790	569
652.847	-486
652.904	535
652.961	-549
653.017	950
653.074	847
653.131	1100
653.188	-751
653.245	440
653.302	73
653.359	207
653.415	526
653.472	787
653.529	1457
653.586	-208
653.642	-1203
653.699	1391
653.756	-1162
653.813	690
653.869	523
653.926	13
653.983	-937
654.039	1111
654.096	-995
654.152	1596
654.209	-1602
654.266	637
654.322	-302
654.379	652
654.435	659
654.492	856
654.548	283
654.605	1403
654.661	1402
654.717	1015
654.774	576
654.830	659
654.887	752
654.943	1369
655.000	1980
655.056	1388
655.112	132
655.168	-54
655.225	-405
655.281	855
655.337	590
655.394	1506
655.450	749
655.506	527
655.562	1162
655.618	2593
655.675	-1070
655.731	1001
655.787	291
655.843	1223
655.899	172
655.955	1393
656.011	879
656.067	302
656.123	1283
656.179	1272
656.235	1767
656.291	19
656.347	1723
656.403	465
656.459	-207
656.515	1248
656.571	-362
656.627	1992
656.683	148
656.739	674
656.795	-240
656.850	577
656.906	169
656.962	1822
657.018	-1016
657.074	1008
657.129	889
657.185	1841
657.241	4618
657.297	2915
657.352	284
657.408	-362
657.464	165
657.519	263
657.575	-589
657.630	323
657.686	-414
657.742	-528
657.797	-197
657.853	-270
657.908	632
657.964	-203
658.019	-320
658.075	256
658.130	251
658.186	-145
658.241	-73
658.297	70
658.352	-1043
658.407	924
658.463	-526
658.518	135
658.573	575
658.629	-407
658.684	-794
658.739	244
658.795	-477
658.850	583
658.905	-973
658.960	-112
659.016	-714
659.071	731
659.126	-200
659.181	529
659.236	1882
659.291	1681
659.346	-320
659.401	884
659.457	773
659.512	2328
659.567	1358
659.622	280
659.677	-288
659.732	353
659.787	-63
659.842	408
659.897	3
659.952	92
660.007	-438
660.061	260
660.116	-645
660.171	380
660.226	-29
660.281	1111
660.336	-728
660.391	1006
660.445	25
660.500	610
660.555	-497
660.610	389
660.664	1054
660.719	75
660.774	-156
660.828	708
660.883	-564
660.938	940
660.992	-1823
661.047	331
661.101	-38
661.156	406
661.211	-1366
661.265	420
661.320	-263
661.374	845
661.429	-505
661.483	1307
661.538	-1264
661.592	1492
661.647	282
661.701	2585
661.755	597
661.810	-49
661.864	-1246
661.919	497
661.973	-321
662.027	509
662.081	-569
662.136	147
662.190	55
662.244	892
662.299	-1328
662.353	496
662.407	-367
662.461	-243
662.515	-761
662.569	-184
662.624	169
662.678	79
662.732	-361
662.786	-74
662.840	-493
662.894	612
662.948	-797
663.002	2
663.056	-333
663.110	-587
663.164	-354
663.218	112
663.272	-240
663.326	407
663.380	-452
663.434	208
663.488	-1055
663.542	368
663.595	-617
663.649	-86
663.703	-1103
663.757	-94
663.811	-854
663.864	-205
663.918	-141
663.972	446
664.026	-108
664.079	12
664.133	-57
664.187	238
664.240	-527
664.294	665
664.348	412
664.401	-396
664.455	-893
664.508	42
664.562	-554
664.615	597
664.669	-750
664.722	53
664.776	-285
664.829	476
664.883	-315
664.936	-144
664.990	-554
665.043	173
665.097	67
665.150	571
665.203	-1439
665.257	-638
665.310	59
665.363	959
665.417	327
665.470	75
665.523	-672
665.576	290
665.630	-512
665.683	1003
665.736	-1008
665.789	1011
665.842	-626
665.895	-230
665.949	-66
666.002	-117
666.055	-1038
666.108	1178
666.161	116
666.214	233
666.267	265
666.320	-146
666.373	-338
666.426	88
666.479	-466
666.532	443
666.585	-315
666.638	731
666.691	-1341
666.744	-408
666.796	-749
666.849	-18
666.902	-56
666.955	52
667.008	-783
667.060	-391
667.113	-1009
667.166	64
667.219	-558
667.271	461
667.324	-537
667.377	356
667.430	-267
667.482	911
667.535	137
667.587	-426
667.640	-306
667.693	-448
667.745	467
667.798	356
667.850	-410
667.903	-586
667.955	-914
668.008	-106
668.060	144
668.113	56
668.165	-709
668.218	66
668.270	273
668.322	174
668.375	-529
668.427	-219
668.479	-749
668.532	-247
668.584	-384
668.636	-601
668.689	-227
668.741	-760
668.793	-373
668.845	-940
668.898	799
668.950	-55
669.002	-370
669.054	268
669.106	-678
669.158	257
669.211	-212
669.263	369
669.315	207
669.367	1865
669.419	-427
669.471	632
669.523	815
669.575	2795
669.627	589
669.679	893
669.731	-1037
669.783	183
669.835	1226
669.886	891
669.938	-284
669.990	118
670.042	-1091
670.094	-233
670.146	-958
670.197	60
670.249	115
670.301	220
670.353	608
670.404	1664
670.456	1522
670.508	4496
670.560	6898
670.611	13684
670.663	24328
670.715	65181
670.766	94157
670.818	20771
670.869	1992
670.921	1787
670.972	319
671.024	801
671.075	-551
671.127	717
671.178	-248
671.230	116
671.281	-178
671.333	470
671.384	-280
671.436	959
671.487	790
671.538	2970
671.590	3824
671.641	6993
671.692	13612
671.744	27863
671.795	13466
671.846	4008
671.897	513
671.949	10
672.000	-605
672.051	541
672.102	26
672.153	96
672.204	-108
672.256	203
672.307	-1003
672.358	38
672.409	-1567
672.460	-3
672.511	-1324
672.562	-30
672.613	-956
672.664	-779
672.715	-631
672.766	-44
672.817	-652
672.868	-252
672.919	-481
672.970	-311
673.021	-954
673.071	-239
673.122	-1591
673.173	-651
673.224	-420
673.275	-80
673.326	-1025
673.376	-206
673.427	-1307
673.478	-383
673.528	138
673.579	245
673.630	-1300
673.680	310
673.731	-1301
673.782	-544
673.832	-681
673.883	-9
673.934	-1077
673.984	-1008
674.035	-759
674.085	-1410
674.136	-612
674.186	-149
674.237	-994
674.287	650
674.338	-917
674.388	-284
674.438	-1216
674.489	-927
674.539	-763
674.589	-91
674.640	-942
674.690	-689
674.740	-1599
674.791	-207
674.841	-916
674.891	-617
674.942	-359
674.992	-709
675.042	-2231
675.092	358
675.142	-1260
675.193	-58
675.243	-1196
675.293	-55
675.343	-1778
675.393	-869
675.443	-1040
675.493	-507
675.543	-1484
675.593	-1061
675.643	-1811
675.693	-186
675.743	-461
675.793	-843
675.843	-1358
675.893	-498
675.943	-775
675.993	-57
676.043	-1548
676.093	-414
676.142	-968
676.192	-48
676.242	-1177
676.292	-276
676.341	-1404
676.391	-904
676.441	-964
676.491	-214
676.540	-1033
676.590	-646
676.640	-1491
676.689	-710
676.739	-1494
676.789	23
676.838	-1142
676.888	-371
676.937	-1174
676.987	-524
677.037	-996
677.086	-420
677.136	-1098
677.185	-314
677.235	-1731
677.284	-1133
677.333	-1511
677.383	-1117
677.432	-1956
677.482	-654
677.531	-930
677.580	-639
677.630	-1183
677.679	-1153
677.728	-1039
677.778	-846
677.827	-1072
677.876	-763
677.925	-1398
677.975	-268
678.024	-1315
678.073	-1003
678.122	-929
678.171	-859
678.220	-1228
678.269	-169
678.319	-1483
678.368	-304
678.417	-1229
678.466	-145
678.515	5
678.564	-142
678.613	-1727
678.662	-850
678.711	-2097
678.760	-838
678.809	-1312
678.857	-1060
678.906	-1841
678.955	-165
679.004	-988
679.053	-175
679.102	-514
679.151	-1152
679.199	-1491
679.248	-253
679.297	-509
679.346	-1135
679.394	-1700
679.443	-31
679.492	-1208
679.540	-825
679.589	-1887
679.638	-630
679.686	-1060
679.735	-866
679.784	-1395
679.832	-506
679.881	-1482
679.929	-694
679.978	-2511
680.026	182
680.075	-1612
680.123	-1291
680.172	-1871
680.220	-587
680.268	-2280
680.317	-662
680.365	-1691
680.414	-1171
680.462	-1993
680.510	-187
680.559	-1653
680.607	-806
680.655	-2056
680.703	-509
680.752	-1749
680.800	-694
680.848	-1211
680.896	-1137
680.945	-1202
680.993	-1404
681.041	-1077
681.089	-797
681.137	-1150
681.185	-1053
681.233	-1103
681.258	-525
681.281	8
681.329	-1401
681.377	-798
681.380	-791
681.425	-906
681.473	-303
681.502	-804
681.521	-1182
681.569	132
681.617	-890
681.624	-751
681.665	34
681.713	-1309
681.745	-723
681.761	-468
681.809	-1338
681.857	-666
681.867	-718
681.904	-949
681.952	-86
681.989	-572
682.000	-736
682.048	-296
682.096	-865
682.111	-783
682.143	-657
682.191	-589
682.233	-20
682.239	49
682.286	-1113
682.334	-325
682.354	-466
682.382	-685
682.430	231
682.476	-1175
682.477	-1219
682.525	-625
682.572	-954
682.598	-525
682.620	-181
682.667	-56
682.715	-124
682.720	-176
682.763	-772
682.810	-370
682.841	-529
682.857	-640
682.905	-457
682.952	-259
682.963	-167
683.000	106
683.047	-1343
683.085	259
683.095	689
683.142	-852
683.190	-25
683.206	-130
683.237	-361
683.284	391
683.328	259
683.332	233
683.379	-498
683.426	-262
683.449	-225
683.473	-173
683.521	-563
683.568	178
683.571	175
683.615	-55
683.662	487
683.693	245
683.709	99
683.757	-331
683.804	463
683.814	457
683.851	412
683.898	100
683.936	420
683.945	491
683.992	359
684.039	933
684.057	643
684.086	173
684.133	832
684.179	745
684.180	729
684.227	1442
684.274	401
684.300	1095
684.321	1645
684.368	19
684.415	980
684.422	975
684.462	856
684.509	342
684.543	425
684.556	460
684.603	1038
684.649	703
684.665	844
684.696	1107
684.743	767
684.786	1195
684.790	1226
684.837	709
684.883	1817
684.908	1358
684.930	903
684.977	1109
685.023	1127
685.029	1186
685.070	1504
685.117	872
685.150	1327
685.164	1535
685.210	622
685.257	1802
685.272	1705
685.303	1413
685.350	1467
685.393	913
685.396	874
685.443	2243
685.490	1949
685.514	1907
685.536	1782
685.583	1415
685.629	1747
685.636	1734
685.675	1545
685.722	1351
685.757	1157
685.768	1144
685.815	2073
685.861	1912
685.878	1984
685.908	2090
685.954	1342
686.000	2590
686.000	2608
686.047	2121
686.093	2806
686.121	2632
686.139	2342
686.185	2845
686.232	1982
686.242	2016
686.278	2217
686.324	1567
686.363	2136
686.370	2259
686.416	1367
686.463	1692
686.484	1931
686.509	2137
686.555	1916
686.601	1843
686.606	1858
686.647	1993
686.693	2085
686.727	1730
686.739	1645
686.785	1852
686.831	1944
686.848	1974
686.877	1802
686.923	1829
686.969	1627
686.969	1627
687.015	1864
687.061	1751
687.090	2200
687.107	2379
687.153	2116
687.199	2119
687.211	2058
687.245	1979
687.291	2227
687.332	2291
687.336	2306
687.382	2735
687.428	2717
687.453	2658
687.474	2526
687.520	3016
687.565	2816
687.574	2830
687.611	3219
687.657	3748
687.695	3988
687.702	4181
687.748	6190
687.794	7881
687.816	8376
687.839	7509
687.885	5606
687.931	4561
687.937	4249
687.976	3224
688.022	3172
688.058	2668
688.067	2633
688.113	2801
688.158	2353
688.179	2425
688.204	2594
688.249	2259
688.295	3499
688.300	3350
688.340	2197
688.386	3610
688.421	2486
688.431	2182
688.477	2870
688.522	2386
688.542	2712
688.567	3267
688.613	2590
688.658	3447
688.663	3486
688.703	3530
688.749	3035
688.784	3074
688.794	3083
688.839	2716
688.884	2848
688.905	2793
688.930	2835
688.975	2733
689.020	3351
689.026	3194
689.065	2200
689.110	3049
689.146	2929
689.155	2956
689.201	4173
689.246	3860
689.267	4145
689.291	4072
689.336	4141
689.381	3268
689.388	3172
689.426	3017
689.471	3420
689.509	2907
689.516	2835
689.561	3249
689.606	3042
689.630	3121
689.651	3087
689.696	2921
689.741	2836
689.750	2800
689.785	2990
689.830	3375
689.871	3319
689.875	3295
689.920	3222
689.965	3288
689.992	3243
690.010	3259
690.054	3010
690.099	3392
690.112	3348
690.144	3229
690.189	3143
690.233	2883
690.233	2890
690.278	3170
690.323	3293
690.354	3685
690.367	3836
690.412	3565
690.457	3747
690.474	3753
690.501	3589
690.546	3697
690.590	3322
690.595	3269
690.635	3360
690.680	3454
690.716	3934
690.724	4011
690.769	3511
690.813	4247
690.836	4141
690.857	4516
690.902	5655
690.946	6028
690.957	6500
690.991	8815
691.035	10479
691.077	12704
691.080	12727
691.124	11726
691.168	11492
691.198	10951
691.213	10329
691.257	8918
691.301	7122
691.318	6717
691.346	6597
691.390	5576
691.434	4777
691.439	4659
691.478	4511
691.522	4680
691.559	4423
691.567	4386
691.611	4941
691.655	4252
691.680	4516
691.699	4661
691.743	4257
691.787	4357
691.800	4173
691.831	4048
691.875	4329
691.919	4403
691.921	4405
691.964	4684
692.008	4637
692.041	4413
692.052	4408
692.096	4737
692.139	5126
692.162	5100
692.183	4920
692.227	4898
692.271	4496
692.282	4549
692.315	4945
692.359	4372
692.402	5117
692.403	5135
692.447	4607
692.490	4984
692.523	4731
692.534	4657
692.578	4826
692.622	4450
692.643	4657
692.666	4864
692.709	4517
692.753	4618
692.763	4528
692.797	4297
692.840	4400
692.884	4193
692.884	4206
692.928	4303
692.971	4315
693.004	4473
693.015	4529
693.059	4560
693.102	5007
693.124	5017
693.146	4972
693.189	5119
693.233	4980
693.245	4987
693.276	5317
693.320	5523
693.363	5729
693.365	5720
693.407	5887
693.450	6224
693.485	6316
693.493	6409
693.537	7115
693.580	7494
693.605	7780
693.624	8433
693.667	10173
693.710	11398
693.725	11983
693.753	15538
693.797	21126
693.840	26351
693.845	26940
693.883	25810
693.926	24064
693.966	22709
693.970	22314
694.013	17476
694.056	13303
694.086	9980
694.099	9568
694.142	8682
694.185	7046
694.206	6598
694.229	6790
694.272	6627
694.315	6739
694.326	6726
694.358	6715
694.401	6646
694.444	6471
694.446	6455
694.487	6401
694.530	6025
694.566	5999
694.573	6031
694.616	5740
694.659	5851
694.686	5771
694.702	5651
694.745	5232
694.787	4647
694.806	4500
694.830	4567
694.873	4605
694.916	4608
694.926	4574
694.959	4550
695.002	4516
695.044	4617
695.046	4612
695.087	5030
695.130	4840
695.166	5289
695.172	5380
695.215	4992
695.258	5460
695.286	5441
695.301	5402
695.343	5446
695.386	5325
695.406	5331
695.428	5398
695.471	5201
695.514	5333
695.526	5293
695.556	5339
695.599	5559
695.641	5762
695.646	5758
695.684	5943
695.726	6009
695.766	6186
695.769	6192
695.811	6066
695.854	5795
695.886	5568
695.896	5565
695.938	5505
695.981	5422
696.005	5478
696.023	5597
696.065	5634
696.108	5737
696.125	5675
696.150	5604
696.192	5842
696.235	5756
696.245	5770
696.277	6051
696.319	6193
696.361	6458
696.365	6456
696.404	6045
696.446	5724
696.485	5259
696.488	5302
696.530	5708
696.572	5990
696.604	6248
696.614	6266
696.656	6260
696.698	6375
696.724	6274
696.740	6190
696.783	6143
696.825	5963
696.844	5933
696.867	5926
696.909	5694
696.951	5559
696.964	5441
696.992	5527
697.034	5960
697.076	6057
697.083	6085
697.118	6389
697.160	6620
697.202	6958
697.203	6944
697.244	6653
697.286	6348
697.323	5934
697.327	5956
697.369	6048
697.411	6121
697.442	6227
697.453	6356
697.494	6629
697.536	7082
697.562	7285
697.578	7231
697.620	7083
697.661	6753
697.682	6675
697.703	6991
697.744	7422
697.786	8038
697.801	8167
697.828	8152
697.869	8141
697.911	8186
697.921	8162
697.952	7930
697.994	7534
698.035	7255
698.040	7184
698.077	7136
698.118	7191
698.160	7084
698.160	7060
698.201	7107
698.243	7080
698.279	7119
698.284	7171
698.325	7353
698.367	7588
698.399	7712
698.408	7710
698.449	7638
698.491	7528
698.518	7429
698.532	7396
698.573	7204
698.614	7048
698.638	6912
698.656	6993
698.697	7176
698.738	7323
698.757	7381
698.779	7353
698.820	7219
698.862	7131
698.877	7066
698.903	7287
698.944	7614
698.985	7936
698.996	8003
699.026	7989
699.067	7933
699.116	7844
699.235	7532
699.354	7403
699.474	7137
699.593	8069
699.713	8167
699.832	7026
699.951	7912
700.070	8724
700.190	6924
700.309	7620
700.428	7658
700.547	6949
700.667	7721
700.786	8125
700.905	6945
701.024	7672
701.143	6566
701.262	6850
701.381	7337
701.500	6689
701.619	8390
701.738	6908
701.857	6596
701.976	6302
702.095	6101
702.214	6915
702.333	7888
702.452	7391
702.571	6673
702.690	6679
702.809	6626
702.928	6144
703.047	6028
703.165	5767
703.284	6883
703.403	6781
703.522	7546
703.640	7597
703.759	7805
703.878	10899
703.997	7015
704.115	6995
704.234	6964
704.353	5699
704.471	5891
704.590	5902
704.708	5341
704.827	6367
704.946	5262
705.064	6604
705.183	6128
705.301	6879
705.420	8275
705.538	7005
705.656	8113
705.775	9231
705.893	22071
706.012	28923
706.130	6489
706.249	6810
706.367	7224
706.485	7453
706.604	7168
706.722	7530
706.840	12021
706.958	21264
707.077	12666
707.195	7586
707.313	6216
707.431	5858
707.549	6468
707.668	6103
707.786	6231
707.904	5519
708.022	5789
708.140	5599
708.258	5714
708.376	6156
708.494	6704
708.612	7184
708.730	8064
708.848	8055
708.966	7661
709.084	8188
709.202	7178
709.320	6232
709.438	6658
709.556	6962
709.674	6270
709.791	6569
709.909	6868
710.027	7870
710.145	5244
710.263	6709
710.380	6481
710.498	6579
710.616	6158
710.733	6600
710.851	6769
710.969	6887
711.086	5937
711.204	6900
711.322	6230
711.439	7003
711.557	5979
711.674	6274
711.792	6249
711.909	7169
712.027	9722
712.144	6442
712.262	6356
712.379	6145
712.497	8358
712.614	8516
712.732	7683
712.849	7811
712.966	7573
713.084	9717
713.201	6699
713.318	7373
713.436	7870
713.553	7571
713.670	7937
713.787	8639
713.905	8389
714.022	7518
714.139	7839
714.256	11038
714.373	15684
714.490	28766
714.608	84164
714.725	382431
714.842	394191
714.959	24497
715.076	11358
715.193	8554
715.310	8792
715.427	6505
715.544	7053
715.661	6746
715.778	6024
715.895	7026
716.011	7257
716.128	6416
716.245	5828
716.362	8861
716.479	8226
716.596	7215
716.713	6934
716.829	5991
716.946	5714
717.063	5439
717.180	4210
717.296	5841
717.413	5219
717.530	5451
717.646	6229
717.763	5273
717.880	5321
717.996	4683
718.113	5125
718.229	4914
718.346	4541
718.462	5569
718.579	6979
718.695	13312
718.812	9286
718.928	8238
719.045	6160
719.161	5137
719.277	5395
719.394	5321
719.510	6479
719.626	5803
719.743	7609
719.859	11895
719.975	23514
720.092	99627
720.208	241226
720.324	23934
720.440	6568
720.557	7674
720.673	10840
720.789	13679
720.905	26618
721.021	9220
721.137	4495
721.253	4479
721.369	5347
721.486	4991
721.602	8224
721.718	4369
721.834	3929
721.950	4597
722.066	3730
722.181	4174
722.297	5310
722.413	4768
722.529	4537
722.645	4810
722.761	3631
722.877	4302
722.993	4061
723.108	5552
723.224	4190
723.340	4735
723.456	4938
723.571	4628
723.687	3504
723.803	3567
723.918	3837
724.034	3266
724.150	3317
724.265	5282
724.381	9734
724.497	12991
724.612	3713
724.728	3719
724.843	3213
724.959	4530
725.074	10001
725.190	11078
725.305	4245
725.421	3873
725.536	4267
725.651	3359
725.767	3004
725.882	3880
725.997	3642
726.113	3660
726.228	3605
726.343	2761
726.459	2745
726.574	3288
726.689	2592
726.804	3581
726.920	3154
727.035	3358
727.150	3155
727.265	3681
727.380	3256
727.495	4263
727.610	4010
727.725	3999
727.841	4751
727.956	13832
728.071	9965
728.186	3638
728.301	3649
728.416	3945
728.531	3189
728.645	2926
728.760	3823
728.875	3761
728.990	5425
729.105	3221
729.220	4355
729.335	3640
729.449	3602
729.564	2232
729.679	2504
729.794	2251
729.908	4004
730.023	2328
730.138	2505
730.253	3409
730.367	2534
730.482	2778
730.596	2744
730.711	3235
730.826	4393
730.940	8042
731.055	3347
731.169	3091
731.284	2966
731.398	2732
731.513	3815
731.627	4164
731.742	4736
731.856	4119
731.970	3923
732.085	5061
732.199	7746
732.313	13879
732.428	38156
732.542	121622
732.656	70220
732.771	10949
732.885	5804
732.999	5013
733.113	4231
733.227	4495
733.342	3969
733.456	3904
733.570	3508
733.684	3408
733.798	3296
733.912	3343
734.026	3550
734.140	3496
734.254	3474
734.368	6230
734.482	7483
734.596	3035
734.710	2743
734.824	2906
734.938	2061
735.052	3586
735.166	3523
735.280	4109
735.393	2920
735.507	2329
735.621	4662
735.735	7675
735.849	3666
735.962	3651
736.076	2907
736.190	3729
736.303	4626
736.417	5123
736.531	2726
736.644	3738
736.758	2769
736.872	3454
736.985	2239
737.099	2577
737.212	2153
737.326	3565
737.439	2462
737.553	2265
737.666	2909
737.780	2524
737.893	2106
738.007	2802
738.120	2359
738.233	3433
738.347	2743
738.460	3367
738.573	3594
738.687	2809
738.800	2427
738.913	4014
739.026	2617
739.140	2838
739.253	3002
739.366	2938
739.479	1723
739.592	2460
739.705	1965
739.818	2674
739.932	2449
740.045	2788
740.158	2372
740.271	2692
740.384	3017
740.497	3385
740.610	3685
740.723	3559
740.836	3257
740.949	4760
741.062	4603
741.174	3210
741.287	2492
741.400	2666
741.513	3050
741.626	4479
741.739	3574
741.851	2105
741.964	2451
742.077	3054
742.189	3621
742.302	4029
742.415	4289
742.527	2757
742.640	3054
742.753	2085
742.865	1587
742.978	3123
743.090	2023
743.203	1420
743.316	1738
743.428	921
743.541	2390
743.653	1783
743.766	1498
743.878	1083
743.990	3086
744.103	3385
744.215	3564
744.327	2775
744.440	2794
744.552	5256
744.664	1808
744.777	1102
744.889	865
745.001	2040
745.113	1861
745.226	1764
745.338	2332
745.450	2199
745.562	1602
745.674	1109
745.786	1651
745.898	1488
746.010	2140
746.122	1387
746.234	2437
746.347	2041
746.459	2299
746.570	2073
746.682	3139
746.794	4771
746.906	2283
747.018	1448
747.130	1261
747.242	1982
747.354	1677
747.466	2146
747.577	1371
747.689	2389
747.801	1588
747.913	1818
748.024	1000
748.136	1343
748.248	1288
748.359	898
748.471	1427
748.583	1602
748.694	2003
748.806	3277
748.918	1256
749.029	1770
749.141	1340
749.252	1870
749.364	1588
749.475	5219
749.587	2958
749.698	1981
749.809	1775
749.921	1301
750.032	1737
750.144	1038
750.255	1146
750.366	911
750.478	1543
750.589	1313
750.700	894
750.811	1398
750.923	1954
751.034	5952
751.145	6073
751.256	1274
751.367	1318
751.479	757
751.590	1019
751.701	1540
751.812	1080
751.923	657
752.034	1138
752.145	1523
752.256	1290
752.367	101
752.478	1320
752.589	1725
752.700	1917
752.811	1552
752.922	561
753.032	1011
753.143	1865
753.254	981
753.365	1373
753.476	1216
753.586	1103
753.697	674
753.808	1200
753.919	582
754.029	837
754.140	1540
754.251	881
754.361	804
754.472	1350
754.582	571
754.693	723
754.804	805
754.914	1021
755.025	799
755.135	1206
755.246	1402
755.356	1318
755.466	1852
755.577	1311
755.687	1908
755.798	1166
755.908	919
756.018	626
756.129	1255
756.239	504
756.349	1753
756.460	341
756.570	2644
756.680	1979
756.790	601
756.900	2170
757.011	1198
757.121	791
757.231	1017
757.341	728
757.451	6
757.561	301
757.671	1223
757.781	553
757.891	1992
758.001	901
758.111	1550
758.221	1486
758.331	1784
758.441	2248
758.551	2395
758.661	2371
758.771	2427
758.880	1124
758.990	1804
759.100	1416
759.210	1446
759.320	1944
759.429	1669
759.539	1442
759.649	1733
759.758	1886
759.868	3115
759.978	1348
760.087	2867
760.197	2965
760.307	2469
760.416	1734
760.526	1999
760.635	1762
760.745	2181
760.854	2790
760.964	3571
761.073	2593
761.182	2661
761.292	2879
761.401	2547
761.511	2049
761.620	1392
761.729	1892
761.839	1831
761.948	1894
762.057	2417
762.166	1949
762.276	337
762.385	2677
762.494	1917
762.603	1996
762.712	2477
762.822	1115
762.931	3622
763.040	1707
763.149	1237
763.258	1905
763.367	1979
763.476	1832
763.585	1993
763.694	2522
763.803	2146
763.912	2310
764.021	1975
764.130	1821
764.238	2868
764.347	2602
764.456	2597
764.565	3502
764.674	3731
764.783	3002
764.891	3258
765.000	4331
765.109	4894
765.217	5056
765.326	6794
765.435	7740
765.543	8640
765.652	10167
765.761	13788
765.869	20589
765.978	32212
766.086	57279
766.195	113926
766.303	269147
766.412	526581
766.520	441745
766.629	200584
766.737	78537
766.846	42518
766.954	26954
767.062	21181
767.171	17949
767.279	13866
767.387	8672
767.496	7882
767.604	6768
767.712	5831
767.820	5398
767.928	4832
768.037	5021
768.145	4810
768.253	5053
768.361	3563
768.469	4143
768.577	4523
768.685	4727
768.793	5164
768.901	4935
769.009	6153
769.117	6648
769.225	9281
769.333	13018
769.441	22364
769.549	42745
769.657	96824
769.765	275455
769.873	429621
769.981	213738
770.088	60465
770.196	27276
770.304	17042
770.412	12166
770.519	9294
770.627	7643
770.735	5706
770.842	4767
770.950	3084
771.058	4118
771.165	3937
771.273	3998
771.380	2862
771.488	3122
771.595	3286
771.703	2817
771.810	2880
771.918	2660
772.025	2286
772.133	1843
772.240	1882
772.348	3396
772.455	2338
772.562	1861
772.670	2088
772.777	2743
772.884	2736
772.991	2089
773.099	2264
773.206	1529
773.313	2581
773.420	842
773.528	1114
773.635	1896
773.742	2528
773.849	1249
773.956	2572
774.063	1965
774.170	1830
774.277	2232
774.384	1535
774.491	1667
774.598	1872
774.705	1334
774.812	2161
774.919	1869
775.026	966
775.133	1571
775.239	1499
775.346	1111
775.453	1247
775.560	497
775.667	1848
775.773	1542
775.880	1991
775.987	1347
776.093	1386
776.200	995
776.307	1804
776.413	1017
776.520	1055
776.627	2340
776.733	1526
776.840	779
776.946	2982
777.053	4153
777.159	7516
777.266	3523
777.372	6812
777.478	5312
777.585	3562
777.691	895
777.798	1296
777.904	2426
778.010	4127
778.117	2973
778.223	2222
778.329	1291
778.435	838
778.542	1508
778.648	943
778.754	701
778.860	830
778.966	874
779.072	659
779.178	1376
779.284	1218
779.391	977
779.497	3
779.603	2479
779.708	451
779.815	4520
779.920	11787
780.026	22125
780.132	2598
780.238	952
780.344	1804
780.450	2125
780.556	764
780.661	766
780.767	583
780.873	958
780.979	1678
781.085	173
781.190	972
781.296	1107
781.402	662
781.507	1072
781.613	242
781.719	766
781.824	1399
781.930	1277
782.035	1276
782.141	763
782.246	572
782.352	1032
782.457	1332
782.563	965
782.668	627
782.773	515
782.879	204
782.984	1102
783.090	1814
783.195	3202
783.300	1876
783.405	1940
783.511	310
783.616	1493
783.721	1423
783.826	1934
783.932	1391
784.037	1812
784.142	1675
784.247	667
784.352	1422
784.457	426
784.562	1161
784.667	2044
784.772	1465
784.877	877
784.982	1137
785.087	1363
785.192	1089
785.297	665
785.402	399
785.507	542
785.611	924
785.716	568
785.821	172
785.926	-641
786.031	223
786.135	528
786.240	1144
786.345	-847
786.450	1397
786.554	374
786.659	344
786.763	47
786.868	664
786.973	1314
787.077	1121
787.182	328
787.286	249
787.391	358
787.495	560
787.600	650
787.704	-68
787.809	1371
787.913	211
788.017	365
788.122	272
788.226	751
788.330	221
788.435	424
788.539	947
788.643	490
788.747	1095
788.852	294
788.956	-91
789.060	698
789.164	236
789.268	-782
789.372	1604
789.476	158
789.580	271
789.684	69
789.788	1040
789.892	-627
789.996	938
790.100	-3
790.204	641
790.308	309
790.412	839
790.516	1200
790.620	640
790.724	892
790.828	208
790.931	-207
791.035	1179
791.139	-207
791.242	-197
791.346	627
791.450	156
791.554	-161
791.657	-1200
791.761	590
791.864	1093
791.968	-217
792.072	440
792.175	462
792.279	-103
792.382	267
792.486	642
792.589	-181
792.693	724
792.796	37
792.899	659
793.003	905
793.106	-720
793.209	297
793.313	1985
793.416	-1813
793.519	1440
793.623	1418
793.726	2393
793.829	692
793.932	753
794.035	-216
794.138	1004
794.242	531
794.345	1310
794.448	1173
794.551	1916
794.654	7129
794.757	11032
794.860	1772
794.963	1405
795.066	-253
795.169	1652
795.272	-671
795.375	739
795.477	-460
795.580	878
795.683	-381
795.786	465
795.889	-843
795.991	1266
796.094	1060
796.197	-1203
796.300	1397
796.402	-640
796.505	388
796.608	-940
796.710	1253
796.813	411
796.915	-103
797.018	193
797.120	126
797.223	-1516
797.326	819
797.428	560
797.530	-180
797.633	276
797.735	964
797.838	831
797.940	2172
798.042	-439
798.145	-341
798.247	903
798.349	-595
798.452	1094
798.554	-81
798.656	70
798.758	1273
798.860	-153
798.962	163
799.065	-793
799.167	-1451
799.269	1268
799.371	849
799.473	705
799.575	756
799.677	-188
799.779	1630
799.881	285
799.983	1168
800.085	479
800.187	-392
800.289	13
800.390	-296
800.492	-123
800.594	448
800.696	85
800.798	184
800.899	-35
801.001	-613
801.103	-262
801.205	-21
801.306	412
801.408	-736
801.509	-505
801.611	166
801.713	944
801.814	-1026
801.916	-221
802.017	-529
802.119	-249
802.220	612
802.322	-1445
802.423	2073
802.525	57
802.626	339
802.727	-65
802.829	821
802.930	-2083
803.031	1271
803.133	-239
803.234	-50
803.335	-88
803.436	-502
803.538	-223
803.639	-710
803.740	922
803.841	-562
803.942	1026
804.043	1057
804.144	-1079
804.245	-203
804.346	-931
804.447	225
804.548	594
804.649	1740
804.750	43
804.851	-614
804.952	32
805.053	-430
805.154	-824
805.255	894
805.355	-178
805.456	-1
805.557	-703
805.658	-225
805.758	793
805.859	-42
805.960	-252
806.061	-1109
806.161	-22
806.262	-525
806.362	-715
806.463	-619
806.564	928
806.664	-574
806.765	39
806.865	451
806.966	-106
807.066	-422
807.166	1116
807.267	255
807.367	-994
807.468	416
807.568	-1324
807.668	735
807.769	1157
807.869	185
807.969	236
808.069	453
808.170	155
808.270	-804
808.370	218
808.470	641
808.570	-862
808.670	-441
808.770	-337
808.870	-673
808.970	424
809.070	-499
809.170	-812
809.271	-929
809.370	-151
809.470	-621
809.570	-186
809.670	-732
809.770	-179
809.870	-261
809.970	-371
810.070	-1415
810.169	213
810.269	-1864
810.369	502
810.469	-462
810.568	-903
810.668	-576
810.768	-782
810.867	-133
810.967	-300
811.066	121
811.166	9
811.265	510
811.365	-1095
811.464	-489
811.564	316
811.663	-111
811.763	-1819
811.862	271
811.962	-26
812.061	-457
812.160	-1101
812.260	148
812.359	42
812.458	-959
812.557	793
812.657	-355
812.756	-71
812.855	-902
812.954	-1026
813.053	-532
813.153	-176
813.252	-1047
813.351	-268
813.450	-516
813.549	-586
813.648	-404
813.747	-268
813.846	-32
813.945	-588
814.044	465
814.143	-91
814.242	36
814.341	-1026
814.439	402
814.538	611
814.637	516
814.736	-351
814.835	851
814.933	40
815.032	-125
815.131	-469
815.229	-53
815.328	960
815.427	305
815.525	1612
815.624	324
815.722	-179
815.821	230
815.919	304
816.018	-302
816.116	1958
816.215	505
816.313	1209
816.412	1048
816.510	199
816.609	2667
816.707	1803
816.805	866
816.904	1909
817.002	2232
817.100	2976
817.198	3094
817.296	2266
817.395	3023
817.493	4087
817.591	4414
817.689	6391
817.787	8116
817.885	14248
817.983	27108
818.081	59314
818.179	142865
818.277	354206
818.375	309247
818.473	85597
818.571	32290
818.669	20410
818.767	18196
818.865	18357
818.963	21745
819.061	31214
819.158	52995
819.256	114000
819.354	263093
819.452	538950
819.549	371003
819.647	113337
819.745	45434
819.842	27102
819.940	17849
820.038	11888
820.135	10249
820.233	7660
820.330	5455
820.428	5068
820.525	4637
820.623	4040
820.720	2366
820.818	2443
820.915	2245
821.012	2869
821.110	1071
821.207	2602
821.304	1252
821.402	1503
821.499	2837
821.596	3197
821.693	2327
821.791	1808
821.888	1742
821.985	4021
822.082	2222
822.179	1998
822.276	1439
822.373	1077
822.470	353
822.567	757
822.664	-599
822.761	1391
822.858	-520
822.955	720
823.052	307
823.149	77
823.246	636
823.343	325
823.440	833
823.536	-362
823.633	-737
823.730	-341
823.827	112
823.923	607
824.020	2111
824.117	332
824.213	-174
824.310	1068
824.407	-698
824.503	171
824.600	-171
824.696	-928
824.793	172
824.889	-676
824.986	-289
825.082	-321
825.179	656
825.275	105
825.371	-152
825.468	106
825.564	-1014
825.660	-102
825.757	130
825.853	234
825.949	-1408
826.045	30
826.142	-524
826.238	2
826.334	685
826.430	-1431
826.526	-204
826.622	-401
826.718	-33
826.814	-682
826.910	759
827.006	-131
827.102	-893
827.198	47
827.294	-1054
827.390	206
827.486	645
827.582	-1102
827.678	223
827.774	-22
827.869	-164
827.965	734
828.061	-502
828.157	-46
828.252	138
828.348	-1264
828.444	617
828.539	-1281
828.635	14
828.731	530
828.826	-1654
828.922	-322
829.017	-400
829.113	1098
829.208	-793
829.304	-1264
829.399	335
829.495	-231
829.590	808
829.685	-772
829.781	-937
829.876	-597
829.971	-914
830.066	-1023
830.162	-920
830.257	-726
830.352	-928
830.447	1266
830.543	495
830.638	-1031
830.733	468
830.828	-1215
830.923	193
831.018	-1078
831.113	-932
831.208	-1010
831.303	-379
831.398	-418
831.493	-1235
831.588	-536
831.683	-866
831.778	-461
831.873	-300
831.967	327
832.062	-1494
832.157	-1384
832.252	-473
832.346	-210
832.441	-121
832.536	422
832.631	2033
832.725	1361
832.820	-772
832.914	-1344
833.009	-788
833.104	-278
833.198	-249
833.293	-31
833.387	149
833.482	-438
833.576	-649
833.670	-45
833.765	-480
833.859	-708
833.954	312
834.048	-959
834.142	-199
834.237	-464
834.331	-458
834.425	-132
834.519	-1149
834.613	-541
834.708	-567
834.802	-1036
834.896	-852
834.990	-899
835.084	-387
835.178	-368
835.272	-909
835.366	-1049
835.460	-407
835.554	-851
835.648	-190
835.742	-1430
835.836	-346
835.930	-2213
836.024	-139
836.117	-769
836.211	-1051
836.305	-486
836.399	-1
836.493	-2471
836.586	-443
836.680	-1283
836.774	-895
836.867	-127
836.961	-1601
837.055	-1416
837.148	-1267
837.242	-954
837.335	-558
837.429	-272
837.522	-595
837.616	-440
837.709	267
837.803	-217
837.896	275
837.989	-933
838.083	-399
838.176	491
838.269	-380
838.363	285
838.456	-872
838.549	56
838.642	-395
838.735	2116
838.829	1056
838.922	-1000
839.015	-474
839.108	-1485
839.201	-460
839.294	-835
839.387	-264
839.480	-1267
839.573	-637
839.666	134
839.759	-1075
839.852	-1144
839.945	-661
840.038	-496
840.131	-832
840.223	-548
840.316	-787
840.409	-1022
840.502	-1541
840.594	386
840.687	-1582
840.780	-830
840.873	-754
840.965	-1253
841.058	-678
841.150	291
841.243	-1070
841.336	-699
841.428	-249
841.521	-381
841.613	-1278
841.706	-886
841.798	-606
841.890	-749
841.983	-1321
842.075	-383
842.167	-1084
842.260	-955
842.352	-261
842.444	-380
842.537	387
842.629	2285
842.721	-766
842.813	-633
842.905	-1788
842.997	-355
843.090	-48
843.182	187
843.274	269
843.366	2795
843.458	7286
843.550	4363
843.642	-945
843.734	233
843.826	-1145
843.918	381
844.009	-241
844.101	-959
844.193	-339
844.285	-1368
844.377	-646
844.469	750
844.560	270
844.652	86
844.744	-546
844.835	-928
844.927	-1003
845.019	-1063
845.110	-833
845.202	-227
845.293	-1018
845.385	-1795
845.476	-1191
845.568	328
845.659	-988
845.751	-369
845.842	-1374
845.934	-1676
846.025	-1018
846.116	-920
846.208	-1122
846.299	-875
846.390	-925
846.482	-119
846.573	-1098
846.664	-48
846.755	-574
846.846	358
846.937	-2203
847.029	-653
847.120	-855
847.211	-1176
847.302	625
847.393	-1746
847.484	-280
847.575	-1006
847.666	-769
847.757	-146
847.847	-862
847.938	-424
848.029	-263
848.120	-696
848.211	-1756
848.302	-1327
848.392	-1363
848.483	-267
848.574	-1177
848.664	-1175
848.755	-271
848.846	-848
848.936	-1075
849.027	-769
849.118	-707
849.208	-195
849.299	-324
849.389	1607
849.480	4902
849.570	10775
849.661	22503
849.751	41826
849.841	13580
849.932	1033
850.022	-1337
850.112	382
850.203	-176
850.293	-598
850.383	-711
850.474	-709
850.564	-1458
850.654	-172
850.744	-684
850.834	-153
850.924	-1614
851.014	-500
851.104	-1705
851.194	-1026
851.284	165
851.374	-78
851.464	-731
851.554	-575
851.644	-660
851.734	-156
851.824	-1045
851.914	-1064
852.004	-375
852.094	-1940
852.183	-1205
852.273	-739
852.363	-423
852.452	-315
852.542	-1630
852.632	-889
852.721	-121
852.811	-619
852.901	-476
852.990	-568
853.080	-644
853.169	-808
853.259	-185
853.348	-135
853.438	221
853.527	1502
853.617	3126
853.706	7651
853.795	14294
853.885	36116
853.974	70963
854.063	130681
854.152	215475
854.242	79918
854.331	12139
854.420	3812
854.509	2717
854.598	2208
854.687	1518
854.777	907
854.866	-129
854.955	903
855.044	-121
855.133	-658
855.222	-547
855.311	275
855.400	251
855.488	-365
855.577	-959
855.666	-604
855.755	-26
855.844	256
855.933	448
856.021	387
856.110	-957
856.199	-545
856.288	-498
856.376	-947
856.465	-691
856.554	-1057
856.642	-722
856.731	-426
856.819	-33
856.908	-835
856.996	-786
857.085	-1029
857.173	-1246
857.262	-1090
857.350	-545
857.438	-976
857.527	-1120
857.615	-1055
857.703	-1051
857.792	-875
857.880	-1444
857.968	-847
858.056	-713
858.145	-407
858.233	-1063
858.321	-1156
858.409	-358
858.497	-677
858.585	-683
858.673	-467
858.761	-1536
858.849	-985
858.937	-1236
859.025	-1182
859.113	-1047
859.201	-806
859.289	-458
859.377	-1582
859.465	-728
859.552	-760
859.640	-1513
859.728	-933
859.816	-769
859.903	-1032
859.991	-1352
860.079	-625
860.166	-1820
860.254	-1795
860.342	-1241
860.429	-1050
860.517	-655
860.604	-605
860.692	-1023
860.779	-922
860.867	-497
860.954	-1100
861.042	-1176
861.129	-346
861.216	-1382
861.304	-577
861.391	-1518
861.478	-740
861.565	-555
861.653	-267
861.740	-1513
861.827	-1381
861.914	-447
862.001	-926
862.089	-1082
862.176	-1459
862.263	-1652
862.350	-1002
862.437	-1612
862.524	-1470
862.611	-1355
862.698	-99
862.785	-562
862.871	-621
862.958	-1186
863.045	-991
863.132	-866
863.219	-643
863.306	-1340
863.392	-350
863.479	-296
863.566	-1009
863.652	-787
863.739	-1284
863.826	-686
863.912	-1429
863.999	-1141
864.086	-830
864.172	-1244
864.259	-1376
864.345	-1263
864.432	-1258
864.518	-875
864.604	-817
864.691	-1384
864.777	-944
864.863	-325
864.950	-495
865.036	-1077
865.122	-99
865.209	-157
865.295	768
865.381	-221
865.467	759
865.553	2069
865.639	3244
865.726	6999
865.812	17106
865.898	35339
865.984	54492
866.070	103403
866.156	114199
866.242	28175
866.328	4602
866.414	1087
866.499	1444
866.585	822
866.671	827
866.757	992
866.843	519
866.928	-637
867.014	146
867.100	-188
867.186	487
867.271	-1118
867.357	556
867.442	499
867.528	-1169
867.614	-274
867.699	-447
867.785	691
867.870	639
867.956	803
868.041	172
868.127	377
868.212	1011
868.297	242
868.383	639
868.468	248
868.553	1270
868.639	1078
868.724	2545
868.809	2172
868.894	-30
868.979	-19
869.065	-488
869.150	-1132
869.235	-1526
869.320	-706
869.405	-1493
869.490	-438
869.575	-170
869.660	-568
869.745	-977
869.830	-1830
869.915	-955
870.000	-40
870.085	-358
870.169	-144
870.254	374
870.339	-2045
870.424	-670
870.509	-1605
870.593	-813
870.678	-962
870.763	-744
870.847	-874
870.932	-868
871.016	170
871.101	-491
871.186	-616
871.270	-269
871.355	-1330
871.439	-874
871.523	-583
871.608	-345
871.692	-1134
871.777	-439
871.861	-981
871.945	-1590
872.030	-1189
872.114	-1216
872.198	-1323
872.282	-764
872.367	-731
872.451	-1360
872.535	-1032
872.619	-385
872.703	-1147
872.787	-920
872.871	-706
872.955	-643
873.039	-1018
873.123	-787
873.207	-605
873.291	-430
873.375	-1034
873.459	-853
873.543	-802
873.627	-76
873.711	-1454
873.794	-988
873.878	-856
873.962	-1267
874.045	-205
874.129	65
874.137	17
874.213	-464
874.245	-865
874.296	-1520
874.352	-1346
874.380	-1261
874.460	-1241
874.464	-1241
874.547	46
874.568	15
874.631	-67
874.676	-529
874.714	-928
874.784	-580
874.798	-502
874.881	-407
874.892	-484
874.965	-1048
874.999	-554
875.048	130
875.107	-707
875.131	-1054
875.215	-609
875.215	-609
875.298	-903
875.323	-753
875.381	-376
875.430	-251
875.465	-138
875.538	-752
875.548	-843
875.631	-1263
875.646	-1228
875.714	-1029
875.753	-1480
875.798	-2061
875.861	-888
875.881	-486
875.964	-1155
875.968	-1102
876.047	-202
876.076	-409
876.130	-812
876.183	-1117
876.213	-1258
876.291	-382
876.296	-329
876.379	-383
876.398	-400
876.462	-355
876.506	-634
876.545	-940
876.613	-1078
876.628	-1115
876.711	-606
876.721	-583
876.794	-256
876.828	-494
876.877	-943
876.935	-747
876.960	-630
877.043	-76
877.043	-76
877.125	12
877.150	191
877.208	594
877.258	139
877.291	-173
877.365	-218
877.374	-210
877.456	324
877.472	374
877.539	450
877.579	449
877.622	451
877.687	463
877.704	472
877.787	107
877.794	78
877.869	-215
877.901	59
877.952	479
878.008	71
878.034	-98
878.115	-425
878.117	-431
878.199	-980
878.222	-829
878.282	-356
878.329	-10
878.364	114
878.437	-68
878.447	-80
878.529	-1147
878.544	-1087
878.611	-579
878.651	-593
878.694	-650
878.758	-316
878.776	-237
878.858	-116
878.865	-126
878.941	-434
878.972	-551
879.023	-586
879.078	-469
879.105	-337
879.185	188
879.187	190
879.269	-65
879.292	-279
879.351	-804
879.399	-1014
879.433	-1056
879.506	-143
879.516	-46
879.598	-587
879.613	-644
879.680	-616
879.720	-239
879.762	-17
879.827	-1007
879.844	-1213
879.926	-375
879.933	-361
880.007	-113
880.040	-55
880.089	-178
880.147	464
880.171	782
880.253	1903
880.254	1909
880.335	2611
880.360	2682
880.417	2942
880.467	5289
880.499	6925
880.574	8567
880.580	8563
880.662	1585
880.680	1026
880.744	193
880.787	212
880.825	-135
880.893	-453
880.907	-426
880.989	-205
881.000	-164
881.070	-28
881.106	-181
881.152	-404
881.213	-78
881.233	-25
881.315	-919
881.319	-916
881.396	-441
881.426	-496
881.478	-574
881.532	-193
881.559	-78
881.639	-341
881.641	-345
881.722	-524
881.745	-460
881.803	31
881.852	67
881.885	-304
881.958	-730
881.966	-660
882.047	317
882.064	364
882.129	69
882.171	82
882.210	-6
882.277	-259
882.291	-286
882.372	-638
882.383	-692
882.454	-613
882.489	-397
882.535	-468
882.596	-429
882.616	-311
882.697	-505
882.702	-486
882.778	-156
882.808	-163
882.859	-436
882.914	-472
882.940	-322
883.020	67
883.021	68
883.102	-187
883.127	-347
883.183	-696
883.233	-773
883.264	-654
883.339	-234
883.345	-220
883.426	-682
883.445	-602
883.507	-275
883.551	-306
883.587	-347
883.657	-217
883.668	-173
883.749	-299
883.763	-297
883.830	-431
883.869	-405
883.910	-232
883.975	-112
883.991	-141
884.072	-26
884.081	-56
884.152	-50
884.187	-13
884.233	-99
884.292	-68
884.314	-85
884.394	-853
884.398	-847
884.475	-210
884.504	-164
884.555	-414
884.610	-709
884.636	-652
884.716	-317
884.716	-314
884.797	-352
884.821	-506
884.877	-593
884.927	-477
884.958	-366
885.033	-168
885.038	-172
885.118	-424
885.139	-424
885.199	-362
885.244	-359
885.279	-160
885.350	84
885.359	28
885.439	-397
885.456	-488
885.520	-213
885.561	3
885.600	63
885.667	-132
885.680	-153
885.760	-332
885.773	-281
885.840	-276
885.878	-368
885.920	-79
885.984	149
886.000	-40
886.080	-942
886.089	-1017
886.160	-722
886.195	-654
886.240	-481
886.300	-216
886.320	-203
886.400	-243
886.406	-249
886.480	-39
886.511	104
886.560	188
886.616	269
886.640	197
886.720	-225
886.722	-235
886.800	-36
886.827	13
886.879	11
886.932	61
886.959	184
887.038	451
887.039	453
887.119	145
887.143	94
887.198	-17
887.248	-118
887.278	147
887.354	593
887.358	586
887.437	610
887.459	537
887.517	115
887.564	-150
887.596	-166
887.669	-382
887.676	-408
887.755	-688
887.774	-750
887.835	-371
887.880	-66
887.914	-290
887.985	-807
887.994	-789
888.073	-643
888.090	-609
888.153	-286
888.195	-121
888.232	37
888.300	366
888.311	311
888.391	-56
888.405	-146
888.470	-71
888.510	-23
888.549	90
888.615	330
888.628	325
888.708	219
888.720	199
888.787	187
888.825	173
888.866	363
888.930	659
888.945	599
889.024	184
889.035	142
889.103	373
889.140	452
889.182	559
889.245	736
889.261	727
889.340	663
889.349	652
889.419	-319
889.454	-798
889.498	-789
889.559	-789
889.577	-557
889.656	493
889.664	596
889.735	202
889.768	17
889.814	-133
889.873	-331
889.978	477
890.083	219
890.187	470
890.292	371
890.397	-234
890.501	-394
890.606	-86
890.710	6
890.815	172
890.919	-415
891.024	-43
891.128	192
891.233	409
891.337	-406
891.442	-417
891.546	504
891.650	614
891.755	-1029
891.859	978
891.963	136
892.068	324
892.172	354
892.276	-217
892.380	-69
892.484	-136
892.589	257
892.693	-464
892.797	367
892.901	36
893.005	193
893.109	-359
893.213	640
893.317	46
893.421	-671
893.525	-813
893.629	-624
893.733	-364
893.837	-284
893.941	3
894.045	997
894.148	-479
894.252	-161
894.356	-398
894.460	157
894.564	-78
894.667	94
894.771	217
894.875	-281
894.978	346
895.082	-906
895.186	114
895.289	370
895.393	595
895.496	107
895.600	-314
895.703	321
895.807	300
895.910	-3
896.014	-32
896.117	-862
896.221	-342
896.324	-90
896.427	-566
896.531	63
896.634	-362
896.737	-309
896.840	88
896.944	-559
897.047	-745
897.150	-780
897.253	-793
897.356	6
897.460	-518
897.563	-783
897.666	594
897.769	-40
897.872	91
897.975	-145
898.078	-334
898.181	-326
898.284	-238
898.387	-697
898.490	352
898.593	-241
898.695	-171
898.798	-546
898.901	-291
899.004	-66
899.107	-376
899.209	12
899.312	-97
899.415	-339
899.518	-115
899.620	-1008
899.723	-1219
899.826	-393
899.928	249
900.031	-431
900.133	415
900.236	-390
900.338	-77
900.441	890
900.543	232
900.646	-368
900.748	-771
900.851	138
900.953	-325
901.055	-651
901.158	-413
901.260	-114
901.362	255
901.465	-728
901.567	142
901.669	244
901.771	-826
901.873	538
901.976	-809
902.078	-317
902.180	-768
902.282	-467
902.384	-185
902.486	-300
902.588	-779
902.690	-292
902.792	-253
902.894	-464
902.996	278
903.098	-117
903.200	-594
903.302	-425
903.404	-218
903.505	-1054
903.607	-669
903.709	446
903.811	-31
903.913	-126
904.014	-179
904.116	-1245
904.218	-564
904.319	-1194
904.421	-235
904.523	-173
904.624	-269
904.726	-49
904.827	-329
904.929	-462
905.030	-628
905.132	-134
905.233	-1061
905.335	-113
905.436	-505
905.537	-800
905.639	-312
905.740	-211
905.841	-179
905.943	-87
906.044	-336
906.145	-970
906.247	-738
906.348	-443
906.449	-17
906.550	-858
906.651	-275
906.752	-594
906.854	16
906.955	-309
907.056	-271
907.157	-458
907.258	-1114
907.359	-446
907.460	-538
907.561	-944
907.662	-620
907.762	30
907.863	-1264
907.964	-441
908.065	42
908.166	-1384
908.267	-1024
908.367	-254
908.468	-462
908.569	-266
908.670	-458
908.770	-809
908.871	-797
908.971	-18
909.072	-729
909.173	-601
909.273	-676
909.374	-213
909.474	-294
909.575	154
909.675	-653
909.776	-129
909.876	-391
909.977	-541
910.077	133
910.177	-464
910.278	-1001
910.378	-913
910.478	-1034
910.579	-1193
910.679	-419
910.779	-155
910.879	-455
910.980	-1066
911.080	-852
911.180	-697
911.280	-927
911.380	129
911.480	-871
911.580	-1189
911.680	-508
911.780	-853
911.880	-703
911.980	-798
912.080	-1224
912.180	-313
912.280	-867
912.380	-1420
912.480	-939
912.580	-783
912.679	-669
912.779	-239
912.879	-435
912.979	-1036
913.078	-501
913.178	160
913.278	-786
913.377	-169
913.477	-164
913.577	128
913.676	115
913.776	-27
913.875	-634
913.975	-603
914.074	-781
914.174	-779
914.273	-442
914.373	-447
914.472	12
914.572	-349
914.671	-1183
914.770	-1377
914.870	-432
914.969	-155
915.068	-741
915.167	-176
915.267	-1705
915.366	-638
915.465	-625
915.564	-479
915.663	303
915.763	-797
915.862	-651
915.961	-270
916.060	-13
916.159	-929
916.258	-1323
916.357	-252
916.456	-176
916.555	-567
916.654	-570
916.752	-440
916.851	-689
916.950	-1036
917.049	-1442
917.148	-811
917.247	-367
917.345	-563
917.444	-1389
917.543	-44
917.642	414
917.740	-467
917.839	-342
917.937	-619
918.036	-439
918.135	-1526
918.233	-523
918.332	-187
918.430	-858
918.529	-612
918.627	-1286
918.726	181
918.824	-173
918.923	-247
919.021	-361
919.119	-509
919.218	-15
919.316	-705
919.414	-598
919.512	-936
919.611	-197
919.709	-640
919.807	-116
919.905	-533
920.003	-419
920.102	-516
920.200	-535
920.298	-325
920.396	-1165
920.494	-257
920.592	-235
920.690	48
920.788	-792
920.886	-258
920.984	-434
921.082	-804
921.180	-113
921.277	-269
921.375	263
921.473	-753
921.571	-638
921.669	-546
921.766	-1413
921.864	-527
921.962	-677
922.060	-655
922.157	-84
922.255	-45
922.352	367
922.450	179
922.548	-644
922.645	-695
922.743	-1397
922.840	-442
922.938	1448
923.035	-100
923.133	257
923.230	261
923.327	480
923.425	218
923.522	364
923.619	-183
923.717	-584
923.814	12
923.911	351
924.008	320
924.106	502
924.203	-137
924.300	-324
924.397	105
924.494	1063
924.591	292
924.688	-650
924.786	-513
924.883	-579
924.979	411
925.077	394
925.173	472
925.270	-232
925.367	268
925.464	97
925.561	430
925.658	160
925.755	328
925.852	557
925.948	319
926.045	213
926.142	303
926.239	491
926.335	483
926.432	67
926.529	270
926.625	217
926.722	-243
926.818	-70
926.915	-27
927.011	-240
927.108	74
927.204	408
927.301	440
927.397	-412
927.494	-239
927.590	-236
927.687	235
927.783	217
927.879	-466
927.976	-522
928.072	246
928.168	576
928.264	123
928.361	273
928.457	41
928.553	-337
928.649	364
928.745	87
928.841	261
928.937	-49
929.033	533
929.129	360
929.225	-651
929.321	-152
929.417	-349
929.513	61
929.609	72
929.705	-205
929.801	224
929.897	-367
929.993	229
930.089	290
930.184	-168
930.280	-765
930.376	146
930.471	-1078
930.567	196
930.663	-511
930.758	-158
930.854	-309
930.950	-299
931.045	-342
931.141	365
931.236	630
931.332	-699
931.427	-52
931.523	612
931.618	-911
931.714	-479
931.809	283
931.905	-140
932.000	-906
932.095	-1005
932.191	-185
932.286	-30
932.381	-121
932.476	-249
932.572	-655
932.667	406
932.762	-268
932.857	-81
932.952	-632
933.047	43
933.142	-575
933.237	583
933.332	-984
933.427	716
933.522	-372
933.617	-345
933.712	589
933.807	-270
933.902	-364
933.997	-896
934.092	158
934.187	-961
934.282	-354
934.376	-41
934.471	-1053
934.566	-181
934.661	-318
934.755	-1120
934.850	-626
934.945	489
935.039	-671
935.134	-282
935.228	-783
935.323	860
935.417	30
935.512	246
935.606	-954
935.701	-234
935.795	-210
935.890	-499
935.984	276
936.079	-292
936.173	-635
936.267	-238
936.362	587
936.456	30
936.550	-7
936.644	-620
936.738	4
936.833	60
936.927	-610
937.021	320
937.115	-872
937.209	-789
937.303	-665
937.397	-964
937.491	-1189
937.585	130
937.679	223
937.773	197
937.867	-737
937.961	-528
938.055	379
938.149	-105
938.243	-1531
938.337	-565
938.430	-1212
938.524	-88
938.618	322
938.712	-194
938.805	-547
938.899	64
938.993	-1499
939.086	53
939.180	-417
939.274	1166
939.367	-220
939.461	-411
939.554	-767
939.648	-524
939.741	-608
939.835	-457
939.928	-726
940.022	-524
940.115	-657
940.208	-653
940.302	-762
940.395	-39
940.488	-1278
940.582	226
940.675	-36
940.768	507
940.861	-320
940.954	-395
941.048	-362
941.141	-491
941.234	-972
941.327	-264
941.420	70
941.513	-241
941.606	-428
941.699	143
941.792	-140
941.885	-281
941.978	-121
942.071	-207
942.164	-661
942.257	-320
942.349	-791
942.442	759
942.535	-976
942.628	-219
942.721	-350
942.813	-2060
942.906	-359
942.999	-1222
943.091	-318
943.184	-576
943.277	-1094
943.369	-639
943.462	-1008
943.554	-78
943.647	-751
943.739	94
943.832	-606
943.924	-1928
944.017	-41
944.109	-516
944.201	-975
944.294	-904
944.386	-57
944.478	-1361
944.571	-395
944.663	-483
944.755	-364
944.847	5
944.940	-723
945.032	-817
945.124	-819
945.216	-68
945.308	-473
945.400	-274
945.492	-1085
945.584	65
945.676	-865
945.768	-903
945.860	-343
945.952	-122
946.044	-720
946.136	-207
946.228	-1334
946.320	-1266
946.412	-798
946.503	-643
946.595	254
946.687	-977
946.779	-1234
946.870	-519
946.962	-1125
947.054	72
947.145	-241
947.237	-540
947.329	-245
947.420	-1126
947.512	-1210
947.603	133
947.695	-1528
947.786	-591
947.878	-1365
947.969	-756
948.061	-1284
948.152	-1551
948.243	-425
948.335	-489
948.426	-1942
948.517	-1228
948.609	-655
948.700	-290
948.791	-890
948.882	-914
948.973	-847
949.065	-279
949.156	-1179
949.247	-1298
949.338	-218
949.429	-860
949.520	-933
949.611	-1151
949.702	-187
949.793	-406
949.884	-791
949.975	-743
950.066	-1514
950.157	-1015
950.247	68
950.338	-710
950.429	-1274
950.520	20
950.611	-159
950.701	-645
950.792	-929
950.883	-202
950.973	-1086
951.064	-1370
951.155	-1458
951.245	-738
951.336	-972
951.427	-1276
951.517	-16
951.608	-890
951.698	-978
951.788	-546
951.879	-911
951.969	-275
952.060	-777
952.150	-383
952.240	-10
952.331	-1699
952.421	120
952.511	-669
952.602	-218
952.692	-722
952.782	-962
952.872	-410
952.962	-1080
953.052	-1128
953.143	-937
953.233	-5
953.323	-251
953.413	-511
953.503	-783
953.593	315
953.683	-917
953.773	-1479
953.863	-428
953.953	-1136
954.042	-738
954.132	-555
954.222	-654
954.312	-229
954.402	-1098
954.492	-472
954.581	-848
954.671	-1627
954.761	-1790
954.850	53
954.940	-1129
955.030	-903
955.119	-452
955.209	-924
955.298	-1938
955.388	-1003
955.477	575
955.567	-1413
955.656	-281
955.746	-1073
955.835	-336
955.925	-1492
956.014	-600
956.103	-654
956.193	-987
956.282	-748
956.371	-1352
956.461	-1161
956.550	-2230
956.639	-800
956.728	-975
956.817	-1354
956.906	-1815
956.995	-222
957.085	-1246
957.174	-882
957.263	-1034
957.352	-392
957.441	-814
957.530	-150
957.619	-479
957.708	-631
957.796	-1488
957.885	-656
957.974	-914
958.063	-891
958.152	-2024
958.241	-1141
958.329	-1077
958.418	-1595
958.507	-1309
958.596	-101
958.684	-1605
958.773	-673
958.861	-940
958.950	-1298
959.039	-437
959.127	-1516
959.216	-85
959.304	-31
959.393	-923
959.481	-221
959.570	-640
959.658	-958
959.746	-1041
959.835	-646
959.923	-598
960.011	-2518
960.100	-409
960.188	-1228
960.276	-1503
960.365	-1188
960.453	-777
960.541	-1615
960.629	-1453
960.717	-409
960.805	-1298
960.893	-1188
960.981	-1783
961.069	-383
961.158	-1270
961.245	-1235
961.333	-940
961.421	-1377
961.509	-834
961.597	-896
961.685	-1583
961.773	-873
961.861	-1149
961.949	-296
962.036	-1538
962.124	-1091
962.212	-1012
962.299	-852
962.387	-1368
962.475	-1275
962.562	-2058
962.650	-643
962.738	-522
962.825	-1400
962.913	-921
963.000	-1076
963.088	-723
963.175	-281
963.263	-1198
963.350	-1028
963.438	-1892
963.525	-2079
963.612	-1015
963.700	-1090
963.787	576
963.874	356
963.962	-140
964.049	-575
964.136	-1031
964.223	-1881
964.310	-248
964.398	-466
964.485	-1447
964.572	-88
964.659	-1244
964.746	-1523
964.833	-1029
964.920	-1007
965.007	-1366
965.094	-1445
965.181	-1595
965.268	-924
965.355	-886
965.441	-1704
965.528	-1706
965.615	-669
965.702	-1346
965.789	-1730
965.875	-1291
965.962	-752
966.049	-1808
966.136	-692
966.222	-1292
966.309	-486
966.395	-2123
966.482	-703
966.569	-1153
966.655	-175
966.742	-1432
966.828	-1020
966.915	-1328
967.001	-1383
967.087	-1407
967.174	-1345
967.260	-1292
967.347	-1858
967.433	-1933
967.519	-332
967.605	-1039
967.692	-991
967.778	-819
967.864	-1391
967.950	-1119
968.036	-1928
968.123	-753
968.209	-689
968.295	-1972
968.381	-372
968.467	-720
968.553	-2497
968.639	-534
968.725	-1440
968.811	-1200
968.897	-1202
968.983	-600
969.069	-2392
969.154	-1222
969.240	-694
969.326	-1971
969.412	-1415
969.497	-1638
969.583	-2085
969.669	142
969.755	-719
969.840	-1325
969.926	-1288
970.012	-1359
970.097	-241
970.183	-1175
970.268	-1388
970.354	-1628
970.439	-2154
970.525	-597
970.610	-2305
970.696	-60
970.781	-911
970.866	-1937
970.952	-745
971.037	-1839
971.122	-867
971.208	-692
971.293	-1388
971.378	-2649
971.463	-625
971.549	-950
971.634	-926
971.719	-1401
971.804	-1403
971.889	-189
971.974	-1439
972.059	-1592
972.144	-1296
972.229	-1574
972.314	-1632
972.399	-1632
972.484	-1792
972.569	-1335
972.654	-2261
972.739	-585
972.824	-1568
972.908	-1435
972.993	-1677
973.078	-2188
973.163	-1566
973.247	-999
973.332	-2364
973.417	387
973.501	-2170
973.586	-2819
973.671	-1134
973.755	-2076
973.840	-567
973.924	-864
974.009	-716
974.093	-2190
974.178	-857
974.262	-1897
974.346	-1797
974.431	-2414
974.515	-986
974.600	-1962
974.684	-700
974.768	-2411
974.852	-1025
974.937	-2553
975.021	-1014
975.105	-1509
975.189	-1011
975.273	-872
975.358	-2046
975.442	-1532
975.526	-878
975.610	-1663
975.694	-2031
975.778	27
975.862	-1585
975.946	-3804
976.030	-358
976.114	-2824
976.198	-2008
976.281	-2696
976.365	-1374
976.449	-1972
976.533	-2113
976.617	-1690
976.700	-1792
976.784	-1756
976.868	-1874
976.951	-1967
977.035	-829
977.119	-1329
977.202	-2376
977.286	-822
977.369	-1195
977.453	-1298
977.536	-2054
977.620	-1972
977.703	-1671
977.787	-1718
977.870	-630
977.953	-852
978.037	-3025
978.120	-949
978.203	-1745
978.287	-1577
978.370	-1422
978.453	-1733
978.536	-1711
978.620	-1434
978.703	-629
978.786	-1816
978.869	-2058
978.952	-2656
979.035	-408
979.118	-1870
979.201	-2109
979.284	-1401
979.367	-1297
979.450	-722
979.533	-2124
979.616	-1325
979.699	-1981
979.782	-1490
979.865	-1844
979.948	-1594
980.030	-2076
980.113	-1877
980.196	-2348
980.279	-871
980.361	-2155
980.444	-1869
980.526	-1657
980.609	-1740
980.692	-1545
980.774	-1226
980.857	-2459
980.939	-837
981.022	-2100
981.104	-1688
981.187	-1618
981.269	-1410
981.352	-1608
981.434	-2473
981.516	-1658
981.599	-305
981.681	-1190
981.763	-1500
981.846	-1711
981.928	-2212
982.010	-2007
982.092	-2068
982.174	-1129
982.256	-2356
982.339	-1807
982.421	-1966
982.503	-1949
982.585	-2780
982.667	-576
982.749	-1511
982.831	-1367
982.913	-2720
982.995	-1212
983.077	-2283
983.158	-865
983.240	-2336
983.322	-1609
983.404	-1282
983.486	-2664
983.568	-657
983.649	-2563
983.731	-2633
983.813	-782
983.894	-1506
983.976	-2052
984.058	-1620
984.139	-1406
984.221	-3286
984.302	-920
984.384	-1538
984.465	-2337
984.547	-1509
984.628	-2284
984.710	-953
984.791	-2600
984.872	-1749
984.954	-2160
985.035	-1599
985.116	-1807
985.198	-2362
985.279	-1365
985.360	-2777
985.441	-1292
985.522	-1452
985.604	-1884
985.685	-3758
985.766	-1930
985.847	-511
985.928	-2707
986.009	-2717
986.090	-1285
986.171	-1347
986.252	-1924
986.333	-1320
986.414	-1465
986.495	-1337
986.576	-1790
986.656	-1484
986.737	-1384
986.818	-1960
986.899	-1755
986.980	-871
987.060	-1011
987.141	-1969
987.222	-1433
987.302	-1638
987.383	-1848
987.464	-2727
987.544	-2413
987.625	-1946
987.705	-1172
987.786	-2210
987.866	-1875
987.947	-1983
988.027	-1576
988.108	-2092
988.188	-1235
988.268	-1338
988.349	-667
988.429	-2640
988.509	-1622
988.589	-1889
988.670	-3112
988.750	-762
988.830	-1384
988.910	-1979
988.990	-1787
989.070	-2164
989.151	-1118
989.231	-2601
989.311	-866
989.391	-1961
989.471	-952
989.551	-1656
989.631	-2604
989.711	-1162
989.791	-2273
989.870	-2198
989.950	-317
990.030	-2113
990.110	-1322
990.190	-1552
990.269	-1951
990.349	-1827
990.429	-1407
990.509	-1765
990.588	-2808
990.668	-2424
990.747	-862
990.827	-1317
990.907	-1886
990.986	-2205
991.066	-1005
991.145	-2156
991.225	-1374
991.304	-1651
991.383	-1990
991.463	-2187
991.542	-1408
991.622	-2465
991.701	-1578
991.780	-1455
991.859	-1539
991.939	-1640
992.018	-981
992.097	-1344
992.176	-1700
992.256	-1563
992.335	-2692
992.414	-540
992.493	-2512
992.572	-1522
992.651	-829
992.730	-2684
992.809	-1419
992.888	-2151
992.967	-1072
993.046	-755
993.125	-1827
993.203	-1598
993.282	-880
993.361	-998
993.440	-1682
993.519	-2642
993.597	-1617
993.676	-2289
993.755	-1533
993.834	-1160
993.912	-2349
993.991	-383
994.069	-1781
994.148	-1301
994.226	-1880
994.305	-1757
994.384	-1794
994.462	-483
994.540	-1844
994.619	-2001
994.697	-1767
994.776	-1879
994.854	-995
994.932	-2101
995.011	-1330
995.089	-2686
995.167	-1409
995.245	-1693
995.324	-2458
995.402	-1210
995.480	-2510
995.558	-1322
995.636	-1991
995.714	-1423
995.792	-314
995.870	-2017
995.948	-1176
996.026	-1465
996.104	-2790
996.182	-922
996.260	-1754
996.338	-1352
996.416	-2257
996.494	-1714
996.572	-1329
996.649	-1627
996.727	-1800
996.805	-1542
996.883	-2355
996.960	-3038
997.038	-1555
997.116	-1396
997.193	-1760
997.271	-1369
997.348	-2282
997.426	-1032
997.504	-2283
997.581	-741
997.658	-1552
997.736	-2204
997.813	-1968
997.891	-1169
997.968	-2036
998.046	-2157
998.123	-2404
998.200	-1485
998.277	-2850
998.355	-677
998.432	-3139
998.509	-2152
998.586	-1221
998.663	-1163
998.741	-1556
998.818	-1744
998.895	-1911
998.972	-805
999.049	-1599
999.126	-2001
999.203	-1497
999.280	-1482
999.357	-1215
999.434	-1770
999.511	-1226
999.587	-670
999.664	-2895
999.741	-1252
999.818	-1710
999.895	-2328
999.971	-2018
1000.048	-2126
1000.125	-1495
1000.202	-2219
1000.278	-1763
1000.355	-1465
1000.431	-2461
1000.508	-2396
1000.584	-1345
1000.661	-1632
1000.738	-2148
1000.814	-2485
1000.890	-767
1000.967	-1264
1001.043	-1595
1001.120	-2732
1001.196	-1603
1001.272	-2728
1001.349	-1152
1001.425	-1383
1001.501	-1437
1001.577	-2166
1001.654	-1385
1001.730	-2199
1001.806	-1132
1001.882	-2294
1001.958	-1284
1002.034	-663
1002.110	-487
1002.186	-1960
1002.262	-1699
1002.338	-1958
1002.414	-1237
1002.490	-1407
1002.566	-2412
1002.642	-2495
1002.718	-1023
1002.794	-1904
1002.870	-1882
1002.945	-2560
1003.021	-1639
1003.097	-2535
1003.173	-1636
1003.248	-2485
1003.324	-1665
1003.400	-1303
1003.475	-2331
1003.551	-2200
1003.626	-2104
1003.702	-1784
1003.777	-1284
1003.853	-1935
1003.928	-2805
1004.004	-2384
1004.079	-776
1004.155	-1199
1004.230	-2949
1004.305	-1031
1004.381	-2053
1004.456	-2049
1004.531	-1400
1004.607	-1590
1004.682	-1850
1004.757	-1554
1004.832	-1533
1004.907	-1761
1004.982	-1095
1005.057	-1782
1005.133	-1869
1005.208	-2144
1005.283	-1786
1005.358	-1050
1005.433	-2037
1005.508	-1274
1005.583	-2652
1005.657	-1587
1005.732	-968
1005.807	-2243
1005.882	-1904
1005.957	-1980
1006.032	-1405
1006.106	-2681
1006.181	-1580
1006.256	-1726
1006.331	-1980
1006.405	-2229
1006.480	-826
1006.554	-2066
1006.629	-1614
1006.704	-1854
1006.778	-2163
1006.853	-1602
1006.927	-2173
1007.002	-2748
1007.076	-2448
1007.150	-2377
1007.225	-2229
1007.299	-2127
1007.373	-2003
1007.448	-2266
1007.522	-1222
1007.596	-1717
1007.671	-2209
1007.745	-1462
1007.819	-1935
1007.893	-2542
1007.967	-1840
1008.041	-2676
1008.115	-957
1008.190	-2471
1008.264	-1434
1008.338	-2813
1008.412	-2710
1008.486	-2523
1008.560	-2192
1008.633	-1884
1008.707	-1933
1008.781	-1309
1008.855	-2496
1008.929	-1206
1009.003	-1983
1009.076	-2466
1009.150	-1612
1009.224	-1569
1009.298	-2062
1009.371	-2033
1009.445	-1927
1009.519	-1728
1009.592	-2113
1009.666	-978
1009.739	-2056
1009.813	-2510
1009.886	-1557
1009.960	-2065
1010.033	-1458
1010.107	-1094
1010.180	-2474
1010.253	-1817
1010.327	-2005
1010.400	-1460
1010.473	-2181
1010.547	-652
1010.620	-2227
1010.693	-1909
1010.766	-2801
1010.840	-1717
1010.913	-1901
1010.986	-2366
1011.059	-1839
1011.132	-2561
1011.205	-2037
1011.278	-2436
1011.351	-1853
1011.424	-1188
1011.497	-2440
1011.570	-2094
1011.643	-2031
1011.716	-2806
1011.789	-1948
1011.862	-1912
1011.934	-1380
1012.007	-2719
1012.080	-1475
1012.153	-2120
1012.225	-1360
1012.298	-2867
1012.371	-2450
1012.443	-1345
1012.516	-2855
1012.588	-1620
1012.661	-1351
1012.733	-2521
1012.806	-1650
1012.879	-2442
1012.951	-1627
1013.023	-1430
1013.096	-1577
1013.168	-2264
1013.241	-908
1013.313	-2807
1013.385	-1967
1013.458	-2306
1013.530	-1431
1013.602	-2482
1013.674	-1422
1013.746	-2553
1013.819	-2410
1013.891	-1113
1013.963	-1307
1014.035	-1326
1014.107	-1211
1014.179	-811
1014.251	-2801
1014.323	-1973
1014.395	-1061
1014.467	-1958
1014.539	-2195
1014.611	-2601
1014.683	-2096
1014.754	-1358
1014.826	-2577
1014.898	-2025
1014.970	-2676
1015.042	-1177
1015.113	-2271
1015.185	-1814
1015.257	-2811
1015.328	-1889
1015.400	-2575
1015.471	-2434
1015.543	-3067
1015.615	-2369
1015.686	-2123
1015.757	-1985
1015.829	-1582
1015.901	-2473
1015.972	-2619
1016.043	-2578
1016.115	-1481
1016.186	-2059
1016.257	-2561
1016.328	-2786
1016.400	-1051
1016.471	-2508
1016.542	-1125
1016.613	-2139
1016.685	-1289
1016.756	-1819
1016.827	-2075
1016.898	-2747
1016.969	-2456
1017.040	-2762
1017.111	-2187
1017.182	-2223
1017.253	-1746
1017.324	-2207
1017.395	-2430
1017.466	-2423
1017.537	-2739
1017.608	-1881
1017.678	-2201
1017.749	-2331
1017.820	-2264
1017.891	-3442
1017.961	-2773
1018.032	-2460
1018.103	-1298
1018.173	-2493
1018.244	-2088
1018.315	-1955
1018.385	-1483
1018.456	-2545
1018.526	-2962
1018.597	-1952
1018.667	-1729
1018.738	-2646
1018.808	-1961
1018.878	-2439
1018.949	-2594
1019.019	-2634
1019.089	-2031
1019.160	-1932
1019.230	-2943
1019.300	-1893
1019.371	-2422
1019.441	-1744
1019.511	-2425
1019.581	-2581
1019.651	-2293
1019.721	-2383
1019.791	-1999
1019.861	-2430
1019.931	-1821
1020.001	-1608
1020.071	-2414
1020.141	-2424
1020.211	-2125
1020.281	-3019
1020.351	-2250
1020.421	-1891
1020.491	-1521
1020.560	-2954
1020.630	-2441
1020.700	-2321
1020.770	-2584
1020.839	-3115
1020.909	-1759
1020.979	-2490
1021.048	-2877
1021.118	-2906
1021.187	-2424
1021.257	-2285
1021.326	-2033
1021.396	-2410
1021.465	-2295
1021.535	-2278
1021.604	-2599
1021.674	-2926
1021.743	-2384
1021.812	-2508
1021.882	-2219
1021.951	-2423
1022.020	-1975
1022.089	-1627
1022.159	-3027
1022.228	-2073
1022.297	-2445
1022.366	-2451
1022.435	-2675
1022.504	-2887
1022.573	-2467
1022.642	-2554
1022.711	-2275
1022.781	-2447
1022.849	-3270
1022.918	-2055
1022.987	-2133
1023.056	-2914
1023.125	-2566
1023.194	-2500
1023.263	-2223
1023.331	-1942
1023.400	-2204
1023.469	-2682
1023.538	-2162
1023.606	-2403
1023.675	-1831
1023.744	-2523
1023.812	-2437
1023.881	-2517
1023.949	-2421
1024.018	-2679
1024.086	-2367
1024.155	-2666
1024.223	-3123
1024.292	-2179
1024.360	-2649
1024.429	-2609
1024.497	-2671
1024.565	-2663
1024.634	-2256
1024.702	-2458
1024.770	-2554
1024.838	-2283
1024.907	-2979
1024.975	-2442
1025.043	-1461
1025.111	-3200
1025.179	-2434
1025.247	-3054
1025.315	-2451
1025.383	-2441
1025.451	-2523
1025.519	-2823
1025.587	-2679
1025.655	-2424
1025.723	-2285
1025.791	-2217
1025.859	-2098
1025.927	-2075
1025.995	-2503
1026.062	-2027
1026.130	-2176
1026.198	-2590
1026.266	-2568
1026.333	-2912
1026.401	-1698
1026.469	-2051
1026.536	-2267
1026.604	-3328
1026.671	-2305
1026.739	-2560
1026.806	-2336
1026.874	-2158
1026.941	-2282
1027.009	-2719
1027.076	-1937
1027.144	-2472
1027.211	-2831
1027.278	-1971
1027.345	-2251
1027.413	-2317
1027.480	-2245
1027.547	-2078
1027.614	-2002
1027.682	-1338
1027.749	-2430
1027.816	-2061
1027.883	-1993
1027.950	-2862
1028.017	-2822
1028.084	-1673
1028.151	-2269
1028.218	-2430
1028.285	-2513
1028.352	-2558
1028.419	-1903
1028.486	-2252
1028.553	-2312
1028.619	-2963
1028.686	-2543
1028.753	-2905
1028.820	-2512
1028.886	-2561
1028.953	-2493
1029.020	-3210
1029.086	-2088
1029.153	-2250
1029.220	-2407
1029.286	-2498
1029.353	-1818
1029.419	-3023
1029.486	-2924
1029.552	-3013
1029.619	-2898
1029.685	-2267
1029.751	-2179
1029.818	-1944
1029.884	-2542
1029.951	-1746
1030.017	-2445
1030.083	-1913
1030.149	-2486
1030.216	-3034
1030.282	-1980
1030.348	-3155
1030.414	-4185
1030.480	-2787
1030.546	-1940
1030.612	-2488
1030.678	-2516
1030.744	-2475
1030.810	-1969
1030.876	-2369
1030.942	-2979
1031.008	-2226
1031.074	-2240
1031.140	-3066
1031.206	-2257
1031.272	-2699
1031.337	-2226
1031.403	-2436
1031.469	-2620
1031.534	-3830
1031.600	-2523
1031.666	-2926
1031.731	-3194
1031.797	-2420
1031.863	-1980
1031.928	-2546
1031.994	-3030
1032.059	-1672
1032.125	-2558
1032.190	-2266
1032.256	-2684
1032.321	-2974
1032.386	-1865
1032.452	-2328
1032.517	-2180
1032.582	-2642
1032.647	-2606
1032.713	-1964
1032.778	-2261
1032.843	-2250
1032.908	-2376
1032.974	-1977
1033.039	-1878
1033.104	-2451
1033.169	-3291
1033.234	-2030
1033.299	-1867
1033.364	-2401
1033.429	-2231
1033.494	-2057
1033.559	-3131
1033.624	-2299
1033.688	-2665
1033.753	-2821
1033.818	-2170
1033.883	-1833
1033.948	-2277
1034.013	-2430
1034.077	-1763
1034.142	-1733
1034.207	-2742
1034.271	-2335
1034.336	-1809
1034.400	-2305
1034.465	-1919
1034.530	-2218
1034.594	-2717
1034.658	-2907
1034.723	-2167
1034.787	-2177
1034.852	-2116
1034.916	-2647
1034.981	-2985
1035.045	-2703
1035.109	-3071
1035.173	-2019
1035.238	-3054
1035.302	-2345
1035.366	-2383
1035.430	-3147
1035.495	-2227
1035.559	-1975
1035.623	-2131
1035.687	-2653
1035.751	-2597
1035.815	-2168
1035.879	-2831
1035.943	-2794
1036.007	-2539
1036.071	-2365
1036.135	-2736
1036.198	-3211
1036.262	-2374
1036.326	-1879
1036.390	-2263
1036.454	-2392
1036.517	-2301
1036.581	-1997
1036.645	-2126
1036.709	-1851
1036.772	-2585
1036.836	-2430
1036.900	-2329
1036.963	-2385
1037.026	-2149
1037.090	-2275
1037.154	-2537
1037.217	-2364
1037.280	-2667
1037.344	-1732
1037.407	-2128
1037.471	-2337
1037.534	-2381
1037.597	-2915
1037.661	-2572
1037.724	-2428
1037.787	-2459
1037.850	-2653
1037.913	-2623
1037.977	-1027
1038.040	-2755
1038.103	-2573
1038.166	-3525
1038.229	-2475
1038.292	-2733
1038.355	-1835
1038.418	-2338
1038.481	-2381
1038.544	-2449
1038.607	-3148
1038.670	-2859
1038.732	-1886
1038.795	-1935
1038.858	-2777
1038.921	-3046
1038.984	-1910
1039.046	-898
1039.109	-2882
1039.172	-2557
1039.234	-2738
1039.297	-1642
1039.360	-2583
1039.422	-2801
1039.485	-2603
1039.547	-3601
1039.610	-1575
1039.672	-2237
1039.734	-2439
1039.797	-2708
1039.859	-2475
1039.922	-2059
1039.984	-2055
1040.046	-1721
1040.109	-3142
1040.171	-2158
1040.233	-2505
1040.295	-2355
1040.358	-2778
1040.420	-2398
1040.482	-2337
1040.544	-2572
1040.606	-1701
1040.668	-2311
1040.730	-2621
1040.792	-2442
1040.854	-1992
1040.916	-2283
1040.978	-2431
1041.040	-2213
1041.102	-2257
1041.164	-2298
1041.225	-2281
1041.287	-2487
1041.349	-2582
1041.411	-2719
1041.472	-3086
1041.534	-2360
1041.596	-2821
1041.657	-2130
1041.719	-2465
1041.781	-2610
1041.842	-1633
1041.904	-1481
1041.965	-3132
1042.027	-2579
1042.088	-2480
1042.150	-2396
1042.211	-2458
1042.272	-2455
1042.334	-2730
1042.395	-1854
1042.456	-2801
1042.518	-2296
1042.579	-2185
1042.640	-2239
1042.701	-2077
1042.763	-1675
1042.824	-2368
1042.885	-2903
1042.946	-2309
1043.007	-3035
1043.068	-2384
1043.129	-1938
1043.190	-2652
1043.251	-1711
1043.312	-3179
1043.373	-1709
1043.434	-2538
1043.495	-2353
1043.556	-1864
1043.616	-1292
1043.677	-2395
1043.738	-2427
1043.799	-2759
1043.859	-1691
1043.920	-2386
1043.981	-1983
1044.041	-2566
1044.102	-2397
1044.162	-2290
1044.223	-2007
1044.284	-2271
1044.344	-2610
1044.405	-2568
1044.465	-1586
1044.525	-2148
1044.586	-2214
1044.646	-2086
1044.707	-2066
1044.767	-3458
1044.827	-2277
1044.887	-2314
1044.948	-1611
1045.008	-2211
1045.068	-2536
1045.128	-1532
1045.188	-2051
1045.249	-1796
1045.309	-1911
1045.369	-1726
1045.429	-1932
1045.489	-1798
1045.549	-2392
1045.609	-1561
1045.669	-2407
1045.729	-1748
1045.789	-1754
1045.848	-2795
1045.908	-1689
1045.968	-2199
1046.028	-1737
1046.088	-1729
1046.147	-2292
1046.207	-1571
1046.267	-1214
1046.326	-1269
1046.386	-2255
1046.446	-1276
1046.505	-1615
1046.565	-1877
1046.624	-294
1046.684	-1186
1046.743	-1709
1046.803	-1510
1046.862	-1123
1046.922	0
