'Start Wavelength	183.907
'End Wavelength	1046.922
'Gate Delay	5.000
'Gate Width (ms)	1.050
'Laser Output Level	0.000
'X Position	0.000
'Y Position	0.000
'Z Position	0.000
'Grid Point Number	1.000
'Shot Number	100.000
183.907	75.000
183.977	146.000
184.047	840
184.116	413
184.186	474
184.256	-288
184.325	-475
184.395	-613
184.465	396
184.534	-371
184.604	-445
184.674	405
184.743	564
184.813	-137
184.883	1053
184.952	-211
185.022	745
185.092	-219
185.161	-172
185.231	-242
185.301	350
185.370	146
185.440	226
185.509	335
185.579	1396
185.649	77
185.718	686
185.788	403
185.857	408
185.927	-600
185.996	326
186.066	-533
186.136	-720
186.205	-20
186.275	749
186.344	-63
186.414	-46
186.483	-492
186.553	758
186.622	47
186.692	-463
186.761	-990
186.831	51
186.900	185
186.970	774
187.039	276
187.109	1660
187.178	334
187.248	443
187.317	476
187.387	1013
187.456	-261
187.526	865
187.595	220
187.664	746
187.734	495
187.803	940
187.873	12
187.942	634
188.012	472
188.081	199
188.150	-62
188.220	75
188.289	873
188.358	834
188.428	841
188.497	-570
188.567	1024
188.636	725
188.705	263
188.775	741
188.844	-135
188.913	397
188.983	149
189.052	925
189.121	186
189.191	71
189.260	681
189.329	374
189.399	417
189.468	645
189.537	-529
189.606	357
189.676	1051
189.745	959
189.814	855
189.883	172
189.953	175
190.022	1621
190.091	3
190.161	1204
190.230	976
190.299	613
190.368	-449
190.437	570
190.507	983
190.576	48
190.645	210
190.714	564
190.783	383
190.853	876
190.922	57
190.991	594
191.060	308
191.129	38
191.198	655
191.268	308
191.337	963
191.406	1765
191.475	459
191.544	480
191.613	100
191.682	-485
191.752	446
191.821	120
191.890	1136
191.959	994
192.028	373
192.097	511
192.166	869
192.235	-235
192.304	894
192.373	454
192.442	40
192.511	941
192.580	545
192.650	455
192.719	1190
192.788	932
192.857	218
192.926	582
192.995	-290
193.064	497
193.133	282
193.202	1888
193.271	1505
193.340	1222
193.409	970
193.478	1814
193.547	1512
193.615	1097
193.684	1442
193.753	1366
193.822	1566
193.891	929
193.960	834
194.029	597
194.098	702
194.167	179
194.236	456
194.305	209
194.374	1080
194.443	1170
194.512	1261
194.580	2189
194.649	1171
194.718	1186
194.787	115
194.856	374
194.925	1073
194.994	607
195.062	1103
195.131	1677
195.200	2147
195.269	2258
195.338	834
195.407	581
195.475	829
195.544	871
195.613	1268
195.682	1583
195.751	1706
195.819	2405
195.888	1786
195.957	2294
196.026	1649
196.094	1795
196.163	1404
196.232	2093
196.301	2123
196.369	983
196.438	1298
196.507	1022
196.576	822
196.644	1076
196.713	271
196.782	161
196.850	874
196.919	1344
196.988	280
197.056	373
197.125	1086
197.194	1094
197.262	252
197.331	929
197.400	976
197.468	650
197.537	715
197.606	945
197.674	823
197.743	1638
197.812	-405
197.880	1623
197.949	664
198.017	779
198.086	356
198.155	746
198.223	456
198.292	845
198.360	745
198.429	451
198.497	78
198.566	821
198.635	2171
198.703	1204
198.772	684
198.840	1373
198.909	517
198.977	612
199.046	611
199.114	1521
199.183	200
199.251	359
199.320	875
199.388	690
199.457	483
199.525	1028
199.594	768
199.662	1196
199.731	692
199.799	1945
199.867	718
199.936	165
200.004	1378
200.073	1356
200.141	847
200.210	1142
200.278	898
200.346	1100
200.415	938
200.483	1230
200.552	641
200.620	854
200.688	863
200.757	1512
200.825	963
200.893	1234
200.962	937
201.030	731
201.098	653
201.167	1791
201.235	931
201.303	539
201.372	979
201.440	541
201.508	950
201.577	1418
201.645	451
201.713	1072
201.781	407
201.850	1449
201.918	491
201.986	1208
202.055	966
202.123	640
202.191	1144
202.259	983
202.327	390
202.396	525
202.464	746
202.532	890
202.600	2852
202.669	2250
202.737	1427
202.805	754
202.873	741
202.941	1100
203.009	944
203.078	235
203.146	601
203.214	1172
203.282	478
203.350	1414
203.418	282
203.487	1613
203.555	524
203.623	965
203.691	985
203.759	359
203.827	533
203.895	1731
203.963	892
204.031	834
204.099	472
204.168	642
204.236	180
204.304	1164
204.372	1290
204.440	757
204.508	529
204.576	822
204.644	764
204.712	1066
204.780	1502
204.848	133
204.916	963
204.984	741
205.052	1075
205.120	1645
205.188	341
205.256	375
205.324	1135
205.392	522
205.460	1026
205.528	887
205.596	1012
205.664	578
205.732	321
205.799	1286
205.867	2865
205.935	181
206.003	536
206.071	92
206.139	82
206.207	1537
206.275	851
206.343	739
206.411	1154
206.478	153
206.546	509
206.614	578
206.682	415
206.750	-14
206.818	69
206.885	451
206.953	-1682
207.021	1236
207.089	915
207.157	326
207.225	713
207.292	1128
207.360	-20
207.428	454
207.496	567
207.563	-51
207.631	880
207.699	365
207.767	1166
207.834	861
207.902	854
207.970	1210
208.038	265
208.105	988
208.173	241
208.241	1315
208.309	668
208.376	1190
208.444	3443
208.512	1511
208.579	291
208.647	1348
208.715	1112
208.782	1159
208.850	1205
208.918	855
208.985	1456
209.053	2663
209.120	1617
209.188	1266
209.256	884
209.323	733
209.391	2178
209.459	1642
209.526	1151
209.594	1538
209.661	1084
209.729	1272
209.796	1081
209.864	1439
209.932	-501
209.999	2817
210.067	1844
210.134	1567
210.202	1790
210.269	2714
210.337	1878
210.404	695
210.472	592
210.539	1362
210.607	1545
210.674	2098
210.742	906
210.809	1602
210.877	1683
210.944	2776
211.012	1323
211.079	3692
211.146	1955
211.214	1213
211.281	1668
211.349	2785
211.416	1786
211.484	2674
211.551	1568
211.618	2254
211.686	722
211.753	886
211.821	684
211.888	923
211.955	1447
212.023	1588
212.090	1141
212.157	1458
212.225	1043
212.292	2329
212.359	2528
212.427	7002
212.494	3936
212.561	3239
212.629	1456
212.696	1154
212.763	1671
212.831	1264
212.898	1482
212.965	1076
213.032	1834
213.100	3054
213.167	1953
213.234	2128
213.301	1701
213.369	1373
213.436	796
213.503	990
213.570	2467
213.638	2305
213.705	1404
213.772	1006
213.839	1233
213.906	2763
213.973	1624
214.041	1739
214.108	2073
214.175	1926
214.242	1573
214.309	1848
214.376	1695
214.444	2483
214.511	1933
214.578	2164
214.645	2242
214.712	3630
214.779	1960
214.846	1646
214.913	2111
214.980	2757
215.048	2285
215.115	3517
215.182	3937
215.249	2813
215.316	2171
215.383	2003
215.450	1885
215.517	2632
215.584	1945
215.651	2482
215.718	1383
215.785	2483
215.852	2580
215.919	3638
215.986	4546
216.053	3125
216.120	2096
216.187	3487
216.254	3401
216.321	2802
216.388	2358
216.455	3811
216.522	3114
216.589	5284
216.656	6719
216.722	6840
216.789	3645
216.856	2734
216.923	2239
216.990	2347
217.057	2173
217.124	4641
217.191	3482
217.258	4438
217.324	4711
217.391	4193
217.458	2234
217.525	2145
217.592	2657
217.659	1631
217.725	2821
217.792	4608
217.859	4520
217.926	2174
217.993	1015
218.059	2160
218.126	1549
218.193	2652
218.260	778
218.327	1515
218.393	2498
218.460	1862
218.527	688
218.594	2286
218.660	3814
218.727	5373
218.794	1203
218.860	1897
218.927	1653
218.994	1568
219.061	1733
219.127	3719
219.194	4717
219.261	2383
219.327	1628
219.394	2287
219.461	662
219.527	1640
219.594	3310
219.661	2439
219.727	397
219.794	1554
219.860	169
219.927	1426
219.994	2658
220.060	5232
220.127	4157
220.193	2441
220.260	1354
220.326	2573
220.393	3479
220.460	5543
220.526	2951
220.593	1984
220.659	3976
220.726	2752
220.792	4012
220.859	5042
220.925	5668
220.992	8254
221.058	7142
221.125	6283
221.191	5228
221.258	2098
221.324	2255
221.391	1643
221.457	1525
221.524	1761
221.590	954
221.657	4669
221.723	3523
221.789	2730
221.856	3305
221.922	1173
221.989	1107
222.055	1293
222.121	112
222.188	3673
222.254	1051
222.321	1444
222.387	1509
222.453	1398
222.520	1369
222.586	1087
222.652	1723
222.719	670
222.785	2221
222.851	1539
222.918	1418
222.984	1636
223.050	966
223.116	532
223.183	2157
223.249	910
223.315	351
223.382	1586
223.448	1160
223.514	1298
223.580	854
223.647	1564
223.713	395
223.779	776
223.845	1785
223.911	1237
223.978	792
224.044	1712
224.110	1168
224.176	2147
224.242	377
224.309	504
224.375	1017
224.441	943
224.507	598
224.573	940
224.639	1466
224.705	352
224.772	944
224.838	1433
224.904	2967
224.970	1573
225.036	1991
225.102	1146
225.168	1920
225.234	1560
225.300	1408
225.366	1806
225.432	975
225.499	1251
225.565	1852
225.631	2857
225.697	1230
225.763	1884
225.829	2207
225.895	2478
225.961	3573
226.027	3633
226.093	3168
226.159	4362
226.225	3635
226.291	7931
226.357	13124
226.423	10021
226.489	7453
226.554	4489
226.620	3522
226.686	6219
226.752	9253
226.818	9684
226.884	17086
226.950	15661
227.016	7617
227.082	6592
227.148	4120
227.214	5600
227.279	5241
227.345	4004
227.411	3508
227.477	3226
227.543	4883
227.609	6351
227.674	4571
227.740	4423
227.806	2919
227.872	2246
227.938	2825
228.003	5951
228.069	2666
228.135	2058
228.201	2225
228.267	2798
228.332	3690
228.398	3774
228.464	3538
228.530	1118
228.595	2140
228.661	1365
228.727	4502
228.792	5248
228.858	2529
228.924	1613
228.990	4132
229.055	3675
229.121	5220
229.187	2532
229.252	2955
229.318	1839
229.384	3387
229.449	3150
229.515	19
229.581	863
229.646	3077
229.712	3298
229.777	6501
229.843	9195
229.909	5977
229.974	5074
230.040	3945
230.105	3857
230.171	2841
230.236	3392
230.302	4251
230.368	4553
230.433	2183
230.499	3362
230.564	2828
230.630	2916
230.695	2589
230.761	3093
230.826	858
230.892	5161
230.957	1745
231.023	954
231.088	2306
231.154	1711
231.219	2607
231.284	3774
231.350	3974
231.415	1383
231.481	1869
231.546	1652
231.612	1108
231.677	1049
231.742	569
231.808	4450
231.873	1178
231.939	181
232.004	4772
232.069	6241
232.135	1834
232.200	833
232.265	1955
232.331	1580
232.396	785
232.461	1848
232.527	1652
232.592	1338
232.657	2426
232.723	3316
232.788	3136
232.853	2248
232.918	1582
232.984	1096
233.049	1224
233.114	2254
233.179	4080
233.245	3922
233.310	5988
233.375	2428
233.440	2235
233.506	3117
233.571	2304
233.636	2179
233.701	2251
233.766	4394
233.832	5679
233.897	3743
233.962	4451
234.027	8001
234.092	5839
234.157	5100
234.222	3765
234.288	5178
234.353	11817
234.418	12880
234.483	9223
234.548	7310
234.613	6533
234.678	5592
234.743	4869
234.808	12626
234.873	8512
234.938	5553
235.004	3845
235.069	3526
235.134	3451
235.199	3324
235.264	2871
235.329	2108
235.394	3078
235.459	3720
235.524	3073
235.589	3697
235.654	1811
235.719	1395
235.784	2706
235.849	2855
235.913	6730
235.978	6849
236.043	8458
236.108	4301
236.173	2782
236.238	4799
236.303	2803
236.368	2944
236.433	4630
236.498	7426
236.563	5603
236.627	6455
236.692	21840
236.757	21365
236.822	9277
236.887	8349
236.952	6438
237.017	3757
237.081	5988
237.146	6278
237.211	11146
237.276	20468
237.341	36648
237.405	21909
237.470	10718
237.535	8817
237.600	4968
237.664	4855
237.729	3551
237.794	4198
237.859	8726
237.923	8229
237.988	4410
238.053	6371
238.118	6481
238.182	14050
238.247	14555
238.312	8769
238.376	6988
238.441	5312
238.506	5570
238.570	2360
238.635	4270
238.700	3122
238.764	2977
238.829	6419
238.893	8559
238.958	5573
239.023	5524
239.087	2783
239.152	4879
239.216	2576
239.281	2716
239.346	2976
239.410	2921
239.475	3355
239.539	13075
239.604	10918
239.668	4775
239.733	3342
239.797	2715
239.862	5419
239.926	10718
239.991	5716
240.055	3697
240.120	3700
240.184	3916
240.249	3439
240.313	3416
240.378	3674
240.442	9540
240.507	13974
240.571	5923
240.635	6618
240.700	10144
240.764	5843
240.829	3964
240.893	2233
240.957	4274
241.022	8329
241.086	14343
241.151	8489
241.215	4028
241.279	5816
241.344	7781
241.408	5475
241.472	3239
241.537	5792
241.601	4109
241.665	2744
241.730	2943
241.794	4738
241.858	2750
241.922	4666
241.987	4568
242.051	3188
242.115	1613
242.179	3346
242.244	2323
242.308	3997
242.372	4104
242.436	5227
242.501	5101
242.565	3951
242.629	3020
242.693	4299
242.757	2395
242.822	3033
242.886	4692
242.950	4353
243.014	3457
243.078	7309
243.142	7548
243.206	5011
243.271	5161
243.335	3745
243.399	4585
243.463	8098
243.527	24648
243.591	12370
243.655	8412
243.719	5292
243.783	6471
243.847	7448
243.911	9399
243.975	17241
244.040	15064
244.104	8960
244.168	5349
244.232	10067
244.296	13904
244.360	9296
244.424	6011
244.488	6007
244.552	6800
244.615	3130
244.679	4573
244.743	5871
244.807	7245
244.871	5759
244.935	4842
244.999	3683
245.063	5527
245.127	7970
245.191	7768
245.255	7882
245.319	8084
245.383	9342
245.446	7303
245.510	5475
245.574	7683
245.638	8361
245.702	5847
245.766	13447
245.829	9855
245.893	7399
245.957	5789
246.021	7949
246.085	8121
246.149	9661
246.212	19818
246.276	29688
246.340	17410
246.404	13162
246.467	10197
246.531	12076
246.595	9878
246.659	11389
246.722	9929
246.786	15616
246.850	12108
246.913	13861
246.977	8056
247.041	8108
247.104	9171
247.168	8496
247.232	18155
247.295	36460
247.359	23143
247.423	11196
247.486	16925
247.550	13940
247.614	11552
247.677	16655
247.741	10568
247.804	8234
247.868	10510
247.932	18138
247.995	39049
248.059	21430
248.122	10408
248.186	12944
248.249	22870
248.313	50998
248.376	59379
248.440	45680
248.503	21305
248.567	16988
248.630	20374
248.694	29351
248.757	36136
248.821	57771
248.884	48746
248.948	40551
249.011	53079
249.075	65084
249.138	63199
249.202	34930
249.265	20506
249.328	19750
249.392	16644
249.455	14898
249.519	10547
249.582	14633
249.645	21113
249.709	15102
249.772	10226
249.835	9622
249.899	10156
249.962	9689
250.025	9329
250.089	23190
250.152	38165
250.215	22463
250.279	14226
250.342	12815
250.405	11627
250.468	9766
250.532	13937
250.595	18411
250.658	26187
250.721	43415
250.785	23645
250.848	17318
250.911	10900
250.974	9401
251.038	14510
251.101	35121
251.164	20522
251.227	20733
251.290	16201
251.354	16125
251.417	35646
251.480	39224
251.543	25171
251.606	55848
251.669	52231
251.732	28674
251.795	37349
251.859	36116
251.922	42795
251.985	34764
252.048	18192
252.111	17466
252.174	19273
252.237	37105
252.300	67418
252.363	59682
252.426	70273
252.489	43885
252.552	27756
252.615	20743
252.678	22883
252.741	49235
252.804	47038
252.867	62627
252.930	63415
252.993	43844
253.056	28844
253.119	22893
253.182	16746
253.245	21113
253.308	23046
253.371	29641
253.434	28637
253.497	25153
253.559	39370
253.622	32863
253.685	44815
253.748	53967
253.811	25243
253.874	25903
253.937	26483
254.000	21904
254.062	30987
254.125	44165
254.188	37064
254.251	34226
254.314	19595
254.376	30566
254.439	40044
254.502	42780
254.565	34375
254.628	57419
254.690	47254
254.753	28301
254.816	21619
254.878	23169
254.941	29972
255.004	34804
255.067	18889
255.129	22417
255.192	12713
255.255	11868
255.317	15723
255.380	10309
255.443	7499
255.505	7888
255.568	7567
255.631	9079
255.693	9681
255.756	7970
255.819	6877
255.881	7001
255.944	5612
256.006	5275
256.069	6247
256.132	6104
256.194	9553
256.257	19417
256.319	13660
256.382	14065
256.444	8667
256.507	7023
256.569	5164
256.632	5637
256.694	8887
256.757	14382
256.819	38034
256.882	19801
256.944	11841
257.007	12226
257.069	14248
257.132	8355
257.194	6367
257.257	6054
257.319	5183
257.381	6818
257.444	12619
257.506	39392
257.569	58623
257.631	34026
257.693	21143
257.756	11302
257.818	11493
257.880	7137
257.943	8298
258.005	6422
258.067	7371
258.130	6552
258.192	10312
258.254	26556
258.317	14740
258.379	7574
258.441	14408
258.503	17184
258.566	14518
258.628	22682
258.690	7625
258.753	9563
258.815	26116
258.877	15351
258.939	6972
259.001	5911
259.064	4696
259.126	8097
259.188	11756
259.250	8138
259.312	7611
259.375	14455
259.437	14883
259.499	7366
259.561	4835
259.623	6967
259.685	6255
259.747	6770
259.809	13723
259.872	28078
259.934	38115
259.996	44052
260.058	16562
260.120	6861
260.182	4709
260.244	5194
260.306	5118
260.368	6663
260.430	5688
260.492	12209
260.554	18554
260.616	13546
260.678	23011
260.740	32507
260.802	11520
260.864	12253
260.926	10421
260.988	10202
261.050	8490
261.112	15331
261.174	31543
261.236	26557
261.298	11756
261.359	14009
261.421	20877
261.483	9284
261.545	9484
261.607	4756
261.669	6132
261.731	10202
261.793	25815
261.854	17651
261.916	11690
261.978	7166
262.040	9213
262.102	7177
262.164	10713
262.225	10968
262.287	6243
262.349	17300
262.411	15890
262.472	7400
262.534	9080
262.596	21003
262.658	9380
262.719	6070
262.781	7397
262.843	18430
262.904	12014
262.966	9801
263.028	7857
263.090	21356
263.151	53488
263.213	27091
263.275	23477
263.336	10021
263.398	6909
263.459	4705
263.521	6478
263.583	16571
263.644	15731
263.706	6969
263.767	4349
263.829	5047
263.891	3669
263.952	3789
264.014	2817
264.075	6546
264.137	16555
264.198	13268
264.260	5357
264.321	4974
264.383	10478
264.444	26928
264.506	9114
264.567	7734
264.629	9084
264.690	17877
264.752	12067
264.813	9182
264.875	5222
264.936	5182
264.998	3887
265.059	4251
265.120	4467
265.182	8516
265.243	19691
265.305	23294
265.366	8301
265.427	5621
265.489	5717
265.550	3767
265.611	8472
265.673	9953
265.734	5383
265.795	4165
265.857	3843
265.918	4540
265.979	6731
266.040	28691
266.102	31522
266.163	15210
266.224	15542
266.286	9211
266.347	5826
266.408	8253
266.469	7834
266.530	5827
266.592	4089
266.653	13387
266.714	25470
266.775	9116
266.836	6154
266.898	4574
266.959	8750
267.020	6562
267.081	4741
267.142	3843
267.203	4143
267.264	4007
267.326	5889
267.387	5158
267.448	2573
267.509	4235
267.570	4454
267.631	4421
267.692	3955
267.753	6189
267.814	4628
267.875	10361
267.936	24341
267.997	13147
268.058	12694
268.119	8359
268.180	8964
268.241	7830
268.302	6407
268.363	5210
268.424	8352
268.485	7233
268.546	5204
268.607	3996
268.668	3781
268.729	5421
268.790	8151
268.851	8388
268.912	15619
268.972	24312
269.033	17705
269.094	8755
269.155	5482
269.216	5142
269.277	5851
269.338	5083
269.398	5880
269.459	9306
269.520	13136
269.581	20494
269.642	25447
269.702	17294
269.763	11295
269.824	8230
269.885	9061
269.945	16748
270.006	7233
270.067	4513
270.128	6116
270.188	5159
270.249	6849
270.310	4423
270.370	5626
270.431	5190
270.492	3747
270.553	5587
270.613	17153
270.674	28975
270.734	13535
270.795	9115
270.856	12456
270.916	11738
270.977	7156
271.038	10180
271.098	11566
271.159	15423
271.219	16558
271.280	7501
271.340	5858
271.401	7090
271.462	17105
271.522	14760
271.583	9817
271.643	8521
271.704	7702
271.764	10473
271.825	20889
271.885	59319
271.946	85716
272.006	38638
272.066	39145
272.127	64376
272.187	25806
272.248	14181
272.308	12726
272.369	37968
272.429	27399
272.489	22391
272.550	25349
272.610	24645
272.671	23366
272.731	13726
272.791	23819
272.852	18778
272.912	16782
272.972	8266
273.033	6695
273.093	13904
273.153	17001
273.214	9533
273.274	8116
273.334	24459
273.394	58301
273.455	36142
273.515	25389
273.575	52148
273.635	26057
273.696	28206
273.756	56357
273.816	30389
273.876	14748
273.936	18984
273.997	35892
274.057	14041
274.117	12377
274.177	18012
274.237	61035
274.297	62185
274.358	41530
274.418	44994
274.478	41874
274.538	18542
274.598	10877
274.658	29056
274.718	42451
274.778	23216
274.838	12293
274.898	17663
274.958	55204
275.018	57423
275.078	47324
275.138	26258
275.198	12481
275.258	8677
275.318	12088
275.378	25787
275.438	30936
275.498	18174
275.558	23877
275.618	50152
275.678	41499
275.738	29373
275.798	24548
275.858	12480
275.918	6996
275.978	11022
276.038	11482
276.098	7651
276.157	13926
276.217	46776
276.277	26045
276.337	23526
276.397	11094
276.457	16294
276.517	11127
276.576	6945
276.636	6257
276.696	15512
276.756	27322
276.815	24252
276.875	13693
276.935	14628
276.995	15798
277.055	8150
277.114	7041
277.174	9383
277.234	34438
277.293	20518
277.353	13723
277.413	8253
277.472	9983
277.532	10514
277.592	8515
277.651	13178
277.711	20043
277.771	10725
277.830	33328
277.890	32237
277.950	16102
278.009	36931
278.069	19508
278.128	16087
278.188	24044
278.248	13936
278.307	18257
278.367	15621
278.426	8330
278.486	5601
278.545	4531
278.605	4981
278.664	4425
278.724	6201
278.783	17966
278.843	51733
278.902	17715
278.962	12127
279.021	13230
279.081	7426
279.140	7713
279.199	11944
279.259	9528
279.318	7209
279.378	7556
279.437	10275
279.496	36790
279.556	71798
279.615	61153
279.675	18169
279.734	11799
279.793	24588
279.853	36969
279.912	15327
279.971	9015
280.031	7662
280.090	11588
280.149	26556
280.208	14139
280.268	44615
280.327	54956
280.386	18447
280.445	19431
280.505	25752
280.564	10651
280.623	8112
280.682	13307
280.742	27285
280.801	9448
280.860	7868
280.919	6275
280.978	5049
281.037	4668
281.097	4943
281.156	4157
281.215	4916
281.274	5454
281.333	26669
281.392	26028
281.451	7163
281.510	4928
281.569	5991
281.628	4215
281.688	4208
281.747	6621
281.806	7966
281.865	4305
281.924	5071
281.983	6276
282.042	4112
282.101	4537
282.160	4327
282.219	4069
282.278	4755
282.337	18793
282.396	16602
282.454	5713
282.513	7270
282.572	31948
282.631	24604
282.690	7307
282.749	4845
282.808	9634
282.867	9393
282.926	10551
282.985	4348
283.043	3367
283.102	4541
283.161	4988
283.220	11894
283.279	31091
283.338	11771
283.396	6899
283.455	7427
283.514	8628
283.573	17716
283.631	13899
283.690	7717
283.749	5147
283.808	14115
283.866	21031
283.925	6853
283.984	5090
284.043	9779
284.101	12609
284.160	5880
284.219	7031
284.277	5760
284.336	11681
284.395	43398
284.453	36917
284.512	10539
284.570	18339
284.629	16017
284.688	9092
284.746	8676
284.805	8390
284.863	10973
284.922	15589
284.981	14465
285.039	16182
285.098	24948
285.156	59661
285.215	150322
285.273	156084
285.332	81862
285.390	40467
285.449	24608
285.507	15487
285.566	13345
285.624	9800
285.683	7785
285.741	6912
285.799	8162
285.858	8240
285.916	10596
285.975	6798
286.033	7317
286.091	4274
286.150	3391
286.208	4264
286.267	7267
286.325	9018
286.383	19923
286.442	18031
286.500	7452
286.558	5455
286.616	4121
286.675	12120
286.733	11612
286.791	10262
286.850	11416
286.908	12395
286.966	24536
287.024	10838
287.083	8890
287.141	4746
287.199	6554
287.257	13591
287.315	8943
287.374	8449
287.432	22327
287.490	16184
287.548	10975
287.606	6666
287.664	5577
287.723	9909
287.781	15048
287.839	6421
287.897	8198
287.955	7537
288.013	7947
288.071	12128
288.129	39512
288.187	125286
288.245	65268
288.303	21153
288.361	11587
288.419	9243
288.477	6658
288.535	6046
288.593	4839
288.651	5394
288.709	5278
288.767	5044
288.825	6998
288.883	3706
288.941	5825
288.999	6459
289.057	5816
289.115	4019
289.173	6891
289.231	8466
289.289	12178
289.346	10607
289.404	11079
289.462	17240
289.520	21254
289.578	9476
289.636	5143
289.694	3358
289.751	3427
289.809	3224
289.867	5450
289.925	8175
289.983	14402
290.040	6130
290.098	4330
290.156	8381
290.214	11929
290.271	7062
290.329	4570
290.387	3621
290.444	5492
290.502	3353
290.560	3819
290.617	5767
290.675	9941
290.733	6645
290.790	9955
290.848	6384
290.906	13781
290.963	11551
291.021	10205
291.078	8688
291.136	8666
291.194	14535
291.251	37026
291.309	12713
291.366	5973
291.424	5662
291.481	9063
291.539	10023
291.596	5131
291.654	4289
291.711	3406
291.769	6804
291.826	22288
291.884	15826
291.941	7568
291.999	7703
292.056	10774
292.114	12500
292.171	7474
292.228	7945
292.286	10485
292.343	26810
292.401	42411
292.458	29483
292.515	16492
292.573	14572
292.630	14352
292.687	12019
292.745	8992
292.802	9161
292.859	19627
292.917	42937
292.974	34245
293.031	12076
293.089	8929
293.146	6683
293.203	5842
293.260	4748
293.318	4974
293.375	7863
293.432	5731
293.489	6756
293.546	5997
293.604	9391
293.661	23878
293.718	62685
293.775	41356
293.832	23418
293.889	13597
293.947	10454
294.004	7636
294.061	9150
294.118	18674
294.175	37570
294.232	35388
294.289	17744
294.346	12644
294.403	11973
294.460	11688
294.517	11662
294.574	8809
294.631	6652
294.688	8713
294.745	18963
294.802	64366
294.859	71145
294.916	31414
294.973	19489
295.030	23607
295.087	20541
295.144	12362
295.201	10413
295.258	9682
295.315	9408
295.372	29314
295.429	55087
295.486	30680
295.542	14311
295.599	21404
295.656	37164
295.713	31468
295.770	48383
295.827	22334
295.883	11695
295.940	11441
295.997	23657
296.054	26676
296.111	12607
296.167	8633
296.224	6524
296.281	8028
296.338	9358
296.394	7435
296.451	8307
296.508	20525
296.564	41509
296.621	32333
296.678	59562
296.734	91316
296.791	40746
296.848	22551
296.904	20909
296.961	47239
297.018	59760
297.074	43488
297.131	20900
297.187	14900
297.244	18932
297.301	44859
297.357	86035
297.414	38966
297.470	17009
297.527	12351
297.583	10708
297.640	13931
297.696	9394
297.753	9949
297.809	9161
297.866	5428
297.922	5790
297.979	6317
298.035	7888
298.092	14243
298.148	31602
298.204	37793
298.261	19332
298.317	26513
298.374	70770
298.430	50584
298.486	25353
298.543	18479
298.599	18800
298.656	24136
298.712	28051
298.768	42366
298.824	24743
298.881	15254
298.937	9732
298.993	8403
299.050	14611
299.106	13472
299.162	11016
299.218	13996
299.275	9233
299.331	8935
299.387	16482
299.443	57827
299.500	66428
299.556	27727
299.612	15500
299.668	16176
299.724	12807
299.780	10683
299.837	9421
299.893	15655
299.949	48269
300.005	61692
300.061	55736
300.117	84759
300.173	48307
300.229	22976
300.285	28606
300.341	37974
300.397	19410
300.453	13663
300.510	12682
300.566	12745
300.622	10877
300.678	19124
300.734	45994
300.790	52375
300.845	61140
300.901	39644
300.957	51953
301.013	46519
301.069	19806
301.125	15206
301.181	19035
301.237	14503
301.293	9926
301.349	9806
301.405	11154
301.461	14674
301.516	22960
301.572	19411
301.628	29661
301.684	25693
301.740	29403
301.796	48225
301.851	34283
301.907	51468
301.963	49838
302.019	62328
302.074	144243
302.130	166228
302.186	99573
302.242	45367
302.297	25599
302.353	20587
302.409	36125
302.464	37755
302.520	30549
302.576	67927
302.631	83136
302.687	53798
302.743	24441
302.798	14115
302.854	10460
302.910	11537
302.965	14063
303.021	30038
303.076	32011
303.132	39409
303.187	48802
303.243	25589
303.299	12770
303.354	10914
303.410	9996
303.465	9990
303.521	8160
303.576	9434
303.632	9819
303.687	19216
303.743	55329
303.798	53946
303.853	24844
303.909	13767
303.964	12871
304.020	19327
304.075	33909
304.130	30438
304.186	56987
304.241	60828
304.297	50441
304.352	30140
304.358	28717
304.407	17166
304.449	14909
304.463	14162
304.518	16241
304.539	15641
304.573	14630
304.629	11259
304.630	11368
304.684	17273
304.720	35006
304.739	43689
304.794	68467
304.811	60200
304.850	39958
304.902	20706
304.905	19511
304.960	12455
304.992	10875
305.015	9783
305.071	10747
305.083	10845
305.126	10975
305.173	7281
305.181	6733
305.236	7373
305.264	8892
305.292	10803
305.347	20251
305.354	20917
305.402	23516
305.445	18235
305.457	17014
305.512	19169
305.535	20557
305.567	22546
305.622	24739
305.626	25166
305.678	35254
305.716	52846
305.733	58434
305.788	67552
305.807	59626
305.843	47746
305.897	61831
305.898	61941
305.953	62677
305.988	46007
306.008	37678
306.063	33774
306.078	31478
306.118	24072
306.168	13570
306.173	12792
306.228	9306
306.259	8096
306.283	7428
306.338	7945
306.349	8118
306.393	8683
306.440	9010
306.448	9125
306.503	9347
306.530	10257
306.558	15635
306.613	37263
306.620	40832
306.668	59839
306.711	73246
306.723	73610
306.778	57197
306.801	44990
306.833	32176
306.888	17692
306.892	16989
306.943	11989
306.982	10595
306.997	10014
307.052	7814
307.072	7425
307.107	8242
307.162	10222
307.163	10256
307.217	15140
307.253	17841
307.272	18286
307.327	20158
307.343	20051
307.381	19529
307.434	18693
307.436	19229
307.491	32068
307.524	46324
307.546	49018
307.600	52603
307.614	47693
307.655	30276
307.704	14475
307.710	14060
307.765	16830
307.795	20007
307.819	22256
307.874	31353
307.885	31302
307.929	23882
307.975	16656
307.984	16627
308.038	19342
308.065	21825
308.093	34820
308.148	69407
308.156	77861
308.202	121410
308.246	150634
308.257	148765
308.312	95046
308.336	76039
308.366	64079
308.421	47194
308.426	45124
308.475	26982
308.517	16369
308.530	14838
308.585	11728
308.607	11267
308.639	11890
308.694	13086
308.697	13268
308.748	25396
308.787	36812
308.803	35724
308.857	26375
308.877	21959
308.912	19513
308.967	18061
308.967	18046
309.021	22940
309.058	27177
309.076	35273
309.130	65434
309.148	76829
309.185	117573
309.238	184110
309.239	184618
309.293	200987
309.328	188809
309.348	164923
309.402	82455
309.418	61477
309.457	43407
309.508	27512
309.511	27001
309.566	22571
309.598	21141
309.620	23044
309.674	29596
309.688	31538
309.729	31462
309.778	29011
309.783	28815
309.837	26946
309.868	25667
309.892	39690
309.946	76745
309.959	87351
310.001	114837
310.049	139818
310.055	135004
310.109	77914
310.139	45549
310.163	39130
310.218	31514
310.229	30337
310.272	23299
310.319	14949
310.326	14323
310.381	11012
310.409	9608
310.435	9145
310.489	8657
310.499	8530
310.543	8932
310.589	9607
310.598	9689
310.652	10301
310.679	10505
310.706	9590
310.760	7446
310.769	7114
310.814	6859
310.859	6547
310.868	6788
310.923	8435
310.948	9182
310.977	12844
311.031	20487
311.038	21504
311.085	19226
311.128	15988
311.139	15358
311.193	12285
311.218	10893
311.247	9896
311.301	8081
311.308	7849
311.356	8874
311.398	9959
311.410	9685
311.464	8097
311.488	7378
311.518	8298
311.572	10110
311.578	10327
311.626	18815
311.668	26212
311.680	25330
311.734	20544
311.758	18430
311.788	20023
311.842	23056
311.847	23306
311.896	25898
311.937	28150
311.950	27850
312.004	26169
312.027	25362
312.058	21677
312.112	15012
312.117	14328
312.165	12362
312.207	10673
312.297	16832
312.386	13725
312.476	21310
312.566	51647
312.656	20445
312.745	8254
312.835	10678
312.925	15276
313.015	13501
313.104	11507
313.194	10102
313.284	12908
313.374	22148
313.463	16113
313.553	9871
313.643	9284
313.732	7490
313.822	7212
313.912	10041
314.001	14538
314.091	14273
314.180	20748
314.270	22757
314.360	23490
314.449	20821
314.539	10426
314.628	8330
314.718	12741
314.808	14189
314.897	8180
314.987	10331
315.076	18676
315.166	24560
315.255	18850
315.345	22921
315.434	17534
315.524	16079
315.613	22155
315.703	33207
315.792	26158
315.881	17443
315.971	17443
316.060	42919
316.150	46856
316.239	42851
316.328	14546
316.418	10377
316.507	12816
316.597	20422
316.686	15443
316.775	21377
316.865	38041
316.954	8938
317.043	7294
317.133	12720
317.222	9896
317.311	10563
317.400	10565
317.490	22823
317.579	26223
317.668	12507
317.757	21660
317.847	26744
317.936	41093
318.025	67493
318.114	29370
318.203	28544
318.293	67710
318.382	141267
318.471	85982
318.560	89258
318.649	80817
318.738	23185
318.828	31360
318.917	28117
319.006	23650
319.095	56931
319.184	117235
319.273	102019
319.362	66380
319.451	22189
319.540	20603
319.629	65916
319.718	101028
319.807	39323
319.896	56547
319.985	151439
320.074	75335
320.163	24085
320.252	42216
320.341	25693
320.430	27707
320.519	59512
320.608	29683
320.697	25273
320.786	25597
320.875	30956
320.964	46102
321.053	76761
321.142	116483
321.230	108071
321.319	69514
321.408	168946
321.497	56357
321.586	68312
321.675	57732
321.764	57546
321.852	39958
321.941	110877
322.030	59255
322.119	63970
322.207	166224
322.296	69016
322.385	34353
322.474	54026
322.562	193587
322.651	80674
322.740	73518
322.829	87717
322.917	71514
323.006	58870
323.095	50334
323.183	24731
323.272	40742
323.361	69723
323.449	125809
323.538	43222
323.626	101565
323.715	45451
323.804	27353
323.892	109943
323.981	75532
324.069	17692
324.158	48108
324.246	42081
324.335	35284
324.424	67990
324.512	20614
324.601	33381
324.689	65353
324.778	104104
324.866	50031
324.954	15652
325.043	19988
325.131	35873
325.220	43349
325.308	49313
325.397	48279
325.485	28112
325.574	9463
325.662	11898
325.750	20014
325.839	10354
325.927	10294
326.015	17009
326.104	20188
326.192	27353
326.280	13541
326.369	14812
326.457	29944
326.545	57265
326.634	18912
326.722	10974
326.810	15609
326.898	8733
326.987	12793
327.075	54318
327.163	43360
327.251	15329
327.340	40637
327.428	55847
327.516	10957
327.604	17835
327.692	12403
327.781	11983
327.869	22661
327.957	17913
328.045	21307
328.133	8737
328.221	13387
328.309	15914
328.397	13340
328.485	19168
328.574	26221
328.662	100324
328.750	40731
328.838	13801
328.926	9892
329.014	9633
329.102	22164
329.190	54488
329.278	37302
329.366	8477
329.454	6953
329.542	8548
329.630	6807
329.718	9406
329.806	19777
329.893	13394
329.981	9533
330.069	9196
330.157	30321
330.245	83035
330.333	40806
330.421	12429
330.509	29436
330.597	139480
330.684	75376
330.772	22062
330.860	26363
330.948	34102
331.036	16594
331.123	6630
331.211	7564
331.299	10327
331.387	30814
331.475	57228
331.562	15043
331.650	8021
331.738	11968
331.825	15205
331.913	9374
332.001	7849
332.089	12006
332.176	24360
332.264	53519
332.352	44678
332.439	20450
332.527	12938
332.614	9752
332.702	12802
332.790	9624
332.877	32122
332.965	46141
333.052	10559
333.140	12811
333.228	19775
333.315	6771
333.403	11104
333.490	31629
333.578	25467
333.665	17525
333.753	14274
333.840	9490
333.928	13495
334.015	33258
334.103	40354
334.190	115111
334.278	28534
334.365	13767
334.452	9477
334.540	7093
334.627	11260
334.715	14829
334.802	26456
334.889	129646
334.977	102057
335.064	12534
335.151	11508
335.239	10841
335.326	14087
335.413	57983
335.501	75244
335.588	15964
335.675	11299
335.762	13852
335.850	24402
335.937	11955
336.024	29490
336.111	132627
336.199	49428
336.286	10432
336.373	6516
336.460	5422
336.547	8263
336.635	14755
336.722	14127
336.809	9925
336.896	19436
336.983	55293
337.070	112496
337.157	114443
337.245	86391
337.332	52704
337.419	9901
337.506	7990
337.593	11284
337.680	35457
337.767	101442
337.854	39539
337.941	47574
338.028	54116
338.115	15069
338.202	19673
338.289	32195
338.376	106555
338.463	33987
338.550	61782
338.637	54935
338.724	25181
338.811	35997
338.898	9633
338.984	9123
339.071	12372
339.158	19796
339.245	67937
339.332	31706
339.419	32756
339.506	28390
339.593	7373
339.679	13056
339.766	12224
339.853	19597
339.940	49681
340.027	15528
340.113	19286
340.200	28661
340.287	15497
340.374	27198
340.460	47852
340.547	18004
340.634	32839
340.720	104837
340.807	51771
340.894	11696
340.980	14002
341.067	13021
341.154	15751
341.240	27808
341.327	61637
341.414	16887
341.500	18710
341.587	14558
341.674	12461
341.760	47666
341.847	57862
341.933	15158
342.020	6026
342.106	7008
342.193	18308
342.279	38724
342.366	26890
342.452	48203
342.539	24198
342.625	61545
342.712	118800
342.798	53087
342.885	22606
342.971	6834
343.058	6272
343.144	9582
343.230	9881
343.317	12474
343.403	9707
343.490	6407
343.576	6167
343.662	11792
343.749	14023
343.835	16315
343.921	26727
344.008	146174
344.094	290945
344.180	69830
344.267	36339
344.353	89115
344.439	92109
344.525	63633
344.612	21930
344.698	23689
344.784	16236
344.870	9592
344.957	12848
345.043	27818
345.129	21684
345.215	49906
345.301	25306
345.387	14830
345.474	6298
345.560	7527
345.646	10541
345.732	10602
345.818	16546
345.904	14227
345.990	17463
346.076	12209
346.162	22332
346.249	13028
346.335	8636
346.421	8766
346.507	35774
346.593	114494
346.679	30460
346.765	12026
346.851	12630
346.937	13708
347.023	10147
347.108	18636
347.194	12941
347.280	11504
347.366	14565
347.452	37593
347.538	142540
347.624	111350
347.710	88416
347.796	15964
347.882	11514
347.967	8271
348.053	13854
348.139	10745
348.225	9300
348.311	11724
348.397	8359
348.482	18162
348.568	21227
348.654	7158
348.740	5611
348.825	6898
348.911	20316
348.997	73020
349.083	125242
349.168	22015
349.254	11590
349.340	12900
349.425	8911
349.511	20363
349.597	18652
349.682	42574
349.768	102163
349.854	42359
349.939	10097
350.025	9691
350.110	10236
350.196	8432
350.282	6787
350.367	6710
350.453	16912
350.538	18449
350.624	22098
350.709	17729
350.795	10347
350.880	12935
350.966	13593
351.051	18569
351.137	11451
351.222	12496
351.308	37627
351.393	93325
351.479	24043
351.564	10725
351.649	13365
351.735	10271
351.820	8388
351.906	10638
351.991	14026
352.076	60379
352.162	89115
352.247	23232
352.332	19175
352.418	37324
352.503	39807
352.588	167373
352.673	151921
352.759	38853
352.844	19743
352.929	25256
353.014	36405
353.100	17269
353.185	19793
353.270	60124
353.355	64446
353.441	15434
353.526	16213
353.611	54248
353.696	64620
353.781	35591
353.866	15188
353.952	16153
354.037	56436
354.122	125690
354.207	111911
354.292	37225
354.377	15952
354.462	14380
354.547	27630
354.632	17602
354.717	18265
354.802	19197
354.887	10093
354.972	8802
355.057	8112
355.142	8219
355.227	17108
355.312	34787
355.397	79404
355.482	181370
355.567	79985
355.652	64212
355.737	58081
355.822	102801
355.907	80554
355.991	18368
356.076	12561
356.161	10631
356.246	9667
356.331	11347
356.416	26990
356.501	154538
356.585	157584
356.670	33181
356.755	22386
356.840	31993
356.924	126718
357.009	389224
357.094	165945
357.179	59293
357.263	36630
357.348	38988
357.433	40513
357.517	37988
357.602	26406
357.687	18576
357.771	30357
357.856	102829
357.941	59071
358.025	103405
358.110	361514
358.195	192302
358.279	43918
358.364	33513
358.448	112892
358.533	242425
358.617	178707
358.702	156607
358.787	72416
358.871	60540
358.956	49081
359.040	14165
359.125	11777
359.209	15243
359.294	53557
359.378	89556
359.462	48599
359.547	24071
359.631	13988
359.716	11143
359.800	11728
359.885	21836
359.969	17562
360.053	10781
360.138	11488
360.222	27911
360.306	55263
360.391	38745
360.475	75253
360.559	155823
360.644	104272
360.728	65923
360.812	92049
360.896	223111
360.981	136318
361.065	86348
361.149	23795
361.233	27719
361.318	19945
361.402	20618
361.486	20157
361.570	15054
361.654	23392
361.739	58846
361.823	180934
361.907	224469
361.991	48009
362.075	39073
362.159	98929
362.243	62111
362.327	41127
362.411	29298
362.495	26216
362.580	16314
362.664	10417
362.748	8529
362.832	10498
362.916	11229
363.000	36393
363.084	153821
363.168	257974
363.252	81697
363.336	33923
363.420	47073
363.503	95745
363.587	97621
363.671	32087
363.755	31167
363.839	47888
363.923	19559
364.007	48347
364.091	46160
364.175	32379
364.258	114269
364.342	70906
364.426	45205
364.510	34462
364.594	39747
364.677	50615
364.761	194754
364.845	140673
364.929	87489
365.013	76104
365.096	55684
365.180	60683
365.264	37773
365.347	116923
365.431	58760
365.515	28415
365.598	22208
365.682	15882
365.766	25136
365.849	29403
365.933	22638
366.017	23561
366.100	16178
366.184	7943
366.267	12730
366.351	15132
366.435	12751
366.518	9433
366.602	9558
366.685	14459
366.769	20746
366.852	28413
366.936	57863
367.019	35771
367.103	20543
367.186	32174
367.270	13577
367.353	11227
367.436	12657
367.520	11885
367.603	23253
367.687	36540
367.770	63976
367.853	28768
367.937	66119
368.020	107884
368.104	37223
368.187	49981
368.270	75018
368.353	61158
368.437	55990
368.520	82041
368.603	79681
368.687	90868
368.770	158272
368.853	57664
368.936	61038
369.020	58348
369.103	26542
369.186	25065
369.269	29105
369.352	44947
369.436	66326
369.519	45684
369.602	32809
369.685	20356
369.768	24847
369.851	16735
369.934	10903
370.018	20479
370.101	61026
370.184	38580
370.267	29919
370.350	77122
370.433	96655
370.516	137457
370.599	117333
370.682	54566
370.765	123696
370.848	118809
370.931	160712
371.014	63816
371.097	19089
371.180	14902
371.263	7645
371.346	5552
371.429	8502
371.511	11941
371.594	33815
371.677	47741
371.760	37577
371.843	37835
371.926	149981
372.009	308962
372.091	115682
372.174	79075
372.257	141645
372.340	57403
372.423	60185
372.505	60370
372.588	26337
372.671	70811
372.754	172982
372.836	81889
372.919	48730
373.002	89993
373.085	42005
373.167	40110
373.250	95038
373.332	158283
373.415	215127
373.498	405094
373.580	177068
373.663	185559
373.746	249534
373.828	83748
373.911	40143
373.993	37349
374.076	83357
374.159	76026
374.241	54120
374.324	155782
374.406	107542
374.489	123643
374.571	312692
374.654	141365
374.736	77549
374.819	203052
374.901	297878
374.983	285507
375.066	60617
375.148	23157
375.231	63245
375.313	123229
375.395	62727
375.478	17651
375.560	13424
375.643	21685
375.725	72030
375.807	236434
375.890	184873
375.972	86936
376.054	61545
376.136	64348
376.219	32316
376.301	72620
376.383	195918
376.465	87714
376.548	80906
376.630	77437
376.712	171387
376.794	82411
376.877	14465
376.959	11446
377.041	17220
377.123	24711
377.205	27022
377.287	7543
377.369	8377
377.452	11651
377.534	11747
377.616	12827
377.698	14390
377.780	11707
377.862	18989
377.944	15940
378.026	7644
378.108	8628
378.190	9948
378.272	8127
378.354	5052
378.436	5056
378.518	19359
378.600	71580
378.682	63818
378.764	105720
378.846	79941
378.928	34627
379.010	61304
379.091	32270
379.173	13094
379.255	11214
379.337	22362
379.419	63135
379.501	146751
379.583	58273
379.664	20140
379.746	58121
379.828	120137
379.910	146204
379.991	119900
380.073	23622
380.155	21516
380.237	16987
380.318	15494
380.400	18161
380.482	37526
380.564	58008
380.645	50707
380.727	53304
380.809	36662
380.890	27140
380.972	15055
381.053	12761
381.135	15896
381.217	42662
381.298	125671
381.380	73362
381.461	54881
381.543	180511
381.624	213512
381.706	50107
381.787	40999
381.869	43354
381.951	96056
382.032	305728
382.113	223320
382.195	71172
382.276	41045
382.358	68549
382.439	169722
382.521	183195
382.602	260420
382.684	128248
382.765	213691
382.846	187290
382.928	115676
383.009	57660
383.090	43162
383.172	133661
383.253	203569
383.334	121577
383.416	203722
383.497	103719
383.578	33346
383.659	50019
383.741	124927
383.822	297106
383.903	177486
383.984	142273
384.066	310355
384.147	194544
384.228	38754
384.309	39099
384.390	28693
384.471	21209
384.553	24334
384.634	41277
384.715	45322
384.796	16036
384.877	19774
384.958	90510
385.039	123985
385.120	55432
385.201	22581
385.282	29419
385.363	23869
385.444	22678
385.525	72088
385.606	167783
385.687	109205
385.768	29171
385.849	45019
385.930	166601
386.011	252281
386.092	77099
386.173	23133
386.254	14860
386.335	18333
386.416	27865
386.496	85777
386.577	113767
386.658	44567
386.739	35777
386.820	26537
386.901	18295
386.981	18021
387.062	12443
387.143	29457
387.224	103204
387.304	97781
387.385	45345
387.466	38515
387.547	52198
387.627	34888
387.708	40249
387.789	167364
387.869	201907
387.950	55850
388.031	10546
388.111	11250
388.192	33911
388.273	51547
388.353	33975
388.434	22398
388.514	42975
388.595	152620
388.676	205891
388.756	115892
388.837	121723
388.917	79754
388.998	21414
389.078	19662
389.159	15543
389.239	19267
389.320	36230
389.400	29037
389.480	39989
389.561	100514
389.641	50860
389.722	30541
389.802	57741
389.883	53395
389.963	109952
390.043	75535
390.124	31586
390.204	65807
390.284	143211
390.365	83295
390.445	61002
390.525	83469
390.605	81210
390.686	63965
390.766	21943
390.846	14931
390.927	13922
391.007	18691
391.087	15679
391.167	10536
391.247	8487
391.328	19286
391.408	29128
391.488	19434
391.568	7636
391.648	22953
391.728	35726
391.808	32492
391.888	39038
391.969	59675
392.049	93601
392.129	39655
392.209	44644
392.289	107426
392.369	57620
392.449	44245
392.529	34627
392.609	30631
392.689	29766
392.769	99140
392.849	84935
392.929	53812
393.009	131957
393.089	87769
393.169	29631
393.248	67775
393.328	256313
393.408	274803
393.488	66397
393.568	28362
393.648	17604
393.728	12489
393.807	8990
393.887	8043
393.967	7128
394.047	15547
394.127	21064
394.206	24509
394.286	64426
394.366	239051
394.446	260094
394.525	63899
394.605	17813
394.685	24426
394.764	64206
394.844	101746
394.924	68524
395.003	30420
395.083	22347
395.163	18158
395.242	17851
395.322	17191
395.402	7390
395.481	12932
395.561	42763
395.640	122591
395.720	86924
395.799	88813
395.879	67010
395.958	27325
396.038	84152
396.117	309295
396.197	344354
396.276	121913
396.356	53335
396.435	43046
396.515	27040
396.594	38851
396.673	53165
396.753	92344
396.832	258976
396.912	268986
396.991	104060
397.070	27966
397.150	18965
397.229	10087
397.308	7459
397.388	12945
397.467	8637
397.546	6746
397.625	9116
397.705	21771
397.784	26560
397.863	10779
397.942	5160
398.022	6229
398.101	28587
398.180	85574
398.259	49416
398.338	18692
398.417	18762
398.497	11618
398.576	11224
398.655	7253
398.734	4401
398.813	5418
398.892	25616
398.971	86831
399.050	49668
399.129	9904
399.208	6555
399.287	9281
399.366	6542
399.445	6488
399.524	6747
399.603	8387
399.682	25070
399.761	57849
399.840	102895
399.919	71704
399.998	11294
400.077	5375
400.156	6275
400.235	9348
400.313	6955
400.392	13831
400.471	66596
400.550	106902
400.629	31066
400.708	15932
400.786	11525
400.865	29972
400.944	39767
401.023	21765
401.102	4431
401.180	4735
401.259	4707
401.338	10299
401.416	18767
401.495	16428
401.574	9255
401.652	8940
401.731	14846
401.810	9754
401.888	4778
401.967	2120
402.046	4347
402.124	12958
402.203	22827
402.281	9991
402.360	9736
402.438	35756
402.517	27924
402.596	9606
402.674	7436
402.753	4712
402.831	3786
402.910	7180
402.988	27803
403.066	76234
403.145	43743
403.223	27809
403.302	56869
403.380	40079
403.459	38357
403.537	17525
403.615	7903
403.694	2150
403.772	3098
403.850	3592
403.929	2894
404.007	5838
404.085	11129
404.164	10495
404.242	5084
404.320	9240
404.398	23205
404.477	59798
404.555	211899
404.633	188310
404.711	33622
404.789	10174
404.868	6346
404.946	5022
405.024	3078
405.102	6236
405.180	5895
405.258	4932
405.336	5725
405.415	6145
405.493	15658
405.571	11889
405.649	4263
405.727	6132
405.805	10650
405.883	8261
405.961	8729
406.039	12313
406.117	6497
406.195	16282
406.273	64304
406.351	189713
406.429	115159
406.507	22461
406.585	9557
406.663	13590
406.740	23303
406.818	20486
406.896	7976
406.974	8004
407.052	22718
407.130	118730
407.208	159267
407.285	33498
407.363	8979
407.441	11250
407.519	9396
407.596	11928
407.674	25226
407.752	40061
407.830	46283
407.907	23109
407.985	9668
408.063	6702
408.141	3492
408.218	9819
408.296	10769
408.373	8425
408.451	15775
408.529	16169
408.606	5295
408.684	3129
408.762	1809
408.839	1936
408.917	2650
408.994	6688
409.072	11914
409.149	7325
409.227	18857
409.304	23441
409.382	5627
409.459	4227
409.537	12086
409.614	11709
409.692	4830
409.769	6085
409.846	9766
409.924	22731
410.001	32322
410.079	13721
410.156	7739
410.233	8204
410.311	4237
410.388	6798
410.465	23969
410.543	31047
410.620	9552
410.697	12081
410.775	15703
410.852	6627
410.929	21886
411.006	34715
411.083	21163
411.161	67990
411.238	58422
411.315	15260
411.392	10206
411.469	32967
411.547	44324
411.624	25135
411.701	17832
411.778	13833
411.855	35277
411.932	19176
412.009	8163
412.086	7403
412.163	9870
412.240	12892
412.317	24477
412.394	24620
412.471	5177
412.548	5791
412.625	7698
412.702	14384
412.779	39709
412.856	29284
412.933	4972
413.010	4473
413.087	14031
413.164	82835
413.241	111623
413.318	31023
413.395	27372
413.471	49437
413.548	16295
413.625	8074
413.702	12251
413.779	8262
413.855	1779
413.932	2739
414.009	2477
414.086	2218
414.162	3798
414.239	12792
414.316	69247
414.393	136679
414.469	46427
414.546	5388
414.623	2969
414.699	6270
414.776	11726
414.853	6349
414.929	6789
415.006	6246
415.082	7452
415.159	6618
415.236	5525
415.312	8320
415.389	24351
415.465	36049
415.542	15702
415.618	10956
415.695	21242
415.771	14995
415.848	11970
415.924	9331
416.000	5886
416.077	4381
416.153	1754
416.230	499
416.306	1437
416.383	2335
416.459	1913
416.535	1054
416.612	1040
416.688	830
416.764	2468
416.841	3265
416.917	3502
416.993	4154
417.069	8542
417.146	14072
417.222	17679
417.298	12289
417.374	5922
417.451	8867
417.527	16209
417.603	18291
417.679	11616
417.755	7907
417.831	4590
417.908	3757
417.984	3915
418.060	4855
418.136	26189
418.212	38191
418.288	12372
418.364	4807
418.440	7641
418.516	15703
418.592	16817
418.668	44270
418.744	74312
418.820	51552
418.896	10584
418.972	5109
419.048	9131
419.124	32192
419.200	25539
419.276	5327
419.352	610
419.428	3208
419.504	9484
419.579	14625
419.655	9989
419.731	11431
419.807	47159
419.883	79526
419.959	46826
420.034	11346
420.110	23079
420.186	82593
420.262	63675
420.337	12803
420.413	13220
420.489	4553
420.565	4099
420.640	4881
420.716	6622
420.792	3008
420.867	5187
420.943	6714
421.019	20409
421.094	14489
421.170	2852
421.245	1771
421.321	3926
421.397	5147
421.472	8127
421.548	21933
421.623	23026
421.699	10181
421.774	10066
421.850	8799
421.925	21132
422.001	15950
422.076	6764
422.152	8432
422.227	20905
422.302	14263
422.378	14196
422.453	23013
422.529	41383
422.604	124186
422.679	245396
422.755	171216
422.830	50811
422.905	13602
422.981	7928
423.056	5061
423.131	4123
423.207	6751
423.282	16172
423.357	40874
423.432	25456
423.508	20417
423.583	64746
423.658	47284
423.733	10484
423.808	14052
423.883	19916
423.959	15021
424.034	7679
424.109	3784
424.184	1275
424.259	2542
424.334	2222
424.409	1501
424.484	5122
424.559	6656
424.634	4707
424.709	12590
424.784	17624
424.859	8213
424.934	20448
425.009	84403
425.084	115422
425.159	38681
425.234	5107
425.309	5710
425.384	34592
425.459	62450
425.534	16797
425.609	5601
425.683	3426
425.758	3474
425.833	5595
425.908	10761
425.983	50873
426.058	132878
426.132	56259
426.207	9560
426.282	12293
426.357	10752
426.431	4195
426.506	3816
426.581	3999
426.655	4853
426.730	5340
426.805	7557
426.879	11109
426.954	8200
427.029	22126
427.103	106955
427.178	193212
427.253	75995
427.327	12101
427.402	22919
427.476	66055
427.551	33651
427.625	9084
427.700	9389
427.774	4413
427.849	5559
427.923	2664
427.998	3371
428.072	3450
428.147	13141
428.221	43952
428.296	64316
428.370	24247
428.444	8662
428.519	14633
428.593	29026
428.667	23256
428.742	28044
428.816	23121
428.890	53009
428.965	91167
429.039	49795
429.113	34711
429.188	16126
429.262	5802
429.336	18076
429.410	60941
429.485	36197
429.559	24810
429.633	18854
429.707	6102
429.781	18481
429.855	72702
429.930	115920
430.004	80861
430.078	106708
430.152	75378
430.226	57213
430.300	54263
430.374	9137
430.448	7430
430.522	33243
430.596	93354
430.670	57044
430.744	106097
430.818	167309
430.892	44312
430.966	11515
431.040	5640
431.114	1891
431.188	2383
431.262	2437
431.336	2760
431.410	14275
431.484	46655
431.557	34744
431.631	3797
431.705	2728
431.779	7423
431.853	33290
431.927	25012
432.000	3577
432.074	2768
432.148	5588
432.222	5234
432.295	2728
432.369	2391
432.443	10891
432.516	70189
432.590	164800
432.664	64466
432.737	10263
432.811	1853
432.885	1637
432.958	4350
433.032	5726
433.106	1885
433.179	1792
433.253	5449
433.326	5685
433.400	1982
433.473	1433
433.547	1167
433.620	4484
433.694	19373
433.767	16494
433.841	3628
433.914	3082
433.988	4562
434.061	7609
434.134	8188
434.208	2603
434.281	1752
434.355	2982
434.428	5762
434.501	5043
434.575	1792
434.648	2339
434.721	1343
434.795	1086
434.868	1030
434.941	398
435.014	491
435.088	4044
435.161	10257
435.234	20372
435.307	26575
435.381	6893
435.454	2063
435.527	2451
435.600	2173
435.673	2651
435.746	627
435.819	1859
435.892	1634
435.966	2612
436.039	2428
436.112	2007
436.185	795
436.258	551
436.331	413
436.404	1766
436.477	454
436.550	243
436.623	608
436.696	2098
436.769	6514
436.842	5623
436.915	4980
436.987	10322
437.060	4630
437.133	1826
437.206	1335
437.279	2778
437.352	2747
437.425	2254
437.498	4998
437.570	20143
437.643	20120
437.716	4443
437.789	5126
437.861	32093
437.934	95629
438.007	38483
438.080	5080
438.152	5330
438.225	15439
438.298	92286
438.370	227942
438.443	139373
438.516	74015
438.588	13970
438.661	3152
438.734	3746
438.806	7642
438.879	10694
438.951	27762
439.024	54641
439.096	15003
439.169	3682
439.241	2683
439.314	2719
439.386	6810
439.459	17737
439.531	43135
439.604	16345
439.676	2132
439.749	1601
439.821	1541
439.893	2110
439.966	4447
440.038	16084
440.110	17222
440.183	5828
440.255	2414
440.327	6971
440.400	42565
440.472	156522
440.544	104511
440.617	25247
440.689	39416
440.761	61344
440.833	97505
440.905	53954
440.978	6713
441.050	1794
441.122	2101
441.194	2437
441.266	2336
441.338	2228
441.411	10487
441.483	67436
441.555	97735
441.627	25571
441.699	13909
441.771	9547
441.843	2219
441.915	1939
441.987	2000
442.059	2048
442.131	7951
442.203	14346
442.275	13431
442.347	7663
442.419	4957
442.491	15596
442.563	36510
442.635	30313
442.706	44264
442.778	39746
442.850	8205
442.922	4303
442.994	7441
443.066	14362
443.137	8006
443.209	2728
443.281	5822
443.353	11196
443.425	25259
443.496	65670
443.568	64708
443.640	28423
443.711	9743
443.783	12150
443.855	7310
443.926	2072
443.998	3952
444.070	7543
444.141	12654
444.213	25674
444.285	24753
444.356	18144
444.428	16625
444.499	6497
444.571	2028
444.642	1847
444.714	6474
444.785	16817
444.857	14259
444.928	25604
445.000	14080
445.071	17158
445.143	20207
445.214	14614
445.285	16076
445.357	40098
445.428	61908
445.500	126767
445.571	88325
445.642	37691
445.714	30865
445.785	44650
445.856	16605
445.928	28780
445.999	40516
446.070	34312
446.141	18623
446.213	23122
446.284	11114
446.355	8037
446.426	4335
446.497	4164
446.569	9802
446.640	23141
446.711	21058
446.782	5362
446.853	7941
446.924	10925
446.995	11335
447.066	7211
447.138	10446
447.209	5343
447.280	1171
447.351	1253
447.422	3273
447.493	7945
447.564	12819
447.635	22825
447.706	7480
447.777	1382
447.847	13
447.918	1994
447.989	6158
448.060	8998
448.131	19760
448.202	25782
448.273	22643
448.344	7054
448.414	4523
448.485	4729
448.556	2588
448.627	1742
448.698	1384
448.768	1510
448.839	4441
448.910	13581
448.981	11853
449.051	5810
449.122	3077
449.193	2110
449.263	1246
449.334	2145
449.405	8263
449.475	28054
449.546	16167
449.616	12813
449.687	11071
449.758	4294
449.828	1776
449.899	1666
449.969	534
450.040	1596
450.110	3833
450.181	5123
450.251	2588
450.322	1710
450.392	2608
450.463	1155
450.533	1020
450.604	1883
450.674	1911
450.744	2357
450.815	1037
450.885	1018
450.955	1858
451.026	1466
451.096	1999
451.166	3740
451.237	11722
451.307	28629
451.377	11366
451.447	3153
451.518	2131
451.588	1740
451.658	2448
451.728	6191
451.799	30917
451.869	33101
451.939	7404
452.009	2681
452.079	2017
452.149	2457
452.219	7965
452.289	35537
452.360	24339
452.430	6071
452.500	7426
452.570	9839
452.640	7816
452.710	20566
452.780	34801
452.850	44332
452.920	48491
452.990	13389
453.060	7337
453.129	14696
453.199	13492
453.269	32512
453.339	67215
453.409	101975
453.479	105060
453.549	160928
453.619	174161
453.688	67079
453.758	8463
453.828	3708
453.898	2989
453.968	3702
454.037	3002
454.087	3200
454.107	3263
454.168	1853
454.177	1628
454.247	1525
454.249	1570
454.316	1999
454.330	2419
454.386	3829
454.411	9291
454.456	18138
454.492	23905
454.525	28992
454.574	17344
454.595	12340
454.655	5620
454.665	4547
454.734	5602
454.736	5853
454.804	12220
454.817	16434
454.873	33144
454.898	34574
454.943	37113
454.979	25110
455.013	14478
455.060	8873
455.082	6576
455.141	8150
455.152	8323
455.221	24141
455.222	24521
455.291	45914
455.303	44391
455.360	36787
455.384	48495
455.430	67966
455.465	56336
455.499	46047
455.546	37924
455.569	33571
455.627	23786
455.638	22119
455.707	6307
455.708	6319
455.777	3630
455.789	3607
455.846	3776
455.869	3804
455.916	4071
455.950	4277
455.985	4255
456.031	5671
456.054	6093
456.112	6174
456.124	6194
456.193	3565
456.193	3536
456.262	3408
456.274	3737
456.332	5527
456.355	5945
456.401	6196
456.436	5491
456.470	4860
456.516	4283
456.540	3934
456.597	3485
456.609	3417
456.678	2899
456.678	2875
456.747	2143
456.759	2012
456.817	1726
456.840	2323
456.886	3276
456.920	2995
456.955	2948
457.001	3898
457.024	4378
457.082	5328
457.093	5504
457.162	9048
457.163	9090
457.232	9537
457.243	8796
457.301	5808
457.324	4649
457.370	2949
457.405	3415
457.439	3998
457.485	4234
457.508	4622
457.566	5743
457.577	6146
457.646	9690
457.647	9809
457.715	16484
457.727	17064
457.784	14545
457.808	12613
457.853	13038
457.889	15667
457.922	17904
457.969	19596
457.991	19995
458.050	25294
458.060	24965
458.129	17785
458.130	17695
458.198	14033
458.211	12733
458.267	9027
458.292	7741
458.336	6431
458.372	6522
458.405	7939
458.453	10921
458.474	13321
458.533	21848
458.543	23124
458.611	39306
458.614	39886
458.680	31235
458.694	25713
458.749	12862
458.775	9167
458.818	5453
458.855	5138
458.887	5256
458.936	5348
458.955	5439
459.016	6114
459.024	6398
459.093	9358
459.097	9545
459.162	11695
459.177	12268
459.230	18133
459.257	21785
459.299	25840
459.338	28528
459.368	30093
459.418	38413
459.437	35607
459.499	14897
459.505	14339
459.574	8552
459.579	8462
459.643	7017
459.659	6738
459.711	7163
459.740	7503
459.780	7675
459.820	8682
459.849	8921
459.900	8252
459.917	8487
459.981	9250
459.986	9274
460.054	10886
460.061	10946
460.123	11965
460.141	12461
460.191	16479
460.222	19421
460.260	20872
460.302	24270
460.328	21541
460.382	11110
460.397	10795
460.462	8698
460.465	8773
460.534	14302
460.543	15039
460.602	29063
460.623	34664
460.671	50620
460.703	66101
460.739	58353
460.783	43827
460.808	39908
460.864	14426
460.876	11745
460.944	8839
460.945	8812
461.013	10850
461.024	11128
461.081	13221
461.104	14837
461.150	14142
461.184	12347
461.218	11583
461.264	10086
461.286	9828
461.345	10301
461.355	10093
461.423	8776
461.425	8712
461.491	9706
461.505	10295
461.559	18071
461.585	21610
461.628	27399
461.665	34261
461.696	35633
461.745	42259
461.764	40740
461.825	20495
461.832	20116
461.901	17774
461.905	18110
461.969	16089
461.985	15114
462.037	11661
462.065	9561
462.105	10168
462.145	11444
462.173	14350
462.225	20073
462.241	21425
462.305	30443
462.310	29986
462.378	20887
462.385	19014
462.446	15386
462.465	15550
462.514	14521
462.545	14334
462.582	13439
462.625	12305
462.650	11130
462.705	7998
462.718	8295
462.785	9983
462.786	10028
462.854	12803
462.865	13493
462.922	17511
462.945	19057
462.990	16020
463.025	12036
463.058	10564
463.104	8916
463.126	8856
463.184	9729
463.194	10221
463.262	13699
463.264	13832
463.330	11871
463.344	11193
463.398	11990
463.424	12564
463.466	13036
463.504	13701
463.533	13944
463.583	13796
463.601	14282
463.663	15760
463.669	16353
463.737	23894
463.743	24637
463.805	28917
463.823	29854
463.873	37116
463.903	42145
463.940	42479
463.982	44623
464.008	38526
464.062	19359
464.076	18103
464.142	11359
464.144	11283
464.211	11449
464.221	11597
464.279	13790
464.301	14553
464.347	15018
464.381	15527
464.414	17787
464.461	20715
464.482	22867
464.540	29246
464.550	30023
464.617	34787
464.620	34897
464.685	28434
464.699	26903
464.753	23701
464.779	22273
464.820	20241
464.859	17827
464.888	17250
464.938	16657
464.956	17184
465.018	19406
465.023	19549
465.091	20657
465.098	20728
465.158	21625
465.177	21995
465.226	19623
465.257	18012
465.293	19883
465.336	21802
465.361	25431
465.416	33819
465.428	34120
465.495	36337
465.496	36425
465.563	41824
465.575	42865
465.631	46758
465.654	48921
465.698	32385
465.734	16404
465.765	15058
465.813	13401
465.833	12836
465.893	12511
465.900	12559
465.968	12803
465.972	12798
466.035	12769
466.052	12735
466.102	13903
466.131	14561
466.170	14529
466.210	14379
466.237	14559
466.290	14927
466.304	15182
466.369	16083
466.372	16140
466.439	17073
466.449	17179
466.506	20580
466.528	21858
466.573	32720
466.607	40744
466.641	55022
466.687	74916
466.708	79593
466.766	92841
466.775	86676
466.842	38604
466.845	36253
466.909	27480
466.925	25564
466.977	23813
467.004	22951
467.044	22431
467.083	21895
467.111	22157
467.163	22487
467.178	23351
467.242	26829
467.245	26857
467.312	26461
467.321	26366
467.379	23432
467.400	22292
467.446	22947
467.480	23354
467.559	21289
467.638	19398
467.717	23518
467.796	33123
467.875	42825
467.955	25958
468.034	37076
468.113	66452
468.192	86185
468.271	21669
468.350	18700
468.429	17997
468.508	17376
468.588	16605
468.667	19557
468.746	18692
468.825	18984
468.904	18720
468.983	25180
469.062	35543
469.141	40834
469.220	18369
469.299	18997
469.378	18042
469.456	21273
469.535	19173
469.614	19170
469.693	20837
469.772	27262
469.851	36278
469.930	24008
470.009	20880
470.088	19045
470.166	18079
470.245	19956
470.324	20776
470.403	21187
470.482	23893
470.560	26410
470.639	37388
470.718	45229
470.797	25630
470.875	29569
470.954	35554
471.033	38187
471.111	17235
471.190	15687
471.269	15319
471.347	18383
471.426	19751
471.505	20076
471.583	20483
471.662	19412
471.740	19427
471.819	19244
471.898	16464
471.976	17085
472.055	18260
472.133	20757
472.212	24390
472.290	25131
472.369	15642
472.447	15953
472.526	15333
472.604	19018
472.683	22250
472.761	26088
472.839	23681
472.918	21190
472.996	20053
473.075	21989
473.153	19881
473.231	19876
473.310	25695
473.388	23448
473.466	20952
473.545	34876
473.623	57459
473.701	50919
473.780	19003
473.858	15252
473.936	18526
474.014	19152
474.093	23142
474.171	31332
474.249	34695
474.327	21569
474.405	16198
474.484	19900
474.562	21732
474.640	20723
474.718	19298
474.796	19667
474.874	18490
474.952	16292
475.030	17683
475.108	20404
475.187	18483
475.265	18516
475.343	23100
475.421	23344
475.499	16886
475.577	21356
475.655	26840
475.733	45798
475.811	63527
475.889	56285
475.966	33126
476.044	17006
476.122	18667
476.200	22272
476.278	19168
476.356	17364
476.434	18873
476.512	21314
476.590	26494
476.667	24955
476.745	18331
476.823	22189
476.901	17208
476.979	17582
477.056	17389
477.134	20126
477.212	21715
477.290	21889
477.367	15387
477.445	16645
477.523	18588
477.601	25350
477.678	19359
477.756	19256
477.834	19213
477.911	16195
477.989	15195
478.066	15400
478.144	17270
478.222	19075
478.299	24837
478.377	21529
478.454	17312
478.532	19720
478.609	29916
478.687	29322
478.764	18369
478.842	25377
478.919	32352
478.997	22333
479.074	15224
479.152	19297
479.229	21666
479.307	14728
479.384	13127
479.461	14817
479.539	17374
479.616	24481
479.694	25082
479.771	19464
479.848	20048
479.926	26077
480.003	27468
480.080	18208
480.157	15534
480.235	15818
480.312	16750
480.389	18075
480.467	25628
480.544	30012
480.621	20715
480.698	29437
480.775	29468
480.853	20036
480.930	16346
481.007	17409
481.084	18537
481.161	20390
481.238	18005
481.315	15157
481.392	14410
481.470	14923
481.547	14732
481.624	15182
481.701	14483
481.778	15769
481.855	17622
481.932	25155
482.009	37035
482.086	23970
482.163	15197
482.240	20695
482.317	28663
482.393	20258
482.470	16249
482.547	17878
482.624	20754
482.701	33772
482.778	25202
482.855	15929
482.932	15843
483.009	19955
483.085	35511
483.162	53573
483.239	38710
483.316	16659
483.393	14845
483.469	16514
483.546	19113
483.623	19291
483.699	15147
483.776	17549
483.853	21509
483.930	31857
484.006	58594
484.083	86830
484.160	38339
484.236	49306
484.313	39959
484.389	31296
484.466	27783
484.543	27302
484.619	26874
484.696	29256
484.772	32093
484.849	35301
484.925	28034
485.002	34909
485.078	60113
485.155	67073
485.231	26545
485.308	25319
485.384	27802
485.461	37165
485.537	58491
485.614	60867
485.690	29524
485.766	31350
485.843	50043
485.919	104505
485.995	92256
486.072	29140
486.148	28388
486.224	30938
486.301	37903
486.377	65422
486.453	96750
486.530	42314
486.606	35831
486.682	39293
486.758	51349
486.835	58150
486.911	56033
486.987	112733
487.063	226836
487.139	328223
487.215	182011
487.292	45456
487.368	37200
487.444	68974
487.520	126267
487.596	61156
487.672	46039
487.748	96894
487.824	122406
487.900	40501
487.976	40976
488.052	86815
488.128	161115
488.204	70608
488.280	29882
488.356	36410
488.432	72864
488.508	101322
488.584	46093
488.660	42879
488.736	39037
488.812	46933
488.888	66891
488.964	132857
489.039	376142
489.115	510734
489.191	199952
489.267	37897
489.343	29376
489.418	26624
489.494	23723
489.570	22911
489.646	25377
489.722	22814
489.797	25163
489.873	41175
489.949	75716
490.024	57248
490.100	25701
490.176	30013
490.251	61808
490.327	91832
490.403	37718
490.478	26929
490.554	20471
490.629	21397
490.705	21882
490.781	27374
490.856	27382
490.932	39426
491.007	44517
491.083	30701
491.158	25987
491.234	33588
491.309	61866
491.385	54562
491.460	26533
491.536	31473
491.611	31753
491.686	45404
491.762	84967
491.837	232302
491.913	348459
491.988	486932
492.063	521772
492.139	75278
492.214	41776
492.289	26142
492.365	27798
492.440	39128
492.515	35124
492.590	28363
492.666	23012
492.741	33772
492.816	39426
492.891	23354
492.967	22332
493.042	23370
493.117	22528
493.192	28704
493.267	50360
493.342	120046
493.418	120789
493.493	25110
493.568	19978
493.643	23892
493.718	32373
493.793	63374
493.868	90011
493.943	53379
494.018	25543
494.093	20149
494.168	21267
494.243	21906
494.318	17439
494.393	18117
494.468	19404
494.543	25191
494.618	34701
494.693	21693
494.768	19165
494.842	20593
494.917	21273
494.992	24061
495.067	21164
495.142	22613
495.217	25199
495.292	27628
495.366	32392
495.441	41123
495.516	56164
495.591	130873
495.665	520658
495.740	1022955
495.815	251793
495.890	38606
495.964	26175
496.039	29327
496.114	25331
496.188	27783
496.263	25861
496.338	22696
496.412	26211
496.487	37347
496.561	55065
496.636	50213
496.710	28878
496.785	33929
496.860	32637
496.934	28723
497.009	30202
497.083	24557
497.158	23399
497.232	31848
497.307	39354
497.381	26584
497.455	30451
497.530	37293
497.604	26759
497.679	32377
497.753	46476
497.827	57043
497.902	46663
497.976	55382
498.050	141143
498.125	437177
498.199	367404
498.273	122301
498.348	99804
498.422	71047
498.496	76957
498.570	61874
498.645	31502
498.719	29407
498.793	38203
498.867	59867
498.941	74850
499.016	202588
499.090	437814
499.164	114954
499.238	27370
499.312	35445
499.386	57366
499.460	32865
499.534	24711
499.609	30653
499.683	40661
499.757	42123
499.831	101857
499.905	319031
499.979	228182
500.053	60734
500.127	93639
500.201	91729
500.275	39120
500.349	32097
500.422	40340
500.496	96568
500.570	228368
500.644	266934
500.718	309810
500.792	62987
500.866	30113
500.940	36630
501.013	30887
501.087	46226
501.161	112337
501.235	103740
501.309	133265
501.382	316847
501.456	240799
501.530	83675
501.603	99740
501.677	38126
501.751	23437
501.825	31918
501.898	54107
501.972	125545
502.046	64732
502.119	37755
502.193	86762
502.266	139121
502.340	57637
502.413	69910
502.487	111378
502.561	62993
502.634	34087
502.708	42154
502.781	35220
502.855	24284
502.928	18386
503.002	18615
503.075	17494
503.149	20283
503.222	18492
503.295	19752
503.369	22821
503.442	35057
503.516	105512
503.589	220129
503.662	120055
503.736	51027
503.809	108742
503.882	87960
503.956	133873
504.029	117629
504.102	108610
504.175	94891
504.249	26006
504.322	24723
504.395	26730
504.468	19448
504.542	18233
504.615	16442
504.688	18095
504.761	20748
504.834	32824
504.907	63079
504.980	98815
505.053	39672
505.127	69867
505.200	47481
505.273	26299
505.346	19232
505.419	15642
505.492	16312
505.565	13825
505.638	14038
505.711	15799
505.784	14823
505.857	14406
505.930	16942
506.003	15558
506.076	19115
506.149	20225
506.221	23029
506.294	25436
506.367	67066
506.440	183237
506.513	88479
506.586	28522
506.659	22553
506.731	24451
506.804	40227
506.877	59292
506.950	22760
507.022	17452
507.095	24078
507.168	30452
507.241	25307
507.313	21504
507.386	34461
507.459	52859
507.531	26406
507.604	19680
507.677	19512
507.749	18292
507.822	35640
507.894	68298
507.967	54900
508.040	20737
508.112	18920
508.185	18555
508.257	32555
508.330	53233
508.402	19684
508.475	17202
508.547	18466
508.620	18626
508.692	25853
508.765	16683
508.837	14804
508.909	15319
508.982	18582
509.054	28079
509.127	19549
509.199	14044
509.271	14046
509.344	14117
509.416	14363
509.488	14803
509.560	17597
509.633	25748
509.705	32839
509.777	30894
509.849	57503
509.922	24612
509.994	14720
510.066	15280
510.138	15130
510.210	24853
510.283	21114
510.355	19340
510.427	21351
510.499	22723
510.571	23896
510.643	29228
510.715	73741
510.787	49093
510.859	24328
510.931	34885
511.003	69194
511.076	44028
511.148	16319
511.219	16462
511.291	25847
511.363	26132
511.435	15744
511.507	14318
511.579	15559
511.651	16232
511.723	14943
511.795	14140
511.867	16695
511.939	20307
512.010	36643
512.082	27796
512.154	21255
512.226	20240
512.298	36075
512.369	52460
512.441	39093
512.513	47341
512.585	30072
512.656	30533
512.728	39433
512.800	24247
512.871	23256
512.943	19534
513.015	18361
513.086	24588
513.158	30770
513.230	35383
513.301	72482
513.373	75610
513.444	28944
513.516	21171
513.588	24342
513.659	34036
513.731	51369
513.802	51594
513.874	148434
513.945	223712
514.016	42286
514.088	25073
514.159	35581
514.231	53711
514.302	48317
514.374	23148
514.445	22830
514.516	42402
514.588	27133
514.659	23343
514.730	43973
514.802	44049
514.873	30079
514.944	24021
515.016	31462
515.087	42148
515.158	42443
515.229	38657
515.301	22151
515.372	23395
515.443	17543
515.514	17696
515.585	16183
515.656	18468
515.728	18320
515.799	17774
515.870	23541
515.941	24050
516.012	21748
516.083	29150
516.154	42470
516.225	70916
516.296	49218
516.367	31485
516.438	34093
516.509	46647
516.580	74254
516.651	189246
516.722	569057
516.793	211396
516.864	65908
516.935	46617
517.006	45859
517.077	94704
517.148	231577
517.219	259476
517.289	278861
517.360	160136
517.431	51140
517.502	21859
517.573	23827
517.643	25618
517.714	26721
517.785	24049
517.856	24771
517.926	25958
517.997	28642
518.068	29058
518.138	36768
518.209	53518
518.280	177493
518.350	467763
518.421	129151
518.492	30317
518.562	25964
518.633	26829
518.703	24213
518.774	36722
518.845	47760
518.915	43226
518.986	35941
519.056	63923
519.127	170658
519.197	224211
519.268	261229
519.338	100493
519.408	60718
519.479	122316
519.549	65914
519.620	33120
519.690	21955
519.760	24159
519.831	34790
519.901	30446
519.971	23084
520.042	23931
520.112	31550
520.182	56881
520.253	59635
520.323	39955
520.393	107350
520.463	150518
520.534	118446
520.604	212064
520.674	58137
520.744	83831
520.814	283235
520.885	150666
520.955	78150
521.025	194242
521.095	59118
521.165	22755
521.235	21350
521.305	20214
521.375	22227
521.445	34516
521.515	60512
521.585	74752
521.655	60161
521.725	45860
521.795	30069
521.865	18328
521.935	28184
522.005	22582
522.075	18536
522.145	21547
522.215	24076
522.285	32212
522.355	42870
522.424	68560
522.494	61688
522.564	66306
522.634	203851
522.704	482908
522.774	112845
522.843	31377
522.913	38267
522.983	51859
523.053	32863
523.122	37688
523.192	88638
523.262	338607
523.331	211104
523.401	36338
523.471	23321
523.540	25890
523.610	17841
523.680	15914
523.749	17057
523.819	21209
523.888	19292
523.958	18029
524.027	22735
524.097	25275
524.166	23010
524.236	32379
524.305	24168
524.375	19451
524.444	16260
524.514	18527
524.583	18619
524.653	23306
524.722	28656
524.791	19377
524.861	19709
524.930	17665
524.999	29477
525.069	39555
525.138	21984
525.207	23168
525.277	21032
525.346	22953
525.415	20263
525.484	23207
525.554	21743
525.623	20300
525.692	18322
525.761	18101
525.830	17916
525.900	17688
525.969	24110
526.038	28280
526.107	38341
526.176	69481
526.245	57942
526.314	70937
526.383	74610
526.452	64398
526.522	111883
526.591	162643
526.660	205232
526.729	64228
526.797	72230
526.867	215240
526.935	744046
527.004	564644
527.073	190723
527.142	30036
527.211	26806
527.280	47025
527.349	44457
527.418	19371
527.487	23152
527.555	20801
527.624	18832
527.693	16190
527.762	19237
527.831	15671
527.899	18878
527.968	18351
528.037	22041
528.106	40214
528.174	82053
528.243	44446
528.312	87186
528.380	100167
528.449	24305
528.518	18061
528.586	13666
528.655	15165
528.723	14767
528.792	16391
528.861	17352
528.929	13330
528.998	16154
529.066	14031
529.135	14614
529.203	14063
529.272	14363
529.340	15788
529.409	18031
529.477	15781
529.545	20137
529.614	25385
529.682	30171
529.751	29086
529.819	39531
529.887	20665
529.956	16156
530.024	18382
530.092	19330
530.161	33233
530.229	59201
530.297	21198
530.365	16048
530.434	13416
530.502	13532
530.570	14584
530.638	13569
530.707	22638
530.775	19351
530.843	14779
530.911	13061
530.979	13845
531.047	14484
531.115	14739
531.183	14265
531.252	15112
531.320	15419
531.388	14593
531.456	15915
531.524	13738
531.592	16886
531.660	18296
531.728	15044
531.796	14929
531.864	16252
531.932	16538
532.000	18599
532.067	20833
532.135	22784
532.203	29069
532.271	35230
532.339	87127
532.407	240302
532.475	84529
532.542	33966
532.610	42023
532.678	79875
532.746	336523
532.814	612443
532.881	144283
532.949	29082
533.017	21876
533.084	18800
533.152	17352
533.220	21987
533.287	29196
533.355	17283
533.423	16385
533.490	16163
533.558	16340
533.625	17999
533.693	17287
533.761	19412
533.828	20104
533.896	28454
533.963	77092
534.031	85068
534.098	116912
534.166	31087
534.233	15418
534.300	17827
534.368	17917
534.435	16536
534.503	21216
534.570	35232
534.637	18189
534.705	16050
534.772	20575
534.840	27626
534.907	42241
534.974	35114
535.041	16134
535.109	19337
535.176	14859
535.243	16867
535.310	24490
535.378	18946
535.445	14251
535.512	13897
535.579	14839
535.646	14268
535.714	13939
535.781	17208
535.848	16407
535.915	17051
535.982	15088
536.049	16500
536.116	19498
536.183	18811
536.250	20834
536.317	23976
536.384	33924
536.451	63286
536.518	57429
536.585	34931
536.652	49546
536.719	85160
536.786	52718
536.853	38824
536.920	69101
536.987	123258
537.053	121752
537.120	423228
537.187	227233
537.254	26192
537.321	20824
537.388	21603
537.454	15953
537.521	16012
537.588	16640
537.654	20074
537.721	18927
537.788	19545
537.855	18002
537.921	21013
537.988	20176
538.055	20998
538.121	21273
538.188	31598
538.254	67798
538.321	144907
538.388	58048
538.454	23323
538.521	20495
538.587	18860
538.654	17904
538.720	18007
538.787	18103
538.853	22839
538.920	30628
538.986	27721
539.053	22430
539.119	27796
539.185	27546
539.252	43170
539.318	72465
539.385	33359
539.451	25170
539.517	30683
539.583	47487
539.650	156769
539.716	306949
539.782	59067
539.849	26723
539.915	25304
539.981	31471
540.047	43395
540.114	32388
540.180	36619
540.246	35568
540.312	61464
540.378	139790
540.444	116735
540.510	162740
540.576	350923
540.643	69414
540.709	23619
540.775	22572
540.841	26660
540.907	41765
540.973	73505
541.039	66781
541.105	62510
541.171	26775
541.237	24337
541.303	26841
541.369	37226
541.435	63943
541.500	124993
541.566	57255
541.632	23161
541.698	21108
541.764	21641
541.830	20678
541.896	18932
541.961	20937
542.027	21248
542.093	23204
542.159	26008
542.224	32474
542.290	57169
542.356	123205
542.421	121448
542.487	39680
542.553	27134
542.618	25955
542.684	25983
542.750	27704
542.815	41214
542.881	94445
542.947	342403
543.012	158184
543.078	25879
543.143	22692
543.209	26427
543.274	30572
543.340	48153
543.405	155475
543.471	178867
543.536	28097
543.602	21626
543.667	19587
543.732	19894
543.798	18270
543.863	19301
543.928	18136
543.994	18440
544.059	19730
544.124	20530
544.190	20593
544.255	22444
544.320	24031
544.386	29518
544.451	49817
544.516	61159
544.581	67834
544.646	232676
544.712	253408
544.777	35524
544.842	24861
544.907	25406
544.972	21687
545.037	22402
545.102	25083
545.168	25014
545.233	27621
545.298	30951
545.363	37489
545.428	56131
545.493	143464
545.558	275871
545.623	65400
545.688	25191
545.753	23022
545.818	22678
545.883	22284
545.947	22925
546.012	24719
546.077	25262
546.142	27088
546.207	31645
546.272	52508
546.337	48947
546.401	27832
546.466	24204
546.531	22496
546.596	26516
546.661	27814
546.725	24003
546.790	19876
546.855	21653
546.919	21024
546.984	24343
547.049	24142
547.113	27406
547.178	24240
547.243	27567
547.307	30136
547.372	38862
547.436	34720
547.501	27291
547.565	34018
547.630	54649
547.695	41993
547.759	33880
547.823	27862
547.888	25265
547.952	24792
548.017	28261
548.081	34923
548.146	39090
548.210	29815
548.274	26962
548.339	25136
548.403	24780
548.468	23198
548.532	24641
548.596	26294
548.660	28586
548.725	36079
548.789	43667
548.853	35120
548.917	28552
548.982	36629
549.046	33264
549.110	24561
549.174	24935
549.238	25068
549.303	24743
549.367	28015
549.431	26548
549.495	25073
549.559	26897
549.623	30529
549.687	46050
549.751	73409
549.815	35860
549.879	29071
549.943	28498
550.007	31809
550.071	38893
550.135	62909
550.199	37444
550.263	29601
550.327	33402
550.391	37495
550.455	32181
550.519	32836
550.582	41225
550.646	76931
550.710	61409
550.774	34509
550.838	30883
550.901	29643
550.965	31767
551.029	32898
551.093	36826
551.156	43991
551.220	71528
551.284	64628
551.347	45148
551.411	81424
551.475	71493
551.538	31732
551.602	30440
551.666	28451
551.729	28214
551.793	27326
551.856	29047
551.920	28777
551.983	28355
552.047	27899
552.110	28104
552.174	27187
552.237	29799
552.301	27425
552.364	26741
552.428	26250
552.491	28426
552.554	30177
552.618	28077
552.681	27669
552.745	27894
552.808	32011
552.871	35110
552.934	30179
552.998	28689
553.061	30521
553.124	30089
553.187	29811
553.251	31207
553.314	32306
553.377	34122
553.440	43193
553.503	92684
553.567	101847
553.630	33911
553.693	27906
553.756	29561
553.819	28382
553.882	29006
553.945	26779
554.008	27124
554.071	26242
554.134	27732
554.197	27005
554.260	29260
554.323	33564
554.386	33265
554.449	28798
554.512	29229
554.575	29305
554.638	31617
554.701	32130
554.764	28450
554.827	27039
554.889	26019
554.952	23566
555.015	25605
555.078	24535
555.141	25597
555.203	24562
555.266	26739
555.329	28043
555.391	28629
555.454	33281
555.517	30304
555.580	25498
555.642	24533
555.705	25211
555.768	26629
555.830	26105
555.893	24952
555.955	25365
556.018	26264
556.080	26396
556.143	27582
556.206	28017
556.268	29114
556.330	31827
556.393	30531
556.455	28887
556.518	42462
556.580	39590
556.643	27185
556.705	26841
556.767	27246
556.830	31911
556.892	47146
556.955	84796
557.017	43435
557.079	28346
557.142	33970
557.204	52555
557.266	127322
557.328	70061
557.391	25116
557.453	24813
557.515	29230
557.577	46650
557.639	39147
557.701	23300
557.764	20985
557.826	22024
557.888	23492
557.950	23392
558.012	23611
558.074	26500
558.136	37933
558.198	51785
558.260	32230
558.322	28623
558.384	31631
558.446	38535
558.508	41057
558.570	60381
558.632	146199
558.694	171046
558.756	69200
558.818	129538
558.880	205254
558.942	60053
559.003	54589
559.065	33151
559.127	27908
559.189	32074
559.251	37503
559.312	38016
559.374	67914
559.436	140491
559.498	56418
559.559	26735
559.621	28255
559.683	32553
559.744	48489
559.806	98980
559.868	92539
559.929	32805
559.991	31701
560.052	37664
560.114	58840
560.176	43274
560.237	61443
560.299	73296
560.360	30948
560.422	28552
560.483	29926
560.545	25614
560.606	24751
560.667	24263
560.729	24425
560.790	23977
560.852	24155
560.913	24818
560.974	24459
561.036	23074
561.097	26581
561.158	26772
561.220	28027
561.281	29597
561.342	34744
561.403	47492
561.465	76610
561.526	210150
561.587	199262
561.648	42095
561.709	30817
561.771	29874
561.832	30161
561.893	27441
561.954	28878
562.015	28290
562.076	27896
562.137	28927
562.198	28999
562.259	31476
562.320	36861
562.381	48916
562.442	85478
562.503	51660
562.564	33408
562.625	33719
562.686	38083
562.747	61320
562.808	38552
562.869	28683
562.930	32417
562.991	30494
563.051	29328
563.112	27967
563.173	27809
563.234	27295
563.294	29081
563.355	29634
563.416	30790
563.477	28432
563.537	31210
563.598	29231
563.659	29967
563.720	31686
563.780	33077
563.841	33990
563.901	29441
563.962	26714
564.023	27918
564.083	30147
564.144	30816
564.204	30621
564.265	30194
564.325	33885
564.386	50694
564.446	40793
564.507	29002
564.567	30862
564.628	33093
564.688	29418
564.749	29348
564.809	32162
564.869	35259
564.930	29850
564.990	31178
565.050	30241
565.111	31139
565.171	28532
565.231	29896
565.292	29384
565.352	29339
565.412	30589
565.472	33997
565.532	36674
565.593	33472
565.653	33426
565.713	40416
565.773	40002
565.833	53590
565.893	59625
565.953	33431
566.013	31175
566.074	33529
566.134	39042
566.194	56624
566.254	58895
566.314	37173
566.374	29801
566.434	30854
566.494	29583
566.554	31406
566.614	31130
566.673	31200
566.733	34348
566.793	38716
566.853	39446
566.913	34958
566.973	37246
567.033	50821
567.092	55301
567.152	33431
567.212	32732
567.272	32556
567.331	33598
567.391	33117
567.451	35708
567.511	43050
567.570	39675
567.630	31182
567.690	31000
567.749	31984
567.809	32885
567.868	37316
567.928	37333
567.988	37380
568.047	38385
568.107	43321
568.166	50959
568.226	67673
568.285	80473
568.345	64946
568.404	54764
568.464	50518
568.523	48724
568.582	52754
568.642	57942
568.701	66864
568.761	91467
568.820	124883
568.879	108281
568.939	84713
568.998	63641
569.057	53018
569.116	46932
569.176	43271
569.235	37734
569.294	36090
569.353	35468
569.413	35869
569.472	34964
569.531	33125
569.590	32443
569.649	35340
569.708	37442
569.767	50018
569.827	90293
569.886	54687
569.945	30733
570.004	30931
570.063	32690
570.122	38614
570.181	40028
570.240	42869
570.299	59325
570.358	76070
570.417	35630
570.475	32121
570.534	37087
570.593	42965
570.652	53594
570.711	55324
570.770	33533
570.829	34584
570.887	38325
570.946	43341
571.005	28756
571.064	28248
571.122	28570
571.181	32146
571.240	27676
571.299	27661
571.357	28348
571.416	31338
571.475	32244
571.533	32068
571.592	29476
571.650	29267
571.709	25570
571.768	28929
571.826	25668
571.885	26156
571.943	25664
572.002	26954
572.060	26929
572.119	26189
572.177	25478
572.236	24943
572.294	25587
572.352	26836
572.411	26994
572.469	28321
572.528	34217
572.586	40430
572.644	64849
572.703	96941
572.761	45446
572.819	26793
572.877	24801
572.936	25552
572.994	26319
573.052	30876
573.110	39692
573.169	30159
573.227	25188
573.285	26401
573.343	26688
573.401	26722
573.459	23877
573.517	23185
573.576	24477
573.634	30103
573.692	37620
573.750	28089
573.808	24212
573.866	26137
573.924	30593
573.982	29211
574.040	24511
574.098	24347
574.155	23681
574.213	24939
574.271	24861
574.329	30044
574.387	23919
574.445	22813
574.503	22333
574.560	21526
574.618	23162
574.676	22279
574.734	23255
574.792	25118
574.849	24808
574.907	24045
574.965	22320
575.022	22387
575.080	22930
575.138	25042
575.195	26159
575.253	29214
575.311	29815
575.368	23667
575.426	20659
575.483	23123
575.541	21755
575.598	21964
575.656	23371
575.713	22069
575.771	21916
575.828	22646
575.886	21734
575.943	23703
576.001	23824
576.058	24699
576.115	25822
576.173	29903
576.230	36029
576.287	42482
576.345	29620
576.402	23065
576.459	24167
576.517	24873
576.574	26062
576.631	25689
576.688	22674
576.746	23313
576.803	23687
576.860	22854
576.917	22669
576.974	23689
577.031	23685
577.089	24266
577.146	23758
577.203	27168
577.260	26585
577.317	25276
577.374	27146
577.431	26194
577.488	24815
577.545	23767
577.602	24182
577.659	25297
577.716	23274
577.773	24044
577.830	22640
577.886	23547
577.943	21292
578.000	23128
578.057	25095
578.114	24075
578.171	24011
578.227	25845
578.284	23626
578.341	25178
578.398	25772
578.454	28804
578.511	28922
578.568	30817
578.625	26711
578.681	24608
578.738	23298
578.794	24612
578.851	24501
578.908	27697
578.964	30996
579.021	29479
579.077	29560
579.134	26964
579.190	24275
579.247	24639
579.303	23299
579.360	23624
579.416	24594
579.473	22479
579.529	22236
579.586	24274
579.642	23212
579.698	23605
579.755	24075
579.811	24762
579.867	24010
579.924	23433
579.980	24062
580.036	24222
580.093	24082
580.149	25988
580.205	24665
580.261	24491
580.317	24834
580.374	27805
580.430	30895
580.486	28008
580.542	25870
580.598	27144
580.619	27163
580.654	27213
580.692	27945
580.710	28333
580.765	25986
580.767	25926
580.823	26828
580.838	26737
580.879	26497
580.911	26114
580.935	25866
580.984	24491
580.991	24327
581.047	24964
581.057	24794
581.103	24053
581.130	25028
581.159	26020
581.203	25042
581.215	24807
581.270	25046
581.276	24966
581.326	24229
581.349	24615
581.382	25225
581.422	25655
581.438	25839
581.494	27245
581.494	27238
581.550	26992
581.567	27764
581.606	29369
581.640	29052
581.661	28825
581.713	28824
581.717	28834
581.773	26956
581.786	26854
581.829	26637
581.859	27219
581.885	27680
581.932	27342
581.940	27283
581.996	27575
582.004	27576
582.052	27421
582.077	27153
582.107	26950
582.150	27793
582.163	28048
582.219	27964
582.223	27966
582.274	27939
582.296	28339
582.330	28915
582.368	29408
582.386	29627
582.441	27726
582.441	27720
582.497	27578
582.514	27979
582.552	29241
582.587	29874
582.608	30078
582.659	28897
582.663	28782
582.719	28514
582.732	28332
582.774	28194
582.805	28835
582.830	29233
582.877	28564
582.885	28467
582.941	30705
582.950	30588
582.996	30096
583.023	31325
583.052	32628
583.095	31042
583.107	30558
583.162	31022
583.168	31017
583.218	30890
583.240	30747
583.273	30675
583.313	30784
583.328	30851
583.384	30655
583.385	30637
583.439	29947
583.458	30009
583.494	29988
583.531	29733
583.549	29842
583.603	31217
583.605	31249
583.660	31224
583.676	31305
583.715	31475
583.748	31954
583.770	32495
583.820	33452
583.825	33523
583.881	32764
583.893	32836
583.936	32841
583.965	32422
583.991	31991
584.038	32205
584.046	32351
584.101	32058
584.110	32170
584.156	32861
584.183	33067
584.211	32854
584.255	32581
584.266	32592
584.321	32079
584.328	32243
584.376	34313
584.400	34198
584.431	33759
584.472	33956
584.486	34053
584.541	35023
584.545	35100
584.596	37076
584.617	37418
584.651	38029
584.689	38290
584.706	38158
584.761	37079
584.762	37057
584.816	37490
584.834	37445
584.871	37142
584.906	37472
584.926	37809
584.978	37462
584.980	37498
585.035	39359
585.051	39652
585.090	40446
585.123	41503
585.145	42044
585.195	42161
585.200	42303
585.254	44418
585.267	45097
585.309	47541
585.340	49081
585.364	49400
585.412	46650
585.419	46290
585.473	47243
585.484	47279
585.528	50086
585.556	53408
585.583	57824
585.628	65104
585.637	67998
585.692	95135
585.700	99090
585.747	112180
585.772	100712
585.801	76236
585.845	53883
585.856	51979
585.910	51124
585.917	50800
585.965	50182
585.989	49672
586.019	49339
586.061	49504
586.074	50019
586.128	53349
586.133	53548
586.183	57152
586.205	57871
586.237	56762
586.277	54485
586.292	53910
586.346	53495
586.349	53430
586.401	54592
586.421	54890
586.455	56656
586.493	59733
586.509	64249
586.564	80536
586.565	80995
586.618	113507
586.637	116747
586.672	93457
586.709	70095
586.727	65455
586.781	60548
586.781	60637
586.835	60288
586.853	59943
586.889	58944
586.925	58292
586.944	58701
586.996	60067
586.998	60238
587.052	63327
587.068	64343
587.106	65406
587.140	63928
587.161	63337
587.212	65054
587.215	65350
587.269	68659
587.284	69255
587.323	69488
587.356	69715
587.377	70831
587.427	73580
587.431	73785
587.485	73925
587.499	73954
587.539	74976
587.571	75334
587.593	76154
587.643	78577
587.648	78969
587.702	81037
587.715	81866
587.755	85010
587.786	86176
587.810	86703
587.858	87638
587.864	88357
587.917	95398
587.930	96969
587.971	102319
588.001	105069
588.025	105892
588.073	107413
588.079	108308
588.133	115661
588.145	117478
588.187	125948
588.217	131354
588.241	136730
588.288	147249
588.295	149465
588.348	168590
588.360	172332
588.402	187124
588.431	197686
588.456	208874
588.503	232722
588.510	237532
588.564	278450
588.575	287759
588.617	336538
588.646	373004
588.671	420911
588.718	524606
588.725	551400
588.778	774363
588.789	824399
588.832	1135078
588.861	1360658
588.886	1529254
588.932	1785930
588.939	1782062
588.993	1643190
589.004	1621813
589.047	1557728
589.075	1445592
589.100	1214088
589.147	808250
589.154	779104
589.207	585342
589.218	549165
589.261	510317
589.290	490521
589.314	512341
589.361	565947
589.368	589923
589.421	802122
589.433	852214
589.475	1180007
589.504	1414290
589.528	1516643
589.576	1627147
589.582	1606917
589.635	1372991
589.647	1305725
589.689	898299
589.718	632976
589.742	532104
589.790	352808
589.795	345772
589.849	284194
589.861	270945
589.902	253659
589.932	237916
589.955	216014
590.004	169778
590.009	168336
590.062	152004
590.075	147791
590.115	141270
590.146	136103
590.168	133931
590.218	128072
590.222	128173
590.275	126073
590.289	125121
590.328	121940
590.360	118952
590.381	117750
590.431	114091
590.435	114209
590.488	111435
590.503	110602
590.541	112045
590.574	112046
590.594	110356
590.645	105531
590.647	105743
590.700	103883
590.716	103152
590.753	101923
590.787	100096
590.806	100488
590.859	100958
590.859	101206
590.912	99149
590.930	98341
590.965	100379
591.001	101915
591.018	102256
591.071	102249
591.072	101961
591.124	103190
591.143	103309
591.177	104969
591.214	106128
591.230	107639
591.283	111831
591.285	111661
591.336	114031
591.356	114722
591.389	114228
591.427	112078
591.442	110223
591.495	102165
591.498	101299
591.547	101204
591.569	100767
591.600	100578
591.640	99425
591.653	99967
591.706	101096
591.711	100914
591.759	105016
591.782	106679
591.811	110368
591.853	114835
591.864	113680
591.917	105696
591.924	104236
591.969	104500
591.995	104204
592.022	105491
592.066	106531
592.075	107982
592.127	114990
592.137	115939
592.180	122584
592.208	126078
592.233	119228
592.279	105036
592.285	105055
592.338	102521
592.350	101607
592.390	101909
592.421	101600
592.443	101385
592.491	99748
592.495	100003
592.548	98999
592.562	98396
592.600	99435
592.633	99731
592.653	100187
592.704	99954
592.705	100501
592.775	98873
592.846	101483
592.916	106975
592.987	114010
593.058	103372
593.128	95760
593.199	95468
593.270	96012
593.341	94270
593.411	97350
593.482	98220
593.553	93972
593.623	91422
593.694	93412
593.764	97659
593.835	93473
593.906	90156
593.976	89808
594.047	94968
594.117	106589
594.188	104667
594.258	87076
594.329	86579
594.399	86813
594.470	85252
594.540	85333
594.611	84952
594.681	84955
594.751	84095
594.822	86506
594.892	87965
594.963	89890
595.033	89199
595.103	89750
595.174	96821
595.244	129230
595.314	147474
595.384	89929
595.455	85383
595.525	87217
595.595	89584
595.665	88139
595.736	85274
595.806	85168
595.876	85517
595.946	83192
596.016	82241
596.087	83624
596.157	84832
596.227	84787
596.297	88403
596.367	87814
596.437	94519
596.507	116037
596.577	136538
596.647	93143
596.717	85040
596.787	85379
596.857	85365
596.927	85024
596.997	83652
597.067	84239
597.137	88082
597.207	86970
597.277	85926
597.347	85642
597.417	87941
597.487	94570
597.557	92940
597.626	91259
597.696	96099
597.766	109720
597.836	134588
597.906	94098
597.975	83893
598.045	82994
598.115	83963
598.185	83042
598.254	87210
598.324	92601
598.394	93405
598.464	94332
598.533	83860
598.603	84532
598.672	86357
598.742	80988
598.812	80734
598.881	78334
598.951	78980
599.020	74978
599.090	76071
599.159	78712
599.229	75898
599.299	73114
599.368	75834
599.437	73329
599.507	73984
599.576	77744
599.646	79160
599.715	78729
599.785	77147
599.854	79586
599.924	86250
599.993	80048
600.062	75100
600.132	75077
600.201	80492
600.270	88108
600.340	78559
600.409	75163
600.478	73491
600.547	72926
600.617	75506
600.686	76306
600.755	78777
600.824	83267
600.894	74281
600.963	68393
601.032	65571
601.101	67876
601.170	67142
601.239	68893
601.308	69508
601.378	67868
601.447	67374
601.516	67097
601.585	69271
601.654	71609
601.723	67989
601.792	69452
601.861	71069
601.930	81975
601.999	84982
602.068	70361
602.137	72452
602.206	70583
602.275	74096
602.343	94477
602.412	93274
602.481	67096
602.550	64335
602.619	65945
602.688	69564
602.756	65410
602.825	62859
602.894	63154
602.963	62580
603.032	61735
603.100	62412
603.169	62363
603.238	62993
603.307	61373
603.375	59679
603.444	62550
603.513	61359
603.581	59700
603.650	60172
603.719	60155
603.787	63174
603.856	68645
603.924	83212
603.993	79888
604.061	63063
604.130	63725
604.198	66239
604.267	64403
604.335	61785
604.404	61742
604.472	62037
604.541	62572
604.609	61887
604.678	61805
604.746	61885
604.815	62907
604.883	62333
604.951	63157
605.020	60907
605.088	62277
605.156	63963
605.225	61862
605.293	62199
605.361	63947
605.429	64308
605.498	67714
605.566	71653
605.634	67137
605.702	68348
605.771	69576
605.839	67419
605.907	63883
605.975	63327
606.043	64207
606.111	63738
606.180	65082
606.248	69672
606.316	73004
606.384	72187
606.452	93820
606.520	119263
606.588	78490
606.656	64125
606.724	63673
606.792	61639
606.860	57934
606.928	54505
606.996	54405
607.064	55749
607.132	55703
607.200	55983
607.267	57523
607.335	57367
607.403	59041
607.471	58594
607.539	58644
607.607	56846
607.674	56751
607.742	60708
607.810	66394
607.878	62582
607.946	58360
608.013	62986
608.081	77931
608.149	80630
608.216	60188
608.284	60500
608.352	59541
608.419	65165
608.487	86036
608.555	66140
608.622	58074
608.690	60665
608.757	64022
608.825	68303
608.893	82918
608.960	133474
609.028	147089
609.095	96610
609.163	68433
609.230	64797
609.298	64390
609.365	60228
609.432	64162
609.500	67963
609.567	71481
609.635	73143
609.702	72388
609.769	72836
609.837	73839
609.904	63246
609.971	59258
610.039	64946
610.106	74293
610.173	110102
610.241	188628
610.308	122542
610.375	70487
610.442	61403
610.509	56236
610.577	57211
610.644	61557
610.711	63195
610.778	64220
610.845	63136
610.912	66045
610.980	69318
611.047	82651
611.114	86016
611.181	74417
611.248	60760
611.315	60962
611.382	59737
611.449	61038
611.516	63712
611.583	62169
611.650	64063
611.717	65624
611.784	66994
611.851	82321
611.918	118234
611.984	93484
612.051	100031
612.118	171742
612.185	370422
612.252	225517
612.319	79736
612.386	70072
612.452	68831
612.519	74951
612.586	98228
612.653	77893
612.719	66552
612.786	66222
612.853	61969
612.919	60036
612.986	60531
613.053	58406
613.120	58734
613.186	55528
613.253	58018
613.319	58648
613.386	62149
613.453	72534
613.519	98463
613.586	118218
613.652	174675
613.719	133966
613.785	105625
613.852	63518
613.918	61315
613.985	65657
614.051	81973
614.118	132260
614.184	122508
614.250	62322
614.317	58173
614.383	55956
614.449	56720
614.516	57159
614.582	61453
614.648	57531
614.715	56769
614.781	58740
614.847	61622
614.914	66276
614.980	73714
615.046	62237
615.112	57818
615.179	58489
615.245	59022
615.311	63983
615.377	74830
615.443	77392
615.509	63800
615.575	62059
615.642	63078
615.708	67955
615.774	70986
615.840	72836
615.906	82507
615.972	100556
616.038	153958
616.104	251475
616.170	489251
616.236	387967
616.302	112628
616.368	87671
616.434	75983
616.500	76315
616.565	77287
616.631	83263
616.697	74252
616.763	76743
616.829	95328
616.895	136014
616.961	130756
617.026	90989
617.092	68789
617.158	68817
617.224	66566
617.289	69290
617.355	69403
617.421	68172
617.487	67147
617.552	64898
617.618	62882
617.684	62759
617.749	65246
617.815	61838
617.880	61473
617.946	64901
618.012	70357
618.077	68584
618.143	66522
618.208	67022
618.274	68840
618.339	72910
618.405	66742
618.470	68707
618.536	71902
618.601	79081
618.667	74904
618.732	72967
618.798	72177
618.863	71592
618.928	72804
618.994	79579
619.059	96383
619.124	147852
619.190	94191
619.255	69836
619.320	70101
619.386	69737
619.451	67046
619.516	67553
619.581	68512
619.647	68643
619.712	69093
619.777	71822
619.842	81329
619.907	92171
619.972	76381
620.038	72125
620.103	67148
620.168	66029
620.233	66663
620.298	66150
620.363	65460
620.428	66618
620.493	67264
620.558	65632
620.623	65509
620.688	64811
620.753	64730
620.818	64866
620.883	67057
620.948	66260
621.013	66182
621.078	68915
621.143	70361
621.207	75086
621.272	79673
621.337	90922
621.402	88430
621.467	106116
621.532	112996
621.596	112174
621.661	91513
621.726	78546
621.791	81174
621.855	90785
621.920	97795
621.985	92428
622.049	97804
622.114	94653
622.179	85277
622.243	91061
622.308	87825
622.373	92910
622.437	97419
622.502	86250
622.566	85274
622.631	85852
622.695	87587
622.760	89977
622.824	88961
622.889	96437
622.953	116673
623.018	192760
623.082	174468
623.147	95256
623.211	96803
623.276	101268
623.340	85686
623.404	81918
623.469	82492
623.533	82426
623.597	80258
623.662	81683
623.726	79011
623.790	78841
623.854	81835
623.919	82145
623.983	84827
624.047	86373
624.111	83188
624.176	96097
624.240	138000
624.304	154188
624.368	86957
624.432	80617
624.496	85464
624.560	98107
624.625	109706
624.689	83352
624.753	79133
624.817	77279
624.881	77195
624.945	74800
625.009	78525
625.073	85341
625.137	114874
625.201	134615
625.265	117577
625.329	83298
625.393	92033
625.456	80662
625.520	82242
625.584	93394
625.648	110556
625.712	148736
625.776	305247
625.839	330041
625.903	136099
625.967	91644
626.031	139728
626.095	198458
626.158	86615
626.222	69637
626.286	68434
626.349	68983
626.413	70439
626.477	82572
626.540	72301
626.604	70926
626.668	69701
626.731	67298
626.795	72715
626.858	76523
626.922	69003
626.986	68387
627.049	65295
627.113	65332
627.176	63672
627.240	64079
627.303	64730
627.366	67651
627.430	77712
627.493	70145
627.557	67158
627.620	65125
627.684	63335
627.747	62870
627.810	62071
627.874	62422
627.937	59451
628.000	65271
628.064	66894
628.127	58389
628.190	61566
628.253	61674
628.317	60834
628.380	61166
628.443	68635
628.506	76077
628.569	59050
628.632	56864
628.696	56483
628.759	55115
628.822	56120
628.885	54583
628.948	55562
629.011	58851
629.074	59133
629.137	56092
629.200	64117
629.263	78609
629.326	57012
629.389	54814
629.452	56495
629.515	59352
629.578	64140
629.641	70158
629.704	59978
629.767	62300
629.830	53410
629.892	52801
629.955	53539
630.018	61419
630.081	70315
630.144	86691
630.207	65539
630.269	63160
630.332	61840
630.395	55681
630.458	51611
630.520	50304
630.583	50401
630.646	48844
630.708	48647
630.771	49109
630.834	50595
630.896	47856
630.959	48583
631.021	48799
631.084	50821
631.146	55200
631.209	58483
631.272	47539
631.334	46846
631.397	47397
631.459	47811
631.522	53212
631.584	48797
631.646	50045
631.709	54510
631.771	76020
631.834	55432
631.896	46608
631.958	43413
632.021	46357
632.083	45610
632.145	49570
632.208	47886
632.270	50309
632.332	44253
632.395	44616
632.457	47080
632.519	45601
632.581	46221
632.643	46586
632.706	45985
632.768	42172
632.830	42291
632.892	42048
632.954	43087
633.016	44492
633.078	41459
633.141	41231
633.203	41228
633.265	43504
633.327	42464
633.389	44261
633.451	54775
633.513	67591
633.575	58536
633.637	63491
633.698	54466
633.760	44844
633.822	43156
633.884	45858
633.946	42338
634.008	40902
634.070	40427
634.132	44035
634.193	41980
634.255	40279
634.317	39718
634.379	44565
634.441	39782
634.502	38906
634.564	38629
634.626	37203
634.687	38218
634.749	39685
634.811	38330
634.873	37743
634.934	38582
634.996	38976
635.057	36878
635.119	37260
635.181	38864
635.242	38526
635.304	35303
635.365	38934
635.427	40084
635.488	41699
635.550	37049
635.611	37442
635.673	37002
635.734	42327
635.796	42096
635.857	43884
635.918	37317
635.980	38887
636.041	37693
636.102	39308
636.164	38602
636.225	38235
636.286	36788
636.348	37376
636.409	36286
636.470	35094
636.531	36027
636.593	41370
636.654	39580
636.715	33384
636.776	32573
636.838	31516
636.899	36014
636.960	32964
637.021	31468
637.082	33388
637.143	33877
637.204	31100
637.265	30597
637.326	32259
637.387	31986
637.448	30309
637.509	32108
637.570	32016
637.631	31409
637.692	30374
637.753	28806
637.814	31494
637.875	30878
637.936	32720
637.997	31997
638.058	33981
638.119	33344
638.179	31226
638.240	31471
638.301	31053
638.362	29039
638.423	31084
638.483	30740
638.544	27616
638.605	29714
638.666	28010
638.726	29281
638.787	29058
638.848	28620
638.908	28458
638.969	29625
639.030	30074
639.090	29191
639.151	31615
639.211	37185
639.272	52916
639.332	94206
639.393	45727
639.453	30375
639.514	29615
639.574	28687
639.635	27211
639.695	30140
639.756	29417
639.816	35176
639.877	45039
639.937	81863
639.997	106432
640.058	37274
640.118	28892
640.178	26673
640.239	24535
640.299	25130
640.359	25128
640.420	26202
640.480	26800
640.540	26888
640.600	27085
640.661	28860
640.721	31976
640.781	43658
640.841	30711
640.901	29117
640.961	28196
641.021	31492
641.082	41326
641.142	65062
641.202	37651
641.262	25147
641.322	26196
641.382	26092
641.442	26461
641.502	24596
641.562	25581
641.622	24021
641.682	24863
641.742	26006
641.802	26976
641.861	29845
641.921	32831
641.981	36803
642.041	38448
642.101	53902
642.161	32205
642.221	23888
642.280	23586
642.340	23558
642.400	22387
642.460	25465
642.519	24525
642.579	24336
642.639	26004
642.698	22082
642.758	25562
642.818	24407
642.877	25833
642.937	30499
642.997	39845
643.056	63362
643.116	32923
643.175	26483
643.235	24593
643.294	23958
643.354	25801
643.414	24730
643.473	25900
643.532	25459
643.592	27548
643.651	33876
643.711	46947
643.770	74424
643.830	156305
643.889	296078
643.948	73745
644.008	28192
644.067	24716
644.126	23066
644.186	23099
644.245	22000
644.304	19742
644.363	22966
644.423	20204
644.482	21187
644.541	22271
644.600	19272
644.659	23406
644.719	22724
644.778	26750
644.837	31107
644.896	44484
644.955	75011
645.014	36390
645.073	27071
645.132	24561
645.191	26928
645.250	22627
645.309	23006
645.368	21004
645.427	22654
645.486	23207
645.545	28593
645.604	21074
645.663	20426
645.722	20616
645.781	21220
645.840	20689
645.898	22121
645.957	25621
646.016	28376
646.075	41160
646.134	64928
646.192	152710
646.251	203208
646.310	39529
646.369	22178
646.427	21442
646.486	20001
646.545	20362
646.603	20522
646.662	19596
646.721	19900
646.779	18887
646.838	18914
646.896	21500
646.955	22024
647.014	24301
647.072	29175
647.131	49113
647.189	29320
647.248	18377
647.306	19340
647.365	19765
647.423	16414
647.481	19584
647.540	18281
647.598	18791
647.657	16777
647.715	18614
647.773	17419
647.832	19540
647.890	18079
647.948	18461
648.007	18893
648.065	17451
648.123	19685
648.181	21908
648.240	21886
648.298	20333
648.356	18342
648.414	19673
648.472	18606
648.531	19036
648.589	18534
648.647	17919
648.705	17800
648.763	19060
648.821	18303
648.879	17993
648.937	18994
648.995	20235
649.053	19483
649.111	22777
649.169	26882
649.227	36412
649.285	58394
649.343	133580
649.401	91599
649.459	124081
649.516	72988
649.574	35174
649.632	55009
649.690	56059
649.748	29036
649.806	30118
649.863	38436
649.921	41289
649.979	29393
650.037	18484
650.094	16959
650.152	18597
650.210	16595
650.268	17914
650.325	17919
650.383	21179
650.440	17490
650.498	16593
650.556	15518
650.613	15092
650.671	16370
650.728	16745
650.786	18083
650.843	16855
650.901	14745
650.958	15817
651.016	15329
651.073	15733
651.131	14114
651.188	15411
651.246	16672
651.303	14858
651.360	15763
651.418	15068
651.475	16296
651.532	13287
651.590	15207
651.647	15000
651.704	15355
651.762	16542
651.819	17346
651.876	15066
651.933	14652
651.990	15255
652.048	14210
652.105	15413
652.162	15367
652.219	14254
652.276	15419
652.333	14920
652.390	13964
652.448	15698
652.505	14856
652.562	14948
652.619	15757
652.676	20020
652.733	20523
652.790	14326
652.847	13038
652.904	14442
652.961	14057
653.017	16191
653.074	19411
653.131	22797
653.188	14863
653.245	14817
653.302	14419
653.359	14669
653.415	15801
653.472	14232
653.529	14565
653.586	13329
653.642	14871
653.699	13923
653.756	13163
653.813	14074
653.869	13430
653.926	13190
653.983	12586
654.039	13487
654.096	13771
654.152	15027
654.209	14534
654.266	15861
654.322	15742
654.379	18786
654.435	18353
654.492	20676
654.548	30845
654.605	47502
654.661	20447
654.717	15257
654.774	16787
654.830	16100
654.887	15462
654.943	16060
655.000	16399
655.056	14871
655.112	15636
655.168	14135
655.225	14503
655.281	17307
655.337	21760
655.394	34241
655.450	25308
655.506	22406
655.562	36186
655.618	26956
655.675	13949
655.731	15670
655.787	13976
655.843	14795
655.899	12554
655.955	14112
656.011	14802
656.067	13461
656.123	14424
656.179	14715
656.235	15304
656.291	12529
656.347	15927
656.403	14688
656.459	14893
656.515	17645
656.571	17252
656.627	16986
656.683	15334
656.739	15830
656.795	15370
656.850	17744
656.906	20690
656.962	16954
657.018	13349
657.074	15336
657.129	14863
657.185	15310
657.241	16460
657.297	15063
657.352	14877
657.408	14963
657.464	18614
657.519	16067
657.575	13237
657.630	14212
657.686	14297
657.742	14574
657.797	13915
657.853	14815
657.908	16324
657.964	13890
658.019	14123
658.075	14128
658.130	14581
658.186	13366
658.241	13652
658.297	13712
658.352	13896
658.407	14009
658.463	14203
658.518	14034
658.573	14534
658.629	12677
658.684	13598
658.739	13804
658.795	12727
658.850	14102
658.905	13389
658.960	14491
659.016	13422
659.071	14830
659.126	17573
659.181	20271
659.236	35223
659.291	37116
659.346	22248
659.401	19017
659.457	17189
659.512	18937
659.567	16499
659.622	14709
659.677	13890
659.732	15288
659.787	16096
659.842	17410
659.897	20783
659.952	15322
660.007	13735
660.061	15944
660.116	14034
660.171	13612
660.226	14133
660.281	15077
660.336	13113
660.391	13759
660.445	13776
660.500	15763
660.555	16810
660.610	14922
660.664	14746
660.719	13721
660.774	15263
660.828	15430
660.883	16680
660.938	15353
660.992	13272
661.047	14136
661.101	12686
661.156	13766
661.211	13178
661.265	14285
661.320	13315
661.374	14359
661.429	13156
661.483	13621
661.538	13604
661.592	15228
661.647	13616
661.701	14486
661.755	13414
661.810	14416
661.864	14132
661.919	13611
661.973	14442
662.027	14124
662.081	12802
662.136	14146
662.190	14815
662.244	15024
662.299	13984
662.353	13834
662.407	14559
662.461	17043
662.515	15066
662.569	16065
662.624	14750
662.678	14704
662.732	14768
662.786	14024
662.840	15184
662.894	14908
662.948	13203
663.002	13094
663.056	14111
663.110	12965
663.164	13797
663.218	14020
663.272	14732
663.326	16966
663.380	16456
663.434	15502
663.488	14275
663.542	15201
663.595	14820
663.649	14631
663.703	14217
663.757	14200
663.811	13788
663.864	14126
663.918	14776
663.972	14420
664.026	13235
664.079	14108
664.133	14306
664.187	13432
664.240	12658
664.294	13536
664.348	14702
664.401	14077
664.455	12914
664.508	13313
664.562	13019
664.615	13754
664.669	12642
664.722	13409
664.776	13383
664.829	13960
664.883	13967
664.936	14622
664.990	14914
665.043	15517
665.097	16353
665.150	16838
665.203	14856
665.257	15056
665.310	14555
665.363	15793
665.417	15771
665.470	15274
665.523	14441
665.576	15023
665.630	14359
665.683	15075
665.736	15003
665.789	14896
665.842	14386
665.895	15210
665.949	14960
666.002	14406
666.055	14225
666.108	16285
666.161	15895
666.214	16902
666.267	17008
666.320	20798
666.373	16372
666.426	16247
666.479	14192
666.532	16607
666.585	18490
666.638	18489
666.691	16795
666.744	18640
666.796	18678
666.849	17360
666.902	14823
666.955	15015
667.008	14252
667.060	13161
667.113	12389
667.166	13420
667.219	13536
667.271	14171
667.324	13990
667.377	14583
667.430	14508
667.482	15895
667.535	16511
667.587	17325
667.640	18611
667.693	23211
667.745	40010
667.798	39973
667.850	18171
667.903	15662
667.955	14318
668.008	15169
668.060	16902
668.113	17413
668.165	16797
668.218	16614
668.270	15533
668.322	15530
668.375	15002
668.427	15864
668.479	14325
668.532	14567
668.584	15914
668.636	14973
668.689	14867
668.741	14621
668.793	15043
668.845	14200
668.898	14582
668.950	14204
669.002	15005
669.054	14278
669.106	14350
669.158	16574
669.211	14869
669.263	15553
669.315	16689
669.367	15728
669.419	15585
669.471	16921
669.523	15305
669.575	15907
669.627	16518
669.679	15021
669.731	14147
669.783	14128
669.835	14813
669.886	15587
669.938	13641
669.990	13571
670.042	13900
670.094	14011
670.146	13252
670.197	14410
670.249	14893
670.301	14697
670.353	15928
670.404	16023
670.456	18886
670.508	21723
670.560	25507
670.611	36078
670.663	54366
670.715	121012
670.766	171408
670.818	46090
670.869	18415
670.921	15758
670.972	14903
671.024	15258
671.075	14044
671.127	14982
671.178	14298
671.230	13544
671.281	14026
671.333	15034
671.384	15207
671.436	16543
671.487	16527
671.538	17230
671.590	17610
671.641	21841
671.692	23025
671.744	30424
671.795	23188
671.846	16835
671.897	16317
671.949	15504
672.000	14634
672.051	14720
672.102	15942
672.153	15123
672.204	14465
672.256	14647
672.307	14685
672.358	15086
672.409	14837
672.460	14368
672.511	14562
672.562	14817
672.613	14952
672.664	14895
672.715	14518
672.766	13140
672.817	13284
672.868	14190
672.919	13740
672.970	14126
673.021	14374
673.071	13966
673.122	13892
673.173	14559
673.224	13619
673.275	13651
673.326	12998
673.376	13281
673.427	12527
673.478	14259
673.528	12923
673.579	13741
673.630	12787
673.680	13658
673.731	12773
673.782	13219
673.832	14302
673.883	14292
673.934	13430
673.984	13444
674.035	12895
674.085	13334
674.136	13769
674.186	14490
674.237	18193
674.287	24277
674.338	14644
674.388	13391
674.438	12866
674.489	13920
674.539	14333
674.589	14267
674.640	13555
674.690	14294
674.740	14819
674.791	14413
674.841	14813
674.891	14852
674.942	14387
674.992	14973
675.042	12282
675.092	12126
675.142	12518
675.193	13378
675.243	13416
675.293	14929
675.343	13852
675.393	13910
675.443	14119
675.493	12214
675.543	11648
675.593	13792
675.643	12681
675.693	12781
675.743	13022
675.793	12593
675.843	12051
675.893	12922
675.943	12150
675.993	12575
676.043	13037
676.093	12566
676.142	11713
676.192	12799
676.242	11838
676.292	12150
676.341	12725
676.391	12901
676.441	10793
676.491	12280
676.540	12067
676.590	12278
676.640	13113
676.689	12047
676.739	10512
676.789	11119
676.838	11413
676.888	11194
676.937	12249
676.987	10530
677.037	10592
677.086	9658
677.136	11034
677.185	10962
677.235	9817
677.284	11326
677.333	10759
677.383	10109
677.432	10477
677.482	10989
677.531	10428
677.580	10863
677.630	10347
677.679	10911
677.728	11134
677.778	10090
677.827	10117
677.876	10864
677.925	9905
677.975	10314
678.024	10263
678.073	10915
678.122	12219
678.171	11875
678.220	10829
678.269	13246
678.319	11824
678.368	12228
678.417	12050
678.466	12596
678.515	13092
678.564	12804
678.613	12032
678.662	11646
678.711	11387
678.760	11753
678.809	11116
678.857	10861
678.906	10779
678.955	11370
679.004	11766
679.053	11161
679.102	10880
679.151	11712
679.199	9770
679.248	10708
679.297	10643
679.346	12851
679.394	11444
679.443	10747
679.492	10805
679.540	10734
679.589	11721
679.638	11054
679.686	9919
679.735	10710
679.784	10036
679.832	11273
679.881	10255
679.929	10138
679.978	9579
680.026	10904
680.075	10324
680.123	10058
680.172	9289
680.220	9028
680.268	9878
680.317	10608
680.365	9584
680.414	10059
680.462	10433
680.510	10036
680.559	9441
680.607	10052
680.655	10661
680.703	9343
680.752	9494
680.800	8813
680.848	9553
680.896	8850
680.945	9576
680.993	9410
681.041	9493
681.089	8761
681.137	8313
681.185	9365
681.233	9264
681.258	9511
681.281	9697
681.329	9530
681.377	8813
681.380	8911
681.425	9773
681.473	10577
681.502	10455
681.521	10276
681.569	10584
681.617	10125
681.624	10197
681.665	10308
681.713	11236
681.745	10676
681.761	10341
681.809	10101
681.857	10970
681.867	10969
681.904	10764
681.952	11361
681.989	11347
682.000	11277
682.048	12256
682.096	10535
682.111	10889
682.143	11463
682.191	10634
682.233	11857
682.239	11991
682.286	11678
682.334	10747
682.354	10926
682.382	11079
682.430	11554
682.476	10596
682.477	10530
682.525	11420
682.572	10417
682.598	10799
682.620	11080
682.667	12065
682.715	11929
682.720	12031
682.763	12590
682.810	13187
682.841	13323
682.857	13267
682.905	12051
682.952	12240
682.963	12359
683.000	12594
683.047	12249
683.085	13034
683.095	13186
683.142	12099
683.190	12410
683.206	12346
683.237	12256
683.284	13307
683.328	13347
683.332	13296
683.379	13257
683.426	12642
683.449	12869
683.473	13104
683.521	12252
683.568	13770
683.571	13707
683.615	12307
683.662	14038
683.693	13425
683.709	13059
683.757	12925
683.804	14107
683.814	14137
683.851	14063
683.898	14268
683.936	14048
683.945	14017
683.992	15057
684.039	15752
684.057	16425
684.086	17252
684.133	16877
684.179	16126
684.180	16057
684.227	16809
684.274	16910
684.300	17107
684.321	17181
684.368	15804
684.415	16199
684.422	16047
684.462	14780
684.509	15316
684.543	14889
684.556	14768
684.603	14917
684.649	14342
684.665	14375
684.696	14632
684.743	14646
684.786	16102
684.790	16210
684.837	16042
684.883	17318
684.908	17747
684.930	17861
684.977	18827
685.023	16970
685.029	16971
685.070	16557
685.117	15926
685.150	17258
685.164	17957
685.210	17893
685.257	19475
685.272	19373
685.303	18782
685.350	18612
685.393	19597
685.396	19729
685.443	21901
685.490	22882
685.514	22955
685.536	22020
685.583	20484
685.629	19896
685.636	19685
685.675	19171
685.722	19853
685.757	20276
685.768	20386
685.815	20681
685.861	19701
685.878	19818
685.908	20050
685.954	20185
686.000	20889
686.000	20910
686.047	22194
686.093	26150
686.121	26647
686.139	25706
686.185	23138
686.232	21201
686.242	21015
686.278	20818
686.324	19132
686.363	18487
686.370	18495
686.416	18726
686.463	19766
686.484	19376
686.509	18861
686.555	18918
686.601	18645
686.606	18648
686.647	18888
686.693	18760
686.727	19152
686.739	19241
686.785	19236
686.831	18960
686.848	18865
686.877	18640
686.923	18717
686.969	18351
686.969	18348
687.015	19487
687.061	19830
687.090	20008
687.107	19953
687.153	19660
687.199	19597
687.211	19353
687.245	19132
687.291	20394
687.332	21071
687.336	21110
687.382	21950
687.428	20566
687.453	21012
687.474	21043
687.520	20659
687.565	19997
687.574	19757
687.611	19458
687.657	19382
687.695	20041
687.702	20222
687.748	21859
687.794	22326
687.816	22254
687.839	21582
687.885	20925
687.931	19825
687.937	19755
687.976	20018
688.022	20484
688.058	20707
688.067	20769
688.113	21021
688.158	20835
688.179	20941
688.204	21005
688.249	20998
688.295	21415
688.300	21386
688.340	21729
688.386	22629
688.421	22088
688.431	21819
688.477	22112
688.522	22341
688.542	22424
688.567	22569
688.613	22231
688.658	21366
688.663	21400
688.703	21752
688.749	21847
688.784	21790
688.794	21786
688.839	21709
688.884	20916
688.905	20727
688.930	20621
688.975	21206
689.020	21147
689.026	21131
689.065	21269
689.110	21010
689.146	21464
689.155	21499
689.201	20975
689.246	20663
689.267	20670
689.291	21127
689.336	21483
689.381	22102
689.388	22130
689.426	21740
689.471	21891
689.509	20833
689.516	20680
689.561	20911
689.606	20746
689.630	20815
689.651	21180
689.696	20591
689.741	21980
689.750	22040
689.785	21903
689.830	21164
689.871	21176
689.875	21189
689.920	20489
689.965	20576
689.992	20419
690.010	20656
690.054	21033
690.099	21948
690.112	21947
690.144	21660
690.189	21272
690.233	21511
690.233	21536
690.278	21413
690.323	21326
690.354	21344
690.367	21424
690.412	21579
690.457	21516
690.474	21634
690.501	21781
690.546	21595
690.590	21405
690.595	21344
690.635	20977
690.680	20865
690.716	20819
690.724	20988
690.769	22043
690.813	23001
690.836	22943
690.857	22793
690.902	23211
690.946	23606
690.957	23689
690.991	25102
691.035	26664
691.077	28633
691.080	28702
691.124	28144
691.168	28717
691.198	28468
691.213	28167
691.257	28226
691.301	27032
691.318	26858
691.346	26089
691.390	23974
691.434	22679
691.439	22497
691.478	23461
691.522	24440
691.559	24884
691.567	24941
691.611	25626
691.655	25708
691.680	25922
691.699	25593
691.743	24717
691.787	23798
691.800	23383
691.831	23679
691.875	24979
691.919	25648
691.921	25636
691.964	26227
692.008	26463
692.041	26806
692.052	26819
692.096	26458
692.139	26566
692.162	26180
692.183	25986
692.227	26445
692.271	26189
692.282	26207
692.315	26494
692.359	26059
692.402	26361
692.403	26407
692.447	26336
692.490	26455
692.523	26634
692.534	26820
692.578	27023
692.622	27118
692.643	27221
692.666	26866
692.709	25812
692.753	25329
692.763	24990
692.797	24749
692.840	24899
692.884	25091
692.884	25140
692.928	25513
692.971	26162
693.004	26503
693.015	26478
693.059	25847
693.102	25875
693.124	25534
693.146	25786
693.189	26612
693.233	27184
693.245	27366
693.276	27836
693.320	28152
693.363	28188
693.365	28162
693.407	28462
693.450	28296
693.485	28088
693.493	28242
693.537	29014
693.580	29851
693.605	30116
693.624	30201
693.667	30430
693.710	30666
693.725	30627
693.753	32496
693.797	35827
693.840	38900
693.845	39139
693.883	37509
693.926	35878
693.966	34349
693.970	34140
694.013	31186
694.056	28453
694.086	26648
694.099	26899
694.142	27188
694.185	27637
694.206	27678
694.229	28194
694.272	29258
694.315	30531
694.326	30684
694.358	31712
694.401	33285
694.444	35100
694.446	35103
694.487	34557
694.530	33693
694.566	33163
694.573	32861
694.616	30363
694.659	28052
694.686	26474
694.702	26194
694.745	25449
694.787	24536
694.806	23982
694.830	24220
694.873	24980
694.916	25242
694.926	25419
694.959	26091
695.002	26413
695.044	26754
695.046	26716
695.087	27244
695.130	27636
695.166	27991
695.172	27976
695.215	27532
695.258	27010
695.286	26554
695.301	26528
695.343	26380
695.386	26165
695.406	25919
695.428	25609
695.471	24980
695.514	24798
695.526	24555
695.556	25031
695.599	26065
695.641	26532
695.646	26563
695.684	26072
695.726	25366
695.766	24749
695.769	24838
695.811	25153
695.854	25733
695.886	26074
695.896	26088
695.938	25635
695.981	25248
696.005	25066
696.023	25333
696.065	25859
696.108	26406
696.125	26547
696.150	26618
696.192	26632
696.235	26494
696.245	26469
696.277	26117
696.319	25329
696.361	24591
696.365	24471
696.404	24969
696.446	25470
696.485	26002
696.488	26090
696.530	26403
696.572	26502
696.604	26738
696.614	26738
696.656	26375
696.698	25938
696.724	25623
696.740	25543
696.783	25155
696.825	24801
696.844	24604
696.867	24941
696.909	25361
696.951	25848
696.964	25901
696.992	25608
697.034	25289
697.076	24808
697.083	24693
697.118	25480
697.160	26225
697.202	26992
697.203	26948
697.244	26652
697.286	26335
697.323	25917
697.327	26014
697.369	26339
697.411	26826
697.442	27006
697.453	27287
697.494	28185
697.536	29124
697.562	29632
697.578	29788
697.620	29946
697.661	30154
697.682	30201
697.703	31348
697.744	33406
697.786	35650
697.801	36321
697.828	36211
697.869	35883
697.911	35498
697.921	35344
697.952	33553
697.994	31087
698.035	28541
698.040	28166
698.077	27412
698.118	26474
698.160	25528
698.160	25459
698.201	25904
698.243	26303
698.279	26563
698.284	26669
698.325	27105
698.367	27475
698.399	27667
698.408	27513
698.449	26531
698.491	25556
698.518	24869
698.532	25134
698.573	25683
698.614	26268
698.638	26521
698.656	26771
698.697	27234
698.738	27676
698.757	27816
698.779	28130
698.820	28596
698.862	29056
698.877	29156
698.903	29489
698.944	29904
698.985	30312
698.996	30352
699.026	29660
699.067	28594
699.116	27254
699.235	26622
699.354	27106
699.474	28216
699.593	33418
699.713	31143
699.832	28998
699.951	30839
700.070	27648
700.190	26184
700.309	27698
700.428	31454
700.547	26906
700.667	27150
700.786	32044
700.905	27950
701.024	30270
701.143	28075
701.262	24291
701.381	24809
701.500	28161
701.619	33507
701.738	26136
701.857	23490
701.976	23577
702.095	24259
702.214	29362
702.333	32076
702.452	28288
702.571	25032
702.690	24515
702.809	23943
702.928	23225
703.047	25845
703.165	24024
703.284	24405
703.403	23700
703.522	29453
703.640	27872
703.759	36568
703.878	49589
703.997	28074
704.115	23086
704.234	24115
704.353	23941
704.471	22922
704.590	21904
704.708	22376
704.827	21682
704.946	24288
705.064	26535
705.183	24549
705.301	28379
705.420	40690
705.538	35071
705.656	29929
705.775	31307
705.893	49219
706.012	58521
706.130	31836
706.249	30019
706.367	32835
706.485	34368
706.604	32493
706.722	34712
706.840	44503
706.958	40491
707.077	31589
707.195	29203
707.313	28820
707.431	27606
707.549	27963
707.668	28219
707.786	29048
707.904	27501
708.022	26110
708.140	26844
708.258	27861
708.376	28145
708.494	28103
708.612	30560
708.730	42288
708.848	41076
708.966	40257
709.084	36062
709.202	33915
709.320	35245
709.438	34972
709.556	34778
709.674	35192
709.791	35272
709.909	33956
710.027	33161
710.145	32351
710.263	33381
710.380	33693
710.498	32794
710.616	33512
710.733	33698
710.851	35321
710.969	35207
711.086	34412
711.204	31989
711.322	33834
711.439	33503
711.557	35364
711.674	32972
711.792	34596
711.909	32834
712.027	33335
712.144	30667
712.262	30514
712.379	35728
712.497	49409
712.614	46873
712.732	39724
712.849	39201
712.966	45855
713.084	57833
713.201	42490
713.318	41457
713.436	38122
713.553	38149
713.670	39385
713.787	44748
713.905	43888
714.022	37053
714.139	37336
714.256	39452
714.373	41530
714.490	46146
714.608	66596
714.725	191203
714.842	194593
714.959	40873
715.076	35427
715.193	33593
715.310	33483
715.427	33490
715.544	32637
715.661	32833
715.778	32166
715.895	35580
716.011	35778
716.128	33633
716.245	34951
716.362	44450
716.479	45922
716.596	31602
716.713	31507
716.829	30956
716.946	30640
717.063	30068
717.180	30361
717.296	28381
717.413	30382
717.530	30085
717.646	31333
717.763	28928
717.880	28201
717.996	28743
718.113	32033
718.229	29440
718.346	27233
718.462	30769
718.579	44796
718.695	85997
718.812	54748
718.928	46948
719.045	32188
719.161	25787
719.277	26020
719.394	26094
719.510	28485
719.626	26913
719.743	32508
719.859	29995
719.975	33567
720.092	62938
720.208	113109
720.324	35730
720.440	29535
720.557	36966
720.673	63302
720.789	76497
720.905	149379
721.021	47390
721.137	26559
721.253	28094
721.369	29166
721.486	33092
721.602	47262
721.718	26127
721.834	24053
721.950	26352
722.066	24253
722.181	24373
722.297	27355
722.413	23266
722.529	23821
722.645	22580
722.761	21927
722.877	22859
722.993	21500
723.108	22395
723.224	22479
723.340	22914
723.456	20950
723.571	21176
723.687	21791
723.803	21701
723.918	22307
724.034	23007
724.150	21427
724.265	25751
724.381	56590
724.497	72758
724.612	21847
724.728	19510
724.843	21114
724.959	25737
725.074	54429
725.190	61417
725.305	25246
725.421	22752
725.536	19719
725.651	19450
725.767	17925
725.882	19524
725.997	19330
726.113	20477
726.228	19030
726.343	17949
726.459	16388
726.574	20594
726.689	19031
726.804	18206
726.920	18574
727.035	18355
727.150	19657
727.265	17002
727.380	20163
727.495	16898
727.610	16724
727.725	17679
727.841	19862
727.956	30593
728.071	29689
728.186	17978
728.301	15378
728.416	18657
728.531	17441
728.645	15450
728.760	18123
728.875	19719
728.990	17286
729.105	17224
729.220	20657
729.335	19428
729.449	16243
729.564	15408
729.679	14790
729.794	14978
729.908	19713
730.023	16135
730.138	14349
730.253	14764
730.367	14501
730.482	14801
730.596	16403
730.711	17134
730.826	16906
730.940	15482
731.055	18360
731.169	15482
731.284	14287
731.398	15286
731.513	18977
731.627	17051
731.742	19005
731.856	20478
731.970	15562
732.085	16439
732.199	15581
732.313	17541
732.428	26134
732.542	56413
732.656	36948
732.771	16875
732.885	14559
732.999	15110
733.113	16016
733.227	14753
733.342	14624
733.456	13755
733.570	13051
733.684	12568
733.798	15232
733.912	14084
734.026	12194
734.140	13312
734.254	16058
734.368	30463
734.482	37560
734.596	13542
734.710	13794
734.824	12717
734.938	12684
735.052	14122
735.166	18202
735.280	14697
735.393	14569
735.507	15010
735.621	21966
735.735	39436
735.849	16079
735.962	13157
736.076	15319
736.190	15238
736.303	22414
736.417	27833
736.531	13827
736.644	14188
736.758	11139
736.872	11493
736.985	12645
737.099	10916
737.212	11502
737.326	12797
737.439	12061
737.553	13192
737.666	11856
737.780	10735
737.893	11240
738.007	11364
738.120	10880
738.233	11231
738.347	11650
738.460	11807
738.573	14600
738.687	14331
738.800	15122
738.913	21658
739.026	14692
739.140	13060
739.253	11253
739.366	9956
739.479	11106
739.592	9807
739.705	11148
739.818	12118
739.932	12542
740.045	12076
740.158	12028
740.271	11274
740.384	10109
740.497	10686
740.610	11380
740.723	10941
740.836	10625
740.949	12745
741.062	22622
741.174	17017
741.287	11422
741.400	10350
741.513	10366
741.626	12020
741.739	11266
741.851	11478
741.964	11269
742.077	10194
742.189	10573
742.302	11530
742.415	10860
742.527	9806
742.640	9563
742.753	9674
742.865	9974
742.978	9108
743.090	10673
743.203	10034
743.316	10936
743.428	9343
743.541	10006
743.653	9510
743.766	9964
743.878	10986
743.990	16758
744.103	13498
744.215	11521
744.327	12398
744.440	17510
744.552	32084
744.664	14410
744.777	10079
744.889	9783
745.001	10633
745.113	9098
745.226	8594
745.338	10309
745.450	9135
745.562	8728
745.674	9068
745.786	8291
745.898	8780
746.010	10167
746.122	10426
746.234	11914
746.347	9470
746.459	9041
746.570	8842
746.682	9196
746.794	9420
746.906	9923
747.018	9045
747.130	8835
747.242	9995
747.354	9436
747.466	10839
747.577	9288
747.689	9817
747.801	9311
747.913	8923
748.024	8629
748.136	8237
748.248	8521
748.359	8370
748.471	9276
748.583	8783
748.694	9605
748.806	11841
748.918	13944
749.029	10930
749.141	12411
749.252	12079
749.364	17184
749.475	38255
749.587	21032
749.698	9396
749.809	10174
749.921	7734
750.032	9348
750.144	7739
750.255	7605
750.366	7825
750.478	8213
750.589	9386
750.700	11825
750.811	11097
750.923	16606
751.034	44554
751.145	37880
751.256	9309
751.367	9174
751.479	7523
751.590	7339
751.701	8681
751.812	7731
751.923	7804
752.034	8004
752.145	6902
752.256	8374
752.367	7848
752.478	7493
752.589	7885
752.700	7406
752.811	7269
752.922	8433
753.032	10543
753.143	12921
753.254	8164
753.365	7825
753.476	7041
753.586	7470
753.697	7529
753.808	7153
753.919	7325
754.029	7775
754.140	7825
754.251	7283
754.361	7279
754.472	8382
754.582	8381
754.693	7771
754.804	7298
754.914	7348
755.025	7159
755.135	8043
755.246	7884
755.356	7303
755.466	7995
755.577	8151
755.687	7087
755.798	8037
755.908	7722
756.018	7555
756.129	6888
756.239	7883
756.349	7725
756.460	7041
756.570	7672
756.680	7579
756.790	8846
756.900	10904
757.011	7340
757.121	7409
757.231	6640
757.341	7786
757.451	6812
757.561	6124
757.671	5880
757.781	6181
757.891	7612
758.001	7960
758.111	7228
758.221	8559
758.331	11913
758.441	10693
758.551	18345
758.661	13502
758.771	8344
758.880	8266
758.990	7975
759.100	7287
759.210	6939
759.320	8441
759.429	8097
759.539	7624
759.649	7418
759.758	7713
759.868	7441
759.978	8039
760.087	7668
760.197	8380
760.307	7400
760.416	7055
760.526	7029
760.635	8636
760.745	7305
760.854	6696
760.964	7340
761.073	7936
761.182	7793
761.292	7944
761.401	9015
761.511	8324
761.620	7787
761.729	8461
761.839	8736
761.948	8378
762.057	9875
762.166	8625
762.276	6745
762.385	9480
762.494	7075
762.603	7742
762.712	8223
762.822	8188
762.931	7673
763.040	7893
763.149	6826
763.258	7786
763.367	7546
763.476	7994
763.585	8091
763.694	8815
763.803	9185
763.912	9790
764.021	8841
764.130	8233
764.238	9052
764.347	8484
764.456	8038
764.565	9058
764.674	8229
764.783	8922
764.891	8042
765.000	9450
765.109	10059
765.217	10420
765.326	13247
765.435	15551
765.543	13716
765.652	15540
765.761	16595
765.869	23421
765.978	35137
766.086	60122
766.195	114843
766.303	293088
766.412	699638
766.520	547789
766.629	174920
766.737	67130
766.846	40093
766.954	29653
767.062	23925
767.171	22943
767.279	17600
767.387	14124
767.496	12525
767.604	12147
767.712	11213
767.820	11251
767.928	10964
768.037	10758
768.145	10744
768.253	10738
768.361	10065
768.469	9618
768.577	10232
768.685	10872
768.793	9808
768.901	10541
769.009	11614
769.117	12493
769.225	14518
769.333	20096
769.441	27467
769.549	47425
769.657	107819
769.765	330072
769.873	568220
769.981	208210
770.088	54707
770.196	28389
770.304	21783
770.412	17330
770.519	13571
770.627	12307
770.735	11719
770.842	11805
770.950	10932
771.058	11498
771.165	8830
771.273	10702
771.380	9326
771.488	10072
771.595	9343
771.703	8589
771.810	8668
771.918	8246
772.025	8495
772.133	8736
772.240	9217
772.348	8746
772.455	8575
772.562	7612
772.670	6921
772.777	8278
772.884	6896
772.991	7679
773.099	7843
773.206	7029
773.313	7557
773.420	7760
773.528	6171
773.635	6875
773.742	8136
773.849	7389
773.956	6481
774.063	7544
774.170	6850
774.277	8366
774.384	7204
774.491	7355
774.598	8519
774.705	9872
774.812	13699
774.919	9862
775.026	8635
775.133	8472
775.239	6658
775.346	7633
775.453	6733
775.560	6568
775.667	7752
775.773	6922
775.880	7256
775.987	6775
776.093	6310
776.200	7503
776.307	7146
776.413	8149
776.520	6401
776.627	7318
776.733	7166
776.840	5780
776.946	8097
777.053	6967
777.159	6806
777.266	6128
777.372	7619
777.478	6720
777.585	7226
777.691	6781
777.798	7673
777.904	10491
778.010	17867
778.117	13278
778.223	7406
778.329	7642
778.435	7100
778.542	7976
778.648	6853
778.754	6348
778.860	6848
778.966	7337
779.072	7281
779.178	6928
779.284	6827
779.391	6450
779.497	5714
779.603	8826
779.708	5742
779.815	10851
779.920	21960
780.026	31815
780.132	8435
780.238	6190
780.344	7524
780.450	7816
780.556	5587
780.661	6034
780.767	7526
780.873	6607
780.979	7157
781.085	6279
781.190	6402
781.296	6397
781.402	6451
781.507	6119
781.613	6116
781.719	5220
781.824	5528
781.930	6618
782.035	6856
782.141	6538
782.246	5948
782.352	5406
782.457	5968
782.563	5877
782.668	6815
782.773	7100
782.879	6217
782.984	7861
783.090	9680
783.195	17811
783.300	10131
783.405	7518
783.511	7529
783.616	6733
783.721	6172
783.826	6308
783.932	6581
784.037	7180
784.142	6463
784.247	6335
784.352	6302
784.457	6609
784.562	5248
784.667	5835
784.772	6330
784.877	5900
784.982	5495
785.087	5939
785.192	6438
785.297	5605
785.402	4908
785.507	5433
785.611	6062
785.716	6775
785.821	5462
785.926	5269
786.031	5616
786.135	6280
786.240	5208
786.345	4337
786.450	6315
786.554	5479
786.659	5344
786.763	4821
786.868	6389
786.973	7154
787.077	5659
787.182	5375
787.286	5100
787.391	4962
787.495	5176
787.600	5115
787.704	4727
787.809	5810
787.913	4821
788.017	5944
788.122	5091
788.226	5846
788.330	5187
788.435	5127
788.539	5259
788.643	4340
788.747	4871
788.852	4994
788.956	5409
789.060	5331
789.164	4928
789.268	4153
789.372	5086
789.476	4921
789.580	4878
789.684	4974
789.788	5195
789.892	5302
789.996	5503
790.100	5697
790.204	4980
790.308	5000
790.412	4667
790.516	6442
790.620	6199
790.724	6149
790.828	4693
790.931	5160
791.035	6442
791.139	5564
791.242	4389
791.346	5969
791.450	4594
791.554	5255
791.657	4543
791.761	5760
791.864	5187
791.968	5983
792.072	5468
792.175	5277
792.279	4481
792.382	5305
792.486	5598
792.589	6018
792.693	6238
792.796	4687
792.899	5311
793.003	5265
793.106	3469
793.209	5874
793.313	6633
793.416	4368
793.519	7075
793.623	13578
793.726	18668
793.829	7509
793.932	5472
794.035	4881
794.138	6078
794.242	6769
794.345	7744
794.448	10251
794.551	17214
794.654	18282
794.757	17813
794.860	9290
794.963	7029
795.066	4188
795.169	4997
795.272	3852
795.375	4762
795.477	4778
795.580	4860
795.683	3542
795.786	4851
795.889	3124
795.991	5590
796.094	6717
796.197	6120
796.300	5174
796.402	3455
796.505	3496
796.608	3667
796.710	4738
796.813	3645
796.915	4105
797.018	4428
797.120	4599
797.223	2989
797.326	5654
797.428	4481
797.530	4414
797.633	5088
797.735	7202
797.838	10604
797.940	9861
798.042	3509
798.145	4313
798.247	4670
798.349	3799
798.452	5086
798.554	3987
798.656	3408
798.758	5257
798.860	4119
798.962	3962
799.065	3967
799.167	3133
799.269	4936
799.371	5537
799.473	5786
799.575	6793
799.677	8436
799.779	10748
799.881	15086
799.983	9212
800.085	3818
800.187	4956
800.289	4303
800.390	5452
800.492	4203
800.594	3667
800.696	3239
800.798	3746
800.899	2989
801.001	3602
801.103	3754
801.205	2481
801.306	2922
801.408	3001
801.509	3502
801.611	4357
801.713	3901
801.814	3130
801.916	3715
802.017	4129
802.119	2953
802.220	3801
802.322	2956
802.423	8593
802.525	5381
802.626	4469
802.727	4683
802.829	4909
802.930	1991
803.031	4554
803.133	3486
803.234	2894
803.335	2992
803.436	3065
803.538	3492
803.639	2482
803.740	4029
803.841	3532
803.942	3650
804.043	3943
804.144	2362
804.245	3373
804.346	2655
804.447	4879
804.548	10013
804.649	10471
804.750	4526
804.851	2808
804.952	2460
805.053	3363
805.154	1812
805.255	4502
805.355	2955
805.456	2578
805.557	2200
805.658	2370
805.758	3686
805.859	2485
805.960	2918
806.061	2811
806.161	2650
806.262	2659
806.362	3718
806.463	3180
806.564	3862
806.664	3330
806.765	5164
806.865	5525
806.966	3325
807.066	2316
807.166	3709
807.267	3706
807.367	2312
807.468	3235
807.568	2070
807.668	3945
807.769	3554
807.869	2304
807.969	3768
808.069	3966
808.170	2464
808.270	2402
808.370	5725
808.470	8652
808.570	4947
808.670	3201
808.770	3109
808.870	3095
808.970	2950
809.070	1898
809.170	2829
809.271	3221
809.370	2894
809.470	3056
809.570	2782
809.670	2423
809.770	2988
809.870	3352
809.970	2537
810.070	2853
810.169	2671
810.269	1261
810.369	3256
810.469	1707
810.568	1933
810.668	2407
810.768	1707
810.867	3441
810.967	3255
811.066	2217
811.166	2125
811.265	3890
811.365	1514
811.464	2388
811.564	4054
811.663	5548
811.763	893
811.862	2736
811.962	3354
812.061	2503
812.160	1684
812.260	2786
812.359	2697
812.458	1967
812.557	2975
812.657	3639
812.756	3158
812.855	3034
812.954	2626
813.053	3533
813.153	2922
813.252	2005
813.351	2720
813.450	3108
813.549	1901
813.648	3410
813.747	1856
813.846	2785
813.945	1815
814.044	1959
814.143	3090
814.242	3371
814.341	1676
814.439	3507
814.538	2808
814.637	2624
814.736	1843
814.835	3283
814.933	1801
815.032	3116
815.131	2301
815.229	3262
815.328	2578
815.427	2402
815.525	3713
815.624	3551
815.722	1664
815.821	3885
815.919	2890
816.018	3667
816.116	4299
816.215	3052
816.313	3315
816.412	3693
816.510	2501
816.609	4916
816.707	3873
816.805	4223
816.904	3280
817.002	3772
817.100	5459
817.198	5162
817.296	2762
817.395	4414
817.493	7186
817.591	6406
817.689	8689
817.787	10482
817.885	16282
817.983	27433
818.081	58765
818.179	139076
818.277	340000
818.375	285087
818.473	80166
818.571	32563
818.669	21659
818.767	19488
818.865	17802
818.963	21821
819.061	31324
819.158	52994
819.256	110844
819.354	252783
819.452	516948
819.549	339230
819.647	104886
819.745	44689
819.842	27257
819.940	19707
820.038	13220
820.135	11363
820.233	10257
820.330	7771
820.428	6681
820.525	7343
820.623	5802
820.720	6508
820.818	5274
820.915	5485
821.012	4743
821.110	2993
821.207	4176
821.304	3257
821.402	3239
821.499	4192
821.596	4694
821.693	4403
821.791	5391
821.888	9790
821.985	21999
822.082	15530
822.179	5035
822.276	2811
822.373	2530
822.470	2562
822.567	2816
822.664	2445
822.761	3561
822.858	1284
822.955	2957
823.052	2736
823.149	3405
823.246	4072
823.343	2941
823.440	2387
823.536	2008
823.633	2611
823.730	2549
823.827	3355
823.923	2193
824.020	2925
824.117	2146
824.213	1710
824.310	2197
824.407	3097
824.503	1978
824.600	2106
824.696	2025
824.793	3116
824.889	2369
824.986	2543
825.082	1714
825.179	3214
825.275	2871
825.371	2414
825.468	2571
825.564	1809
825.660	3316
825.757	2061
825.853	2860
825.949	1710
826.045	2498
826.142	1773
826.238	2087
826.334	2490
826.430	2308
826.526	2668
826.622	1766
826.718	2528
826.814	1714
826.910	3175
827.006	2121
827.102	1817
827.198	1810
827.294	1752
827.390	2350
827.486	2045
827.582	1119
827.678	1819
827.774	1914
827.869	1597
827.965	3575
828.061	919
828.157	1763
828.252	2086
828.348	949
828.444	1993
828.539	593
828.635	1718
828.731	2538
828.826	1583
828.922	2090
829.017	1238
829.113	2799
829.208	1274
829.304	1739
829.399	2718
829.495	901
829.590	3048
829.685	1483
829.781	2112
829.876	1911
829.971	1845
830.066	1594
830.162	1992
830.257	1702
830.352	1152
830.447	2474
830.543	2987
830.638	1629
830.733	2668
830.828	2009
830.923	2819
831.018	1170
831.113	2293
831.208	1536
831.303	2247
831.398	2749
831.493	1818
831.588	2263
831.683	900
831.778	2057
831.873	1612
831.967	2031
832.062	2197
832.157	430
832.252	2746
832.346	2109
832.441	5509
832.536	7656
832.631	20888
832.725	14651
832.820	2685
832.914	2120
833.009	2255
833.104	5338
833.198	6545
833.293	2663
833.387	2718
833.482	1750
833.576	2353
833.670	2666
833.765	2510
833.859	2667
833.954	3710
834.048	2607
834.142	2841
834.237	898
834.331	1894
834.425	1232
834.519	1780
834.613	2572
834.708	1156
834.802	2198
834.896	2702
834.990	1898
835.084	1977
835.178	2119
835.272	2176
835.366	1186
835.460	2311
835.554	959
835.648	2037
835.742	1110
835.836	2021
835.930	930
836.024	3219
836.117	2575
836.211	3163
836.305	4892
836.399	7296
836.493	2043
836.586	2383
836.680	926
836.774	1593
836.867	2624
836.961	1789
837.055	1368
837.148	1326
837.242	983
837.335	1529
837.429	2973
837.522	2709
837.616	3683
837.709	7528
837.803	5509
837.896	2965
837.989	2435
838.083	5532
838.176	9606
838.269	9936
838.363	4063
838.456	2978
838.549	6914
838.642	12622
838.735	24042
838.829	8847
838.922	2021
839.015	1520
839.108	1717
839.201	2107
839.294	2118
839.387	3584
839.480	2063
839.573	5259
839.666	6062
839.759	3116
839.852	1278
839.945	1947
840.038	1445
840.131	2514
840.223	1815
840.316	2450
840.409	1561
840.502	1069
840.594	2626
840.687	1392
840.780	2526
840.873	2218
840.965	2989
841.058	5085
841.150	9092
841.243	6843
841.336	2134
841.428	1560
841.521	2310
841.613	2112
841.706	3424
841.798	1730
841.890	1063
841.983	506
842.075	2877
842.167	2957
842.260	2050
842.352	4818
842.444	5581
842.537	11877
842.629	16378
842.721	3370
842.813	1923
842.905	1527
842.997	2317
843.090	2762
843.182	5142
843.274	11003
843.366	22759
843.458	44753
843.550	28391
843.642	5523
843.734	3558
843.826	3973
843.918	4617
844.009	2955
844.101	1037
844.193	1221
844.285	1974
844.377	2100
844.469	2250
844.560	1012
844.652	1968
844.744	1934
844.835	2014
844.927	2116
845.019	3349
845.110	2328
845.202	355
845.293	1799
845.385	1165
845.476	2466
845.568	1940
845.659	2013
845.751	1995
845.842	1263
845.934	774
846.025	1966
846.116	1864
846.208	1563
846.299	1639
846.390	2018
846.482	2465
846.573	4561
846.664	5482
846.755	8789
846.846	6970
846.937	1473
847.029	1661
847.120	1659
847.211	1917
847.302	2621
847.393	1129
847.484	2490
847.575	1761
847.666	1257
847.757	1043
847.847	1172
847.938	2363
848.029	1428
848.120	1273
848.211	2172
848.302	567
848.392	1085
848.483	1002
848.574	1579
848.664	556
848.755	1521
848.846	1339
848.936	1500
849.027	2082
849.118	1572
849.208	996
849.299	2071
849.389	2786
849.480	4328
849.570	6420
849.661	9073
849.751	13101
849.841	6226
849.932	2188
850.022	986
850.112	1277
850.203	1406
850.293	1321
850.383	1535
850.474	1010
850.564	681
850.654	1909
850.744	1368
850.834	1532
850.924	1093
851.014	1699
851.104	2448
851.194	2282
851.284	4832
851.374	6198
851.464	3565
851.554	1781
851.644	2154
851.734	4703
851.824	4417
851.914	461
852.004	1860
852.094	563
852.183	1279
852.273	1717
852.363	1737
852.452	1326
852.542	2425
852.632	1696
852.721	1183
852.811	1153
852.901	2257
852.990	1295
853.080	1905
853.169	373
853.259	1670
853.348	528
853.438	2028
853.527	2969
853.617	2109
853.706	4578
853.795	6435
853.885	15933
853.974	28540
854.063	50280
854.152	82731
854.242	31075
854.331	5969
854.420	1701
854.509	2177
854.598	2757
854.687	3258
854.777	3282
854.866	1694
854.955	856
855.044	861
855.133	1714
855.222	1030
855.311	1213
855.400	1502
855.488	1419
855.577	1096
855.666	2046
855.755	2519
855.844	2426
855.933	2127
856.021	1945
856.110	1395
856.199	269
856.288	1552
856.376	978
856.465	1195
856.554	1374
856.642	832
856.731	1573
856.819	1728
856.908	1758
856.996	1578
857.085	956
857.173	2003
857.262	1566
857.350	1897
857.438	697
857.527	2088
857.615	1112
857.703	2653
857.792	1636
857.880	1488
857.968	1350
858.056	2552
858.145	2542
858.233	1966
858.321	651
858.409	2137
858.497	846
858.585	971
858.673	1004
858.761	1309
858.849	698
858.937	1386
859.025	1366
859.113	1782
859.201	50
859.289	1776
859.377	1986
859.465	1409
859.552	681
859.640	1723
859.728	1650
859.816	2475
859.903	1861
859.991	1701
860.079	1052
860.166	1639
860.254	1543
860.342	2148
860.429	448
860.517	1369
860.604	1957
860.692	2098
860.779	523
860.867	2693
860.954	2429
861.042	3205
861.129	3240
861.216	1963
861.304	1300
861.391	1686
861.478	1751
861.565	1638
861.653	1825
861.740	733
861.827	1268
861.914	1832
862.001	627
862.089	2141
862.176	548
862.263	1409
862.350	1551
862.437	1397
862.524	657
862.611	759
862.698	1424
862.785	1963
862.871	787
862.958	1799
863.045	1535
863.132	1369
863.219	637
863.306	615
863.392	1606
863.479	1469
863.566	663
863.652	2035
863.739	970
863.826	1502
863.912	1292
863.999	1264
864.086	1278
864.172	1339
864.259	874
864.345	1864
864.432	1302
864.518	1025
864.604	1087
864.691	619
864.777	1904
864.863	1070
864.950	1720
865.036	1167
865.122	1882
865.209	1793
865.295	1179
865.381	899
865.467	1600
865.553	2644
865.639	2735
865.726	4414
865.812	8305
865.898	16943
865.984	24724
866.070	48180
866.156	47340
866.242	11055
866.328	2297
866.414	1412
866.499	1309
866.585	1768
866.671	1529
866.757	2074
866.843	1589
866.928	1790
867.014	1102
867.100	2818
867.186	2478
867.271	4216
867.357	5291
867.442	6622
867.528	1926
867.614	1759
867.699	809
867.785	1427
867.870	1650
867.956	2256
868.041	2435
868.127	2686
868.212	2927
868.297	2649
868.383	2962
868.468	5852
868.553	10343
868.639	12988
868.724	28323
868.809	22694
868.894	3900
868.979	1732
869.065	1728
869.150	2049
869.235	983
869.320	1203
869.405	1750
869.490	927
869.575	563
869.660	1708
869.745	1875
869.830	966
869.915	1460
870.000	1007
870.085	311
870.169	797
870.254	1864
870.339	1118
870.424	450
870.509	1431
870.593	879
870.678	1080
870.763	902
870.847	1766
870.932	242
871.016	1862
871.101	487
871.186	1842
871.270	1503
871.355	595
871.439	1244
871.523	755
871.608	192
871.692	1594
871.777	868
871.861	1389
871.945	659
872.030	1396
872.114	1263
872.198	550
872.282	651
872.367	1210
872.451	1629
872.535	649
872.619	1003
872.703	1100
872.787	894
872.871	465
872.955	675
873.039	775
873.123	541
873.207	1721
873.291	340
873.375	965
873.459	1047
873.543	823
873.627	431
873.711	472
873.794	1409
873.878	699
873.962	-164
874.045	876
874.129	-1
874.137	35
874.213	400
874.245	418
874.296	450
874.352	869
874.380	1069
874.460	897
874.464	890
874.547	636
874.568	810
874.631	1336
874.676	1278
874.714	1221
874.784	1186
874.798	1181
874.881	1454
874.892	1310
874.965	348
874.999	755
875.048	1292
875.107	510
875.131	210
875.215	961
875.215	961
875.298	890
875.323	900
875.381	951
875.430	1179
875.465	1371
875.538	1681
875.548	1704
875.631	1983
875.646	1833
875.714	1140
875.753	1061
875.798	1038
875.861	435
875.881	233
875.964	929
875.968	949
876.047	1188
876.076	1260
876.130	1467
876.183	1563
876.213	1618
876.291	2157
876.296	2187
876.379	1271
876.398	1206
876.462	1050
876.506	982
876.545	917
876.613	972
876.628	986
876.711	1471
876.721	1483
876.794	1579
876.828	1170
876.877	515
876.935	430
876.960	437
877.043	1233
877.043	1233
877.125	975
877.150	1203
877.208	1698
877.258	1104
877.291	762
877.365	1140
877.374	1172
877.456	1489
877.472	1490
877.539	1452
877.579	1059
877.622	704
877.687	1260
877.704	1396
877.787	933
877.794	950
877.869	1157
877.901	1228
877.952	1320
878.008	1359
878.034	1467
878.115	983
878.117	968
878.199	1544
878.222	1612
878.282	1820
878.329	1505
878.364	1275
878.437	1096
878.447	1073
878.529	517
878.544	613
878.611	1034
878.651	960
878.694	963
878.758	1159
878.776	1169
878.858	1240
878.865	1233
878.941	1003
878.972	872
879.023	1086
879.078	1570
879.105	1714
879.185	2291
879.187	2297
879.269	2370
879.292	2154
879.351	1606
879.399	937
879.433	471
879.506	758
879.516	807
879.598	728
879.613	703
879.680	575
879.720	711
879.762	849
879.827	831
879.844	905
879.926	1200
879.933	1263
880.007	1200
880.040	898
880.089	836
880.147	1412
880.171	1601
880.253	2144
880.254	2148
880.335	2995
880.360	3091
880.417	3089
880.467	4252
880.499	5178
880.574	5803
880.580	5767
880.662	2271
880.680	1982
880.744	1362
880.787	1241
880.825	1096
880.893	524
880.907	451
880.989	748
881.000	806
881.070	1083
881.106	1011
881.152	1009
881.213	728
881.233	561
881.315	747
881.319	735
881.396	911
881.426	887
881.478	642
881.532	355
881.559	332
881.639	1218
881.641	1232
881.722	1404
881.745	1274
881.803	1276
881.852	1391
881.885	1258
881.958	1982
881.966	2061
882.047	2082
882.064	2122
882.129	2946
882.171	4211
882.210	6102
882.277	9492
882.291	9612
882.372	4058
882.383	3772
882.454	1879
882.489	1206
882.535	1063
882.596	1179
882.616	1178
882.697	486
882.702	481
882.778	735
882.808	850
882.859	1312
882.914	1661
882.940	1499
883.020	973
883.021	974
883.102	1240
883.127	1077
883.183	671
883.233	743
883.264	836
883.339	894
883.345	916
883.426	1233
883.445	1335
883.507	1465
883.551	1388
883.587	1467
883.657	1668
883.668	1678
883.749	1936
883.763	1895
883.830	1144
883.869	978
883.910	1281
883.975	1389
883.991	1299
884.072	958
884.081	937
884.152	901
884.187	790
884.233	1111
884.292	1707
884.314	1560
884.394	993
884.398	952
884.475	975
884.504	1037
884.555	1309
884.610	1609
884.636	1450
884.716	640
884.716	643
884.797	819
884.821	968
884.877	886
884.927	692
884.958	667
885.033	699
885.038	724
885.118	1040
885.139	1146
885.199	1047
885.244	842
885.279	757
885.350	707
885.359	747
885.439	895
885.456	977
885.520	1111
885.561	1089
885.600	1112
885.667	1412
885.680	1460
885.760	1339
885.773	1359
885.840	1342
885.878	1292
885.920	1149
885.984	785
886.000	819
886.080	953
886.089	1029
886.160	1274
886.195	1193
886.240	1193
886.300	1192
886.320	1206
886.400	1410
886.406	1431
886.480	1998
886.511	2141
886.560	2575
886.616	2971
886.640	2808
886.720	2196
886.722	2184
886.800	1487
886.827	1165
886.879	1034
886.932	867
886.959	972
887.038	1470
887.039	1464
887.119	642
887.143	432
887.198	875
887.248	1310
887.278	1231
887.354	805
887.358	838
887.437	1737
887.459	1921
887.517	1450
887.564	1149
887.596	1205
887.669	1057
887.676	1026
887.755	972
887.774	891
887.835	1062
887.880	1357
887.914	1433
887.985	1242
887.994	1197
888.073	971
888.090	922
888.153	1017
888.195	1060
888.232	1047
888.300	1058
888.311	1052
888.391	966
888.405	942
888.470	948
888.510	982
888.549	1100
888.615	1323
888.628	1364
888.708	1520
888.720	1555
888.787	896
888.825	457
888.866	479
888.930	603
888.945	751
889.024	1532
889.035	1632
889.103	1265
889.140	1062
889.182	972
889.245	854
889.261	902
889.340	1145
889.349	1170
889.419	1040
889.454	994
889.498	798
889.559	523
889.577	685
889.656	1402
889.664	1476
889.735	1031
889.768	816
889.814	1296
889.873	1934
889.978	1244
890.083	1001
890.187	1445
890.292	735
890.397	1927
890.501	1150
890.606	900
890.710	1172
890.815	1153
890.919	1458
891.024	1140
891.128	1049
891.233	1517
891.337	1283
891.442	1137
891.546	174
891.650	1719
891.755	1151
891.859	2915
891.963	1178
892.068	1563
892.172	652
892.276	1625
892.380	1004
892.484	1341
892.589	1245
892.693	490
892.797	1307
892.901	1771
893.005	1337
893.109	1483
893.213	1500
893.317	1652
893.421	1368
893.525	671
893.629	1215
893.733	822
893.837	801
893.941	1720
894.045	1746
894.148	725
894.252	1219
894.356	772
894.460	1935
894.564	1613
894.667	1123
894.771	1379
894.875	580
894.978	1366
895.082	632
895.186	1788
895.289	1769
895.393	1208
895.496	493
895.600	1213
895.703	845
895.807	1375
895.910	889
896.014	506
896.117	1142
896.221	1229
896.324	1430
896.427	1294
896.531	957
896.634	1426
896.737	1544
896.840	1092
896.944	801
897.047	1240
897.150	535
897.253	241
897.356	1741
897.460	866
897.563	1243
897.666	1184
897.769	1255
897.872	1056
897.975	487
898.078	918
898.181	654
898.284	403
898.387	1439
898.490	284
898.593	1326
898.695	1006
898.798	1128
898.901	772
899.004	1866
899.107	1281
899.209	1447
899.312	1438
899.415	1169
899.518	1144
899.620	1875
899.723	1929
899.826	4298
899.928	6657
900.031	1661
900.133	1409
900.236	463
900.338	1315
900.441	542
900.543	1092
900.646	1397
900.748	534
900.851	1289
900.953	617
901.055	1106
901.158	1894
901.260	1598
901.362	1181
901.465	1123
901.567	958
901.669	896
901.771	1685
901.873	1109
901.976	722
902.078	1116
902.180	1554
902.282	1600
902.384	1219
902.486	1264
902.588	1298
902.690	677
902.792	1203
902.894	1126
902.996	252
903.098	875
903.200	1180
903.302	854
903.404	1129
903.505	319
903.607	1115
903.709	1827
903.811	1210
903.913	965
904.014	722
904.116	1139
904.218	1080
904.319	979
904.421	811
904.523	364
904.624	1291
904.726	614
904.827	1250
904.929	564
905.030	369
905.132	738
905.233	713
905.335	610
905.436	956
905.537	730
905.639	1280
905.740	1323
905.841	1169
905.943	1662
906.044	1219
906.145	1006
906.247	1583
906.348	341
906.449	1321
906.550	2331
906.651	1368
906.752	1778
906.854	900
906.955	557
907.056	1070
907.157	1039
907.258	1213
907.359	260
907.460	1435
907.561	1183
907.662	722
907.762	1207
907.863	1316
907.964	1499
908.065	1675
908.166	840
908.267	1530
908.367	973
908.468	1485
908.569	1530
908.670	1839
908.770	3284
908.871	2811
908.971	1459
909.072	1569
909.173	1003
909.273	924
909.374	927
909.474	822
909.575	1214
909.675	1112
909.776	1994
909.876	1296
909.977	1318
910.077	1617
910.177	795
910.278	1686
910.378	774
910.478	1705
910.579	2258
910.679	1313
910.779	998
910.879	1954
910.980	1001
911.080	1269
911.180	1688
911.280	1251
911.380	1402
911.480	1197
911.580	1016
911.680	1965
911.780	912
911.880	2249
911.980	1098
912.080	1576
912.180	774
912.280	1467
912.380	1687
912.480	1230
912.580	1611
912.679	920
912.779	1232
912.879	1449
912.979	1395
913.078	1282
913.178	1276
913.278	1035
913.377	504
913.477	1048
913.577	2251
913.676	1761
913.776	1461
913.875	1981
913.975	1545
914.074	955
914.174	1211
914.273	1176
914.373	1755
914.472	1765
914.572	551
914.671	1030
914.770	900
914.870	1309
914.969	928
915.068	1194
915.167	1459
915.267	996
915.366	923
915.465	1182
915.564	760
915.663	1248
915.763	1008
915.862	919
915.961	1263
916.060	1352
916.159	686
916.258	678
916.357	894
916.456	1455
916.555	1306
916.654	986
916.752	821
916.851	1623
916.950	1267
917.049	1498
917.148	1002
917.247	1816
917.345	2104
917.444	1518
917.543	1353
917.642	1717
917.740	1594
917.839	793
917.937	1598
918.036	1175
918.135	1101
918.233	926
918.332	1267
918.430	1205
918.529	1138
918.627	1239
918.726	890
918.824	1338
918.923	1002
919.021	527
919.119	935
919.218	935
919.316	1129
919.414	1191
919.512	500
919.611	842
919.709	1179
919.807	703
919.905	1218
920.003	482
920.102	-103
920.200	1095
920.298	816
920.396	1204
920.494	656
920.592	634
920.690	2048
920.788	1204
920.886	1867
920.984	1168
921.082	525
921.180	1961
921.277	1585
921.375	1167
921.473	758
921.571	1634
921.669	1289
921.766	1177
921.864	1380
921.962	1295
922.060	856
922.157	1135
922.255	1056
922.352	1711
922.450	1326
922.548	1269
922.645	749
922.743	1054
922.840	1762
922.938	2026
923.035	1419
923.133	1184
923.230	691
923.327	1520
923.425	1941
923.522	1836
923.619	313
923.717	1171
923.814	1356
923.911	985
924.008	1086
924.106	140
924.203	1389
924.300	837
924.397	1345
924.494	1867
924.591	2113
924.688	391
924.786	1176
924.883	828
924.979	795
925.077	749
925.173	1245
925.270	928
925.367	779
925.464	1601
925.561	1507
925.658	1411
925.755	2149
925.852	2312
925.948	1678
926.045	1316
926.142	1045
926.239	1876
926.335	1548
926.432	873
926.529	1395
926.625	1334
926.722	1810
926.818	2088
926.915	1121
927.011	1743
927.108	1054
927.204	1023
927.301	1373
927.397	1665
927.494	1520
927.590	2172
927.687	157
927.783	914
927.879	918
927.976	905
928.072	1449
928.168	1111
928.264	803
928.361	1728
928.457	1184
928.553	1200
928.649	1499
928.745	1094
928.841	1117
928.937	823
929.033	1727
929.129	1655
929.225	920
929.321	1626
929.417	726
929.513	737
929.609	1121
929.705	983
929.801	982
929.897	842
929.993	1230
930.089	372
930.184	517
930.280	983
930.376	1058
930.471	1247
930.567	1381
930.663	653
930.758	877
930.854	750
930.950	1125
931.045	1502
931.141	823
931.236	1198
931.332	1275
931.427	1495
931.523	1033
931.618	1055
931.714	175
931.809	851
931.905	1351
932.000	1043
932.095	963
932.191	698
932.286	67
932.381	1159
932.476	488
932.572	1616
932.667	1536
932.762	837
932.857	562
932.952	17
933.047	1024
933.142	543
933.237	945
933.332	329
933.427	483
933.522	1232
933.617	625
933.712	1736
933.807	1054
933.902	1042
933.997	1424
934.092	1856
934.187	860
934.282	627
934.376	1250
934.471	1098
934.566	64
934.661	841
934.755	425
934.850	731
934.945	754
935.039	1075
935.134	445
935.228	1335
935.323	824
935.417	1065
935.512	1128
935.606	487
935.701	434
935.795	677
935.890	422
935.984	1057
936.079	994
936.173	1384
936.267	694
936.362	791
936.456	870
936.550	146
936.644	1053
936.738	649
936.833	91
936.927	1305
937.021	973
937.115	846
937.209	432
937.303	1801
937.397	505
937.491	1664
937.585	941
937.679	373
937.773	1165
937.867	641
937.961	929
938.055	645
938.149	1371
938.243	824
938.337	973
938.430	357
938.524	1580
938.618	774
938.712	868
938.805	751
938.899	869
938.993	94
939.086	744
939.180	827
939.274	639
939.367	852
939.461	1041
939.554	1158
939.648	20
939.741	788
939.835	843
939.928	1004
940.022	2376
940.115	992
940.208	446
940.302	1365
940.395	646
940.488	-372
940.582	880
940.675	565
940.768	699
940.861	209
940.954	1743
941.048	790
941.141	737
941.234	594
941.327	385
941.420	1916
941.513	1262
941.606	597
941.699	1324
941.792	547
941.885	313
941.978	652
942.071	666
942.164	301
942.257	672
942.349	967
942.442	1676
942.535	128
942.628	159
942.721	883
942.813	-109
942.906	1683
942.999	484
943.091	187
943.184	-294
943.277	449
943.369	257
943.462	397
943.554	1546
943.647	378
943.739	1202
943.832	569
943.924	-260
944.017	888
944.109	-543
944.201	520
944.294	200
944.386	165
944.478	-225
944.571	66
944.663	188
944.755	673
944.847	143
944.940	134
945.032	-329
945.124	666
945.216	1925
945.308	1057
945.400	792
945.492	489
945.584	247
945.676	917
945.768	1217
945.860	675
945.952	570
946.044	1192
946.136	-938
946.228	244
946.320	-216
946.412	700
946.503	995
946.595	1300
946.687	453
946.779	-658
946.870	-171
946.962	428
947.054	216
947.145	1355
947.237	365
947.329	880
947.420	626
947.512	92
947.603	942
947.695	195
947.786	390
947.878	124
947.969	701
948.061	-63
948.152	-299
948.243	712
948.335	1126
948.426	178
948.517	221
948.609	808
948.700	229
948.791	-77
948.882	293
948.973	457
949.065	-50
949.156	1340
949.247	-455
949.338	-212
949.429	247
949.520	439
949.611	188
949.702	287
949.793	482
949.884	334
949.975	188
950.066	727
950.157	-177
950.247	485
950.338	771
950.429	-317
950.520	129
950.611	620
950.701	-519
950.792	-754
950.883	685
950.973	-32
951.064	603
951.155	681
951.245	650
951.336	616
951.427	-781
951.517	1048
951.608	82
951.698	354
951.788	643
951.879	348
951.969	597
952.060	255
952.150	273
952.240	69
952.331	-1444
952.421	1048
952.511	-962
952.602	73
952.692	-312
952.782	145
952.872	65
952.962	57
953.052	-213
953.143	-472
953.233	512
953.323	551
953.413	-354
953.503	542
953.593	794
953.683	473
953.773	-165
953.863	36
953.953	-703
954.042	532
954.132	183
954.222	358
954.312	-629
954.402	233
954.492	373
954.581	1493
954.671	344
954.761	-1137
954.850	952
954.940	317
955.030	222
955.119	-207
955.209	-321
955.298	-468
955.388	462
955.477	380
955.567	-1165
955.656	553
955.746	1109
955.835	370
955.925	-190
956.014	321
956.103	525
956.193	95
956.282	99
956.371	-774
956.461	-657
956.550	282
956.639	741
956.728	-324
956.817	73
956.906	485
956.995	675
957.085	247
957.174	-82
957.263	102
957.352	541
957.441	-401
957.530	85
957.619	-171
957.708	-107
957.796	-31
957.885	555
957.974	356
958.063	671
958.152	337
958.241	850
958.329	371
958.418	10
958.507	-997
958.596	547
958.684	-437
958.773	1653
958.861	-150
958.950	-181
959.039	966
959.127	-19
959.216	39
959.304	-196
959.393	27
959.481	537
959.570	356
959.658	164
959.746	166
959.835	22
959.923	429
960.011	-212
960.100	464
960.188	622
960.276	-628
960.365	199
960.453	-481
960.541	-948
960.629	199
960.717	-420
960.805	-663
960.893	-614
960.981	-99
961.069	1227
961.158	128
961.245	44
961.333	-142
961.421	-32
961.509	576
961.597	435
961.685	11
961.773	-316
961.861	-749
961.949	-118
962.036	-344
962.124	995
962.212	-156
962.299	-745
962.387	-767
962.475	772
962.562	-346
962.650	191
962.738	137
962.825	-457
962.913	523
963.000	-412
963.088	-490
963.175	-835
963.263	573
963.350	786
963.438	74
963.525	93
963.612	1443
963.700	2022
963.787	6880
963.874	2721
963.962	124
964.049	-78
964.136	-520
964.223	-835
964.310	674
964.398	218
964.485	-811
964.572	-142
964.659	1245
964.746	1379
964.833	244
964.920	31
965.007	-495
965.094	-476
965.181	-465
965.268	-218
965.355	523
965.441	316
965.528	-797
965.615	980
965.702	-257
965.789	-804
965.875	22
965.962	-428
966.049	-391
966.136	-345
966.222	-826
966.309	660
966.395	-338
966.482	256
966.569	-491
966.655	-106
966.742	-732
966.828	-288
966.915	-320
967.001	-464
967.087	-588
967.174	95
967.260	815
967.347	-493
967.433	1255
967.519	5047
967.605	603
967.692	-451
967.778	-608
967.864	-499
967.950	129
968.036	-811
968.123	-560
968.209	341
968.295	-919
968.381	498
968.467	401
968.553	-1622
968.639	358
968.725	-759
968.811	902
968.897	308
968.983	-632
969.069	-107
969.154	-255
969.240	587
969.326	-694
969.412	-554
969.497	-450
969.583	-1094
969.669	535
969.755	140
969.840	-512
969.926	147
970.012	-529
970.097	340
970.183	-534
970.268	134
970.354	1086
970.439	761
970.525	3270
970.610	84
970.696	780
970.781	-526
970.866	-1225
970.952	187
971.037	-787
971.122	-39
971.208	-589
971.293	-17
971.378	-1079
971.463	-250
971.549	61
971.634	-1024
971.719	-498
971.804	-534
971.889	779
971.974	-650
972.059	861
972.144	1209
972.229	-310
972.314	-645
972.399	360
972.484	-790
972.569	341
972.654	314
972.739	1617
972.824	1009
972.908	-469
972.993	226
973.078	-58
973.163	-936
973.247	1040
973.332	-1553
973.417	896
973.501	-793
973.586	246
973.671	367
973.755	253
973.840	650
973.924	1297
974.009	-444
974.093	-410
974.178	1800
974.262	527
974.346	402
974.431	320
974.515	-542
974.600	-163
974.684	276
974.768	-603
974.852	381
974.937	-1743
975.021	85
975.105	-2
975.189	-811
975.273	854
975.358	-1159
975.442	131
975.526	275
975.610	-1770
975.694	-446
975.778	158
975.862	-649
975.946	-2220
976.030	1359
976.114	-1039
976.198	510
976.281	-592
976.365	475
976.449	-339
976.533	64
976.617	-63
976.700	-212
976.784	879
976.868	-1578
976.951	571
977.035	228
977.119	-331
977.202	-105
977.286	-416
977.369	-885
977.453	747
977.536	-1125
977.620	-1159
977.703	-507
977.787	-906
977.870	527
977.953	-250
978.037	-1114
978.120	881
978.203	-134
978.287	771
978.370	518
978.453	-118
978.536	-631
978.620	1041
978.703	1141
978.786	-259
978.869	-747
978.952	-1247
979.035	1082
979.118	-176
979.201	-534
979.284	620
979.367	-1241
979.450	144
979.533	-370
979.616	-217
979.699	-434
979.782	405
979.865	-640
979.948	-52
980.030	-1172
980.113	723
980.196	-965
980.279	618
980.361	-344
980.444	-511
980.526	-247
980.609	-478
980.692	-560
980.774	-10
980.857	-1701
980.939	-63
981.022	-1217
981.104	-840
981.187	-921
981.269	298
981.352	-436
981.434	-1020
981.516	-504
981.599	221
981.681	-479
981.763	-952
981.846	-357
981.928	-127
982.010	-621
982.092	-764
982.174	127
982.256	-276
982.339	-77
982.421	-444
982.503	-509
982.585	-1463
982.667	-871
982.749	-629
982.831	-377
982.913	-1047
982.995	-268
983.077	-1025
983.158	116
983.240	-1021
983.322	54
983.404	89
983.486	-1367
983.568	282
983.649	-290
983.731	344
983.813	-625
983.894	-127
983.976	-1024
984.058	-1041
984.139	59
984.221	-1437
984.302	297
984.384	-488
984.465	-629
984.547	-610
984.628	-658
984.710	-86
984.791	-653
984.872	-1012
984.954	-791
985.035	-397
985.116	-1031
985.198	-521
985.279	848
985.360	-1506
985.441	-31
985.522	-437
985.604	-807
985.685	-2069
985.766	264
985.847	854
985.928	-1184
986.009	-205
986.090	-358
986.171	165
986.252	-976
986.333	-659
986.414	-428
986.495	439
986.576	-271
986.656	-584
986.737	-461
986.818	-118
986.899	-411
986.980	-232
987.060	-497
987.141	-421
987.222	-1012
987.302	-675
987.383	315
987.464	-788
987.544	-453
987.625	-433
987.705	-665
987.786	-665
987.866	-1182
987.947	-933
988.027	-691
988.108	-777
988.188	-179
988.268	-361
988.349	-16
988.429	-130
988.509	-342
988.589	-1017
988.670	-2241
988.750	247
988.830	-485
988.910	-134
988.990	-436
989.070	-540
989.151	-626
989.231	-932
989.311	-680
989.391	494
989.471	-817
989.551	-692
989.631	-1421
989.711	36
989.791	-974
989.870	-1047
989.950	196
990.030	-1020
990.110	-1565
990.190	-1445
990.269	-897
990.349	-929
990.429	-61
990.509	-469
990.588	-1554
990.668	-1067
990.747	-1469
990.827	-1429
990.907	-268
990.986	-1152
991.066	282
991.145	-1148
991.225	-29
991.304	-974
991.383	81
991.463	-293
991.542	-708
991.622	-450
991.701	-764
991.780	-836
991.859	-788
991.939	-233
992.018	-973
992.097	-358
992.176	2
992.256	-210
992.335	-1605
992.414	-804
992.493	-992
992.572	-1183
992.651	975
992.730	-773
992.809	193
992.888	-1286
992.967	-1153
993.046	-606
993.125	-1503
993.203	-1624
993.282	-752
993.361	85
993.440	-995
993.519	-1438
993.597	-636
993.676	-657
993.755	-775
993.834	-588
993.912	-1851
993.991	571
994.069	-693
994.148	-842
994.226	-1586
994.305	-502
994.384	-1347
994.462	-427
994.540	-1476
994.619	-609
994.697	-404
994.776	-1155
994.854	-473
994.932	-1051
995.011	-914
995.089	-852
995.167	-1079
995.245	-598
995.324	-1807
995.402	134
995.480	-2173
995.558	-990
995.636	-1404
995.714	-536
995.792	-709
995.870	-1605
995.948	-223
996.026	-911
996.104	-2151
996.182	-277
996.260	-1038
996.338	-328
996.416	-1929
996.494	-627
996.572	-518
996.649	-1517
996.727	-1529
996.805	-811
996.883	-660
996.960	-1258
997.038	-941
997.116	-1131
997.193	-1213
997.271	-1291
997.348	-1266
997.426	-1399
997.504	-1077
997.581	-415
997.658	-755
997.736	-1542
997.813	-1432
997.891	-496
997.968	-1501
998.046	-1017
998.123	-662
998.200	-395
998.277	-1966
998.355	-676
998.432	-1564
998.509	-579
998.586	-759
998.663	-791
998.741	-422
998.818	-1689
998.895	-1765
998.972	-890
999.049	-1019
999.126	-1318
999.203	-360
999.280	-1263
999.357	-1646
999.434	-1421
999.511	-1051
999.587	-163
999.664	-1493
999.741	-831
999.818	466
999.895	-1514
999.971	-1165
1000.048	-1350
1000.125	-569
1000.202	-1839
1000.278	-1163
1000.355	-625
1000.431	-873
1000.508	-1394
1000.584	-566
1000.661	-1196
1000.738	-1534
1000.814	-979
1000.890	-978
1000.967	-2140
1001.043	-940
1001.120	-1615
1001.196	-1438
1001.272	-1025
1001.349	-926
1001.425	-576
1001.501	-605
1001.577	-1667
1001.654	-1036
1001.730	-1126
1001.806	-1015
1001.882	-1850
1001.958	-1333
1002.034	-1038
1002.110	-1364
1002.186	-1315
1002.262	-1577
1002.338	-1267
1002.414	-1160
1002.490	-1357
1002.566	-1570
1002.642	-1834
1002.718	521
1002.794	-1343
1002.870	-1090
1002.945	-1251
1003.021	-1409
1003.097	-1270
1003.173	-1210
1003.248	-2291
1003.324	-898
1003.400	-1087
1003.475	-1336
1003.551	-1064
1003.626	-947
1003.702	-1371
1003.777	-818
1003.853	-1522
1003.928	-1811
1004.004	-663
1004.079	-1127
1004.155	-848
1004.230	-1677
1004.305	288
1004.381	-1714
1004.456	-1479
1004.531	-620
1004.607	-1044
1004.682	-1188
1004.757	-1094
1004.832	-1191
1004.907	-1482
1004.982	-1356
1005.057	-661
1005.133	-1105
1005.208	-1290
1005.283	-1160
1005.358	-915
1005.433	-1766
1005.508	113
1005.583	-892
1005.657	-1371
1005.732	-733
1005.807	-869
1005.882	-342
1005.957	-1831
1006.032	-584
1006.106	-1744
1006.181	-710
1006.256	-846
1006.331	-1847
1006.405	-1110
1006.480	-145
1006.554	-1406
1006.629	-1076
1006.704	-1500
1006.778	-1053
1006.853	-190
1006.927	-685
1007.002	-1546
1007.076	-1510
1007.150	-1571
1007.225	-779
1007.299	-1095
1007.373	-1798
1007.448	-1295
1007.522	19
1007.596	-1434
1007.671	-719
1007.745	-1256
1007.819	-1875
1007.893	-792
1007.967	-597
1008.041	-1666
1008.115	-13
1008.190	-889
1008.264	-1326
1008.338	-2297
1008.412	-1507
1008.486	-1386
1008.560	-1139
1008.633	-1825
1008.707	-824
1008.781	-1252
1008.855	-1303
1008.929	-1721
1009.003	-1927
1009.076	-1634
1009.150	-1556
1009.224	-1346
1009.298	-668
1009.371	-1705
1009.445	-379
1009.519	-1371
1009.592	-2113
1009.666	-411
1009.739	-621
1009.813	-1350
1009.886	-148
1009.960	-2522
1010.033	-1198
1010.107	-656
1010.180	-1568
1010.253	-1454
1010.327	-1532
1010.400	-1785
1010.473	-1532
1010.547	-473
1010.620	-1267
1010.693	-829
1010.766	-1509
1010.840	-1441
1010.913	-1122
1010.986	-1225
1011.059	-861
1011.132	-745
1011.205	-444
1011.278	-624
1011.351	-1286
1011.424	-485
1011.497	-2291
1011.570	-1501
1011.643	-1566
1011.716	-1786
1011.789	-1430
1011.862	-914
1011.934	-616
1012.007	-1999
1012.080	-876
1012.153	-1177
1012.225	-308
1012.298	-1693
1012.371	-2102
1012.443	-802
1012.516	-2039
1012.588	-898
1012.661	-1540
1012.733	-2159
1012.806	-989
1012.879	-789
1012.951	-1497
1013.023	-2363
1013.096	-1323
1013.168	-1815
1013.241	-797
1013.313	-1301
1013.385	-1439
1013.458	-1270
1013.530	-256
1013.602	-1719
1013.674	-1580
1013.746	-2011
1013.819	-1039
1013.891	-1121
1013.963	-2193
1014.035	-1238
1014.107	-1140
1014.179	-1228
1014.251	-2156
1014.323	-934
1014.395	-1537
1014.467	-1315
1014.539	-674
1014.611	-2070
1014.683	-1040
1014.754	-898
1014.826	-1886
1014.898	-858
1014.970	-1910
1015.042	-489
1015.113	-613
1015.185	-1074
1015.257	-1750
1015.328	-1021
1015.400	-1480
1015.471	-911
1015.543	-1996
1015.615	-187
1015.686	-993
1015.757	-1445
1015.829	-1338
1015.901	-1646
1015.972	-1359
1016.043	-1003
1016.115	-1010
1016.186	-1331
1016.257	-1359
1016.328	-1448
1016.400	-788
1016.471	-2192
1016.542	-912
1016.613	-277
1016.685	-1635
1016.756	-1318
1016.827	-1803
1016.898	-1148
1016.969	-1278
1017.040	-951
1017.111	-1269
1017.182	-2189
1017.253	-1430
1017.324	-1759
1017.395	-1043
1017.466	-815
1017.537	-2124
1017.608	-979
1017.678	-832
1017.749	-1938
1017.820	-1748
1017.891	-2206
1017.961	-1373
1018.032	-1033
1018.103	-1322
1018.173	-1345
1018.244	-1607
1018.315	-1424
1018.385	-456
1018.456	-1695
1018.526	-1786
1018.597	-1386
1018.667	-1669
1018.738	-1799
1018.808	-2235
1018.878	-1684
1018.949	-1068
1019.019	-1693
1019.089	-1149
1019.160	-1470
1019.230	-1369
1019.300	-1464
1019.371	-1917
1019.441	-1304
1019.511	-2811
1019.581	-1625
1019.651	-848
1019.721	-1312
1019.791	-1880
1019.861	-1276
1019.931	-1689
1020.001	-1820
1020.071	-510
1020.141	-1536
1020.211	-1452
1020.281	-1843
1020.351	-2407
1020.421	-1241
1020.491	-995
1020.560	-1880
1020.630	-1639
1020.700	-1058
1020.770	-1454
1020.839	-2183
1020.909	-1339
1020.979	-1397
1021.048	-2015
1021.118	-1452
1021.187	-984
1021.257	-1333
1021.326	-1345
1021.396	-1728
1021.465	-1015
1021.535	-1304
1021.604	-1502
1021.674	-1531
1021.743	-734
1021.812	-1217
1021.882	-1397
1021.951	-1877
1022.020	-1756
1022.089	-1353
1022.159	-1410
1022.228	-1301
1022.297	-1428
1022.366	-1952
1022.435	-661
1022.504	-1707
1022.573	-1312
1022.642	-1273
1022.711	-1787
1022.781	-1456
1022.849	-863
1022.918	-1760
1022.987	-1188
1023.056	-1689
1023.125	-1354
1023.194	-882
1023.263	-1280
1023.331	-1379
1023.400	-1892
1023.469	-1457
1023.538	-1387
1023.606	-1170
1023.675	-1643
1023.744	-1697
1023.812	-1545
1023.881	-972
1023.949	-974
1024.018	-2193
1024.086	-1468
1024.155	-1580
1024.223	-1558
1024.292	-1262
1024.360	-1280
1024.429	-1853
1024.497	-1632
1024.565	-1714
1024.634	-1518
1024.702	-1610
1024.770	-1405
1024.838	-1639
1024.907	-1764
1024.975	-1563
1025.043	-876
1025.111	-1842
1025.179	-930
1025.247	-1034
1025.315	-847
1025.383	-1521
1025.451	-1527
1025.519	-1804
1025.587	-1682
1025.655	-1866
1025.723	-2285
1025.791	-2146
1025.859	-1774
1025.927	-1337
1025.995	-2228
1026.062	-700
1026.130	-2021
1026.198	-2034
1026.266	-1473
1026.333	-1335
1026.401	-950
1026.469	-1892
1026.536	-2007
1026.604	-1622
1026.671	-2395
1026.739	-1092
1026.806	-1821
1026.874	-2009
1026.941	-1563
1027.009	-1679
1027.076	-2575
1027.144	-779
1027.211	-2225
1027.278	-1680
1027.345	-1374
1027.413	-1548
1027.480	-1906
1027.547	-1736
1027.614	-2536
1027.682	-1164
1027.749	-1621
1027.816	-1468
1027.883	-1134
1027.950	-1491
1028.017	-1116
1028.084	-586
1028.151	-2287
1028.218	-1979
1028.285	-2063
1028.352	-1358
1028.419	-1645
1028.486	-1682
1028.553	-1334
1028.619	-1772
1028.686	-1886
1028.753	-1751
1028.820	-1305
1028.886	-1703
1028.953	-1440
1029.020	-2324
1029.086	-1368
1029.153	-1400
1029.220	-1155
1029.286	-1434
1029.353	-1052
1029.419	-2028
1029.486	-1990
1029.552	-1436
1029.619	-1164
1029.685	-1863
1029.751	-839
1029.818	-1369
1029.884	-1614
1029.951	-1535
1030.017	-1654
1030.083	-2147
1030.149	-1076
1030.216	-1463
1030.282	-1389
1030.348	-1973
1030.414	-1547
1030.480	-1675
1030.546	-1581
1030.612	-426
1030.678	-1729
1030.744	-1490
1030.810	-1840
1030.876	-1663
1030.942	-1962
1031.008	-1296
1031.074	-1910
1031.140	-1841
1031.206	-1171
1031.272	-1837
1031.337	-1613
1031.403	-1154
1031.469	-2321
1031.534	-1903
1031.600	-999
1031.666	-1513
1031.731	-1874
1031.797	-1561
1031.863	-1706
1031.928	-1880
1031.994	-2060
1032.059	-2259
1032.125	-2092
1032.190	-2139
1032.256	-1902
1032.321	-1342
1032.386	-1668
1032.452	-628
1032.517	-1391
1032.582	-1509
1032.647	-1741
1032.713	-1597
1032.778	-2042
1032.843	-1659
1032.908	-2198
1032.974	-2144
1033.039	-861
1033.104	-362
1033.169	-1279
1033.234	-1382
1033.299	-1485
1033.364	-1368
1033.429	-1543
1033.494	-867
1033.559	-1740
1033.624	-1569
1033.688	-1215
1033.753	-1268
1033.818	-817
1033.883	-1948
1033.948	-1337
1034.013	-2135
1034.077	-1533
1034.142	-714
1034.207	-1041
1034.271	-1238
1034.336	-1211
1034.400	-1564
1034.465	-1496
1034.530	-1760
1034.594	-1105
1034.658	-1353
1034.723	-1553
1034.787	-1569
1034.852	-1497
1034.916	-1744
1034.981	-870
1035.045	-934
1035.109	-2198
1035.173	-1282
1035.238	-2160
1035.302	-1079
1035.366	-1669
1035.430	-2270
1035.495	-1367
1035.559	-1193
1035.623	-1614
1035.687	-1331
1035.751	-1161
1035.815	-1663
1035.879	-1522
1035.943	-1005
1036.007	-1703
1036.071	-1927
1036.135	-2039
1036.198	-778
1036.262	-1016
1036.326	-1583
1036.390	-1623
1036.454	-1319
1036.517	-1368
1036.581	-1562
1036.645	-1188
1036.709	-1317
1036.772	-857
1036.836	-1612
1036.900	-1566
1036.963	-1738
1037.026	-1552
1037.090	-1506
1037.154	-2080
1037.217	-2233
1037.280	-2083
1037.344	-1820
1037.407	-1280
1037.471	-1025
1037.534	-1772
1037.597	-1935
1037.661	-1633
1037.724	-2140
1037.787	-2193
1037.850	-819
1037.913	-1327
1037.977	-733
1038.040	-2057
1038.103	-1589
1038.166	-1867
1038.229	-784
1038.292	-1377
1038.355	-1507
1038.418	-1854
1038.481	-722
1038.544	-1598
1038.607	-1619
1038.670	-2127
1038.732	-1290
1038.795	-1901
1038.858	-1652
1038.921	-1124
1038.984	-831
1039.046	-1392
1039.109	-2224
1039.172	-1658
1039.234	-1300
1039.297	-1313
1039.360	-2210
1039.422	-2026
1039.485	-1742
1039.547	-1542
1039.610	-1795
1039.672	-1804
1039.734	-2126
1039.797	-1398
1039.859	-2057
1039.922	-2069
1039.984	-1683
1040.046	-1473
1040.109	-1248
1040.171	-2224
1040.233	-1689
1040.295	-1848
1040.358	-1216
1040.420	-1898
1040.482	-1168
1040.544	-1849
1040.606	-1778
1040.668	-2047
1040.730	-1372
1040.792	-1606
1040.854	-1675
1040.916	-1932
1040.978	-1661
1041.040	-1216
1041.102	-1274
1041.164	-1339
1041.225	-1591
1041.287	-1353
1041.349	-1225
1041.411	-2242
1041.472	-1397
1041.534	-1021
1041.596	-1796
1041.657	-2012
1041.719	-2578
1041.781	-2355
1041.842	-1752
1041.904	-1241
1041.965	-1666
1042.027	-2141
1042.088	-1141
1042.150	-1664
1042.211	-1518
1042.272	-1356
1042.334	-1593
1042.395	-1293
1042.456	-1246
1042.518	-832
1042.579	-1237
1042.640	-1691
1042.701	-1876
1042.763	-2253
1042.824	-1638
1042.885	-1564
1042.946	-1844
1043.007	-1781
1043.068	-1793
1043.129	-2141
1043.190	-1776
1043.251	-941
1043.312	-1415
1043.373	-1079
1043.434	-1754
1043.495	-1640
1043.556	-1363
1043.616	-1397
1043.677	-1405
1043.738	-1705
1043.799	-1774
1043.859	-1405
1043.920	-1560
1043.981	-1429
1044.041	-1290
1044.102	-1908
1044.162	-1917
1044.223	-1692
1044.284	-1031
1044.344	-1699
1044.405	-1981
1044.465	-2105
1044.525	-2165
1044.586	-1854
1044.646	-1334
1044.707	-1747
1044.767	-1771
1044.827	-1669
1044.887	-834
1044.948	-1169
1045.008	-1055
1045.068	-1036
1045.128	-1047
1045.188	-1966
1045.249	-649
1045.309	-1479
1045.369	-1373
1045.429	-1188
1045.489	-1894
1045.549	-2024
1045.609	-1823
1045.669	-1846
1045.729	-987
1045.789	-2272
1045.848	-2004
1045.908	-1009
1045.968	-1029
1046.028	-1522
1046.088	-505
1046.147	-1025
1046.207	-1163
1046.267	-1844
1046.326	-680
1046.386	-2080
1046.446	-1206
1046.505	-993
1046.565	-953
1046.624	-1092
1046.684	-275
1046.743	-241
1046.803	-37
1046.862	943
1046.922	0
