'Start Wavelength	183.907
'End Wavelength	1046.922
'Gate Delay	5.000
'Gate Width (ms)	1.050
'Laser Output Level	0.000
'X Position	0.000
'Y Position	0.000
'Z Position	0.000
'Grid Point Number	1.000
'Shot Number	100.000
183.907	-188.000
183.977	441.000
184.047	-706
184.116	798
184.186	134
184.256	240
184.325	-349
184.395	-661
184.465	148
184.534	-162
184.604	33
184.674	368
184.743	162
184.813	1177
184.883	49
184.952	140
185.022	-320
185.092	436
185.161	-79
185.231	-283
185.301	-1170
185.370	1098
185.440	-597
185.509	-423
185.579	-330
185.649	210
185.718	-692
185.788	232
185.857	-480
185.927	-159
185.996	-463
186.066	-647
186.136	-449
186.205	114
186.275	-849
186.344	344
186.414	-140
186.483	-906
186.553	358
186.622	803
186.692	-418
186.761	455
186.831	-751
186.900	-177
186.970	-227
187.039	401
187.109	27
187.178	65
187.248	248
187.317	494
187.387	-1009
187.456	283
187.526	466
187.595	-287
187.664	-631
187.734	25
187.803	191
187.873	167
187.942	-715
188.012	295
188.081	-801
188.150	131
188.220	-773
188.289	265
188.358	417
188.428	635
188.497	93
188.567	650
188.636	-467
188.705	898
188.775	-400
188.844	-583
188.913	1213
188.983	367
189.052	-61
189.121	114
189.191	-801
189.260	439
189.329	-463
189.399	578
189.468	-123
189.537	-112
189.606	-143
189.676	338
189.745	27
189.814	852
189.883	-1279
189.953	346
190.022	277
190.091	473
190.161	79
190.230	655
190.299	-969
190.368	-248
190.437	-338
190.507	9
190.576	-507
190.645	417
190.714	-541
190.783	280
190.853	122
190.922	-11
190.991	-655
191.060	227
191.129	-1114
191.198	803
191.268	-720
191.337	187
191.406	-412
191.475	481
191.544	-354
191.613	76
191.682	-1188
191.752	702
191.821	-511
191.890	11
191.959	-130
192.028	82
192.097	-66
192.166	707
192.235	-425
192.304	-19
192.373	-234
192.442	918
192.511	-1008
192.580	117
192.650	-582
192.719	-8
192.788	-346
192.857	603
192.926	-154
192.995	71
193.064	-288
193.133	-138
193.202	-422
193.271	78
193.340	112
193.409	141
193.478	189
193.547	1277
193.615	-2
193.684	1167
193.753	218
193.822	1197
193.891	-810
193.960	53
194.029	-290
194.098	155
194.167	-503
194.236	78
194.305	-738
194.374	311
194.443	-151
194.512	237
194.580	-226
194.649	400
194.718	-316
194.787	-736
194.856	87
194.925	373
194.994	-526
195.062	573
195.131	-168
195.200	-188
195.269	176
195.338	785
195.407	-996
195.475	177
195.544	-284
195.613	-99
195.682	-549
195.751	234
195.819	-224
195.888	-180
195.957	556
196.026	297
196.094	544
196.163	63
196.232	-320
196.301	-444
196.369	-524
196.438	213
196.507	-69
196.576	852
196.644	-436
196.713	-342
196.782	-6
196.850	695
196.919	-301
196.988	555
197.056	-356
197.125	-235
197.194	-15
197.262	472
197.331	-124
197.400	-563
197.468	-1177
197.537	-127
197.606	145
197.674	435
197.743	18
197.812	326
197.880	-188
197.949	-415
198.017	34
198.086	624
198.155	-418
198.223	-199
198.292	45
198.360	-273
198.429	-616
198.497	579
198.566	-452
198.635	490
198.703	345
198.772	288
198.840	56
198.909	754
198.977	-376
199.046	699
199.114	305
199.183	-164
199.251	-466
199.320	299
199.388	-450
199.457	83
199.525	-217
199.594	222
199.662	-342
199.731	507
199.799	-198
199.867	131
199.936	-1166
200.004	372
200.073	-296
200.141	648
200.210	-967
200.278	-60
200.346	-1563
200.415	107
200.483	-587
200.552	867
200.620	-66
200.688	-172
200.757	-978
200.825	246
200.893	-665
200.962	173
201.030	-367
201.098	-72
201.167	-700
201.235	786
201.303	-409
201.372	-109
201.440	148
201.508	14
201.577	-248
201.645	276
201.713	-810
201.781	-378
201.850	144
201.918	610
201.986	-400
202.055	1120
202.123	-672
202.191	173
202.259	200
202.327	536
202.396	-518
202.464	673
202.532	170
202.600	1331
202.669	-52
202.737	439
202.805	-894
202.873	-805
202.941	-71
203.009	-541
203.078	-822
203.146	58
203.214	-55
203.282	14
203.350	239
203.418	-218
203.487	443
203.555	-180
203.623	-435
203.691	-577
203.759	-613
203.827	820
203.895	-1038
203.963	-155
204.031	-395
204.099	-339
204.168	-752
204.236	253
204.304	-1046
204.372	469
204.440	117
204.508	-335
204.576	-634
204.644	185
204.712	-1013
204.780	266
204.848	-58
204.916	511
204.984	240
205.052	-89
205.120	-694
205.188	44
205.256	-506
205.324	749
205.392	-1096
205.460	-342
205.528	-682
205.596	383
205.664	88
205.732	460
205.799	-320
205.867	1287
205.935	-609
206.003	805
206.071	-932
206.139	-60
206.207	-793
206.275	226
206.343	-560
206.411	150
206.478	201
206.546	275
206.614	-348
206.682	-96
206.750	-532
206.818	-143
206.885	-309
206.953	-450
207.021	82
207.089	151
207.157	-187
207.225	618
207.292	-1246
207.360	-159
207.428	-674
207.496	349
207.563	-244
207.631	153
207.699	-803
207.767	-100
207.834	-459
207.902	-383
207.970	-4
208.038	285
208.105	-239
208.173	593
208.241	-706
208.309	519
208.376	-16
208.444	726
208.512	-486
208.579	-34
208.647	-336
208.715	1598
208.782	-842
208.850	780
208.918	-397
208.985	-63
209.053	-292
209.120	29
209.188	-803
209.256	350
209.323	-1619
209.391	-216
209.459	289
209.526	558
209.594	-541
209.661	-381
209.729	36
209.796	-264
209.864	-1006
209.932	-1424
209.999	494
210.067	380
210.134	-453
210.202	-322
210.269	-165
210.337	-424
210.404	-756
210.472	1083
210.539	-531
210.607	268
210.674	-1029
210.742	590
210.809	-907
210.877	153
210.944	768
211.012	-859
211.079	654
211.146	96
211.214	-465
211.281	675
211.349	64
211.416	-64
211.484	193
211.551	656
211.618	-1032
211.686	620
211.753	-196
211.821	919
211.888	17
211.955	634
212.023	-254
212.090	-178
212.157	-151
212.225	-409
212.292	-352
212.359	476
212.427	2147
212.494	1726
212.561	130
212.629	1054
212.696	129
212.763	985
212.831	-605
212.898	323
212.965	-319
213.032	716
213.100	-263
213.167	-77
213.234	377
213.301	471
213.369	-610
213.436	-106
213.503	-332
213.570	177
213.638	-514
213.705	-391
213.772	-1045
213.839	179
213.906	571
213.973	496
214.041	-761
214.108	-87
214.175	-174
214.242	501
214.309	-902
214.376	1094
214.444	-491
214.511	-147
214.578	-41
214.645	648
214.712	528
214.779	324
214.846	-1662
214.913	951
214.980	-22
215.048	717
215.115	11
215.182	1097
215.249	-295
215.316	165
215.383	-127
215.450	845
215.517	-297
215.584	66
215.651	23
215.718	-138
215.785	-236
215.852	-1126
215.919	-5
215.986	-5
216.053	-120
216.120	-153
216.187	-68
216.254	303
216.321	141
216.388	289
216.455	203
216.522	785
216.589	115
216.656	499
216.722	15
216.789	792
216.856	633
216.923	122
216.990	91
217.057	267
217.124	95
217.191	145
217.258	309
217.324	1557
217.391	1110
217.458	785
217.525	233
217.592	-200
217.659	-1592
217.725	1209
217.792	-455
217.859	927
217.926	-415
217.993	-92
218.059	775
218.126	684
218.193	-27
218.260	-95
218.327	-439
218.393	221
218.460	-412
218.527	-654
218.594	388
218.660	84
218.727	-91
218.794	-922
218.860	604
218.927	-60
218.994	-305
219.061	-86
219.127	-160
219.194	-454
219.261	-752
219.327	-255
219.394	-31
219.461	-649
219.527	-517
219.594	939
219.661	-160
219.727	-18
219.794	-164
219.860	-50
219.927	-382
219.994	-17
220.060	660
220.127	564
220.193	732
220.260	610
220.326	667
220.393	891
220.460	1492
220.526	1784
220.593	41
220.659	1849
220.726	-147
220.792	2069
220.859	744
220.925	2811
220.992	3777
221.058	3100
221.125	1914
221.191	625
221.258	-348
221.324	1072
221.391	-39
221.457	983
221.524	-333
221.590	88
221.657	942
221.723	270
221.789	666
221.856	1907
221.922	-921
221.989	197
222.055	-209
222.121	-613
222.188	724
222.254	-352
222.321	34
222.387	-326
222.453	63
222.520	202
222.586	-1460
222.652	694
222.719	-693
222.785	-122
222.851	-615
222.918	411
222.984	-862
223.050	279
223.116	-1718
223.183	1515
223.249	-1085
223.315	105
223.382	-324
223.448	753
223.514	-1009
223.580	550
223.647	-702
223.713	-251
223.779	-482
223.845	-482
223.911	-418
223.978	-818
224.044	-129
224.110	-405
224.176	-466
224.242	-442
224.309	-1550
224.375	376
224.441	-1437
224.507	-136
224.573	-1328
224.639	801
224.705	-1363
224.772	739
224.838	-1126
224.904	438
224.970	-885
225.036	-494
225.102	-1374
225.168	442
225.234	119
225.300	34
225.366	-86
225.432	-368
225.499	-542
225.565	-225
225.631	-757
225.697	-157
225.763	-694
225.829	374
225.895	-356
225.961	1016
226.027	347
226.093	208
226.159	934
226.225	1089
226.291	1998
226.357	5665
226.423	2289
226.489	1270
226.554	-131
226.620	1407
226.686	-164
226.752	1438
226.818	1577
226.884	5999
226.950	5803
227.016	1979
227.082	768
227.148	355
227.214	-260
227.279	-5
227.345	-1232
227.411	-64
227.477	-642
227.543	1074
227.609	45
227.674	424
227.740	103
227.806	431
227.872	-843
227.938	240
228.003	-235
228.069	-258
228.135	-983
228.201	501
228.267	-899
228.332	503
228.398	-1410
228.464	576
228.530	-444
228.595	82
228.661	-856
228.727	15
228.792	682
228.858	-276
228.924	-1710
228.990	1020
229.055	-846
229.121	640
229.187	-820
229.252	-226
229.318	-384
229.384	319
229.449	-377
229.515	-1623
229.581	-1728
229.646	1260
229.712	-1134
229.777	490
229.843	-650
229.909	1063
229.974	274
230.040	744
230.105	91
230.171	139
230.236	-431
230.302	660
230.368	-692
230.433	-136
230.499	-929
230.564	1154
230.630	-1285
230.695	242
230.761	11
230.826	-889
230.892	1400
230.957	-41
231.023	-308
231.088	251
231.154	-948
231.219	1022
231.284	-883
231.350	281
231.415	-1363
231.481	268
231.546	-637
231.612	867
231.677	-1136
231.742	-1259
231.808	150
231.873	-899
231.939	-2372
232.004	648
232.069	1076
232.135	641
232.200	-576
232.265	654
232.331	-1923
232.396	-432
232.461	-966
232.527	-805
232.592	-1620
232.657	-96
232.723	-1439
232.788	195
232.853	-258
232.918	-353
232.984	-477
233.049	-498
233.114	-847
233.179	-16
233.245	214
233.310	875
233.375	-870
233.440	486
233.506	-528
233.571	-117
233.636	-459
233.701	-492
233.766	-535
233.832	-224
233.897	-1175
233.962	-788
234.027	259
234.092	754
234.157	-1041
234.222	-409
234.288	-513
234.353	1306
234.418	567
234.483	862
234.548	141
234.613	463
234.678	-479
234.743	-304
234.808	1665
234.873	-752
234.938	1040
235.004	-211
235.069	-1494
235.134	-582
235.199	-645
235.264	137
235.329	-1868
235.394	835
235.459	320
235.524	-339
235.589	50
235.654	-424
235.719	-2442
235.784	731
235.849	-517
235.913	577
235.978	396
236.043	1148
236.108	-626
236.173	-9
236.238	675
236.303	-225
236.368	-413
236.433	1380
236.498	273
236.563	950
236.627	1285
236.692	8081
236.757	5433
236.822	1706
236.887	-712
236.952	1473
237.017	-750
237.081	1682
237.146	24
237.211	3373
237.276	5864
237.341	12303
237.405	3848
237.470	1709
237.535	998
237.600	383
237.664	696
237.729	-285
237.794	-465
237.859	2611
237.923	-7
237.988	-321
238.053	1024
238.118	1038
238.182	826
238.247	3261
238.312	-1006
238.376	572
238.441	-1065
238.506	1406
238.570	-1656
238.635	1455
238.700	-341
238.764	-267
238.829	604
238.893	127
238.958	130
239.023	-391
239.087	-510
239.152	81
239.216	-997
239.281	475
239.346	-591
239.410	-320
239.475	-910
239.539	1771
239.604	-298
239.668	587
239.733	-803
239.797	266
239.862	-171
239.926	506
239.991	-161
240.055	312
240.120	-782
240.184	-19
240.249	-1252
240.313	-118
240.378	-802
240.442	663
240.507	1434
240.571	-127
240.635	-641
240.700	753
240.764	-57
240.829	131
240.893	-1918
240.957	948
241.022	35
241.086	2027
241.151	-1331
241.215	-1612
241.279	-5
241.344	-247
241.408	-84
241.472	621
241.537	957
241.601	728
241.665	-1903
241.730	-752
241.794	750
241.858	-97
241.922	-1235
241.987	239
242.051	-855
242.115	-1119
242.179	65
242.244	342
242.308	-64
242.372	109
242.436	-1397
242.501	491
242.565	-858
242.629	-989
242.693	-529
242.757	-702
242.822	-549
242.886	-106
242.950	-253
243.014	-528
243.078	-447
243.142	723
243.206	-1475
243.271	886
243.335	-1100
243.399	609
243.463	1583
243.527	10082
243.591	1405
243.655	1103
243.719	-1016
243.783	1268
243.847	926
243.911	1469
243.975	182
244.040	-188
244.104	1395
244.168	288
244.232	-995
244.296	1571
244.360	698
244.424	-163
244.488	-466
244.552	12
244.615	-1574
244.679	463
244.743	-1134
244.807	252
244.871	332
244.935	302
244.999	-2373
245.063	-128
245.127	107
245.191	901
245.255	-280
245.319	197
245.383	-1541
245.446	1128
245.510	-1071
245.574	440
245.638	592
245.702	-916
245.766	301
245.829	1274
245.893	-1146
245.957	-192
246.021	92
246.085	-645
246.149	473
246.212	2474
246.276	2270
246.340	886
246.404	36
246.467	1752
246.531	-1322
246.595	1350
246.659	403
246.722	-1198
246.786	671
246.850	220
246.913	415
246.977	-927
247.041	187
247.104	459
247.168	-412
247.232	1760
247.295	2565
247.359	1971
247.423	267
247.486	1521
247.550	1498
247.614	-986
247.677	46
247.741	-203
247.804	-513
247.868	734
247.932	-399
247.995	4366
248.059	-236
248.122	-294
248.186	942
248.249	1157
248.313	5860
248.376	7434
248.440	3210
248.503	924
248.567	1152
248.630	665
248.694	1649
248.757	4089
248.821	6588
248.884	5292
248.948	2088
249.011	5829
249.075	7514
249.138	7833
249.202	1974
249.265	698
249.328	1127
249.392	627
249.455	1015
249.519	689
249.582	425
249.645	2285
249.709	1337
249.772	922
249.835	-74
249.899	284
249.962	633
250.025	-5
250.089	1148
250.152	4631
250.215	872
250.279	407
250.342	742
250.405	757
250.468	301
250.532	469
250.595	2012
250.658	7466
250.721	14845
250.785	5003
250.848	2948
250.911	1064
250.974	815
251.038	1050
251.101	4653
251.164	1331
251.227	1290
251.290	2215
251.354	2188
251.417	12019
251.480	12083
251.543	7244
251.606	21756
251.669	17997
251.732	5904
251.795	5821
251.859	5375
251.922	13535
251.985	7788
252.048	2853
252.111	1113
252.174	937
252.237	2827
252.300	8801
252.363	7643
252.426	20670
252.489	6704
252.552	2730
252.615	903
252.678	2144
252.741	5318
252.804	7587
252.867	18717
252.930	11596
252.993	5334
253.056	3294
253.119	753
253.182	1089
253.245	1957
253.308	2429
253.371	350
253.434	1194
253.497	1221
253.559	3719
253.622	1241
253.685	2604
253.748	2133
253.811	1513
253.874	850
253.937	-363
254.000	636
254.062	2046
254.125	2515
254.188	3194
254.251	1258
254.314	1118
254.376	1968
254.439	2893
254.502	1758
254.565	1547
254.628	4746
254.690	2050
254.753	-34
254.816	155
254.878	409
254.941	2205
255.004	2404
255.067	617
255.129	-25
255.192	704
255.255	-1223
255.317	392
255.380	-140
255.443	-262
255.505	-1067
255.568	-646
255.631	-859
255.693	-259
255.756	-1219
255.819	-109
255.881	-1219
255.944	259
256.006	-566
256.069	-732
256.132	-1440
256.194	437
256.257	390
256.319	797
256.382	-558
256.444	650
256.507	-89
256.569	-890
256.632	-491
256.694	49
256.757	3451
256.819	13329
256.882	3120
256.944	874
257.007	-176
257.069	432
257.132	-944
257.194	1084
257.257	-257
257.319	-516
257.381	-708
257.444	2517
257.506	14254
257.569	15689
257.631	4259
257.693	3175
257.756	164
257.818	-572
257.880	-821
257.943	906
258.005	-748
258.067	-366
258.130	-666
258.192	158
258.254	-72
258.317	17
258.379	762
258.441	1092
258.503	1521
258.566	1936
258.628	2648
258.690	-416
258.753	703
258.815	1420
258.877	-381
258.939	-667
259.001	-287
259.064	-585
259.126	-1000
259.188	373
259.250	-705
259.312	448
259.375	119
259.437	423
259.499	-931
259.561	-38
259.623	-423
259.685	-999
259.747	-375
259.809	1056
259.872	2681
259.934	6628
259.996	4697
260.058	735
260.120	-1240
260.182	-316
260.244	-968
260.306	-534
260.368	-414
260.430	-872
260.492	-368
260.554	1384
260.616	-1669
260.678	2928
260.740	2891
260.802	-100
260.864	244
260.926	-1415
260.988	-257
261.050	-776
261.112	-250
261.174	3871
261.236	2045
261.298	529
261.359	856
261.421	2530
261.483	-1447
261.545	1079
261.607	-2008
261.669	-240
261.731	-265
261.793	1794
261.854	-1393
261.916	708
261.978	-1098
262.040	-172
262.102	-798
262.164	-141
262.225	-183
262.287	380
262.349	774
262.411	-236
262.472	-92
262.534	-6
262.596	1022
262.658	71
262.719	-1718
262.781	-137
262.843	-891
262.904	139
262.966	-1123
263.028	-383
263.090	3061
263.151	12932
263.213	3498
263.275	803
263.336	-1431
263.398	-815
263.459	-1135
263.521	-149
263.583	1696
263.644	76
263.706	-740
263.767	-1183
263.829	75
263.891	-700
263.952	-1147
264.014	-559
264.075	-1577
264.137	411
264.198	-243
264.260	-867
264.321	-841
264.383	146
264.444	1847
264.506	-63
264.567	-738
264.629	728
264.690	-1656
264.752	83
264.813	-955
264.875	-964
264.936	330
264.998	-747
265.059	-856
265.120	-397
265.182	-1458
265.243	5774
265.305	5429
265.366	1130
265.427	-1086
265.489	-138
265.550	-2203
265.611	-242
265.673	-1529
265.734	-205
265.795	-241
265.857	-1466
265.918	-1305
265.979	913
266.040	10954
266.102	8605
266.163	126
266.224	750
266.286	-1286
266.347	-618
266.408	-815
266.469	-467
266.530	-1468
266.592	-484
266.653	-13
266.714	474
266.775	-1249
266.836	-703
266.898	-1946
266.959	-950
267.020	-1262
267.081	742
267.142	-712
267.203	-505
267.264	-2095
267.326	416
267.387	-1139
267.448	-926
267.509	-522
267.570	-786
267.631	-1418
267.692	-1418
267.753	-602
267.814	-1459
267.875	-307
267.936	2363
267.997	-413
268.058	110
268.119	-1066
268.180	-932
268.241	-1877
268.302	65
268.363	-1314
268.424	-102
268.485	-1071
268.546	-585
268.607	-1062
268.668	-196
268.729	-1547
268.790	-689
268.851	-719
268.912	433
268.972	293
269.033	-4
269.094	-1473
269.155	-809
269.216	-944
269.277	-705
269.338	-1617
269.398	-1053
269.459	-1634
269.520	249
269.581	-406
269.642	589
269.702	-1187
269.763	-373
269.824	-987
269.885	-25
269.945	155
270.006	-527
270.067	-1409
270.128	-683
270.188	-1310
270.249	-1280
270.310	-1771
270.370	-533
270.431	-1147
270.492	-620
270.553	-1337
270.613	252
270.674	1825
270.734	-535
270.795	-592
270.856	202
270.916	-1826
270.977	-1315
271.038	-843
271.098	-381
271.159	-1237
271.219	-472
271.280	-1087
271.340	-588
271.401	-1739
271.462	492
271.522	-738
271.583	183
271.643	-213
271.704	-1155
271.764	-1168
271.825	303
271.885	5783
271.946	9117
272.006	2094
272.066	3146
272.127	6741
272.187	1089
272.248	-622
272.308	-699
272.369	3924
272.429	2407
272.489	29
272.550	739
272.610	1293
272.671	-653
272.731	-1182
272.791	-579
272.852	-465
272.912	-378
272.972	-1430
273.033	-515
273.093	-1556
273.153	-736
273.214	-1123
273.274	-555
273.334	856
273.394	7651
273.455	1205
273.515	2201
273.575	4929
273.635	1630
273.696	1828
273.756	6823
273.816	1305
273.876	467
273.936	171
273.997	2912
274.057	-72
274.117	-698
274.177	485
274.237	8150
274.297	5626
274.358	2994
274.418	4721
274.478	4404
274.538	-461
274.598	-611
274.658	557
274.718	3150
274.778	147
274.838	-151
274.898	-1215
274.958	3929
275.018	5496
275.078	4080
275.138	82
275.198	-763
275.258	-1471
275.318	-1031
275.378	364
275.438	683
275.498	-332
275.558	1772
275.618	5009
275.678	4027
275.738	1760
275.798	792
275.858	-1064
275.918	-1040
275.978	-1034
276.038	-605
276.098	-1321
276.157	-322
276.217	3952
276.277	1390
276.337	-630
276.397	-483
276.457	-120
276.517	-703
276.576	-1324
276.636	-1049
276.696	-420
276.756	1634
276.815	636
276.875	-412
276.935	-723
276.995	-333
277.055	-1549
277.114	-773
277.174	-568
277.234	3580
277.293	-109
277.353	-617
277.413	-1308
277.472	-810
277.532	-848
277.592	-187
277.651	2941
277.711	7309
277.771	419
277.830	9243
277.890	6382
277.950	3931
278.009	15754
278.069	5538
278.128	4486
278.188	8404
278.248	1098
278.307	7997
278.367	5060
278.426	16
278.486	-500
278.545	-289
278.605	-459
278.664	-781
278.724	-1511
278.783	1421
278.843	7824
278.902	1303
278.962	-212
279.021	-171
279.081	-1083
279.140	-54
279.199	-1096
279.259	-22
279.318	-110
279.378	544
279.437	504
279.496	9664
279.556	34813
279.615	31083
279.675	6489
279.734	3466
279.793	3028
279.853	7297
279.912	1720
279.971	355
280.031	49
280.090	1860
280.149	3710
280.208	3266
280.268	22024
280.327	28559
280.386	4277
280.445	3608
280.505	2788
280.564	317
280.623	-749
280.682	944
280.742	2327
280.801	424
280.860	-1232
280.919	-267
280.978	-792
281.037	-863
281.097	-1708
281.156	-376
281.215	-1227
281.274	-935
281.333	4269
281.392	3656
281.451	-24
281.510	-365
281.569	-997
281.628	-1223
281.688	-644
281.747	-544
281.806	-1076
281.865	190
281.924	-1516
281.983	-368
282.042	-1717
282.101	-917
282.160	-1107
282.219	-898
282.278	-1769
282.337	2071
282.396	746
282.454	-658
282.513	-1817
282.572	3669
282.631	1034
282.690	-769
282.749	-2178
282.808	-362
282.867	-726
282.926	19
282.985	-1032
283.043	-1169
283.102	-1838
283.161	-828
283.220	483
283.279	5034
283.338	312
283.396	-957
283.455	-1602
283.514	-903
283.573	-27
283.631	170
283.690	-1307
283.749	-289
283.808	431
283.866	1451
283.925	-837
283.984	76
284.043	-512
284.101	88
284.160	-1130
284.219	347
284.277	-1009
284.336	265
284.395	5138
284.453	5212
284.512	739
284.570	1906
284.629	479
284.688	910
284.746	1229
284.805	1787
284.863	2711
284.922	3398
284.981	4321
285.039	5892
285.098	11232
285.156	29730
285.215	55603
285.273	58271
285.332	36916
285.390	18931
285.449	10583
285.507	6323
285.566	3344
285.624	2709
285.683	1464
285.741	1107
285.799	653
285.858	956
285.916	566
285.975	-801
286.033	-1076
286.091	166
286.150	-810
286.208	429
286.267	-1479
286.325	251
286.383	-879
286.442	227
286.500	-836
286.558	-423
286.616	-873
286.675	-200
286.733	-515
286.791	-565
286.850	-924
286.908	-240
286.966	646
287.024	465
287.083	-1337
287.141	-484
287.199	-460
287.257	-448
287.315	-345
287.374	-1124
287.432	1256
287.490	1339
287.548	-654
287.606	-977
287.664	-911
287.723	134
287.781	-708
287.839	-526
287.897	-289
287.955	462
288.013	43
288.071	2128
288.129	17505
288.187	64559
288.245	27390
288.303	7663
288.361	2640
288.419	648
288.477	-4
288.535	89
288.593	-586
288.651	-918
288.709	-1533
288.767	272
288.825	-1115
288.883	-493
288.941	-2429
288.999	-1682
289.057	-1366
289.115	-1513
289.173	-1530
289.231	-892
289.289	-1090
289.346	-1547
289.404	-1282
289.462	-454
289.520	-135
289.578	-940
289.636	-1550
289.694	-570
289.751	-2032
289.809	-951
289.867	-1171
289.925	-200
289.983	-1431
290.040	-1032
290.098	-1978
290.156	-840
290.214	-1234
290.271	-1093
290.329	-1308
290.387	-1044
290.444	-1933
290.502	-1752
290.560	-1222
290.617	-665
290.675	-2223
290.733	-1484
290.790	-1015
290.848	-1098
290.906	-1385
290.963	-1339
291.021	-1653
291.078	-965
291.136	-1588
291.194	32
291.251	2707
291.309	711
291.366	-1415
291.424	-1033
291.481	-949
291.539	-1729
291.596	-1869
291.654	-1250
291.711	-1649
291.769	-986
291.826	-1177
291.884	-572
291.941	-1720
291.999	-1380
292.056	-1593
292.114	-933
292.171	-2014
292.228	-1278
292.286	-2288
292.343	-110
292.401	-944
292.458	-1063
292.515	-1749
292.573	-611
292.630	-1442
292.687	-860
292.745	-2073
292.802	-1700
292.859	-587
292.917	4897
292.974	1385
293.031	-809
293.089	-1176
293.146	-1353
293.203	-1057
293.260	-1005
293.318	-1598
293.375	-795
293.432	-977
293.489	-769
293.546	-1898
293.604	-1130
293.661	719
293.718	9741
293.775	3602
293.832	1275
293.889	-1286
293.947	-733
294.004	-1471
294.061	-1104
294.118	194
294.175	3378
294.232	1688
294.289	640
294.346	-992
294.403	-672
294.460	-629
294.517	-255
294.574	-2186
294.631	-1558
294.688	-1223
294.745	183
294.802	8372
294.859	7119
294.916	1393
294.973	207
295.030	623
295.087	592
295.144	-1124
295.201	-619
295.258	-1889
295.315	-608
295.372	1636
295.429	7585
295.486	2217
295.542	-34
295.599	239
295.656	3038
295.713	2488
295.770	7323
295.827	1311
295.883	-243
295.940	-1193
295.997	545
296.054	-701
296.111	144
296.167	-1015
296.224	-573
296.281	-1703
296.338	-895
296.394	-1548
296.451	-690
296.508	1306
296.564	5390
296.621	1696
296.678	7430
296.734	12248
296.791	3372
296.848	425
296.904	799
296.961	3257
297.018	8620
297.074	5580
297.131	1551
297.187	-683
297.244	898
297.301	7385
297.357	18261
297.414	5267
297.470	1840
297.527	-1008
297.583	-460
297.640	-734
297.696	-635
297.753	-1950
297.809	-1512
297.866	-1957
297.922	-1124
297.979	-1615
298.035	-1202
298.092	-1204
298.148	4461
298.204	3942
298.261	379
298.317	1678
298.374	10500
298.430	6326
298.486	1008
298.543	-959
298.599	-806
298.656	-576
298.712	1481
298.768	7128
298.824	5379
298.881	89
298.937	345
298.993	-1575
299.050	-396
299.106	-397
299.162	-572
299.218	-496
299.275	-399
299.331	-613
299.387	850
299.443	8039
299.500	10505
299.556	2058
299.612	898
299.668	-528
299.724	-660
299.780	-68
299.837	-192
299.893	-533
299.949	7100
300.005	7833
300.061	6573
300.117	11763
300.173	6331
300.229	891
300.285	1149
300.341	2517
300.397	-75
300.453	-1903
300.510	-664
300.566	-1356
300.622	-944
300.678	911
300.734	6592
300.790	6517
300.845	10281
300.901	4590
300.957	7202
301.013	5421
301.069	1164
301.125	-226
301.181	304
301.237	-1262
301.293	-322
301.349	-898
301.405	-676
301.461	-1565
301.516	-742
301.572	-1109
301.628	986
301.684	613
301.740	2353
301.796	3894
301.851	2067
301.907	3336
301.963	4492
302.019	8222
302.074	29332
302.130	29903
302.186	13415
302.242	3857
302.297	1600
302.353	1507
302.409	4539
302.464	3205
302.520	3174
302.576	8555
302.631	12458
302.687	5494
302.743	1626
302.798	-592
302.854	-775
302.910	-1192
302.965	470
303.021	811
303.076	1422
303.132	1782
303.187	3940
303.243	738
303.299	-372
303.354	-390
303.410	-683
303.465	-638
303.521	-433
303.576	-1147
303.632	-996
303.687	936
303.743	8279
303.798	7457
303.853	2547
303.909	-543
303.964	-127
304.020	519
304.075	2573
304.130	1013
304.186	5092
304.241	5683
304.297	3578
304.352	625
304.358	536
304.407	-189
304.449	-574
304.463	-703
304.518	-124
304.539	-206
304.573	-351
304.629	-406
304.630	-407
304.684	-342
304.720	4078
304.739	6277
304.794	10692
304.811	9125
304.850	5379
304.902	1174
304.905	905
304.960	547
304.992	162
305.015	-131
305.071	452
305.083	231
305.126	-548
305.173	-300
305.181	-260
305.236	-811
305.264	-599
305.292	-404
305.347	-860
305.354	-837
305.402	-578
305.445	-190
305.457	-118
305.512	691
305.535	423
305.567	156
305.622	-196
305.626	-114
305.678	1912
305.716	7211
305.733	9077
305.788	10485
305.807	9105
305.843	6978
305.897	7819
305.898	7816
305.953	9726
305.988	5599
306.008	3328
306.063	1531
306.078	1123
306.118	261
306.168	-54
306.173	-82
306.228	-277
306.259	-224
306.283	-116
306.338	-611
306.349	-430
306.393	148
306.440	-111
306.448	-149
306.503	108
306.530	74
306.558	236
306.613	982
306.620	1194
306.668	3337
306.711	8466
306.723	9332
306.778	6864
306.801	5538
306.833	4212
306.888	711
306.892	645
306.943	391
306.982	-71
306.997	-279
307.052	-351
307.072	-421
307.107	-492
307.162	9
307.163	7
307.217	219
307.253	765
307.272	878
307.327	459
307.343	323
307.381	284
307.434	129
307.436	178
307.491	2311
307.524	4473
307.546	5386
307.600	7293
307.614	6565
307.655	3477
307.704	1360
307.710	1272
307.765	896
307.795	1321
307.819	1730
307.874	2465
307.885	2460
307.929	2437
307.975	2683
307.984	2957
308.038	5513
308.065	6860
308.093	13480
308.148	32509
308.156	36881
308.202	57859
308.246	71054
308.257	69365
308.312	38172
308.336	25873
308.366	18928
308.421	10707
308.426	10078
308.475	6445
308.517	4142
308.530	3556
308.585	2882
308.607	2500
308.639	2230
308.694	2281
308.697	2284
308.748	2721
308.787	3777
308.803	4036
308.857	3163
308.877	3169
308.912	3544
308.967	3726
308.967	3739
309.021	7157
309.058	9448
309.076	12230
309.130	22542
309.148	26496
309.185	46952
309.238	84706
309.239	84988
309.293	93488
309.328	86387
309.348	74918
309.402	35468
309.418	25609
309.457	17361
309.508	10170
309.511	9971
309.566	9484
309.598	9800
309.620	11398
309.674	16866
309.688	18294
309.729	16961
309.778	13085
309.783	12759
309.837	8104
309.868	6359
309.892	7447
309.946	10279
309.959	11533
310.001	15711
310.049	19069
310.055	18423
310.109	10644
310.139	5915
310.163	4180
310.218	2007
310.229	1597
310.272	1557
310.319	1872
310.326	1807
310.381	1366
310.409	1132
310.435	1090
310.489	647
310.499	637
310.543	409
310.589	195
310.598	253
310.652	578
310.679	652
310.706	598
310.760	664
310.769	628
310.814	807
310.859	1251
310.868	1223
310.923	724
310.948	532
310.977	772
311.031	1272
311.038	1328
311.085	760
311.128	230
311.139	334
311.193	890
311.218	1050
311.247	723
311.301	202
311.308	122
311.356	687
311.398	1385
311.410	1330
311.464	737
311.488	533
311.518	542
311.572	530
311.578	528
311.626	1421
311.668	2131
311.680	1997
311.734	1362
311.758	1039
311.788	930
311.842	848
311.847	821
311.896	1252
311.937	1726
311.950	1680
312.004	1382
312.027	1258
312.058	1191
312.112	1048
312.117	1031
312.165	776
312.207	549
312.297	1136
312.386	-129
312.476	1538
312.566	2753
312.656	776
312.745	1076
312.835	2000
312.925	661
313.015	520
313.104	273
313.194	950
313.284	1086
313.374	1113
313.463	775
313.553	1351
313.643	317
313.732	858
313.822	85
313.912	1578
314.001	509
314.091	564
314.180	1385
314.270	2027
314.360	871
314.449	1626
314.539	-45
314.628	790
314.718	594
314.808	1134
314.897	1349
314.987	1653
315.076	953
315.166	1082
315.255	808
315.345	1661
315.434	623
315.524	1012
315.613	1048
315.703	2258
315.792	1902
315.881	3228
315.971	1467
316.060	2830
316.150	1887
316.239	1707
316.328	549
316.418	838
316.507	224
316.597	1438
316.686	764
316.775	1082
316.865	1803
316.954	1250
317.043	529
317.133	406
317.222	331
317.311	1129
317.400	-35
317.490	2417
317.579	1457
317.668	604
317.757	1574
317.847	3503
317.936	6623
318.025	5259
318.114	1495
318.203	1087
318.293	1661
318.382	3044
318.471	2299
318.560	3644
318.649	6302
318.738	1443
318.828	1115
318.917	1595
319.006	903
319.095	3368
319.184	9975
319.273	7385
319.362	4707
319.451	711
319.540	904
319.629	3242
319.718	5813
319.807	1909
319.896	3501
319.985	13210
320.074	4446
320.163	969
320.252	1022
320.341	1522
320.430	556
320.519	2664
320.608	532
320.697	1569
320.786	703
320.875	1706
320.964	1808
321.053	4222
321.142	5448
321.230	4961
321.319	3811
321.408	10035
321.497	3221
321.586	4130
321.675	2792
321.764	3558
321.852	2503
321.941	5102
322.030	2709
322.119	4049
322.207	10998
322.296	4315
322.385	1151
322.474	4527
322.562	12654
322.651	5778
322.740	2835
322.829	5057
322.917	2831
323.006	2684
323.095	3116
323.183	820
323.272	1921
323.361	4156
323.449	8094
323.538	2522
323.626	5655
323.715	3022
323.804	541
323.892	5167
323.981	3135
324.069	1609
324.158	2264
324.246	2105
324.335	1412
324.424	3704
324.512	325
324.601	1420
324.689	1112
324.778	1586
324.866	1341
324.954	1060
325.043	609
325.131	598
325.220	2609
325.308	1477
325.397	968
325.485	846
325.574	303
325.662	87
325.750	19
325.839	997
325.927	19
326.015	579
326.104	-221
326.192	229
326.280	277
326.369	293
326.457	768
326.545	2967
326.634	514
326.722	122
326.810	-203
326.898	379
326.987	599
327.075	2372
327.163	2317
327.251	199
327.340	74
327.428	938
327.516	304
327.604	632
327.692	691
327.781	219
327.869	56
327.957	471
328.045	652
328.133	1153
328.221	432
328.309	329
328.397	597
328.485	1259
328.574	1947
328.662	7291
328.750	2084
328.838	80
328.926	1185
329.014	76
329.102	1188
329.190	2689
329.278	1534
329.366	340
329.454	455
329.542	877
329.630	33
329.718	1652
329.806	458
329.893	1219
329.981	681
330.069	2944
330.157	18375
330.245	56110
330.333	26852
330.421	3670
330.509	2272
330.597	9581
330.684	4505
330.772	1858
330.860	762
330.948	579
331.036	1012
331.123	-223
331.211	-182
331.299	589
331.387	782
331.475	2156
331.562	455
331.650	562
331.738	-57
331.825	801
331.913	-693
332.001	-383
332.089	872
332.176	918
332.264	1278
332.352	1422
332.439	224
332.527	1118
332.614	-661
332.702	341
332.790	-37
332.877	581
332.965	2346
333.052	1148
333.140	1319
333.228	4322
333.315	783
333.403	271
333.490	186
333.578	2053
333.665	7211
333.753	2591
333.840	-249
333.928	215
334.015	423
334.103	3600
334.190	9599
334.278	2201
334.365	166
334.452	1023
334.540	225
334.627	0
334.715	541
334.802	961
334.889	8393
334.977	8646
335.064	1430
335.151	889
335.239	235
335.326	-103
335.413	5822
335.501	7523
335.588	278
335.675	782
335.762	352
335.850	1251
335.937	1066
336.024	3494
336.111	10924
336.199	5623
336.286	1080
336.373	685
336.460	374
336.547	407
336.635	790
336.722	809
336.809	299
336.896	24
336.983	2991
337.070	8449
337.157	11507
337.245	4990
337.332	2931
337.419	-371
337.506	175
337.593	-163
337.680	1427
337.767	6482
337.854	1298
337.941	1215
338.028	1447
338.115	-290
338.202	1434
338.289	1066
338.376	4833
338.463	1828
338.550	2567
338.637	3640
338.724	638
338.811	1173
338.898	176
338.984	153
339.071	-33
339.158	470
339.245	3298
339.332	1915
339.419	1377
339.506	963
339.593	-320
339.679	1142
339.766	-569
339.853	913
339.940	2175
340.027	565
340.113	405
340.200	2008
340.287	385
340.374	941
340.460	1941
340.547	-10
340.634	2332
340.720	9475
340.807	3322
340.894	756
340.980	508
341.067	441
341.154	695
341.240	1449
341.327	4151
341.414	1314
341.500	159
341.587	1082
341.674	-4
341.760	2970
341.847	2555
341.933	1189
342.020	-190
342.106	300
342.193	970
342.279	1531
342.366	705
342.452	2018
342.539	773
342.625	3631
342.712	9656
342.798	3291
342.885	631
342.971	-536
343.058	-1121
343.144	936
343.230	382
343.317	440
343.403	-112
343.490	-300
343.576	-472
343.662	300
343.749	157
343.835	176
343.921	1450
344.008	19900
344.094	43965
344.180	7844
344.267	2051
344.353	12043
344.439	10050
344.525	3681
344.612	2144
344.698	1025
344.784	-646
344.870	783
344.957	182
345.043	1892
345.129	328
345.215	2870
345.301	686
345.387	699
345.474	104
345.560	-219
345.646	-679
345.732	547
345.818	914
345.904	248
345.990	883
346.076	-741
346.162	-175
346.249	897
346.335	0
346.421	371
346.507	4157
346.593	17536
346.679	2595
346.765	958
346.851	-199
346.937	-425
347.023	835
347.108	673
347.194	362
347.280	404
347.366	670
347.452	4210
347.538	19782
347.624	15966
347.710	11199
347.796	622
347.882	-834
347.967	1130
348.053	-199
348.139	493
348.225	517
348.311	-403
348.397	-86
348.482	1205
348.568	464
348.654	108
348.740	229
348.825	-357
348.911	2035
348.997	8747
349.083	18223
349.168	2018
349.254	-229
349.340	153
349.425	54
349.511	323
349.597	-521
349.682	2925
349.768	12358
349.854	4788
349.939	-597
350.025	-66
350.110	31
350.196	1329
350.282	-303
350.367	241
350.453	-115
350.538	287
350.624	526
350.709	260
350.795	-897
350.880	153
350.966	1058
351.051	1062
351.137	-884
351.222	763
351.308	3208
351.393	11401
351.479	1268
351.564	-248
351.649	633
351.735	-70
351.820	262
351.906	251
351.991	-603
352.076	6239
352.162	10129
352.247	1257
352.332	760
352.418	1085
352.503	2559
352.588	16634
352.673	11376
352.759	1864
352.844	-48
352.929	830
353.014	471
353.100	710
353.185	816
353.270	2688
353.355	2981
353.441	909
353.526	330
353.611	2105
353.696	3112
353.781	1465
353.866	-701
353.952	892
354.037	2152
354.122	6527
354.207	4769
354.292	1249
354.377	480
354.462	341
354.547	345
354.632	496
354.717	320
354.802	-267
354.887	49
354.972	549
355.057	210
355.142	-342
355.227	-55
355.312	1108
355.397	3360
355.482	9683
355.567	4227
355.652	3766
355.737	3620
355.822	14529
355.907	10517
355.991	2373
356.076	-227
356.161	584
356.246	-871
356.331	399
356.416	1928
356.501	23547
356.585	22543
356.670	1379
356.755	2395
356.840	1662
356.924	13361
357.009	52138
357.094	18012
357.179	3155
357.263	1004
357.348	1951
357.433	1491
357.517	1301
357.602	773
357.687	421
357.771	577
357.856	280
357.941	1620
358.025	10940
358.110	52324
358.195	23317
358.279	2220
358.364	1393
358.448	8896
358.533	26814
358.617	18416
358.702	18386
358.787	5306
358.871	2944
358.956	1860
359.040	473
359.125	-560
359.209	624
359.294	32
359.378	452
359.462	1734
359.547	1251
359.631	-308
359.716	-336
359.800	-399
359.885	1076
359.969	-688
360.053	422
360.138	-22
360.222	1118
360.306	2243
360.391	2063
360.475	1617
360.559	5795
360.644	7612
360.728	4115
360.812	11406
360.896	33880
360.981	11186
361.065	4187
361.149	1171
361.233	1027
361.318	14
361.402	680
361.486	520
361.570	1369
361.654	834
361.739	3881
361.823	20198
361.907	33604
361.991	3604
362.075	2351
362.159	4751
362.243	4496
362.327	2197
362.411	4957
362.495	1431
362.580	821
362.664	531
362.748	77
362.832	415
362.916	616
363.000	7679
363.084	26006
363.168	37975
363.252	7858
363.336	1667
363.420	2576
363.503	7262
363.587	9380
363.671	1055
363.755	85
363.839	3293
363.923	204
364.007	2427
364.091	2349
364.175	988
364.258	14543
364.342	9359
364.426	16429
364.510	6836
364.594	3469
364.677	5918
364.761	27774
364.845	20894
364.929	5154
365.013	3877
365.096	3400
365.180	2983
365.264	2896
365.347	13904
365.431	4942
365.515	-57
365.598	-148
365.682	1069
365.766	-6
365.849	452
365.933	797
366.017	632
366.100	-741
366.184	-1238
366.267	1156
366.351	741
366.435	-615
366.518	-145
366.602	435
366.685	579
366.769	161
366.852	513
366.936	2795
367.019	1593
367.103	-660
367.186	1082
367.270	-258
367.353	-1579
367.436	103
367.520	-849
367.603	952
367.687	748
367.770	2809
367.853	1886
367.937	8452
368.020	14465
368.104	1713
368.187	2126
368.270	3932
368.353	2267
368.437	2165
368.520	2858
368.603	3501
368.687	9368
368.770	19249
368.853	3456
368.936	2824
369.020	2155
369.103	360
369.186	-707
369.269	214
369.352	1883
369.436	2118
369.519	1491
369.602	-1007
369.685	1560
369.768	-273
369.851	576
369.934	-814
370.018	-558
370.101	1790
370.184	3296
370.267	1410
370.350	944
370.433	3133
370.516	13023
370.599	16940
370.682	2443
370.765	10363
370.848	14014
370.931	23159
371.014	8203
371.097	-406
371.180	703
371.263	820
371.346	-1293
371.429	685
371.511	-632
371.594	593
371.677	2895
371.760	2819
371.843	2937
371.926	19841
372.009	44276
372.091	16313
372.174	8102
372.257	22048
372.340	7901
372.423	3881
372.505	4754
372.588	1387
372.671	7306
372.754	22303
372.836	10698
372.919	4091
373.002	7416
373.085	2150
373.167	2589
373.250	9063
373.332	22500
373.415	29541
373.498	57076
373.580	21242
373.663	24198
373.746	35411
373.828	6727
373.911	2921
373.993	1619
374.076	6583
374.159	5398
374.241	4930
374.324	18490
374.406	13319
374.489	16471
374.571	49338
374.654	19829
374.736	8460
374.819	27683
374.901	42389
374.983	42804
375.066	7146
375.148	1198
375.231	5439
375.313	11659
375.395	3781
375.478	93
375.560	830
375.643	1343
375.725	7346
375.807	35016
375.890	24883
375.972	3353
376.054	2462
376.136	1623
376.219	1638
376.301	10801
376.383	31457
376.465	11748
376.548	4998
376.630	7269
376.712	27387
376.794	12000
376.877	1398
376.959	-1377
377.041	822
377.123	-361
377.205	484
377.287	-1276
377.369	1034
377.452	-1026
377.534	-70
377.616	-586
377.698	261
377.780	-1341
377.862	381
377.944	542
378.026	-986
378.108	-91
378.190	-373
378.272	550
378.354	-818
378.436	-482
378.518	-436
378.600	2442
378.682	5000
378.764	12722
378.846	11219
378.928	505
379.010	2218
379.091	2018
379.173	284
379.255	-682
379.337	219
379.419	4636
379.501	19544
379.583	6905
379.664	1078
379.746	2535
379.828	14852
379.910	18140
379.991	16832
380.073	1276
380.155	-80
380.237	-15
380.318	17
380.400	108
380.482	2101
380.564	2432
380.645	2120
380.727	1343
380.809	2611
380.890	803
380.972	-460
381.053	-16
381.135	2220
381.217	2640
381.298	14427
381.380	6062
381.461	5487
381.543	26399
381.624	33188
381.706	4620
381.787	1334
381.869	3138
381.951	11323
382.032	43247
382.113	29288
382.195	3086
382.276	3669
382.358	6575
382.439	23661
382.521	28702
382.602	42956
382.684	19947
382.765	33418
382.846	39987
382.928	60068
383.009	33266
383.090	21448
383.172	81320
383.253	125286
383.334	42700
383.416	38505
383.497	20831
383.578	9098
383.659	16834
383.741	68554
383.822	173155
383.903	92005
383.984	29535
384.066	48479
384.147	28847
384.228	5882
384.309	2869
384.390	2022
384.471	922
384.553	1605
384.634	2459
384.715	3390
384.796	850
384.877	2216
384.958	12394
385.039	15345
385.120	4634
385.201	1864
385.282	583
385.363	1799
385.444	677
385.525	3460
385.606	16979
385.687	16324
385.768	2737
385.849	2857
385.930	20312
386.011	36244
386.092	8744
386.173	1302
386.254	506
386.335	823
386.416	533
386.496	7815
386.577	13377
386.658	3038
386.739	50
386.820	768
386.901	-998
386.981	649
387.062	-1060
387.143	1610
387.224	12401
387.304	13194
387.385	2902
387.466	-888
387.547	1043
387.627	-335
387.708	3276
387.789	23652
387.869	28891
387.950	7565
388.031	-422
388.111	-1368
388.192	1175
388.273	2064
388.353	252
388.434	80
388.514	3459
388.595	22292
388.676	29476
388.756	13828
388.837	11742
388.917	7625
388.998	-1110
389.078	1363
389.159	502
389.239	-1106
389.320	2345
389.400	-680
389.480	4546
389.561	13936
389.641	7542
389.722	1342
389.802	1204
389.883	5008
389.963	17056
390.043	9167
390.124	118
390.204	3964
390.284	14133
390.365	8217
390.445	6258
390.525	21958
390.605	23944
390.686	7210
390.766	1678
390.846	1172
390.927	-963
391.007	-1029
391.087	328
391.167	-361
391.247	-1582
391.328	804
391.408	256
391.488	849
391.568	-2842
391.648	37
391.728	1778
391.808	2264
391.888	1346
391.969	7179
392.049	12178
392.129	4694
392.209	5200
392.289	17154
392.369	7283
392.449	1951
392.529	1092
392.609	2513
392.689	3733
392.769	15210
392.849	13314
392.929	7023
393.009	17803
393.089	13851
393.169	7139
393.248	28034
393.328	139028
393.408	155598
393.488	32723
393.568	6581
393.648	2689
393.728	1770
393.807	132
393.887	2145
393.967	617
394.047	1653
394.127	3115
394.206	7134
394.286	30994
394.366	133583
394.446	149744
394.525	35389
394.605	6307
394.685	4279
394.764	5545
394.844	6952
394.924	4484
395.003	1824
395.083	1711
395.163	852
395.242	1065
395.322	1450
395.402	-527
395.481	2616
395.561	2423
395.640	9653
395.720	9791
395.799	10852
395.879	10060
395.958	12596
396.038	48563
396.117	175047
396.197	196658
396.276	56878
396.356	12988
396.435	6982
396.515	4494
396.594	3612
396.673	8573
396.753	37784
396.832	131613
396.912	103617
396.991	20627
397.070	4564
397.150	-321
397.229	1778
397.308	1117
397.388	3647
397.467	2031
397.546	756
397.625	-1913
397.705	1844
397.784	109
397.863	-486
397.942	-934
398.022	-646
398.101	635
398.180	6825
398.259	1966
398.338	1093
398.417	-677
398.497	-435
398.576	277
398.655	-1113
398.734	-209
398.813	-372
398.892	902
398.971	6958
399.050	1639
399.129	-1099
399.208	-723
399.287	-568
399.366	-1590
399.445	-1114
399.524	-751
399.603	-1548
399.682	170
399.761	2248
399.840	7995
399.919	6860
399.998	-430
400.077	-1565
400.156	-2222
400.235	1636
400.313	-1154
400.392	-1587
400.471	6030
400.550	11390
400.629	661
400.708	572
400.786	-1353
400.865	-102
400.944	29
401.023	1642
401.102	-1453
401.180	-1728
401.259	-969
401.338	-1517
401.416	-650
401.495	-1024
401.574	-627
401.652	-1259
401.731	-598
401.810	-1293
401.888	-1396
401.967	-851
402.046	-1203
402.124	330
402.203	-542
402.281	-475
402.360	-1904
402.438	537
402.517	-965
402.596	-618
402.674	-1543
402.753	-738
402.831	-359
402.910	-332
402.988	1163
403.066	8821
403.145	5646
403.223	3054
403.302	6380
403.380	5658
403.459	3732
403.537	1227
403.615	-1321
403.694	-2408
403.772	-564
403.850	-1001
403.929	-1671
404.007	-1445
404.085	464
404.164	-1068
404.242	-1228
404.320	1469
404.398	4560
404.477	8854
404.555	34219
404.633	30638
404.711	6141
404.789	2019
404.868	-1048
404.946	-858
405.024	-1051
405.102	-1183
405.180	-2110
405.258	-2546
405.336	-577
405.415	-1907
405.493	-993
405.571	-89
405.649	-1453
405.727	-1686
405.805	-113
405.883	-794
405.961	-817
406.039	-1010
406.117	-2250
406.195	187
406.273	6378
406.351	30115
406.429	17667
406.507	485
406.585	-1604
406.663	-500
406.740	-286
406.818	-1406
406.896	-1694
406.974	288
407.052	64
407.130	17126
407.208	24031
407.285	4827
407.363	-1138
407.441	-564
407.519	-1256
407.596	-456
407.674	3435
407.752	18414
407.830	14836
407.907	1685
407.985	-1926
408.063	-446
408.141	-1034
408.218	68
408.296	-2441
408.373	-1128
408.451	-623
408.529	-371
408.606	-1740
408.684	-925
408.762	-1434
408.839	-1061
408.917	-1203
408.994	-1770
409.072	-2726
409.149	-1142
409.227	-1273
409.304	-1335
409.382	-341
409.459	-689
409.537	148
409.614	-955
409.692	-1368
409.769	-675
409.846	-1179
409.924	1371
410.001	-2747
410.079	-1255
410.156	-17
410.233	-827
410.311	-1066
410.388	-2251
410.465	-1235
410.543	-1970
410.620	-582
410.697	-719
410.775	-1145
410.852	-1628
410.929	-853
411.006	-92
411.083	-1943
411.161	-875
411.238	-347
411.315	-363
411.392	-1607
411.469	-510
411.547	-1494
411.624	-2790
411.701	-1914
411.778	-561
411.855	52
411.932	-771
412.009	-1639
412.086	-603
412.163	-1248
412.240	-1095
412.317	-705
412.394	-893
412.471	-1677
412.548	-1963
412.625	-1446
412.702	-1096
412.779	-515
412.856	-565
412.933	-1769
413.010	-643
413.087	-528
413.164	4672
413.241	7701
413.318	422
413.395	164
413.471	584
413.548	-1150
413.625	-1126
413.702	-2462
413.779	-524
413.855	-1475
413.932	-2391
414.009	-2430
414.086	-1470
414.162	-1394
414.239	233
414.316	3911
414.393	14168
414.469	3436
414.546	-1308
414.623	-837
414.699	-847
414.776	-835
414.853	-1790
414.929	-1238
415.006	-1913
415.082	-1438
415.159	-952
415.236	-506
415.312	-599
415.389	-490
415.465	69
415.542	-1615
415.618	-1648
415.695	12
415.771	-764
415.848	-1495
415.924	-1428
416.000	-1313
416.077	-511
416.153	-2325
416.230	-1880
416.306	-1647
416.383	-1534
416.459	-1257
416.535	-1984
416.612	-1405
416.688	-1561
416.764	-1420
416.841	-2059
416.917	-2125
416.993	-1458
417.069	-1188
417.146	-1274
417.222	-118
417.298	-1203
417.374	-1931
417.451	-670
417.527	-1281
417.603	-1233
417.679	-1281
417.755	-1005
417.831	-2827
417.908	-810
417.984	-1860
418.060	-1484
418.136	-237
418.212	634
418.288	-973
418.364	-211
418.440	-1436
418.516	201
418.592	-662
418.668	1649
418.744	2483
418.820	1584
418.896	-566
418.972	-2380
419.048	-829
419.124	1157
419.200	-1448
419.276	-1201
419.352	-1733
419.428	-941
419.504	-2306
419.579	-488
419.655	-1761
419.731	-1102
419.807	1115
419.883	3657
419.959	1505
420.034	-493
420.110	-118
420.186	7027
420.262	6929
420.337	-100
420.413	-1338
420.489	-987
420.565	-151
420.640	-1212
420.716	-1171
420.792	-2360
420.867	-644
420.943	-2269
421.019	-568
421.094	-948
421.170	-1011
421.245	-1952
421.321	-1092
421.397	-1085
421.472	2389
421.548	9275
421.623	6317
421.699	337
421.774	-841
421.850	-1249
421.925	-138
422.001	193
422.076	-685
422.152	-507
422.227	801
422.302	1567
422.378	1712
422.453	5200
422.529	18786
422.604	76175
422.679	150188
422.755	89923
422.830	21848
422.905	7201
422.981	2418
423.056	727
423.131	171
423.207	-568
423.282	-480
423.357	1029
423.432	174
423.508	357
423.583	1961
423.658	2269
423.733	-242
423.808	-394
423.883	-626
423.959	-923
424.034	-871
424.109	-282
424.184	-1507
424.259	-1344
424.334	-1690
424.409	-1494
424.484	-2377
424.559	-938
424.634	-1789
424.709	-1116
424.784	-696
424.859	-977
424.934	-955
425.009	4831
425.084	9162
425.159	1870
425.234	-1372
425.309	-2046
425.384	-2057
425.459	-1872
425.534	-1235
425.609	-1684
425.683	-1833
425.758	-1469
425.833	-1310
425.908	-446
425.983	2028
426.058	10590
426.132	3027
426.207	-1705
426.282	-919
426.357	-2062
426.431	-1340
426.506	-887
426.581	-1699
426.655	-1274
426.730	-1519
426.805	-1970
426.879	-1689
426.954	-1079
427.029	-317
427.103	9785
427.178	27081
427.253	12214
427.327	-325
427.402	-789
427.476	-1368
427.551	-1900
427.625	-1681
427.700	-1105
427.774	-2371
427.849	-1020
427.923	-2281
427.998	-1510
428.072	-1369
428.147	-319
428.221	5485
428.296	18995
428.370	8536
428.444	-1110
428.519	-1459
428.593	71
428.667	-643
428.742	73
428.816	52
428.890	9180
428.965	16680
429.039	3007
429.113	-456
429.188	-472
429.262	-1318
429.336	-334
429.410	2643
429.485	1344
429.559	-876
429.633	-542
429.707	-1545
429.781	-249
429.855	8639
429.930	17919
430.004	4887
430.078	4904
430.152	7276
430.226	27274
430.300	32297
430.374	2115
430.448	-327
430.522	1370
430.596	4971
430.670	6178
430.744	24082
430.818	39297
430.892	7873
430.966	-595
431.040	-1373
431.114	-2229
431.188	-2168
431.262	-2088
431.336	-1821
431.410	-526
431.484	759
431.557	743
431.631	-2062
431.705	-1204
431.779	1907
431.853	15574
431.927	11053
432.000	208
432.074	-1747
432.148	-1476
432.222	-1896
432.295	-1340
432.369	-1696
432.443	221
432.516	8391
432.590	28082
432.664	10614
432.737	-1221
432.811	-1657
432.885	-1812
432.958	-1264
433.032	-2029
433.106	-1331
433.179	-1503
433.253	-1920
433.326	-2448
433.400	-2024
433.473	-1347
433.547	-2461
433.620	-866
433.694	-373
433.767	-308
433.841	-1892
433.914	-1672
433.988	-2496
434.061	-1572
434.134	-2147
434.208	-2001
434.281	-2161
434.355	-2065
434.428	-1337
434.501	-1801
434.575	-2223
434.648	-1587
434.721	-2071
434.795	-2120
434.868	-2355
434.941	-1846
435.014	-2199
435.088	-1812
435.161	-1983
435.234	-1669
435.307	-488
435.381	-906
435.454	-1536
435.527	-1156
435.600	-1862
435.673	-923
435.746	-2213
435.819	-1522
435.892	-1527
435.966	-1627
436.039	-2170
436.112	-1589
436.185	-1972
436.258	-1797
436.331	-2340
436.404	-1998
436.477	-2126
436.550	-1834
436.623	-1711
436.696	-1150
436.769	-1833
436.842	-1653
436.915	-2012
436.987	-1402
437.060	-1431
437.133	-1567
437.206	-2892
437.279	-1960
437.352	-2143
437.425	-2003
437.498	-1264
437.570	-303
437.643	-238
437.716	-1913
437.789	-1833
437.861	-1010
437.934	-1217
438.007	-1191
438.080	-1823
438.152	-1419
438.225	83
438.298	13873
438.370	43417
438.443	18329
438.516	1172
438.588	-1128
438.661	-2830
438.734	-1370
438.806	-1542
438.879	-2426
438.951	-1438
439.024	-1502
439.096	-1996
439.169	-1627
439.241	-2171
439.314	-2100
439.386	-2008
439.459	-1381
439.531	-1760
439.604	-2055
439.676	-1483
439.749	-1427
439.821	-2288
439.893	-1587
439.966	-2000
440.038	-1683
440.110	-1505
440.183	-1532
440.255	-2289
440.327	157
440.400	3666
440.472	26067
440.544	19454
440.617	-319
440.689	-108
440.761	-528
440.833	-657
440.905	-551
440.978	-1719
441.050	-1539
441.122	-1140
441.194	-1318
441.266	-2098
441.338	-2178
441.411	-779
441.483	7263
441.555	12183
441.627	1880
441.699	-1744
441.771	-1343
441.843	-1610
441.915	-2251
441.987	-1900
442.059	-2003
442.131	-2435
442.203	-1686
442.275	-1733
442.347	-931
442.419	-1130
442.491	4798
442.563	15831
442.635	5905
442.706	1447
442.778	1834
442.850	-1093
442.922	-2251
442.994	-2325
443.066	-886
443.137	-2155
443.209	-1760
443.281	-1513
443.353	357
443.425	7698
443.496	35776
443.568	32611
443.640	8874
443.711	-608
443.783	-1471
443.855	-2010
443.926	-1425
443.998	-1964
444.070	-1126
444.141	-2056
444.213	-1206
444.285	-947
444.356	-606
444.428	-1478
444.499	-1699
444.571	-2401
444.642	-1342
444.714	-1168
444.785	-218
444.857	-271
444.928	-531
445.000	-1230
445.071	-524
445.143	-1258
445.214	-751
445.285	-270
445.357	3345
445.428	22338
445.500	60676
445.571	34051
445.642	13845
445.714	2745
445.785	1179
445.856	-887
445.928	-103
445.999	-858
446.070	-1777
446.141	-269
446.213	-187
446.284	-1807
446.355	-952
446.426	-2293
446.497	-1290
446.569	-1962
446.640	-582
446.711	-527
446.782	-2376
446.853	-728
446.924	-1000
446.995	-1915
447.066	-729
447.138	-1834
447.209	-1322
447.280	-2261
447.351	-2215
447.422	-2302
447.493	-1577
447.564	-1251
447.635	-163
447.706	-1966
447.777	-1242
447.847	-2026
447.918	-2374
447.989	-1362
448.060	-1408
448.131	-846
448.202	-830
448.273	-263
448.344	-617
448.414	-1318
448.485	-2022
448.556	-1783
448.627	-1548
448.698	-412
448.768	-1730
448.839	-2496
448.910	-1550
448.981	-1816
449.051	-1311
449.122	-1564
449.193	-1474
449.263	-849
449.334	-1596
449.405	-245
449.475	1161
449.546	382
449.616	-291
449.687	-434
449.758	-1013
449.828	-1597
449.899	-1036
449.969	-1866
450.040	-1262
450.110	-1514
450.181	-819
450.251	-1868
450.322	-1210
450.392	-1656
450.463	-1471
450.533	-1986
450.604	-2326
450.674	-1920
450.744	-583
450.815	-2116
450.885	-1115
450.955	-1413
451.026	-2059
451.096	-2344
451.166	-2003
451.237	-1147
451.307	-114
451.377	-900
451.447	-1639
451.518	-1927
451.588	-1846
451.658	-1426
451.728	-838
451.799	250
451.869	331
451.939	-2109
452.009	-1568
452.079	-2066
452.149	-653
452.219	-1119
452.289	96
452.360	-24
452.430	-2096
452.500	-1764
452.570	-1636
452.640	-431
452.710	1091
452.780	1870
452.850	2809
452.920	4403
452.990	693
453.060	-1075
453.129	-325
453.199	-859
453.269	1584
453.339	4981
453.409	8408
453.479	5459
453.549	9757
453.619	11127
453.688	3229
453.758	-593
453.828	-1481
453.898	-1339
453.968	-1486
454.037	-1122
454.087	-1131
454.107	-1145
454.168	-1410
454.177	-1459
454.247	-1879
454.249	-1847
454.316	-1312
454.330	-1245
454.386	-1041
454.411	-1048
454.456	-1106
454.492	-471
454.525	64
454.574	-586
454.595	-853
454.655	-1294
454.665	-1393
454.734	-1888
454.736	-1855
454.804	-1015
454.817	-694
454.873	487
454.898	610
454.943	860
454.979	-233
455.013	-1248
455.060	-1322
455.082	-1347
455.141	-988
455.152	-840
455.221	1236
455.222	1319
455.291	4468
455.303	5542
455.360	9157
455.384	14768
455.430	23094
455.465	17296
455.499	12751
455.546	5091
455.569	1506
455.627	734
455.638	604
455.707	-839
455.708	-831
455.777	-991
455.789	-1057
455.846	-1475
455.869	-1300
455.916	-921
455.950	-938
455.985	-1033
456.031	-728
456.054	-561
456.112	-1075
456.124	-1209
456.193	-966
456.193	-971
456.262	-992
456.274	-820
456.332	-302
456.355	-722
456.401	-1570
456.436	-1168
456.470	-788
456.516	-1014
456.540	-1094
456.597	-784
456.609	-752
456.678	-826
456.678	-834
456.747	-1440
456.759	-1357
456.817	-813
456.840	-868
456.886	-1228
456.920	-1341
456.955	-1291
457.001	-782
457.024	-626
457.082	-1256
457.093	-1357
457.162	-409
457.163	-401
457.232	-834
457.243	-793
457.301	-627
457.324	-847
457.370	-1197
457.405	-887
457.439	-570
457.485	-1019
457.508	-1234
457.566	-635
457.577	-549
457.646	-383
457.647	-371
457.715	463
457.727	503
457.784	653
457.808	1081
457.853	1631
457.889	1825
457.922	1737
457.969	907
457.991	788
458.050	977
458.060	1044
458.129	2098
458.130	2164
458.198	3252
458.211	2895
458.267	1531
458.292	798
458.336	72
458.372	62
458.405	183
458.453	792
458.474	1150
458.533	2637
458.543	2765
458.611	5252
458.614	5289
458.680	3877
458.694	2991
458.749	897
458.775	578
458.818	133
458.855	83
458.887	55
458.936	-163
458.955	-304
459.016	-554
459.024	-536
459.093	-205
459.097	-202
459.162	-589
459.177	-526
459.230	-204
459.257	30
459.299	289
459.338	222
459.368	206
459.418	300
459.437	259
459.499	302
459.505	306
459.574	-316
459.579	-333
459.643	-562
459.659	-499
459.711	-28
459.740	25
459.780	-221
459.820	-497
459.849	-624
459.900	-364
459.917	-196
459.981	396
459.986	409
460.054	141
460.061	143
460.123	579
460.141	686
460.191	874
460.222	1135
460.260	1318
460.302	1371
460.328	1269
460.382	1179
460.397	1291
460.462	979
460.465	1084
460.534	4476
460.543	4884
460.602	12757
460.623	16137
460.671	26092
460.703	36435
460.739	31969
460.783	22061
460.808	20232
460.864	5074
460.876	3237
460.944	1098
460.945	1057
461.013	416
461.024	307
461.081	767
461.104	1075
461.150	916
461.184	486
461.218	237
461.264	202
461.286	158
461.345	-124
461.355	-121
461.423	427
461.425	419
461.491	-15
461.505	25
461.559	685
461.585	899
461.628	1085
461.665	1727
461.696	2064
461.745	2070
461.764	1868
461.825	826
461.832	779
461.901	373
461.905	382
461.969	-1
461.985	-73
462.037	1109
462.065	1452
462.105	670
462.145	208
462.173	526
462.225	1051
462.241	935
462.305	822
462.310	855
462.378	956
462.385	926
462.446	216
462.465	208
462.514	820
462.545	885
462.582	669
462.625	687
462.650	605
462.705	261
462.718	304
462.785	864
462.786	866
462.854	379
462.865	369
462.922	814
462.945	1007
462.990	1095
463.025	911
463.058	706
463.104	645
463.126	604
463.184	335
463.194	407
463.262	917
463.264	946
463.330	1179
463.344	1144
463.398	1071
463.424	1068
463.466	798
463.504	430
463.533	646
463.583	1258
463.601	1176
463.663	839
463.669	825
463.737	643
463.743	608
463.805	1574
463.823	1880
463.873	2107
463.903	2223
463.940	2039
463.982	2035
464.008	1965
464.062	1538
464.076	1520
464.142	1294
464.144	1307
464.211	1730
464.221	1794
464.279	955
464.301	590
464.347	834
464.381	1181
464.414	1154
464.461	994
464.482	898
464.540	681
464.550	787
464.617	1157
464.620	1181
464.685	2336
464.699	2533
464.753	3093
464.779	3493
464.820	3732
464.859	3869
464.888	3356
464.938	2368
464.956	2467
465.018	2658
465.023	2672
465.091	2947
465.098	2949
465.158	2526
465.177	2499
465.226	3091
465.257	3324
465.293	3219
465.336	3096
465.361	3362
465.416	4013
465.428	4020
465.495	4098
465.496	4111
465.563	4910
465.575	5064
465.631	4844
465.654	4789
465.698	3864
465.734	2947
465.765	3316
465.813	3805
465.833	3744
465.893	3805
465.900	3735
465.968	2809
465.972	2745
466.035	2915
466.052	2958
466.102	3098
466.131	3180
466.170	2998
466.210	2700
466.237	3055
466.290	3894
466.304	3850
466.369	3468
466.372	3509
466.439	4619
466.449	4753
466.506	4963
466.528	5060
466.573	5742
466.607	6185
466.641	6755
466.687	7576
466.708	7740
466.766	8173
466.775	7880
466.842	5548
466.845	5429
466.909	4767
466.925	4606
466.977	5330
467.004	5712
467.044	5438
467.083	5152
467.111	5902
467.163	7314
467.178	7339
467.242	7356
467.245	7339
467.312	6760
467.321	6674
467.379	5646
467.400	5259
467.446	5467
467.480	5604
467.559	5020
467.638	4783
467.717	4216
467.796	5595
467.875	5388
467.955	4523
468.034	4832
468.113	7525
468.192	8307
468.271	4688
468.350	3964
468.429	5386
468.508	5171
468.588	3433
468.667	4615
468.746	2882
468.825	3638
468.904	3642
468.983	4630
469.062	4788
469.141	4901
469.220	3843
469.299	3866
469.378	5331
469.456	6498
469.535	4875
469.614	3827
469.693	4675
469.772	5737
469.851	6009
469.930	4646
470.009	4348
470.088	4593
470.166	5319
470.245	8051
470.324	8867
470.403	5021
470.482	4621
470.560	3839
470.639	4639
470.718	4798
470.797	3150
470.875	4729
470.954	3987
471.033	4182
471.111	3908
471.190	3795
471.269	3363
471.347	3366
471.426	3551
471.505	4614
471.583	5482
471.662	4655
471.740	3845
471.819	4448
471.898	3593
471.976	4907
472.055	3108
472.133	4088
472.212	3790
472.290	3392
472.369	3370
472.447	3259
472.526	3601
472.604	5024
472.683	4327
472.761	3868
472.839	4087
472.918	3008
472.996	2769
473.075	3606
473.153	3208
473.231	2467
473.310	3674
473.388	3146
473.466	3407
473.545	5352
473.623	6150
473.701	4722
473.780	3566
473.858	2211
473.936	4955
474.014	3010
474.093	4062
474.171	4189
474.249	4147
474.327	2960
474.405	2842
474.484	3379
474.562	3221
474.640	3029
474.718	3137
474.796	2835
474.874	3370
474.952	2024
475.030	2850
475.108	3316
475.187	4528
475.265	3362
475.343	3498
475.421	4959
475.499	2692
475.577	2469
475.655	4049
475.733	4164
475.811	5833
475.889	4934
475.966	3705
476.044	3556
476.122	3337
476.200	2490
476.278	2289
476.356	3211
476.434	3288
476.512	2758
476.590	4069
476.667	3619
476.745	2525
476.823	3532
476.901	1828
476.979	2184
477.056	2592
477.134	2615
477.212	2534
477.290	2337
477.367	2326
477.445	1964
477.523	2296
477.601	1925
477.678	1949
477.756	2283
477.834	2597
477.911	1591
477.989	2589
478.066	1484
478.144	2818
478.222	2647
478.299	3182
478.377	2963
478.454	2479
478.532	2791
478.609	2191
478.687	2671
478.764	2278
478.842	2641
478.919	2350
478.997	2501
479.074	2419
479.152	1556
479.229	2085
479.307	1223
479.384	2035
479.461	2207
479.539	1740
479.616	1830
479.694	2028
479.771	2213
479.848	1725
479.926	374
480.003	2968
480.080	1983
480.157	2522
480.235	1353
480.312	1708
480.389	1290
480.467	2511
480.544	2454
480.621	1381
480.698	1631
480.775	2524
480.853	1714
480.930	1884
481.007	1726
481.084	2099
481.161	3374
481.238	2633
481.315	2053
481.392	765
481.470	2361
481.547	1493
481.624	1592
481.701	1569
481.778	1348
481.855	1638
481.932	2465
482.009	3009
482.086	1796
482.163	2278
482.240	1996
482.317	3581
482.393	1760
482.470	1936
482.547	1527
482.624	1837
482.701	1430
482.778	1163
482.855	1040
482.932	1287
483.009	1274
483.085	1983
483.162	2482
483.239	2542
483.316	613
483.393	1984
483.469	1083
483.546	3096
483.623	1554
483.699	2149
483.776	1272
483.853	1545
483.930	2201
484.006	4921
484.083	8728
484.160	12068
484.236	21360
484.313	13935
484.389	9896
484.466	10162
484.543	8667
484.619	8077
484.696	9895
484.772	8769
484.849	9073
484.925	7382
485.002	8262
485.078	7408
485.155	7829
485.231	7057
485.308	7062
485.384	7436
485.461	8818
485.537	9513
485.614	9566
485.690	7723
485.766	6671
485.843	8303
485.919	10565
485.995	8381
486.072	5898
486.148	6010
486.224	5936
486.301	6711
486.377	7439
486.453	6982
486.530	8276
486.606	12949
486.682	11393
486.758	10401
486.835	10029
486.911	9351
486.987	12200
487.063	17969
487.139	21015
487.215	14229
487.292	9654
487.368	8045
487.444	7862
487.520	9327
487.596	8570
487.672	12166
487.748	20059
487.824	21525
487.900	8981
487.976	7377
488.052	6953
488.128	7084
488.204	6099
488.280	6392
488.356	7197
488.432	8663
488.508	9474
488.584	6544
488.660	6467
488.736	7194
488.812	6200
488.888	8931
488.964	12083
489.039	21700
489.115	28583
489.191	12301
489.267	6257
489.343	5690
489.418	5368
489.494	6253
489.570	4391
489.646	6854
489.722	4798
489.797	5637
489.873	6258
489.949	8719
490.024	6205
490.100	5502
490.176	5250
490.251	6159
490.327	8172
490.403	3936
490.478	4538
490.554	4748
490.629	4581
490.705	3392
490.781	3918
490.856	3658
490.932	5379
491.007	5551
491.083	3463
491.158	4448
491.234	4243
491.309	6878
491.385	4831
491.460	2970
491.536	4832
491.611	4507
491.686	4768
491.762	6690
491.837	13679
491.913	20148
491.988	28328
492.063	27216
492.139	6075
492.214	4590
492.289	3375
492.365	4004
492.440	4002
492.515	4477
492.590	3903
492.666	3177
492.741	4043
492.816	4671
492.891	3760
492.967	3909
493.042	3593
493.117	3681
493.192	6930
493.267	19734
493.342	58034
493.418	57470
493.493	4690
493.568	3420
493.643	3140
493.718	4725
493.793	4339
493.868	6692
493.943	3877
494.018	2957
494.093	2550
494.168	2834
494.243	2219
494.318	2431
494.393	2436
494.468	2180
494.543	3523
494.618	3432
494.693	2094
494.768	3181
494.842	1607
494.917	2879
494.992	2171
495.067	2148
495.142	2332
495.217	2798
495.292	2770
495.366	2935
495.441	2659
495.516	6058
495.591	9690
495.665	31776
495.740	55172
495.815	12755
495.890	3412
495.964	957
496.039	4724
496.114	2997
496.188	4424
496.263	4128
496.338	2124
496.412	2874
496.487	3835
496.561	4381
496.636	4366
496.710	3695
496.785	3741
496.860	3507
496.934	3186
497.009	3057
497.083	3021
497.158	3572
497.232	3691
497.307	4353
497.381	4490
497.455	4263
497.530	5696
497.604	5467
497.679	5427
497.753	8787
497.827	10563
497.902	11624
497.976	12609
498.050	20796
498.125	48541
498.199	36773
498.273	17872
498.348	16398
498.422	11258
498.496	10341
498.570	8573
498.645	5578
498.719	3934
498.793	6246
498.867	6230
498.941	7518
499.016	19854
499.090	39180
499.164	8813
499.238	4547
499.312	3826
499.386	4771
499.460	3366
499.534	2827
499.609	3164
499.683	2711
499.757	4983
499.831	10740
499.905	27928
499.979	15287
500.053	4019
500.127	5647
500.201	3413
500.275	3178
500.349	2933
500.422	3629
500.496	6266
500.570	12548
500.644	19958
500.718	21992
500.792	4477
500.866	2977
500.940	2262
501.013	2662
501.087	2659
501.161	6419
501.235	4959
501.309	10361
501.382	21742
501.456	13680
501.530	4443
501.603	5032
501.677	2185
501.751	813
501.825	3000
501.898	3467
501.972	8268
502.046	3700
502.119	1310
502.193	6193
502.266	7641
502.340	3346
502.413	4221
502.487	6919
502.561	2866
502.634	2029
502.708	2186
502.781	971
502.855	1955
502.928	42
503.002	1851
503.075	383
503.149	1262
503.222	1272
503.295	491
503.369	2100
503.442	1402
503.516	7516
503.589	13455
503.662	6188
503.736	3495
503.809	7297
503.882	4597
503.956	9008
504.029	7448
504.102	10332
504.175	10732
504.249	3330
504.322	1739
504.395	1217
504.468	852
504.542	818
504.615	486
504.688	1808
504.761	-82
504.834	2843
504.907	2488
504.980	3918
505.053	1378
505.127	1751
505.200	4649
505.273	1096
505.346	421
505.419	-226
505.492	875
505.565	933
505.638	1655
505.711	335
505.784	-88
505.857	-86
505.930	2775
506.003	369
506.076	2482
506.149	1039
506.221	-887
506.294	3706
506.367	2392
506.440	12519
506.513	4340
506.586	1546
506.659	513
506.731	1129
506.804	1183
506.877	1874
506.950	858
507.022	2277
507.095	-49
507.168	2514
507.241	2125
507.313	848
507.386	1743
507.459	3111
507.531	516
507.604	117
507.677	2152
507.749	-136
507.822	3762
507.894	6278
507.967	6357
508.040	2442
508.112	2462
508.185	3122
508.257	2722
508.330	5201
508.402	1689
508.475	1651
508.547	1621
508.620	1704
508.692	2459
508.765	2436
508.837	1662
508.909	2411
508.982	1143
509.054	3128
509.127	1580
509.199	1338
509.271	1203
509.344	1372
509.416	2343
509.488	1974
509.560	2229
509.633	1736
509.705	2282
509.777	2129
509.849	3462
509.922	339
509.994	1549
510.066	3125
510.138	2152
510.210	8305
510.283	4968
510.355	4429
510.427	3628
510.499	3688
510.571	2663
510.643	2164
510.715	6211
510.787	2649
510.859	4241
510.931	3244
511.003	5437
511.076	4069
511.148	1073
511.219	2343
511.291	2706
511.363	3684
511.435	2660
511.507	1195
511.579	2264
511.651	3155
511.723	1911
511.795	2568
511.867	1535
511.939	2561
512.010	2925
512.082	3960
512.154	1608
512.226	3534
512.298	5739
512.369	6650
512.441	5999
512.513	4887
512.585	1966
512.656	4712
512.728	3331
512.800	3042
512.871	3795
512.943	3977
513.015	2279
513.086	3047
513.158	3622
513.230	3493
513.301	4290
513.373	5476
513.444	2052
513.516	2672
513.588	2685
513.659	3817
513.731	4289
513.802	3025
513.874	9117
513.945	10100
514.016	2701
514.088	2522
514.159	2510
514.231	5735
514.302	6436
514.374	4326
514.445	2159
514.516	6372
514.588	2771
514.659	3160
514.730	3877
514.802	5826
514.873	3467
514.944	6948
515.016	4361
515.087	3816
515.158	4305
515.229	6083
515.301	5235
515.372	7406
515.443	3398
515.514	3163
515.585	1722
515.656	3777
515.728	3108
515.799	1596
515.870	4086
515.941	3770
516.012	2670
516.083	5850
516.154	4423
516.225	6195
516.296	6631
516.367	5127
516.438	5119
516.509	8193
516.580	14819
516.651	56151
516.722	129715
516.793	31068
516.864	8587
516.935	8573
517.006	10917
517.077	18776
517.148	55872
517.219	193001
517.289	168711
517.360	21394
517.431	7965
517.502	4138
517.573	4270
517.643	4176
517.714	4451
517.785	5637
517.856	4905
517.926	7714
517.997	7698
518.068	10312
518.138	17808
518.209	36174
518.280	150128
518.350	352613
518.421	66102
518.492	9724
518.562	5909
518.633	4675
518.703	2317
518.774	8006
518.845	13789
518.915	9682
518.986	4178
519.056	5705
519.127	10302
519.197	12579
519.268	14563
519.338	7035
519.408	4531
519.479	6253
519.549	2703
519.620	4657
519.690	2354
519.760	2472
519.831	2660
519.901	1791
519.971	1878
520.042	1962
520.112	840
520.182	3397
520.253	3663
520.323	1803
520.393	986
520.463	4241
520.534	-1288
520.604	3936
520.674	2412
520.744	1051
520.814	2328
520.885	4231
520.955	5758
521.025	13142
521.095	3294
521.165	3058
521.235	1273
521.305	1025
521.375	1583
521.445	2981
521.515	2122
521.585	4988
521.655	1233
521.725	3341
521.795	3447
521.865	-469
521.935	3945
522.005	840
522.075	835
522.145	3204
522.215	1419
522.285	2417
522.355	1674
522.424	4189
522.494	2663
522.564	5040
522.634	11943
522.704	27078
522.774	3905
522.843	2441
522.913	1731
522.983	1668
523.053	723
523.122	2717
523.192	4464
523.262	15505
523.331	7559
523.401	2736
523.471	1654
523.540	1271
523.610	-120
523.680	1393
523.749	1455
523.819	1670
523.888	784
523.958	586
524.027	822
524.097	474
524.166	1650
524.236	769
524.305	3249
524.375	992
524.444	-411
524.514	3251
524.583	790
524.653	-312
524.722	1634
524.791	-694
524.861	2788
524.930	90
524.999	177
525.069	2408
525.138	1598
525.207	801
525.277	1596
525.346	974
525.415	1877
525.484	931
525.554	92
525.623	1926
525.692	1450
525.761	2251
525.830	1195
525.900	1218
525.969	1984
526.038	4870
526.107	8958
526.176	24261
526.245	12637
526.314	7882
526.383	15072
526.452	13900
526.522	34055
526.591	23176
526.660	9610
526.729	4472
526.797	9312
526.867	26736
526.935	92784
527.004	88475
527.073	25066
527.142	2315
527.211	1745
527.280	3401
527.349	1025
527.418	-910
527.487	1931
527.555	669
527.624	468
527.693	-589
527.762	1719
527.831	-646
527.899	661
527.968	1481
528.037	-1653
528.106	2384
528.174	2690
528.243	2025
528.312	4274
528.380	3752
528.449	-82
528.518	1781
528.586	-682
528.655	1579
528.723	550
528.792	-181
528.861	-460
528.929	-1853
528.998	794
529.066	56
529.135	954
529.203	-76
529.272	-798
529.340	872
529.409	1978
529.477	-432
529.545	-1665
529.614	2257
529.682	-663
529.751	2
529.819	3498
529.887	412
529.956	-871
530.024	773
530.092	-362
530.161	1903
530.229	1179
530.297	-471
530.365	857
530.434	865
530.502	-1009
530.570	838
530.638	-1277
530.707	954
530.775	1464
530.843	100
530.911	-768
530.979	656
531.047	-653
531.115	433
531.183	3
531.252	1777
531.320	101
531.388	-509
531.456	1007
531.524	-1327
531.592	1184
531.660	2214
531.728	-1398
531.796	-245
531.864	426
531.932	642
532.000	166
532.067	659
532.135	1468
532.203	1867
532.271	606
532.339	4103
532.407	9450
532.475	3382
532.542	2049
532.610	3297
532.678	6155
532.746	32048
532.814	46904
532.881	6338
532.949	1338
533.017	1214
533.084	117
533.152	63
533.220	739
533.287	-421
533.355	-418
533.423	1562
533.490	-943
533.558	9
533.625	564
533.693	-131
533.761	423
533.828	1207
533.896	61
533.963	3436
534.031	3596
534.098	5439
534.166	377
534.233	-95
534.300	871
534.368	693
534.435	-298
534.503	318
534.570	49
534.637	-785
534.705	-29
534.772	1818
534.840	1921
534.907	13965
534.974	8782
535.041	143
535.109	904
535.176	-334
535.243	846
535.310	-5
535.378	-20
535.445	-179
535.512	351
535.579	998
535.646	-443
535.714	1593
535.781	1192
535.848	1474
535.915	1379
535.982	177
536.049	320
536.116	1911
536.183	601
536.250	507
536.317	568
536.384	1650
536.451	2368
536.518	2296
536.585	81
536.652	3586
536.719	3987
536.786	683
536.853	956
536.920	3411
536.987	5574
537.053	6856
537.120	33142
537.187	15356
537.254	1354
537.321	311
537.388	1764
537.454	443
537.521	538
537.588	-634
537.654	1698
537.721	1625
537.788	1919
537.855	889
537.921	1797
537.988	788
538.055	1655
538.121	-360
538.188	929
538.254	2386
538.321	4918
538.388	2382
538.454	1047
538.521	744
538.587	561
538.654	436
538.720	256
538.787	1457
538.853	990
538.920	1737
538.986	911
539.053	674
539.119	1011
539.185	1857
539.252	2489
539.318	2189
539.385	2512
539.451	1229
539.517	1902
539.583	3689
539.650	9255
539.716	15579
539.782	3558
539.849	931
539.915	355
539.981	1320
540.047	1413
540.114	203
540.180	1838
540.246	684
540.312	3324
540.378	5369
540.444	6386
540.510	11010
540.576	20468
540.643	3126
540.709	-591
540.775	1046
540.841	857
540.907	2086
540.973	2975
541.039	3177
541.105	3380
541.171	1819
541.237	-37
541.303	1956
541.369	3342
541.435	2888
541.500	4612
541.566	914
541.632	502
541.698	897
541.764	1185
541.830	963
541.896	72
541.961	1552
542.027	315
542.093	1322
542.159	1707
542.224	1062
542.290	3203
542.356	5011
542.421	4657
542.487	3136
542.553	856
542.618	634
542.684	1454
542.750	1516
542.815	3669
542.881	5003
542.947	21186
543.012	9678
543.078	832
543.143	617
543.209	1525
543.274	1335
543.340	3083
543.405	8595
543.471	8484
543.536	1906
543.602	845
543.667	345
543.732	1861
543.798	226
543.863	1825
543.928	681
543.994	-261
544.059	1751
544.124	1048
544.190	1014
544.255	1923
544.320	1921
544.386	434
544.451	3145
544.516	3201
544.581	3987
544.646	14859
544.712	15067
544.777	1762
544.842	1378
544.907	277
544.972	817
545.037	1544
545.102	1643
545.168	817
545.233	1657
545.298	2720
545.363	2100
545.428	3119
545.493	9850
545.558	12371
545.623	3817
545.688	634
545.753	1801
545.818	752
545.883	2216
545.947	840
546.012	1537
546.077	992
546.142	2388
546.207	1193
546.272	3885
546.337	1510
546.401	2139
546.466	1478
546.531	926
546.596	2074
546.661	2297
546.725	2213
546.790	939
546.855	2660
546.919	2246
546.984	1997
547.049	1398
547.113	2334
547.178	1928
547.243	3295
547.307	3406
547.372	3937
547.436	2733
547.501	3530
547.565	3800
547.630	3926
547.695	3421
547.759	2464
547.823	3354
547.888	3063
547.952	3156
548.017	3569
548.081	4379
548.146	4565
548.210	3089
548.274	2955
548.339	3399
548.403	3470
548.468	3176
548.532	2690
548.596	3161
548.660	2441
548.725	3596
548.789	2849
548.853	4686
548.917	4332
548.982	3863
549.046	3075
549.110	2649
549.174	2842
549.238	3474
549.303	2398
549.367	4508
549.431	4007
549.495	2932
549.559	3075
549.623	4770
549.687	4774
549.751	6366
549.815	5337
549.879	5147
549.943	3603
550.007	5445
550.071	4697
550.135	6052
550.199	3118
550.263	4495
550.327	4770
550.391	4636
550.455	4609
550.519	4991
550.582	5393
550.646	7615
550.710	6173
550.774	5224
550.838	4889
550.901	5666
550.965	6179
551.029	6627
551.093	7222
551.156	8675
551.220	10441
551.284	10733
551.347	7665
551.411	8842
551.475	7188
551.538	7001
551.602	5563
551.666	5508
551.729	4082
551.793	4832
551.856	4666
551.920	5475
551.983	4591
552.047	5052
552.110	4240
552.174	4833
552.237	4724
552.301	5031
552.364	4333
552.428	4514
552.491	4242
552.554	5580
552.618	4548
552.681	6295
552.745	6432
552.808	11273
552.871	11621
552.934	7370
552.998	4487
553.061	5066
553.124	4797
553.187	5027
553.251	6166
553.314	5707
553.377	8087
553.440	15028
553.503	44615
553.567	43638
553.630	6406
553.693	5017
553.756	5164
553.819	5152
553.882	4385
553.945	5525
554.008	5470
554.071	3525
554.134	4340
554.197	4635
554.260	4754
554.323	6022
554.386	5104
554.449	4691
554.512	4631
554.575	3628
554.638	4352
554.701	4218
554.764	4122
554.827	4058
554.889	3286
554.952	3533
555.015	3412
555.078	3014
555.141	3922
555.203	4358
555.266	3620
555.329	3759
555.391	3608
555.454	3708
555.517	3817
555.580	3629
555.642	2551
555.705	3092
555.768	3379
555.830	3901
555.893	2037
555.955	3682
556.018	2507
556.080	2805
556.143	2738
556.206	2916
556.268	2254
556.330	3883
556.393	2938
556.455	2186
556.518	3513
556.580	3262
556.643	2240
556.705	2809
556.767	1908
556.830	2980
556.892	3642
556.955	4211
557.017	2731
557.079	1981
557.142	2540
557.204	3830
557.266	7043
557.328	4007
557.391	1688
557.453	2270
557.515	1836
557.577	3061
557.639	3031
557.701	1433
557.764	734
557.826	2148
557.888	2112
557.950	1994
558.012	2506
558.074	4850
558.136	10094
558.198	16494
558.260	4473
558.322	2025
558.384	2331
558.446	3751
558.508	4111
558.570	6403
558.632	12272
558.694	15027
558.756	20640
558.818	61047
558.880	95663
558.942	20431
559.003	17287
559.065	5697
559.127	3917
559.189	3593
559.251	6125
559.312	11098
559.374	26716
559.436	63556
559.498	17320
559.559	3548
559.621	4501
559.683	7519
559.744	10999
559.806	34482
559.868	32054
559.929	4850
559.991	4473
560.052	8292
560.114	19449
560.176	9573
560.237	14102
560.299	13715
560.360	2162
560.422	1048
560.483	1636
560.545	992
560.606	1214
560.667	1165
560.729	761
560.790	2411
560.852	1752
560.913	1758
560.974	1653
561.036	1079
561.097	977
561.158	2457
561.220	1385
561.281	893
561.342	1191
561.403	4112
561.465	3563
561.526	12440
561.587	10416
561.648	1828
561.709	1025
561.771	1456
561.832	2057
561.893	1898
561.954	1448
562.015	2091
562.076	1761
562.137	1465
562.198	833
562.259	2709
562.320	1508
562.381	2275
562.442	3021
562.503	2286
562.564	1588
562.625	2458
562.686	1548
562.747	1859
562.808	2342
562.869	1099
562.930	2434
562.991	903
563.051	1741
563.112	1014
563.173	2099
563.234	1143
563.294	2730
563.355	1714
563.416	1889
563.477	1937
563.537	1034
563.598	2000
563.659	2327
563.720	1584
563.780	1156
563.841	1692
563.901	2327
563.962	1713
564.023	2246
564.083	2639
564.144	1886
564.204	881
564.265	765
564.325	2251
564.386	2886
564.446	2320
564.507	1452
564.567	1420
564.628	1844
564.688	1317
564.749	664
564.809	1869
564.869	2420
564.930	1491
564.990	1980
565.050	994
565.111	2140
565.171	1297
565.231	1985
565.292	2549
565.352	1308
565.412	3234
565.472	2163
565.532	2287
565.593	1432
565.653	1271
565.713	1937
565.773	2383
565.833	4003
565.893	5236
565.953	2924
566.013	3477
566.074	2512
566.134	3419
566.194	3469
566.254	3915
566.314	3477
566.374	2358
566.434	3651
566.494	3509
566.554	3075
566.614	3607
566.673	3335
566.733	4219
566.793	3834
566.853	4421
566.913	4624
566.973	4778
567.033	4580
567.092	3953
567.152	3934
567.212	5107
567.272	5849
567.331	4996
567.391	5516
567.451	6961
567.511	7518
567.570	6739
567.630	5914
567.690	5539
567.749	5664
567.809	6088
567.868	8393
567.928	7874
567.988	10070
568.047	14618
568.107	18129
568.166	27604
568.226	46641
568.285	56566
568.345	40771
568.404	32565
568.464	26612
568.523	25219
568.582	28980
568.642	33726
568.701	45391
568.761	71230
568.820	106110
568.879	86655
568.939	58477
568.998	43205
569.057	31285
569.116	25042
569.176	19368
569.235	17008
569.294	13458
569.353	11659
569.413	10723
569.472	8758
569.531	8199
569.590	7679
569.649	6689
569.708	5686
569.767	5782
569.827	6508
569.886	4727
569.945	5166
570.004	4638
570.063	4580
570.122	4682
570.181	4914
570.240	4573
570.299	3859
570.358	2784
570.417	4093
570.475	3271
570.534	3343
570.593	2980
570.652	2895
570.711	3571
570.770	3368
570.829	2988
570.887	3856
570.946	3749
571.005	1667
571.064	2959
571.122	3297
571.181	3259
571.240	2828
571.299	2588
571.357	2763
571.416	2654
571.475	3520
571.533	3039
571.592	1937
571.650	1930
571.709	2444
571.768	3150
571.826	2453
571.885	1657
571.943	2234
572.002	2608
572.060	2758
572.119	1939
572.177	2747
572.236	2267
572.294	2765
572.352	1899
572.411	1676
572.469	2046
572.528	1899
572.586	2319
572.644	2872
572.703	2080
572.761	2196
572.819	1920
572.877	2833
572.936	1062
572.994	2273
573.052	2455
573.110	1787
573.169	2013
573.227	1998
573.285	1887
573.343	2389
573.401	1591
573.459	2719
573.517	2135
573.576	1220
573.634	2598
573.692	2063
573.750	1525
573.808	2354
573.866	1755
573.924	2528
573.982	2111
574.040	1961
574.098	2662
574.155	2089
574.213	1818
574.271	2071
574.329	2044
574.387	1537
574.445	1668
574.503	2257
574.560	1312
574.618	1902
574.676	1935
574.734	2096
574.792	1726
574.849	1945
574.907	1613
574.965	1848
575.022	1795
575.080	1670
575.138	2780
575.195	1739
575.253	1965
575.311	1822
575.368	2290
575.426	2314
575.483	2005
575.541	1739
575.598	1369
575.656	1801
575.713	1255
575.771	1633
575.828	2317
575.886	1630
575.943	2106
576.001	2222
576.058	848
576.115	2502
576.173	1923
576.230	2800
576.287	2684
576.345	3327
576.402	1780
576.459	2224
576.517	1945
576.574	1872
576.631	1707
576.688	2283
576.746	1527
576.803	2475
576.860	1635
576.917	2756
576.974	2052
577.031	2174
577.089	2168
577.146	2015
577.203	2429
577.260	2907
577.317	2090
577.374	3478
577.431	1505
577.488	2056
577.545	2528
577.602	2144
577.659	1520
577.716	2936
577.773	2942
577.830	2094
577.886	2749
577.943	2130
578.000	1445
578.057	2434
578.114	2202
578.171	2207
578.227	2115
578.284	1655
578.341	2502
578.398	2287
578.454	2399
578.511	2697
578.568	2535
578.625	1925
578.681	2968
578.738	2224
578.794	2718
578.851	2775
578.908	2646
578.964	2864
579.021	2852
579.077	2706
579.134	2157
579.190	2394
579.247	2393
579.303	2273
579.360	2514
579.416	2372
579.473	3005
579.529	2177
579.586	1977
579.642	2912
579.698	2924
579.755	3283
579.811	3752
579.867	3548
579.924	2755
579.980	2171
580.036	3263
580.093	3621
580.149	2844
580.205	3598
580.261	2211
580.317	2348
580.374	2183
580.430	3422
580.486	3149
580.542	3726
580.598	2942
580.619	3061
580.654	3263
580.692	2705
580.710	2422
580.765	3469
580.767	3497
580.823	2778
580.838	3061
580.879	3804
580.911	3358
580.935	3024
580.984	3137
580.991	3148
581.047	2822
581.057	2995
581.103	3746
581.130	3705
581.159	3657
581.203	3656
581.215	3642
581.270	4182
581.276	4137
581.326	3716
581.349	3676
581.382	3531
581.422	3902
581.438	4094
581.494	3294
581.494	3302
581.550	3532
581.567	3678
581.606	3984
581.640	4041
581.661	4087
581.713	4911
581.717	4972
581.773	4316
581.786	4154
581.829	3618
581.859	4035
581.885	4352
581.932	4702
581.940	4763
581.996	5117
582.004	5001
582.052	4276
582.077	4629
582.107	5050
582.150	4604
582.163	4497
582.219	4815
582.223	4863
582.274	5248
582.296	5156
582.330	5002
582.368	5356
582.386	5545
582.441	4668
582.441	4663
582.497	4317
582.514	4705
582.552	5816
582.587	6142
582.608	6120
582.659	5502
582.663	5461
582.719	5474
582.732	5609
582.774	6092
582.805	5685
582.830	5359
582.877	5668
582.885	5726
582.941	5710
582.950	5769
582.996	5951
583.023	5991
583.052	6120
583.095	6347
583.107	6371
583.162	6330
583.168	6357
583.218	6665
583.240	6618
583.273	6540
583.313	6560
583.328	6564
583.384	7208
583.385	7228
583.439	7651
583.458	7317
583.494	6776
583.531	6850
583.549	6922
583.603	7087
583.605	7094
583.660	7512
583.676	7420
583.715	7064
583.748	7658
583.770	8127
583.820	8073
583.825	8069
583.881	8528
583.893	8518
583.936	8510
583.965	8402
583.991	8222
584.038	8547
584.046	8675
584.101	8828
584.110	8904
584.156	8977
584.183	8822
584.211	8741
584.255	9353
584.266	9539
584.321	9357
584.328	9346
584.376	9241
584.400	9445
584.431	9847
584.472	9947
584.486	9925
584.541	10650
584.545	10661
584.596	11157
584.617	10882
584.651	10791
584.689	11647
584.706	11684
584.761	11464
584.762	11446
584.816	12160
584.834	12744
584.871	13355
584.906	12973
584.926	12950
584.978	12472
584.980	12469
585.035	13416
585.051	13543
585.090	14340
585.123	15253
585.145	15598
585.195	15185
585.200	15261
585.254	16864
585.267	17343
585.309	18737
585.340	19520
585.364	19883
585.412	19796
585.419	19838
585.473	21129
585.484	21326
585.528	23507
585.556	25461
585.583	30245
585.628	39074
585.637	43199
585.692	75056
585.700	79512
585.747	89203
585.772	82877
585.801	58081
585.845	28925
585.856	27008
585.910	22632
585.917	22068
585.965	21594
585.989	21466
586.019	21751
586.061	22119
586.074	22287
586.128	22899
586.133	22873
586.183	23603
586.205	24186
586.237	24710
586.277	24277
586.292	24392
586.346	25367
586.349	25390
586.401	26716
586.421	26853
586.455	27038
586.493	27727
586.509	28341
586.564	29319
586.565	29307
586.618	33078
586.637	34015
586.672	33914
586.709	32731
586.727	32869
586.781	34727
586.781	34813
586.835	36128
586.853	36218
586.889	36290
586.925	36170
586.944	36757
586.996	39234
586.998	39387
587.052	41041
587.068	41480
587.106	43418
587.140	44529
587.161	45049
587.212	46506
587.215	46763
587.269	49227
587.284	49964
587.323	51680
587.356	52698
587.377	53999
587.427	57312
587.431	57744
587.485	61440
587.499	62182
587.539	65345
587.571	67798
587.593	69617
587.643	73585
587.648	74235
587.702	78632
587.715	79831
587.755	85550
587.786	89263
587.810	92870
587.858	99544
587.864	100696
587.917	110582
587.930	112440
587.971	122262
588.001	129662
588.025	136397
588.073	148859
588.079	151264
588.133	169356
588.145	173127
588.187	191969
588.217	204881
588.241	219223
588.288	246785
588.295	251815
588.348	289752
588.360	297458
588.402	338928
588.431	367355
588.456	399739
588.503	460981
588.510	474260
588.564	577401
588.575	598465
588.617	726753
588.646	814936
588.671	933473
588.718	1158996
588.725	1212584
588.778	1616645
588.789	1695795
588.832	1989835
588.861	2175122
588.886	2089585
588.932	1842072
588.939	1818324
588.993	1601582
589.004	1569629
589.047	2021396
589.075	2273020
589.100	2136928
589.147	1841946
589.154	1797815
589.207	1419947
589.218	1340876
589.261	1236014
589.290	1165347
589.314	1206982
589.361	1287507
589.368	1329916
589.421	1660954
589.433	1728298
589.475	1967669
589.504	2110840
589.528	2009775
589.576	1744827
589.582	1772298
589.635	2014865
589.647	2048806
589.689	1757730
589.718	1537269
589.742	1329350
589.790	910813
589.795	889215
589.849	664898
589.861	611713
589.902	520975
589.932	451641
589.955	419927
590.004	349891
590.009	346606
590.062	298958
590.075	286371
590.115	261867
590.146	241542
590.168	232401
590.218	209041
590.222	208170
590.275	187736
590.289	181844
590.328	171807
590.360	162235
590.381	158207
590.431	147161
590.435	147093
590.488	136611
590.503	133261
590.541	128116
590.574	122863
590.594	120505
590.645	112855
590.647	113087
590.700	108031
590.716	106031
590.753	102712
590.787	99193
590.806	97818
590.859	92406
590.859	92717
590.912	89985
590.930	88760
590.965	86488
591.001	83600
591.018	83415
591.071	81882
591.072	81546
591.124	79107
591.143	77803
591.177	76922
591.214	75439
591.230	75250
591.283	73627
591.285	73262
591.336	71439
591.356	70408
591.389	69773
591.427	68195
591.442	68045
591.495	66465
591.498	66086
591.547	64290
591.569	63088
591.600	62080
591.640	60087
591.653	60294
591.706	60248
591.711	59990
591.759	59584
591.782	59013
591.811	58821
591.853	57876
591.864	57971
591.917	57352
591.924	57013
591.969	56760
591.995	56262
592.022	56209
592.066	55470
592.075	55615
592.127	55092
592.137	54758
592.180	54490
592.208	53962
592.233	53499
592.279	51942
592.285	52126
592.338	51818
592.350	51541
592.390	50871
592.421	49958
592.443	49965
592.491	49352
592.495	49530
592.548	49128
592.562	48807
592.600	48509
592.633	47883
592.653	47895
592.704	47125
592.705	47404
592.775	47702
592.846	47640
592.916	46435
592.987	46557
593.058	45394
593.128	42480
593.199	43829
593.270	43310
593.341	43092
593.411	41609
593.482	41205
593.553	42372
593.623	41436
593.694	40710
593.764	40793
593.835	40318
593.906	40948
593.976	40313
594.047	39919
594.117	42035
594.188	39719
594.258	39445
594.329	38190
594.399	38236
594.470	38549
594.540	38503
594.611	39142
594.681	39051
594.751	36926
594.822	38354
594.892	38508
594.963	38460
595.033	38175
595.103	38366
595.174	36987
595.244	40999
595.314	42557
595.384	38224
595.455	37138
595.525	37586
595.595	38969
595.665	38695
595.736	37146
595.806	36896
595.876	37941
595.946	38015
596.016	37506
596.087	38049
596.157	37716
596.227	38658
596.297	40565
596.367	40194
596.437	41045
596.507	43306
596.577	43743
596.647	42600
596.717	41721
596.787	41990
596.857	41523
596.927	42997
596.997	42927
597.067	43227
597.137	46237
597.207	44957
597.277	42586
597.347	41677
597.417	41708
597.487	43249
597.557	44022
597.626	42842
597.696	42767
597.766	43024
597.836	44262
597.906	39310
597.975	38411
598.045	39275
598.115	40353
598.185	40761
598.254	44551
598.324	47661
598.394	46451
598.464	46098
598.533	44271
598.603	43216
598.672	41570
598.742	42586
598.812	42081
598.881	42298
598.951	43081
599.020	42805
599.090	44133
599.159	43992
599.229	42148
599.299	41034
599.368	43322
599.437	42469
599.507	40545
599.576	40127
599.646	41345
599.715	42256
599.785	38818
599.854	37350
599.924	38098
599.993	36831
600.062	37566
600.132	38585
600.201	39036
600.270	44865
600.340	45529
600.409	43806
600.478	43169
600.547	43956
600.617	41353
600.686	37131
600.755	34481
600.824	34989
600.894	34046
600.963	33573
601.032	32793
601.101	32623
601.170	31402
601.239	30397
601.308	30647
601.378	30895
601.447	30940
601.516	31617
601.585	31820
601.654	31839
601.723	31507
601.792	33177
601.861	34820
601.930	37816
601.999	35856
602.068	33235
602.137	34487
602.206	35752
602.275	35457
602.343	37498
602.412	36103
602.481	33380
602.550	34226
602.619	34815
602.688	35597
602.756	35648
602.825	36014
602.894	36503
602.963	35421
603.032	35184
603.100	36371
603.169	36227
603.238	36244
603.307	36457
603.375	36391
603.444	37825
603.513	37067
603.581	37373
603.650	38169
603.719	37118
603.787	36442
603.856	38831
603.924	37971
603.993	39857
604.061	40196
604.130	42724
604.198	42963
604.267	42932
604.335	42803
604.404	43536
604.472	43329
604.541	43704
604.609	44706
604.678	44024
604.746	44554
604.815	47292
604.883	46582
604.951	47185
605.020	47020
605.088	47526
605.156	47306
605.225	48013
605.293	47705
605.361	48464
605.429	48601
605.498	48723
605.566	50955
605.634	52365
605.702	53038
605.771	54636
605.839	55533
605.907	53831
605.975	52147
606.043	50367
606.111	50540
606.180	52701
606.248	55530
606.316	55528
606.384	51186
606.452	53001
606.520	55536
606.588	53664
606.656	51145
606.724	49397
606.792	48889
606.860	42854
606.928	40226
606.996	39790
607.064	38327
607.132	40022
607.200	40863
607.267	42765
607.335	42452
607.403	44711
607.471	42119
607.539	42084
607.607	42909
607.674	37144
607.742	37921
607.810	38464
607.878	37115
607.946	38227
608.013	39304
608.081	40058
608.149	39636
608.216	42217
608.284	43165
608.352	42519
608.419	40429
608.487	43453
608.555	39423
608.622	41372
608.690	44687
608.757	48464
608.825	48504
608.893	48422
608.960	44944
609.028	44640
609.095	45090
609.163	45017
609.230	40305
609.298	37533
609.365	39397
609.432	42996
609.500	45004
609.567	51571
609.635	58743
609.702	59025
609.769	57585
609.837	46201
609.904	40282
609.971	40720
610.039	47544
610.106	61653
610.173	114102
610.241	259769
610.308	170224
610.375	79411
610.442	46796
610.509	41678
610.577	42104
610.644	42489
610.711	44003
610.778	44399
610.845	46116
610.912	48811
610.980	53267
611.047	60372
611.114	52473
611.181	46643
611.248	46296
611.315	49674
611.382	49003
611.449	51837
611.516	52547
611.583	50959
611.650	51020
611.717	52343
611.784	53673
611.851	57019
611.918	60379
611.984	71118
612.051	103707
612.118	218829
612.185	552605
612.252	319097
612.319	81591
612.386	68484
612.452	61542
612.519	59148
612.586	58682
612.653	58488
612.719	59900
612.786	57839
612.853	53650
612.919	51973
612.986	54015
613.053	50748
613.120	48515
613.186	46738
613.253	47990
613.319	47187
613.386	46548
613.453	46869
613.519	50322
613.586	52970
613.652	60683
613.719	56416
613.785	51026
613.852	48705
613.918	47401
613.985	52159
614.051	60546
614.118	82890
614.184	77050
614.250	50147
614.317	49068
614.383	49351
614.449	47918
614.516	48176
614.582	49010
614.648	47609
614.715	46926
614.781	46484
614.847	46882
614.914	46845
614.980	46315
615.046	47006
615.112	48328
615.179	50570
615.245	55020
615.311	66798
615.377	103767
615.443	109493
615.509	64591
615.575	55861
615.642	52811
615.708	54623
615.774	58062
615.840	65499
615.906	79975
615.972	123712
616.038	243569
616.104	379775
616.170	730990
616.236	566456
616.302	121061
616.368	85463
616.434	64751
616.500	60112
616.565	63727
616.631	75137
616.697	63832
616.763	65264
616.829	91583
616.895	154419
616.961	144769
617.026	69244
617.092	50730
617.158	49868
617.224	48515
617.289	46248
617.355	43730
617.421	41640
617.487	43126
617.552	40652
617.618	39840
617.684	39931
617.749	41996
617.815	39467
617.880	38471
617.946	38769
618.012	42464
618.077	41240
618.143	38858
618.208	40557
618.274	42874
618.339	43259
618.405	35705
618.470	36633
618.536	36025
618.601	37419
618.667	35281
618.732	33598
618.798	33036
618.863	33287
618.928	31202
618.994	34060
619.059	36174
619.124	41513
619.190	35062
619.255	31663
619.320	30850
619.386	31539
619.451	30661
619.516	31305
619.581	31515
619.647	31651
619.712	32584
619.777	31553
619.842	31268
619.907	31645
619.972	32306
620.038	32736
620.103	32176
620.168	29791
620.233	30765
620.298	30846
620.363	32308
620.428	31612
620.493	32759
620.558	32357
620.623	33278
620.688	33303
620.753	32783
620.818	33783
620.883	33590
620.948	34399
621.013	33756
621.078	33548
621.143	31587
621.207	35712
621.272	34443
621.337	34323
621.402	32779
621.467	33848
621.532	34699
621.596	32321
621.661	32227
621.726	32080
621.791	32171
621.855	33673
621.920	33427
621.985	34061
622.049	33826
622.114	34684
622.179	34922
622.243	35623
622.308	35391
622.373	38972
622.437	36421
622.502	35618
622.566	35014
622.631	33192
622.695	36979
622.760	35696
622.824	35631
622.889	36305
622.953	39564
623.018	47618
623.082	44749
623.147	37895
623.211	36608
623.276	36550
623.340	34619
623.404	34452
623.469	34285
623.533	34217
623.597	32777
623.662	33697
623.726	32283
623.790	30050
623.854	29538
623.919	30071
623.983	30010
624.047	31601
624.111	31483
624.176	31074
624.240	31871
624.304	33494
624.368	30618
624.432	30999
624.496	31926
624.560	35007
624.625	35212
624.689	33363
624.753	32754
624.817	32826
624.881	31787
624.945	29528
625.009	29251
625.073	30358
625.137	31318
625.201	36803
625.265	36407
625.329	32066
625.393	31782
625.456	31017
625.520	31740
625.584	32934
625.648	33792
625.712	37679
625.776	46034
625.839	48570
625.903	31212
625.967	27047
626.031	33505
626.095	38215
626.158	30531
626.222	25114
626.286	24004
626.349	22888
626.413	21929
626.477	26021
626.540	23086
626.604	21882
626.668	23039
626.731	21464
626.795	21929
626.858	22284
626.922	21228
626.986	22232
627.049	20459
627.113	22387
627.176	21604
627.240	20812
627.303	21461
627.366	20853
627.430	22345
627.493	21863
627.557	20394
627.620	21805
627.684	22181
627.747	21737
627.810	19535
627.874	19567
627.937	17490
628.000	21503
628.064	20228
628.127	16808
628.190	18421
628.253	18331
628.317	17282
628.380	16747
628.443	15949
628.506	16213
628.569	16160
628.632	15047
628.696	16518
628.759	15329
628.822	15417
628.885	14582
628.948	15563
629.011	15090
629.074	14584
629.137	14017
629.200	13864
629.263	15184
629.326	13245
629.389	15146
629.452	14837
629.515	14090
629.578	13978
629.641	15083
629.704	13346
629.767	14588
629.830	14230
629.892	13555
629.955	13805
630.018	16106
630.081	14755
630.144	17981
630.207	13806
630.269	15564
630.332	13894
630.395	14267
630.458	13794
630.520	12734
630.583	13258
630.646	13376
630.708	13360
630.771	13256
630.834	13759
630.896	13055
630.959	13262
631.021	13176
631.084	13450
631.146	13888
631.209	14161
631.272	12115
631.334	12819
631.397	13154
631.459	12266
631.522	14198
631.584	13604
631.646	13745
631.709	15217
631.771	15733
631.834	13980
631.896	14144
631.958	11687
632.021	13414
632.083	11542
632.145	13006
632.208	12173
632.270	13601
632.332	11516
632.395	11749
632.457	12791
632.519	12132
632.581	13621
632.643	11255
632.706	12563
632.768	10957
632.830	12603
632.892	12201
632.954	11614
633.016	12811
633.078	12469
633.141	12289
633.203	11743
633.265	11817
633.327	11638
633.389	11764
633.451	13400
633.513	13583
633.575	13543
633.637	12877
633.698	12616
633.760	12632
633.822	11984
633.884	12892
633.946	12580
634.008	12552
634.070	13385
634.132	15758
634.193	14152
634.255	13400
634.317	12623
634.379	13814
634.441	12872
634.502	12181
634.564	12184
634.626	11972
634.687	11449
634.749	10711
634.811	11469
634.873	10819
634.934	10851
634.996	11297
635.057	10317
635.119	10659
635.181	10317
635.242	12156
635.304	9000
635.365	13218
635.427	10347
635.488	11528
635.550	11024
635.611	10945
635.673	8577
635.734	12198
635.796	11372
635.857	12580
635.918	11160
635.980	12982
636.041	12424
636.102	13707
636.164	12557
636.225	14152
636.286	10294
636.348	11976
636.409	10608
636.470	10070
636.531	10252
636.593	10229
636.654	10875
636.715	10719
636.776	9107
636.838	9518
636.899	10354
636.960	10078
637.021	9183
637.082	9532
637.143	9901
637.204	8653
637.265	8718
637.326	8982
637.387	9338
637.448	8105
637.509	9619
637.570	9420
637.631	10047
637.692	8039
637.753	7722
637.814	9068
637.875	9976
637.936	9941
637.997	8577
638.058	8533
638.119	9146
638.179	8381
638.240	7793
638.301	8887
638.362	7261
638.423	7952
638.483	9655
638.544	6726
638.605	8760
638.666	7611
638.726	8111
638.787	8931
638.848	8085
638.908	7866
638.969	8936
639.030	7706
639.090	7120
639.151	7963
639.211	9753
639.272	10115
639.332	15095
639.393	10093
639.453	7857
639.514	8290
639.574	8270
639.635	7365
639.695	8812
639.756	6931
639.816	8790
639.877	8393
639.937	13796
639.997	16306
640.058	7421
640.118	7403
640.178	7942
640.239	7033
640.299	7419
640.359	7189
640.420	7562
640.480	8673
640.540	8191
640.600	8515
640.661	8762
640.721	7732
640.781	13278
640.841	11249
640.901	8287
640.961	8538
641.021	8008
641.082	8487
641.142	10489
641.202	9439
641.262	5507
641.322	7280
641.382	6658
641.442	7119
641.502	6106
641.562	7988
641.622	6780
641.682	7819
641.742	7775
641.802	7362
641.861	7862
641.921	7325
641.981	8553
642.041	8259
642.101	8713
642.161	6027
642.221	5983
642.280	6084
642.340	5883
642.400	6106
642.460	7023
642.519	6379
642.579	6528
642.639	7731
642.698	4683
642.758	8370
642.818	6214
642.877	6220
642.937	7503
642.997	8965
643.056	11313
643.116	6608
643.175	8145
643.235	6670
643.294	7753
643.354	7653
643.414	7982
643.473	9332
643.532	10518
643.592	13903
643.651	22332
643.711	40991
643.770	81321
643.830	205096
643.889	426958
643.948	82300
644.008	15644
644.067	11180
644.126	8789
644.186	7169
644.245	7163
644.304	5627
644.363	8817
644.423	5607
644.482	6158
644.541	7231
644.600	5641
644.659	8304
644.719	8934
644.778	11511
644.837	19133
644.896	40903
644.955	89970
645.014	27893
645.073	10686
645.132	6724
645.191	6897
645.250	6461
645.309	7338
645.368	7184
645.427	8807
645.486	11123
645.545	18799
645.604	7048
645.663	6908
645.722	6086
645.781	7319
645.840	8558
645.898	8644
645.957	13650
646.016	19063
646.075	37038
646.134	72567
646.192	204053
646.251	282331
646.310	33310
646.369	11537
646.427	9962
646.486	7160
646.545	7231
646.603	5958
646.662	6439
646.721	7114
646.779	4529
646.838	5443
646.896	7167
646.955	7965
647.014	12587
647.072	20843
647.131	57140
647.189	23184
647.248	5905
647.306	5879
647.365	5676
647.423	3753
647.481	5902
647.540	4227
647.598	5113
647.657	4520
647.715	5541
647.773	4048
647.832	5714
647.890	3244
647.948	4465
648.007	5453
648.065	3375
648.123	4108
648.181	7027
648.240	7728
648.298	5882
648.356	4262
648.414	4111
648.472	4169
648.531	4360
648.589	3663
648.647	3852
648.705	4238
648.763	4031
648.821	4473
648.879	4176
648.937	5200
648.995	5204
649.053	5401
649.111	9828
649.169	15675
649.227	27531
649.285	57377
649.343	168471
649.401	69719
649.459	22648
649.516	14615
649.574	10392
649.632	21317
649.690	23941
649.748	10763
649.806	15670
649.863	25408
649.921	40215
649.979	22260
650.037	6262
650.094	3741
650.152	5038
650.210	4251
650.268	5131
650.325	5693
650.383	7122
650.440	3615
650.498	4510
650.556	3007
650.613	3270
650.671	3802
650.728	3501
650.786	4414
650.843	4067
650.901	2825
650.958	3520
651.016	2741
651.073	4165
651.131	3017
651.188	2298
651.246	3774
651.303	2834
651.360	3682
651.418	3168
651.475	4509
651.532	3078
651.590	3225
651.647	3121
651.704	2692
651.762	2957
651.819	3813
651.876	1953
651.933	2462
651.990	4172
652.048	2574
652.105	2293
652.162	3228
652.219	2450
652.276	2998
652.333	3360
652.390	2101
652.448	2827
652.505	2907
652.562	3349
652.619	4498
652.676	8500
652.733	8369
652.790	3426
652.847	1771
652.904	4312
652.961	1460
653.017	2372
653.074	4130
653.131	3507
653.188	2499
653.245	2655
653.302	2995
653.359	2693
653.415	2892
653.472	2304
653.529	3685
653.586	2052
653.642	1415
653.699	3017
653.756	2045
653.813	2880
653.869	3185
653.926	1599
653.983	1800
654.039	2674
654.096	2299
654.152	3755
654.209	844
654.266	1943
654.322	950
654.379	3187
654.435	4067
654.492	2871
654.548	4234
654.605	5948
654.661	4291
654.717	3257
654.774	2798
654.830	2482
654.887	2197
654.943	3120
655.000	3659
655.056	3497
655.112	2312
655.168	1754
655.225	2098
655.281	3433
655.337	2216
655.394	3387
655.450	2094
655.506	2492
655.562	3195
655.618	3659
655.675	1238
655.731	2155
655.787	1777
655.843	2957
655.899	1314
655.955	1655
656.011	2948
656.067	833
656.123	2066
656.179	1412
656.235	3397
656.291	1146
656.347	2942
656.403	1503
656.459	2303
656.515	2069
656.571	2452
656.627	1967
656.683	2905
656.739	2958
656.795	2728
656.850	2711
656.906	3060
656.962	2994
657.018	1380
657.074	2349
657.129	2789
657.185	3918
657.241	6485
657.297	3575
657.352	2747
657.408	1892
657.464	2842
657.519	2076
657.575	1322
657.630	1860
657.686	2407
657.742	1229
657.797	1677
657.853	1602
657.908	3084
657.964	1824
658.019	2787
658.075	1788
658.130	2388
658.186	1314
658.241	2067
658.297	1457
658.352	1903
658.407	2850
658.463	1768
658.518	1872
658.573	2287
658.629	2193
658.684	2663
658.739	2569
658.795	1676
658.850	2362
658.905	1113
658.960	2815
659.016	2381
659.071	2057
659.126	2423
659.181	3153
659.236	6059
659.291	6022
659.346	3304
659.401	3305
659.457	4459
659.512	5601
659.567	4185
659.622	2097
659.677	1927
659.732	691
659.787	2401
659.842	2323
659.897	2149
659.952	2004
660.007	1931
660.061	2305
660.116	1778
660.171	2315
660.226	2479
660.281	3544
660.336	1274
660.391	2934
660.445	2132
660.500	2345
660.555	2495
660.610	1568
660.664	2113
660.719	2029
660.774	2016
660.828	1978
660.883	2112
660.938	2954
660.992	1278
661.047	2192
661.101	2460
661.156	2477
661.211	1630
661.265	1960
661.320	1812
661.374	1706
661.429	1620
661.483	2540
661.538	2001
661.592	2417
661.647	2584
661.701	4347
661.755	2711
661.810	1634
661.864	882
661.919	2164
661.973	2034
662.027	1967
662.081	1937
662.136	2650
662.190	3010
662.244	2670
662.299	1670
662.353	2669
662.407	2062
662.461	1222
662.515	2497
662.569	1778
662.624	1674
662.678	1740
662.732	1537
662.786	1323
662.840	1366
662.894	2380
662.948	1750
663.002	2404
663.056	2079
663.110	1179
663.164	1972
663.218	1807
663.272	1777
663.326	2696
663.380	1565
663.434	1587
663.488	1800
663.542	915
663.595	2158
663.649	846
663.703	2388
663.757	2094
663.811	1362
663.864	2695
663.918	1229
663.972	1355
664.026	1830
664.079	1441
664.133	2103
664.187	1564
664.240	1175
664.294	1715
664.348	1844
664.401	1730
664.455	1184
664.508	1336
664.562	2720
664.615	2002
664.669	800
664.722	1742
664.776	1263
664.829	1748
664.883	979
664.936	1154
664.990	1476
665.043	1575
665.097	1569
665.150	2725
665.203	1849
665.257	1712
665.310	2002
665.363	2902
665.417	1740
665.470	1672
665.523	1506
665.576	1515
665.630	2131
665.683	1538
665.736	2052
665.789	1540
665.842	1096
665.895	1434
665.949	1879
666.002	2500
666.055	1037
666.108	2043
666.161	2240
666.214	2348
666.267	1791
666.320	3073
666.373	1978
666.426	1861
666.479	2277
666.532	1729
666.585	2048
666.638	2436
666.691	1164
666.744	2141
666.796	1221
666.849	1728
666.902	1777
666.955	1857
667.008	1574
667.060	2138
667.113	1077
667.166	1914
667.219	1729
667.271	1710
667.324	1928
667.377	1943
667.430	1830
667.482	3415
667.535	2420
667.587	1858
667.640	1772
667.693	1635
667.745	4595
667.798	3465
667.850	1613
667.903	1929
667.955	2127
668.008	2480
668.060	2098
668.113	2418
668.165	1934
668.218	2261
668.270	2288
668.322	1252
668.375	961
668.427	2213
668.479	1616
668.532	2388
668.584	1704
668.636	1825
668.689	1337
668.741	1842
668.793	1831
668.845	1801
668.898	1573
668.950	1493
669.002	2358
669.054	1516
669.106	2012
669.158	1911
669.211	1711
669.263	2011
669.315	3500
669.367	3563
669.419	1672
669.471	3426
669.523	3194
669.575	3877
669.627	2708
669.679	3209
669.731	2187
669.783	3335
669.835	3047
669.886	3008
669.938	2650
669.990	1960
670.042	1763
670.094	2594
670.146	2151
670.197	3517
670.249	3751
670.301	3851
670.353	6613
670.404	10099
670.456	14901
670.508	26796
670.560	46975
670.611	85174
670.663	155559
670.715	398009
670.766	560252
670.818	122509
670.869	22392
670.921	12705
670.972	8616
671.024	5417
671.075	5549
671.127	4493
671.178	3481
671.230	3300
671.281	2463
671.333	2852
671.384	1783
671.436	2340
671.487	3326
671.538	4084
671.590	5220
671.641	8281
671.692	12194
671.744	21999
671.795	13161
671.846	5316
671.897	2612
671.949	3082
672.000	2185
672.051	2099
672.102	2023
672.153	1779
672.204	1898
672.256	2047
672.307	1830
672.358	1549
672.409	1368
672.460	1657
672.511	1099
672.562	1057
672.613	1176
672.664	1515
672.715	898
672.766	583
672.817	1328
672.868	1259
672.919	1002
672.970	770
673.021	785
673.071	379
673.122	1013
673.173	1359
673.224	813
673.275	1194
673.326	1189
673.376	750
673.427	791
673.478	597
673.528	1557
673.579	869
673.630	1412
673.680	1313
673.731	841
673.782	-82
673.832	841
673.883	1849
673.934	105
673.984	1061
674.035	845
674.085	1344
674.136	14
674.186	1127
674.237	827
674.287	1276
674.338	668
674.388	433
674.438	1016
674.489	595
674.539	811
674.589	950
674.640	703
674.690	898
674.740	307
674.791	1034
674.841	412
674.891	1252
674.942	1518
674.992	1340
675.042	625
675.092	1288
675.142	14
675.193	177
675.243	435
675.293	1024
675.343	615
675.393	504
675.443	921
675.493	1536
675.543	588
675.593	1035
675.643	638
675.693	412
675.743	684
675.793	673
675.843	59
675.893	417
675.943	766
675.993	719
676.043	700
676.093	1750
676.142	367
676.192	554
676.242	18
676.292	136
676.341	253
676.391	468
676.441	14
676.491	849
676.540	25
676.590	1041
676.640	460
676.689	1196
676.739	476
676.789	-162
676.838	385
676.888	277
676.937	155
676.987	-27
677.037	575
677.086	-2
677.136	621
677.185	414
677.235	-378
677.284	824
677.333	-284
677.383	575
677.432	-113
677.482	-12
677.531	360
677.580	-378
677.630	-631
677.679	81
677.728	593
677.778	45
677.827	363
677.876	166
677.925	121
677.975	159
678.024	-37
678.073	100
678.122	386
678.171	-695
678.220	790
678.269	541
678.319	-16
678.368	541
678.417	292
678.466	591
678.515	827
678.564	832
678.613	233
678.662	539
678.711	811
678.760	409
678.809	687
678.857	396
678.906	1100
678.955	911
679.004	974
679.053	758
679.102	57
679.151	769
679.199	-495
679.248	526
679.297	818
679.346	495
679.394	-165
679.443	-67
679.492	253
679.540	489
679.589	232
679.638	130
679.686	462
679.735	210
679.784	-299
679.832	476
679.881	-598
679.929	-425
679.978	-267
680.026	724
680.075	630
680.123	-150
680.172	318
680.220	-323
680.268	129
680.317	-145
680.365	707
680.414	-144
680.462	537
680.510	1079
680.559	-92
680.607	-108
680.655	-287
680.703	161
680.752	-23
680.800	574
680.848	-103
680.896	-122
680.945	-6
680.993	26
681.041	-47
681.089	-12
681.137	365
681.185	303
681.233	602
681.258	207
681.281	-188
681.329	365
681.377	-28
681.380	13
681.425	357
681.473	885
681.502	619
681.521	397
681.569	195
681.617	116
681.624	122
681.665	1
681.713	811
681.745	710
681.761	631
681.809	-28
681.857	1312
681.867	1186
681.904	641
681.952	420
681.989	671
682.000	725
682.048	862
682.096	304
682.111	355
682.143	378
682.191	1362
682.233	1517
682.239	1520
682.286	1120
682.334	1314
682.354	1148
682.382	856
682.430	1411
682.476	608
682.477	574
682.525	915
682.572	222
682.598	426
682.620	549
682.667	1017
682.715	1217
682.720	1281
682.763	1716
682.810	1547
682.841	1198
682.857	971
682.905	1268
682.952	1169
682.963	1332
683.000	1816
683.047	1163
683.085	2168
683.095	2423
683.142	1938
683.190	1472
683.206	1687
683.237	2074
683.284	2058
683.328	1290
683.332	1203
683.379	2002
683.426	1274
683.449	1483
683.473	1679
683.521	1982
683.568	2109
683.571	2164
683.615	2653
683.662	2229
683.693	1886
683.709	1691
683.757	1943
683.804	1926
683.814	1951
683.851	1939
683.898	2404
683.936	2114
683.945	2039
683.992	2466
684.039	2949
684.057	2772
684.086	2463
684.133	2286
684.179	2946
684.180	2949
684.227	2961
684.274	3236
684.300	3305
684.321	3300
684.368	2491
684.415	2928
684.422	2862
684.462	2464
684.509	3075
684.543	2792
684.556	2655
684.603	3168
684.649	2066
684.665	2336
684.696	3000
684.743	3030
684.786	3396
684.790	3406
684.837	3423
684.883	3627
684.908	3453
684.930	3285
684.977	3921
685.023	3267
685.029	3253
685.070	2939
685.117	3397
685.150	3226
685.164	3216
685.210	4018
685.257	4221
685.272	4320
685.303	4374
685.350	3946
685.393	4437
685.396	4479
685.443	3876
685.490	5036
685.514	5218
685.536	5225
685.583	4670
685.629	4579
685.636	4510
685.675	4213
685.722	3874
685.757	4377
685.768	4473
685.815	4289
685.861	4674
685.878	4501
685.908	4416
685.954	4570
686.000	5061
686.000	5059
686.047	4309
686.093	4569
686.121	4781
686.139	4944
686.185	4724
686.232	4228
686.242	4262
686.278	4333
686.324	4942
686.363	4427
686.370	4326
686.416	4654
686.463	4797
686.484	4915
686.509	5090
686.555	4795
686.601	5038
686.606	5033
686.647	4959
686.693	4830
686.727	4677
686.739	4633
686.785	5371
686.831	5040
686.848	5149
686.877	5191
686.923	4461
686.969	4719
686.969	4720
687.015	4990
687.061	4811
687.090	4725
687.107	4660
687.153	4725
687.199	5421
687.211	5342
687.245	5182
687.291	5251
687.332	5150
687.336	5145
687.382	5715
687.428	5214
687.453	5803
687.474	6158
687.520	5386
687.565	5738
687.574	5681
687.611	5706
687.657	6110
687.695	6482
687.702	6632
687.748	7679
687.794	8508
687.816	8523
687.839	7916
687.885	7360
687.931	6525
687.937	6450
687.976	6401
688.022	6211
688.058	6363
688.067	6435
688.113	5959
688.158	5801
688.179	5901
688.204	5942
688.249	6301
688.295	6016
688.300	6025
688.340	6397
688.386	6804
688.421	6593
688.431	6467
688.477	6208
688.522	6188
688.542	6116
688.567	6220
688.613	6496
688.658	6652
688.663	6711
688.703	7007
688.749	6238
688.784	6489
688.794	6613
688.839	6361
688.884	6746
688.905	6817
688.930	6788
688.975	7028
689.020	6550
689.026	6496
689.065	6453
689.110	6735
689.146	7132
689.155	7187
689.201	7042
689.246	6634
689.267	6808
689.291	7033
689.336	6813
689.381	6351
689.388	6428
689.426	6939
689.471	7223
689.509	6785
689.516	6710
689.561	6946
689.606	6753
689.630	6935
689.651	7060
689.696	6588
689.741	6627
689.750	6557
689.785	6745
689.830	7402
689.871	7492
689.875	7447
689.920	7242
689.965	6907
689.992	6707
690.010	6854
690.054	7208
690.099	7383
690.112	7541
690.144	7551
690.189	7585
690.233	6935
690.233	6944
690.278	6908
690.323	7228
690.354	7326
690.367	7392
690.412	7010
690.457	7368
690.474	7336
690.501	7364
690.546	7767
690.590	7440
690.595	7431
690.635	7453
690.680	7353
690.716	7421
690.724	7454
690.769	7803
690.813	8241
690.836	8181
690.857	8533
690.902	9402
690.946	10437
690.957	10675
690.991	12594
691.035	15280
691.077	17431
691.080	17434
691.124	16765
691.168	15962
691.198	15418
691.213	14791
691.257	13755
691.301	11873
691.318	11243
691.346	10849
691.390	10072
691.434	9090
691.439	8967
691.478	8811
691.522	9326
691.559	8987
691.567	8973
691.611	9502
691.655	9215
691.680	9226
691.699	9067
691.743	9148
691.787	8859
691.800	8652
691.831	8412
691.875	8234
691.919	8582
691.921	8558
691.964	8631
692.008	9210
692.041	9159
692.052	9119
692.096	9049
692.139	9295
692.162	9216
692.183	9091
692.227	8962
692.271	8799
692.282	8802
692.315	8910
692.359	8435
692.402	8439
692.403	8460
692.447	8485
692.490	8897
692.523	8952
692.534	8956
692.578	9087
692.622	9081
692.643	9250
692.666	9403
692.709	9186
692.753	9174
692.763	9157
692.797	9328
692.840	9461
692.884	9635
692.884	9657
692.928	9687
692.971	9880
693.004	9876
693.015	9844
693.059	9406
693.102	9397
693.124	9283
693.146	9435
693.189	9876
693.233	9834
693.245	9955
693.276	10259
693.320	10283
693.363	10491
693.365	10467
693.407	10610
693.450	10916
693.485	10892
693.493	10913
693.537	11221
693.580	11548
693.605	11659
693.624	12541
693.667	14556
693.710	16866
693.725	17526
693.753	21137
693.797	27145
693.840	33296
693.845	33838
693.883	32239
693.926	30687
693.966	29562
693.970	29135
694.013	23714
694.056	18629
694.086	14964
694.099	14700
694.142	13819
694.185	12947
694.206	12538
694.229	12501
694.272	12068
694.315	12068
694.326	11968
694.358	12070
694.401	12196
694.444	12358
694.446	12338
694.487	12444
694.530	12313
694.566	12336
694.573	12232
694.616	11282
694.659	10275
694.686	9864
694.702	10023
694.745	9945
694.787	9905
694.806	9910
694.830	10195
694.873	10786
694.916	11217
694.926	11299
694.959	10855
695.002	10225
695.044	9453
695.046	9402
695.087	9914
695.130	10443
695.166	10830
695.172	10844
695.215	10652
695.258	10602
695.286	10446
695.301	10489
695.343	10751
695.386	10956
695.406	10939
695.428	10723
695.471	10352
695.514	10007
695.526	9815
695.556	9888
695.599	10327
695.641	10631
695.646	10630
695.684	10545
695.726	10444
695.766	10363
695.769	10395
695.811	10502
695.854	10333
695.886	10416
695.896	10442
695.938	10280
695.981	10125
696.005	10014
696.023	10209
696.065	10538
696.108	11004
696.125	11079
696.150	10865
696.192	10701
696.235	10431
696.245	10364
696.277	11005
696.319	11504
696.361	12384
696.365	12393
696.404	11978
696.446	11880
696.485	11545
696.488	11586
696.530	11688
696.572	11799
696.604	11915
696.614	11877
696.656	11454
696.698	11181
696.724	10896
696.740	11017
696.783	11355
696.825	11701
696.844	11787
696.867	11619
696.909	11275
696.951	10882
696.964	10752
696.992	11109
697.034	11545
697.076	11995
697.083	12024
697.118	11664
697.160	11391
697.202	10964
697.203	10920
697.244	10987
697.286	11175
697.323	11189
697.327	11249
697.369	11614
697.411	11887
697.442	12043
697.453	12084
697.494	12102
697.536	12225
697.562	12231
697.578	12250
697.620	12269
697.661	12269
697.682	12187
697.703	12406
697.744	12806
697.786	13288
697.801	13394
697.828	13384
697.869	13344
697.911	13278
697.921	13227
697.952	12896
697.994	12415
698.035	11949
698.040	11850
698.077	11764
698.118	11690
698.160	11608
698.160	11573
698.201	11776
698.243	11976
698.279	12095
698.284	12128
698.325	12125
698.367	12137
698.399	12074
698.408	12114
698.449	12133
698.491	12172
698.518	12186
698.532	12171
698.573	11986
698.614	11800
698.638	11661
698.656	11881
698.697	12321
698.738	12744
698.757	12918
698.779	12817
698.820	12535
698.862	12257
698.877	12122
698.903	12224
698.944	12327
698.985	12429
698.996	12424
699.026	12298
699.067	12075
699.116	11780
699.235	12709
699.354	12486
699.474	13032
699.593	12129
699.713	13041
699.832	12409
699.951	13867
700.070	12449
700.190	12370
700.309	11827
700.428	12562
700.547	11858
700.667	12134
700.786	12269
700.905	12696
701.024	12021
701.143	10995
701.262	10621
701.381	11771
701.500	11603
701.619	14289
701.738	12130
701.857	11912
701.976	11180
702.095	12046
702.214	12166
702.333	13571
702.452	12113
702.571	11902
702.690	10672
702.809	11615
702.928	10816
703.047	11873
703.165	10856
703.284	11553
703.403	10859
703.522	11368
703.640	12285
703.759	13424
703.878	13423
703.997	11028
704.115	10552
704.234	11642
704.353	11269
704.471	11127
704.590	10573
704.708	11074
704.827	10354
704.946	10241
705.064	10189
705.183	10680
705.301	11253
705.420	12550
705.538	12434
705.656	12741
705.775	14527
705.893	29375
706.012	36152
706.130	12380
706.249	11860
706.367	11703
706.485	10977
706.604	11503
706.722	11102
706.840	14749
706.958	18095
707.077	13935
707.195	10161
707.313	11357
707.431	9375
707.549	10880
707.668	10629
707.786	11074
707.904	10822
708.022	10783
708.140	10358
708.258	10784
708.376	10643
708.494	10277
708.612	10153
708.730	11799
708.848	11693
708.966	12103
709.084	12241
709.202	11737
709.320	11313
709.438	11310
709.556	11518
709.674	11327
709.791	10670
709.909	11582
710.027	10700
710.145	10385
710.263	10064
710.380	10147
710.498	10324
710.616	11056
710.733	10502
710.851	9492
710.969	10426
711.086	10389
711.204	10653
711.322	10160
711.439	10530
711.557	9198
711.674	10334
711.792	10386
711.909	11372
712.027	13949
712.144	9523
712.262	10298
712.379	10182
712.497	12192
712.614	11547
712.732	11773
712.849	10358
712.966	12329
713.084	13871
713.201	11572
713.318	10921
713.436	10544
713.553	11168
713.670	10991
713.787	10931
713.905	11900
714.022	10023
714.139	10075
714.256	12184
714.373	14190
714.490	20620
714.608	43869
714.725	174981
714.842	183938
714.959	17177
715.076	12621
715.193	10327
715.310	11579
715.427	9338
715.544	9800
715.661	9504
715.778	10548
715.895	8984
716.011	10969
716.128	9784
716.245	10048
716.362	12867
716.479	12784
716.596	9822
716.713	10930
716.829	9044
716.946	9423
717.063	8127
717.180	8801
717.296	8113
717.413	9810
717.530	8836
717.646	9450
717.763	9043
717.880	9010
717.996	8181
718.113	9455
718.229	9145
718.346	8684
718.462	9878
718.579	12511
718.695	19740
718.812	14308
718.928	10316
719.045	9190
719.161	7952
719.277	8323
719.394	8494
719.510	9091
719.626	8519
719.743	10275
719.859	10380
719.975	15675
720.092	45185
720.208	103081
720.324	15921
720.440	9376
720.557	9351
720.673	15392
720.789	15179
720.905	17101
721.021	9947
721.137	8244
721.253	8052
721.369	7726
721.486	7749
721.602	8650
721.718	7284
721.834	7307
721.950	8268
722.066	7735
722.181	6790
722.297	8647
722.413	7307
722.529	7948
722.645	7206
722.761	7055
722.877	6912
722.993	7361
723.108	7530
723.224	6481
723.340	6571
723.456	7092
723.571	6781
723.687	6893
723.803	6779
723.918	7255
724.034	6699
724.150	6808
724.265	6684
724.381	9208
724.497	9104
724.612	6791
724.728	6379
724.843	6573
724.959	6164
725.074	8962
725.190	9423
725.305	7376
725.421	6224
725.536	6749
725.651	6427
725.767	6989
725.882	6344
725.997	6894
726.113	5824
726.228	6314
726.343	6147
726.459	5618
726.574	6042
726.689	6707
726.804	5743
726.920	7063
727.035	6172
727.150	6483
727.265	5885
727.380	6763
727.495	6271
727.610	6223
727.725	5744
727.841	8450
727.956	16826
728.071	13072
728.186	6191
728.301	5441
728.416	5541
728.531	6189
728.645	5705
728.760	6664
728.875	6585
728.990	7050
729.105	5604
729.220	7070
729.335	6243
729.449	5633
729.564	4835
729.679	6220
729.794	5412
729.908	6407
730.023	5554
730.138	5554
730.253	5173
730.367	6135
730.482	5467
730.596	5854
730.711	6367
730.826	6855
730.940	7475
731.055	6640
731.169	5328
731.284	5299
731.398	4740
731.513	6115
731.627	5054
731.742	6879
731.856	5879
731.970	6633
732.085	6435
732.199	6557
732.313	9229
732.428	19150
732.542	47578
732.656	28406
732.771	8474
732.885	6895
732.999	5705
733.113	6601
733.227	6152
733.342	5630
733.456	5231
733.570	5835
733.684	5471
733.798	4954
733.912	4598
734.026	5153
734.140	4991
734.254	6593
734.368	6566
734.482	6641
734.596	5044
734.710	6088
734.824	5596
734.938	5587
735.052	4697
735.166	6149
735.280	6272
735.393	5767
735.507	4755
735.621	5941
735.735	6745
735.849	6259
735.962	4976
736.076	6493
736.190	6067
736.303	5813
736.417	6929
736.531	5824
736.644	4373
736.758	4697
736.872	5523
736.985	4356
737.099	4425
737.212	4374
737.326	4799
737.439	5595
737.553	4721
737.666	5181
737.780	4593
737.893	4806
738.007	5270
738.120	4351
738.233	5390
738.347	5408
738.460	4253
738.573	5462
738.687	5196
738.800	6113
738.913	6708
739.026	5467
739.140	5416
739.253	6204
739.366	4675
739.479	4583
739.592	3838
739.705	5571
739.818	4377
739.932	4844
740.045	4197
740.158	5682
740.271	4436
740.384	4379
740.497	3915
740.610	5274
740.723	4548
740.836	5538
740.949	4852
741.062	7524
741.174	6716
741.287	4692
741.400	4460
741.513	5515
741.626	3791
741.739	5306
741.851	4922
741.964	4607
742.077	4394
742.189	4786
742.302	4454
742.415	5138
742.527	4948
742.640	4665
742.753	3732
742.865	4100
742.978	4277
743.090	4494
743.203	3971
743.316	4643
743.428	3938
743.541	4742
743.653	3034
743.766	4202
743.878	3556
743.990	4305
744.103	5295
744.215	5106
744.327	4089
744.440	5842
744.552	8174
744.664	6248
744.777	3785
744.889	3584
745.001	4650
745.113	3965
745.226	3764
745.338	3676
745.450	3362
745.562	4264
745.674	3097
745.786	3672
745.898	3230
746.010	3307
746.122	3265
746.234	4100
746.347	3530
746.459	3285
746.570	2471
746.682	4406
746.794	3902
746.906	4013
747.018	3274
747.130	3851
747.242	3493
747.354	3628
747.466	3912
747.577	3886
747.689	3146
747.801	4076
747.913	3355
748.024	3264
748.136	2633
748.248	3748
748.359	3358
748.471	3848
748.583	3183
748.694	4488
748.806	5567
748.918	3674
749.029	3463
749.141	4174
749.252	4361
749.364	4760
749.475	7656
749.587	5765
749.698	2824
749.809	4224
749.921	3193
750.032	3965
750.144	3124
750.255	3458
750.366	3405
750.478	3024
750.589	3971
750.700	4095
750.811	3514
750.923	5167
751.034	9851
751.145	10994
751.256	3403
751.367	3803
751.479	3469
751.590	3783
751.701	3169
751.812	2835
751.923	3322
752.034	3196
752.145	2244
752.256	3304
752.367	3224
752.478	3225
752.589	2622
752.700	2881
752.811	2828
752.922	3566
753.032	2913
753.143	4770
753.254	2274
753.365	3342
753.476	2544
753.586	3344
753.697	2448
753.808	2980
753.919	3333
754.029	3222
754.140	2962
754.251	3154
754.361	2789
754.472	2429
754.582	3159
754.693	3408
754.804	3416
754.914	2679
755.025	2668
755.135	2795
755.246	2673
755.356	2526
755.466	2458
755.577	3212
755.687	2412
755.798	3303
755.908	3242
756.018	2908
756.129	2020
756.239	3540
756.349	2881
756.460	3088
756.570	2684
756.680	3455
756.790	3011
756.900	4285
757.011	1877
757.121	2959
757.231	2683
757.341	3430
757.451	2602
757.561	2657
757.671	2510
757.781	2054
757.891	2843
758.001	3141
758.111	3596
758.221	4033
758.331	4020
758.441	4214
758.551	4471
758.661	5286
758.771	3487
758.880	3834
758.990	3536
759.100	3736
759.210	3203
759.320	3519
759.429	2402
759.539	3032
759.649	3096
759.758	3307
759.868	3011
759.978	3288
760.087	3052
760.197	3198
760.307	3048
760.416	3841
760.526	2528
760.635	3916
760.745	3125
760.854	3672
760.964	3146
761.073	3686
761.182	3111
761.292	4411
761.401	3326
761.511	3923
761.620	2965
761.729	3699
761.839	2696
761.948	4113
762.057	4025
762.166	4149
762.276	2593
762.385	4398
762.494	3407
762.603	3599
762.712	3204
762.822	3621
762.931	3334
763.040	3054
763.149	2878
763.258	4594
763.367	4794
763.476	4111
763.585	4343
763.694	4213
763.803	4256
763.912	5252
764.021	4644
764.130	4427
764.238	4595
764.347	5228
764.456	4924
764.565	5653
764.674	5318
764.783	6463
764.891	5366
765.000	8496
765.109	7842
765.217	8664
765.326	9855
765.435	13212
765.543	14093
765.652	16222
765.761	21224
765.869	31217
765.978	48707
766.086	85683
766.195	167835
766.303	398959
766.412	838703
766.520	714677
766.629	299301
766.737	116404
766.846	62391
766.954	41206
767.062	29624
767.171	26285
767.279	17983
767.387	14332
767.496	12633
767.604	11218
767.712	9773
767.820	10128
767.928	8711
768.037	7599
768.145	7590
768.253	8514
768.361	6409
768.469	7153
768.577	6856
768.685	7962
768.793	7494
768.901	9420
769.009	9740
769.117	11001
769.225	14072
769.333	21521
769.441	32394
769.549	62278
769.657	142905
769.765	416006
769.873	692376
769.981	330375
770.088	89171
770.196	42183
770.304	26387
770.412	19528
770.519	13074
770.627	11483
770.735	8728
770.842	9945
770.950	7182
771.058	7431
771.165	5829
771.273	5854
771.380	5218
771.488	5263
771.595	4792
771.703	4611
771.810	4965
771.918	5114
772.025	4224
772.133	4834
772.240	3904
772.348	4968
772.455	4371
772.562	4571
772.670	3590
772.777	4155
772.884	3755
772.991	4068
773.099	3568
773.206	3445
773.313	3739
773.420	3383
773.528	3014
773.635	3124
773.742	3255
773.849	3430
773.956	2702
774.063	3835
774.170	2306
774.277	4020
774.384	2789
774.491	3309
774.598	2668
774.705	3646
774.812	4121
774.919	3671
775.026	2446
775.133	3208
775.239	2708
775.346	2964
775.453	2891
775.560	2280
775.667	2149
775.773	2807
775.880	2507
775.987	2919
776.093	3274
776.200	2534
776.307	1676
776.413	2872
776.520	2274
776.627	2420
776.733	2428
776.840	1179
776.946	3154
777.053	2925
777.159	2250
777.266	1193
777.372	3186
777.478	2885
777.585	1951
777.691	2752
777.798	2705
777.904	4632
778.010	5401
778.117	4582
778.223	2213
778.329	2608
778.435	2621
778.542	2909
778.648	2123
778.754	1924
778.860	1734
778.966	2758
779.072	2462
779.178	2201
779.284	2510
779.391	1413
779.497	1113
779.603	4167
779.708	2049
779.815	3913
779.920	8304
780.026	15300
780.132	3162
780.238	2679
780.344	2063
780.450	2903
780.556	1859
780.661	1921
780.767	2055
780.873	2978
780.979	2877
781.085	2365
781.190	1689
781.296	2283
781.402	1194
781.507	2073
781.613	2950
781.719	1983
781.824	1006
781.930	2501
782.035	1950
782.141	3462
782.246	1781
782.352	1659
782.457	2251
782.563	1811
782.668	1957
782.773	1861
782.879	1424
782.984	2542
783.090	3456
783.195	4989
783.300	3084
783.405	2536
783.511	1887
783.616	2606
783.721	1951
783.826	2620
783.932	1993
784.037	2011
784.142	993
784.247	3171
784.352	2007
784.457	1774
784.562	1670
784.667	2143
784.772	745
784.877	2110
784.982	2032
785.087	1274
785.192	2237
785.297	1361
785.402	1671
785.507	1797
785.611	2232
785.716	2362
785.821	2270
785.926	1996
786.031	1203
786.135	2773
786.240	1245
786.345	1296
786.450	1671
786.554	1178
786.659	1474
786.763	681
786.868	1603
786.973	2788
787.077	851
787.182	1974
787.286	833
787.391	1991
787.495	1131
787.600	1333
787.704	851
787.809	1770
787.913	1135
788.017	1605
788.122	1239
788.226	1866
788.330	1335
788.435	1521
788.539	1605
788.643	1803
788.747	682
788.852	2285
788.956	182
789.060	2760
789.164	615
789.268	618
789.372	2054
789.476	1703
789.580	1111
789.684	1554
789.788	1741
789.892	1788
789.996	2160
790.100	1555
790.204	942
790.308	2064
790.412	821
790.516	2515
790.620	1200
790.724	2548
790.828	1645
790.931	1094
791.035	2665
791.139	1434
791.242	213
791.346	2150
791.450	1120
791.554	1694
791.657	522
791.761	2910
791.864	1609
791.968	1648
792.072	1938
792.175	1195
792.279	654
792.382	1416
792.486	1342
792.589	964
792.693	992
792.796	869
792.899	988
793.003	2039
793.106	192
793.209	1526
793.313	2919
793.416	-35
793.519	3481
793.623	3173
793.726	3326
793.829	1799
793.932	1352
794.035	146
794.138	1929
794.242	1892
794.345	502
794.448	2184
794.551	3524
794.654	6138
794.757	8335
794.860	3026
794.963	1718
795.066	1721
795.169	2490
795.272	1309
795.375	929
795.477	1562
795.580	1168
795.683	669
795.786	1215
795.889	202
795.991	2259
796.094	1838
796.197	-99
796.300	2178
796.402	538
796.505	1008
796.608	390
796.710	1953
796.813	910
796.915	1402
797.018	427
797.120	1440
797.223	-772
797.326	2898
797.428	1056
797.530	407
797.633	194
797.735	2600
797.838	297
797.940	2232
798.042	455
798.145	1258
798.247	1774
798.349	349
798.452	1049
798.554	1343
798.656	300
798.758	2075
798.860	1060
798.962	1015
799.065	864
799.167	652
799.269	1784
799.371	2066
799.473	970
799.575	853
799.677	1684
799.779	3033
799.881	2300
799.983	2542
800.085	574
800.187	1454
800.289	35
800.390	1547
800.492	1140
800.594	2722
800.696	631
800.798	1965
800.899	755
801.001	1558
801.103	707
801.205	259
801.306	751
801.408	528
801.509	1137
801.611	1200
801.713	746
801.814	315
801.916	810
802.017	1023
802.119	907
802.220	1250
802.322	-637
802.423	2880
802.525	-271
802.626	735
802.727	252
802.829	1809
802.930	-1030
803.031	1811
803.133	169
803.234	475
803.335	602
803.436	20
803.538	1139
803.639	-87
803.740	542
803.841	283
803.942	1392
804.043	1758
804.144	228
804.245	1347
804.346	428
804.447	956
804.548	1622
804.649	2787
804.750	695
804.851	556
804.952	534
805.053	1158
805.154	-137
805.255	1639
805.355	974
805.456	387
805.557	53
805.658	-269
805.758	1308
805.859	547
805.960	280
806.061	702
806.161	-67
806.262	1274
806.362	-495
806.463	923
806.564	574
806.664	1434
806.765	641
806.865	699
806.966	207
807.066	858
807.166	1423
807.267	2065
807.367	77
807.468	1607
807.568	-600
807.668	1676
807.769	602
807.869	669
807.969	1351
808.069	1268
808.170	1165
808.270	558
808.370	1080
808.470	2410
808.570	677
808.670	1178
808.770	-16
808.870	675
808.970	1088
809.070	89
809.170	-49
809.271	1623
809.370	204
809.470	1888
809.570	-503
809.670	98
809.770	951
809.870	1341
809.970	1069
810.070	733
810.169	825
810.269	-132
810.369	1190
810.469	1257
810.568	762
810.668	1011
810.768	-107
810.867	938
810.967	396
811.066	568
811.166	214
811.265	1883
811.365	692
811.464	297
811.564	1117
811.663	1407
811.763	-520
811.862	1730
811.962	1377
812.061	1108
812.160	187
812.260	1512
812.359	816
812.458	1745
812.557	3571
812.657	4730
812.756	1832
812.855	693
812.954	154
813.053	1806
813.153	1007
813.252	725
813.351	1352
813.450	2345
813.549	582
813.648	1871
813.747	702
813.846	1605
813.945	383
814.044	701
814.143	1438
814.242	2146
814.341	283
814.439	1853
814.538	1472
814.637	1498
814.736	1135
814.835	2464
814.933	299
815.032	1788
815.131	1184
815.229	1902
815.328	2372
815.427	2415
815.525	1708
815.624	2686
815.722	1523
815.821	3493
815.919	2457
816.018	2651
816.116	3494
816.215	3243
816.313	2127
816.412	4121
816.510	3156
816.609	5367
816.707	3964
816.805	4123
816.904	4008
817.002	5358
817.100	5181
817.198	7453
817.296	6920
817.395	9255
817.493	10860
817.591	12437
817.689	18720
817.787	23428
817.885	36950
817.983	63903
818.081	126515
818.179	273836
818.277	568245
818.375	534112
818.473	212994
818.571	93511
818.669	58629
818.767	48344
818.865	46783
818.963	54269
819.061	74899
819.158	121698
819.256	225776
819.354	446527
819.452	732870
819.549	586094
819.647	272167
819.745	128947
819.842	76371
819.940	51740
820.038	36449
820.135	27921
820.233	22899
820.330	17026
820.428	14204
820.525	13495
820.623	10894
820.720	8772
820.818	8657
820.915	8192
821.012	6754
821.110	5880
821.207	5329
821.304	4575
821.402	4751
821.499	5808
821.596	3768
821.693	4400
821.791	3682
821.888	4363
821.985	7315
822.082	5931
822.179	3582
822.276	3650
822.373	3023
822.470	2737
822.567	2531
822.664	1810
822.761	3102
822.858	1246
822.955	2196
823.052	1902
823.149	1808
823.246	1915
823.343	1907
823.440	2463
823.536	1201
823.633	1169
823.730	657
823.827	2375
823.923	720
824.020	2805
824.117	365
824.213	331
824.310	1485
824.407	1033
824.503	1924
824.600	1579
824.696	1331
824.793	2087
824.889	77
824.986	1153
825.082	-70
825.179	2054
825.275	1166
825.371	915
825.468	847
825.564	255
825.660	270
825.757	1098
825.853	1290
825.949	106
826.045	1013
826.142	728
826.238	130
826.334	629
826.430	-240
826.526	874
826.622	53
826.718	566
826.814	-330
826.910	1365
827.006	-160
827.102	152
827.198	1359
827.294	605
827.390	-373
827.486	1471
827.582	-1007
827.678	-747
827.774	1173
827.869	-291
827.965	1509
828.061	-346
828.157	137
828.252	1188
828.348	-256
828.444	834
828.539	-808
828.635	236
828.731	1136
828.826	426
828.922	528
829.017	884
829.113	178
829.208	480
829.304	-256
829.399	1571
829.495	-109
829.590	1142
829.685	-310
829.781	602
829.876	-78
829.971	170
830.066	-826
830.162	623
830.257	-228
830.352	-513
830.447	956
830.543	625
830.638	-1300
830.733	1696
830.828	-190
830.923	946
831.018	-176
831.113	-10
831.208	-1292
831.303	522
831.398	-224
831.493	385
831.588	-637
831.683	-36
831.778	-53
831.873	273
831.967	346
832.062	-226
832.157	-434
832.252	921
832.346	196
832.441	1237
832.536	2045
832.631	5883
832.725	3497
832.820	28
832.914	-33
833.009	0
833.104	140
833.198	1204
833.293	-644
833.387	1952
833.482	-178
833.576	-283
833.670	633
833.765	488
833.859	-714
833.954	776
834.048	324
834.142	297
834.237	-725
834.331	91
834.425	682
834.519	-463
834.613	-382
834.708	833
834.802	228
834.896	-131
834.990	-166
835.084	823
835.178	-126
835.272	131
835.366	-302
835.460	724
835.554	-192
835.648	257
835.742	-585
835.836	458
835.930	-1361
836.024	743
836.117	730
836.211	61
836.305	395
836.399	677
836.493	-1045
836.586	1580
836.680	-1429
836.774	-303
836.867	1161
836.961	-735
837.055	-549
837.148	125
837.242	-217
837.335	-149
837.429	-853
837.522	142
837.616	-83
837.709	1117
837.803	-633
837.896	1118
837.989	-682
838.083	936
838.176	222
838.269	526
838.363	1004
838.456	189
838.549	1810
838.642	2709
838.735	5754
838.829	3262
838.922	-491
839.015	286
839.108	-492
839.201	122
839.294	-212
839.387	1152
839.480	-1324
839.573	647
839.666	-706
839.759	-110
839.852	-257
839.945	327
840.038	-811
840.131	173
840.223	-928
840.316	338
840.409	-294
840.502	-1097
840.594	606
840.687	-371
840.780	343
840.873	202
840.965	-860
841.058	-104
841.150	1368
841.243	-495
841.336	184
841.428	220
841.521	-414
841.613	-369
841.706	-286
841.798	-390
841.890	-318
841.983	-1033
842.075	713
842.167	-170
842.260	-1159
842.352	1167
842.444	-15
842.537	1405
842.629	592
842.721	329
842.813	-448
842.905	-1004
842.997	-537
843.090	-139
843.182	-594
843.274	-69
843.366	1350
843.458	3784
843.550	1899
843.642	-195
843.734	-82
843.826	606
843.918	-119
844.009	-45
844.101	-459
844.193	-156
844.285	-412
844.377	-20
844.469	11
844.560	-562
844.652	-137
844.744	-380
844.835	-687
844.927	558
845.019	-1428
845.110	-397
845.202	-340
845.293	-42
845.385	-431
845.476	168
845.568	-394
845.659	155
845.751	-322
845.842	349
845.934	-1014
846.025	145
846.116	-247
846.208	-309
846.299	-1147
846.390	-63
846.482	-631
846.573	516
846.664	-259
846.755	959
846.846	915
846.937	-921
847.029	-664
847.120	-858
847.211	-550
847.302	406
847.393	-964
847.484	598
847.575	-952
847.666	-312
847.757	-996
847.847	145
847.938	-463
848.029	285
848.120	-1344
848.211	-823
848.302	-508
848.392	-490
848.483	-332
848.574	-357
848.664	-504
848.755	-384
848.846	191
848.936	-1080
849.027	-249
849.118	-369
849.208	-1197
849.299	8
849.389	-580
849.480	1080
849.570	1700
849.661	4316
849.751	7040
849.841	1727
849.932	-91
850.022	203
850.112	-617
850.203	-230
850.293	-651
850.383	54
850.474	-1773
850.564	-249
850.654	-318
850.744	-28
850.834	-692
850.924	-116
851.014	-645
851.104	252
851.194	-869
851.284	647
851.374	681
851.464	-297
851.554	-942
851.644	-76
851.734	-242
851.824	-363
851.914	-1957
852.004	-451
852.094	-280
852.183	145
852.273	-706
852.363	-331
852.452	-1165
852.542	-474
852.632	-670
852.721	-385
852.811	-1233
852.901	398
852.990	-1073
853.080	-312
853.169	-773
853.259	-1124
853.348	-1263
853.438	-70
853.527	-19
853.617	369
853.706	1139
853.795	3419
853.885	8041
853.974	17019
854.063	30119
854.152	53052
854.242	17523
854.331	2525
854.420	1066
854.509	414
854.598	-313
854.687	-990
854.777	-49
854.866	414
854.955	-252
855.044	179
855.133	-1589
855.222	-29
855.311	-663
855.400	219
855.488	-575
855.577	-38
855.666	-161
855.755	460
855.844	-90
855.933	44
856.021	-78
856.110	223
856.199	-2026
856.288	-770
856.376	-222
856.465	-431
856.554	-1084
856.642	-792
856.731	-967
856.819	-685
856.908	-1200
856.996	-570
857.085	-555
857.173	-205
857.262	-478
857.350	-212
857.438	-794
857.527	-961
857.615	-742
857.703	-165
857.792	-948
857.880	269
857.968	-884
858.056	-259
858.145	-214
858.233	-740
858.321	-1277
858.409	377
858.497	-1060
858.585	-440
858.673	-542
858.761	-1317
858.849	-1532
858.937	87
859.025	-1450
859.113	-353
859.201	-874
859.289	-27
859.377	-1373
859.465	-613
859.552	-2090
859.640	-677
859.728	-995
859.816	-781
859.903	-1015
859.991	-251
860.079	-859
860.166	-568
860.254	-1256
860.342	-79
860.429	-1480
860.517	-655
860.604	-95
860.692	-267
860.779	-1066
860.867	-703
860.954	-1279
861.042	187
861.129	-475
861.216	-199
861.304	-812
861.391	-219
861.478	-731
861.565	-938
861.653	-802
861.740	-595
861.827	-1142
861.914	-378
862.001	-820
862.089	-657
862.176	-1705
862.263	-458
862.350	-742
862.437	-1197
862.524	-1386
862.611	-915
862.698	-885
862.785	88
862.871	-774
862.958	-1277
863.045	-1028
863.132	-82
863.219	-1369
863.306	-1184
863.392	-158
863.479	-610
863.566	-971
863.652	34
863.739	-1014
863.826	28
863.912	-573
863.999	-881
864.086	-1055
864.172	-762
864.259	-945
864.345	-740
864.432	-648
864.518	157
864.604	-642
864.691	-560
864.777	-441
864.863	112
864.950	-1442
865.036	-846
865.122	-402
865.209	-192
865.295	-808
865.381	-371
865.467	-651
865.553	-34
865.639	-310
865.726	1407
865.812	3225
865.898	8437
865.984	10959
866.070	24279
866.156	25908
866.242	5783
866.328	558
866.414	-470
866.499	70
866.585	540
866.671	-890
866.757	-164
866.843	-944
866.928	-633
867.014	-1062
867.100	-906
867.186	-798
867.271	-29
867.357	137
867.442	-120
867.528	-329
867.614	-88
867.699	-327
867.785	-331
867.870	-1208
867.956	-716
868.041	-987
868.127	740
868.212	-977
868.297	194
868.383	-287
868.468	1534
868.553	1202
868.639	2188
868.724	6156
868.809	6053
868.894	668
868.979	-398
869.065	-849
869.150	-413
869.235	-1269
869.320	-424
869.405	-1094
869.490	-695
869.575	-1609
869.660	-396
869.745	-178
869.830	-743
869.915	-880
870.000	-348
870.085	-1299
870.169	-593
870.254	-1067
870.339	-539
870.424	-984
870.509	-599
870.593	-536
870.678	-397
870.763	-900
870.847	-160
870.932	-1578
871.016	181
871.101	-1715
871.186	73
871.270	-599
871.355	-162
871.439	-725
871.523	-422
871.608	-2003
871.692	-334
871.777	-950
871.861	-4
871.945	-864
872.030	-901
872.114	-1495
872.198	-806
872.282	-843
872.367	-188
872.451	-1309
872.535	-775
872.619	-887
872.703	-754
872.787	-1107
872.871	-505
872.955	-907
873.039	-729
873.123	-1216
873.207	99
873.291	-1888
873.375	-685
873.459	-1037
873.543	-231
873.627	-618
873.711	-1007
873.794	-1064
873.878	-1365
873.962	-1827
874.045	-724
874.129	-1538
874.137	-1529
874.213	-1440
874.245	-1510
874.296	-1620
874.352	-913
874.380	-571
874.460	-906
874.464	-920
874.547	-834
874.568	-934
874.631	-1237
874.676	-1208
874.714	-1195
874.784	-775
874.798	-681
874.881	627
874.892	399
874.965	-1200
874.999	-802
875.048	-272
875.107	-1489
875.131	-1978
875.215	-746
875.215	-745
875.298	-579
875.323	-539
875.381	-431
875.430	-431
875.465	-422
875.538	-160
875.548	-128
875.631	-441
875.646	-441
875.714	-467
875.753	-692
875.798	-912
875.861	-372
875.881	-224
875.964	-684
875.968	-670
876.047	-262
876.076	-342
876.130	-607
876.183	-571
876.213	-509
876.291	-509
876.296	-511
876.379	-416
876.398	-596
876.462	-1143
876.506	-979
876.545	-848
876.613	-863
876.628	-884
876.711	-709
876.721	-688
876.794	-475
876.828	-651
876.877	-806
876.935	-380
876.960	-258
877.043	-623
877.043	-624
877.125	-737
877.150	-492
877.208	41
877.258	-318
877.291	-491
877.365	-136
877.374	-107
877.456	-643
877.472	-515
877.539	-32
877.579	-292
877.622	-543
877.687	266
877.704	514
877.787	-535
877.794	-524
877.869	-398
877.901	-94
877.952	242
878.008	-167
878.034	-268
878.115	-574
878.117	-585
878.199	-762
878.222	-789
878.282	-729
878.329	-393
878.364	-170
878.437	-13
878.447	11
878.529	-373
878.544	-476
878.611	-920
878.651	-306
878.694	350
878.758	-164
878.776	-320
878.858	-694
878.865	-707
878.941	-917
878.972	-639
879.023	-74
879.078	-510
879.105	-676
879.185	-146
879.187	-141
879.269	-826
879.292	-717
879.351	-193
879.399	-346
879.433	-516
879.506	-268
879.516	-245
879.598	-902
879.613	-856
879.680	-608
879.720	-586
879.762	-587
879.827	-341
879.844	-250
879.926	-793
879.933	-767
880.007	-414
880.040	-363
880.089	-190
880.147	350
880.171	412
880.253	1445
880.254	1453
880.335	3026
880.360	3244
880.417	3561
880.467	5512
880.499	6858
880.574	8083
880.580	8093
880.662	2894
880.680	2112
880.744	-313
880.787	-675
880.825	-822
880.893	-1033
880.907	-1076
880.989	161
881.000	92
881.070	-655
881.106	-786
881.152	-783
881.213	-722
881.233	-722
881.315	-782
881.319	-758
881.396	180
881.426	173
881.478	-544
881.532	-999
881.559	-881
881.639	-383
881.641	-384
881.722	-709
881.745	-645
881.803	-42
881.852	-248
881.885	-633
881.958	-62
881.966	23
882.047	-19
882.064	24
882.129	251
882.171	149
882.210	24
882.277	707
882.291	857
882.372	-29
882.383	-69
882.454	-549
882.489	-601
882.535	-411
882.596	-216
882.616	-237
882.697	-358
882.702	-375
882.778	-605
882.808	-544
882.859	-403
882.914	-338
882.940	-209
883.020	-398
883.021	-399
883.102	-127
883.127	-204
883.183	-572
883.233	-507
883.264	-350
883.339	-637
883.345	-676
883.426	-487
883.445	-516
883.507	-332
883.551	-191
883.587	-125
883.657	-323
883.668	-343
883.749	196
883.763	100
883.830	-396
883.869	-138
883.910	-83
883.975	-590
883.991	-618
884.072	-245
884.081	-297
884.152	-674
884.187	-457
884.233	-156
884.292	-261
884.314	-359
884.394	-121
884.398	-146
884.475	-276
884.504	-122
884.555	30
884.610	-108
884.636	-248
884.716	-314
884.716	-310
884.797	-221
884.821	-172
884.877	3
884.927	96
884.958	-48
885.033	-252
885.038	-249
885.118	-619
885.139	-553
885.199	135
885.244	404
885.279	143
885.350	-375
885.359	-354
885.439	-170
885.456	-155
885.520	-322
885.561	-357
885.600	-259
885.667	116
885.680	229
885.760	476
885.773	577
885.840	359
885.878	-99
885.920	-134
885.984	245
886.000	216
886.080	-166
886.089	-201
886.160	97
886.195	202
886.240	-90
886.300	-380
886.320	-254
886.400	204
886.406	235
886.480	35
886.511	-116
886.560	3
886.616	215
886.640	216
886.720	88
886.722	81
886.800	-292
886.827	-380
886.879	-230
886.932	-56
886.959	52
887.038	158
887.039	161
887.119	29
887.143	-43
887.198	-28
887.248	56
887.278	158
887.354	266
887.358	248
887.437	-215
887.459	-337
887.517	105
887.564	514
887.596	448
887.669	140
887.676	82
887.755	-608
887.774	-806
887.835	-694
887.880	-429
887.914	-426
887.985	-761
887.994	-748
888.073	-392
888.090	-348
888.153	-206
888.195	-43
888.232	-12
888.300	-51
888.311	-45
888.391	40
888.405	44
888.470	36
888.510	40
888.549	-164
888.615	-506
888.628	-545
888.708	-793
888.720	-819
888.787	-71
888.825	321
888.866	110
888.930	-245
888.945	-257
889.024	-295
889.035	-299
889.103	-175
889.140	-111
889.182	-115
889.245	-147
889.261	-93
889.340	190
889.349	220
889.419	650
889.454	865
889.498	400
889.559	-269
889.577	-273
889.656	-262
889.664	-260
889.735	41
889.768	191
889.814	109
889.873	-1
889.978	465
890.083	126
890.187	648
890.292	1023
890.397	114
890.501	125
890.606	-456
890.710	747
890.815	-335
890.919	-505
891.024	-519
891.128	-437
891.233	-411
891.337	69
891.442	-253
891.546	133
891.650	-200
891.755	55
891.859	985
891.963	706
892.068	552
892.172	137
892.276	-117
892.380	354
892.484	-272
892.589	442
892.693	-31
892.797	-429
892.901	756
893.005	-297
893.109	251
893.213	581
893.317	137
893.421	228
893.525	-241
893.629	554
893.733	71
893.837	230
893.941	-558
894.045	492
894.148	-97
894.252	-128
894.356	-466
894.460	1046
894.564	74
894.667	230
894.771	180
894.875	447
894.978	-60
895.082	-227
895.186	-709
895.289	10
895.393	187
895.496	-527
895.600	289
895.703	-61
895.807	391
895.910	149
896.014	-728
896.117	-809
896.221	489
896.324	283
896.427	-404
896.531	202
896.634	257
896.737	-187
896.840	67
896.944	20
897.047	-291
897.150	-547
897.253	-465
897.356	41
897.460	137
897.563	-272
897.666	21
897.769	10
897.872	-48
897.975	-872
898.078	-281
898.181	532
898.284	-842
898.387	-176
898.490	339
898.593	-529
898.695	112
898.798	47
898.901	359
899.004	191
899.107	-458
899.209	247
899.312	-27
899.415	290
899.518	554
899.620	-286
899.723	263
899.826	383
899.928	-67
900.031	-583
900.133	109
900.236	783
900.338	-444
900.441	-266
900.543	-659
900.646	-227
900.748	-468
900.851	-53
900.953	-231
901.055	880
901.158	-139
901.260	-3
901.362	252
901.465	-848
901.567	37
901.669	-472
901.771	-790
901.873	115
901.976	-540
902.078	147
902.180	-500
902.282	-320
902.384	-891
902.486	196
902.588	-34
902.690	699
902.792	-1
902.894	179
902.996	419
903.098	-362
903.200	-595
903.302	886
903.404	-157
903.505	-342
903.607	693
903.709	609
903.811	413
903.913	-420
904.014	-301
904.116	-704
904.218	-549
904.319	193
904.421	-862
904.523	-68
904.624	-521
904.726	650
904.827	-435
904.929	-1182
905.030	-370
905.132	595
905.233	-571
905.335	7
905.436	199
905.537	-551
905.639	-858
905.740	-237
905.841	-178
905.943	632
906.044	-382
906.145	-191
906.247	-575
906.348	-753
906.449	128
906.550	-392
906.651	-53
906.752	-627
906.854	-791
906.955	170
907.056	50
907.157	753
907.258	361
907.359	-362
907.460	-228
907.561	-23
907.662	-21
907.762	-188
907.863	-1666
907.964	-374
908.065	-10
908.166	-608
908.267	-116
908.367	-21
908.468	-156
908.569	105
908.670	-396
908.770	-227
908.871	107
908.971	-411
909.072	92
909.173	-615
909.273	-282
909.374	-606
909.474	-672
909.575	-62
909.675	-448
909.776	138
909.876	-440
909.977	-676
910.077	514
910.177	91
910.278	-543
910.378	-414
910.478	-129
910.579	147
910.679	-519
910.779	257
910.879	-46
910.980	-607
911.080	-61
911.180	-753
911.280	-890
911.380	34
911.480	196
911.580	-778
911.680	-1166
911.780	-164
911.880	55
911.980	356
912.080	229
912.180	426
912.280	-123
912.380	-135
912.480	-384
912.580	-48
912.679	-457
912.779	-330
912.879	-420
912.979	-962
913.078	-544
913.178	576
913.278	97
913.377	-395
913.477	-422
913.577	-655
913.676	-80
913.776	-816
913.875	219
913.975	-658
914.074	-414
914.174	-358
914.273	-1084
914.373	-7
914.472	8
914.572	-356
914.671	-271
914.770	-1591
914.870	-197
914.969	-468
915.068	-143
915.167	-41
915.267	-659
915.366	-116
915.465	-166
915.564	-175
915.663	-401
915.763	-666
915.862	-636
915.961	-150
916.060	-549
916.159	-982
916.258	-897
916.357	-237
916.456	-99
916.555	-975
916.654	-1043
916.752	-244
916.851	-1059
916.950	171
917.049	-502
917.148	-357
917.247	-143
917.345	-172
917.444	-842
917.543	-421
917.642	-284
917.740	98
917.839	-38
917.937	-326
918.036	-592
918.135	-49
918.233	-522
918.332	-154
918.430	-144
918.529	-416
918.627	-936
918.726	-964
918.824	-621
918.923	-709
919.021	437
919.119	-968
919.218	75
919.316	-606
919.414	-749
919.512	428
919.611	-502
919.709	-358
919.807	-409
919.905	-550
920.003	-86
920.102	-32
920.200	-471
920.298	277
920.396	-333
920.494	-610
920.592	-1206
920.690	538
920.788	-629
920.886	44
920.984	-428
921.082	-941
921.180	-138
921.277	-673
921.375	-493
921.473	-687
921.571	-460
921.669	-433
921.766	-15
921.864	-877
921.962	82
922.060	-70
922.157	-501
922.255	-669
922.352	-4
922.450	45
922.548	-448
922.645	63
922.743	-546
922.840	-265
922.938	532
923.035	68
923.133	45
923.230	-1044
923.327	-555
923.425	119
923.522	115
923.619	-581
923.717	-512
923.814	-84
923.911	-535
924.008	231
924.106	-510
924.203	-695
924.300	-305
924.397	573
924.494	323
924.591	-406
924.688	-704
924.786	-341
924.883	-346
924.979	-539
925.077	-588
925.173	-18
925.270	-169
925.367	-158
925.464	-1422
925.561	-576
925.658	-830
925.755	-894
925.852	-262
925.948	-255
926.045	-135
926.142	-1077
926.239	-1583
926.335	-1034
926.432	-193
926.529	-539
926.625	299
926.722	-771
926.818	-308
926.915	-190
927.011	-973
927.108	-565
927.204	10
927.301	-290
927.397	-449
927.494	-204
927.590	3
927.687	-129
927.783	-181
927.879	-302
927.976	127
928.072	-829
928.168	-350
928.264	-967
928.361	265
928.457	-781
928.553	-631
928.649	-394
928.745	-252
928.841	-640
928.937	-272
929.033	-453
929.129	-657
929.225	-635
929.321	23
929.417	-189
929.513	-321
929.609	-350
929.705	-380
929.801	-362
929.897	-960
929.993	-23
930.089	-233
930.184	-66
930.280	-783
930.376	-1120
930.471	-723
930.567	-431
930.663	489
930.758	-73
930.854	-648
930.950	-991
931.045	-461
931.141	-651
931.236	-262
931.332	-1141
931.427	-359
931.523	-362
931.618	13
931.714	-1263
931.809	-584
931.905	-235
932.000	-147
932.095	-261
932.191	-434
932.286	-1458
932.381	-659
932.476	-969
932.572	-908
932.667	104
932.762	-100
932.857	-416
932.952	-260
933.047	-578
933.142	-121
933.237	5
933.332	-1492
933.427	-324
933.522	-601
933.617	-1006
933.712	-229
933.807	-160
933.902	-863
933.997	-560
934.092	-443
934.187	31
934.282	-862
934.376	-1551
934.471	145
934.566	-1257
934.661	-451
934.755	-333
934.850	-1220
934.945	-2
935.039	-455
935.134	-80
935.228	-750
935.323	-199
935.417	-471
935.512	-79
935.606	-519
935.701	-972
935.795	-536
935.890	-1139
935.984	-996
936.079	-1439
936.173	416
936.267	-416
936.362	-689
936.456	-250
936.550	-823
936.644	-891
936.738	-505
936.833	-672
936.927	-964
937.021	-1227
937.115	-1095
937.209	-1552
937.303	-27
937.397	-1332
937.491	-304
937.585	-487
937.679	-275
937.773	-93
937.867	-626
937.961	-1074
938.055	-547
938.149	-885
938.243	-356
938.337	-618
938.430	-407
938.524	-744
938.618	-1298
938.712	-712
938.805	-976
938.899	-681
938.993	-1146
939.086	-266
939.180	-682
939.274	-964
939.367	-689
939.461	-689
939.554	-717
939.648	-734
939.741	-594
939.835	-447
939.928	-586
940.022	-275
940.115	-631
940.208	-287
940.302	-747
940.395	-567
940.488	-829
940.582	-150
940.675	-1339
940.768	-475
940.861	-87
940.954	-879
941.048	-437
941.141	-540
941.234	-822
941.327	-618
941.420	-676
941.513	-741
941.606	-1266
941.699	-73
941.792	-1154
941.885	-1420
941.978	-41
942.071	-965
942.164	-1383
942.257	-849
942.349	-747
942.442	-96
942.535	-1337
942.628	-207
942.721	-1371
942.813	-1052
942.906	-850
942.999	118
943.091	-1665
943.184	-713
943.277	-734
943.369	-1097
943.462	-753
943.554	-457
943.647	-449
943.739	-227
943.832	-798
943.924	-1204
944.017	-827
944.109	-1427
944.201	-1026
944.294	-686
944.386	-1061
944.478	-1739
944.571	-649
944.663	-596
944.755	-746
944.847	-545
944.940	-212
945.032	-1437
945.124	-894
945.216	-285
945.308	-1335
945.400	-594
945.492	-1243
945.584	-581
945.676	-817
945.768	-1600
945.860	-90
945.952	-721
946.044	-369
946.136	-1557
946.228	-1215
946.320	-995
946.412	-897
946.503	-1457
946.595	-208
946.687	-1781
946.779	-672
946.870	-386
946.962	-1171
947.054	-947
947.145	-540
947.237	-441
947.329	-663
947.420	-1180
947.512	-1275
947.603	-940
947.695	-1098
947.786	-747
947.878	-1958
947.969	-1366
948.061	-1838
948.152	-1499
948.243	-895
948.335	-838
948.426	-2115
948.517	-568
948.609	-254
948.700	-482
948.791	-542
948.882	-1018
948.973	-1161
949.065	-1555
949.156	-905
949.247	-1818
949.338	-249
949.429	-1780
949.520	-953
949.611	-2011
949.702	-571
949.793	-202
949.884	-1753
949.975	-662
950.066	-1840
950.157	-1117
950.247	-1316
950.338	-74
950.429	-1405
950.520	-1221
950.611	-1261
950.701	-969
950.792	-973
950.883	-250
950.973	-922
951.064	-875
951.155	-1124
951.245	-741
951.336	-189
951.427	-1931
951.517	-344
951.608	-1168
951.698	-780
951.788	-1659
951.879	-1547
951.969	-923
952.060	-1117
952.150	-968
952.240	-1005
952.331	-2218
952.421	133
952.511	-1553
952.602	-968
952.692	-1176
952.782	-1461
952.872	-901
952.962	-1458
953.052	-944
953.143	-955
953.233	-1077
953.323	-939
953.413	-1645
953.503	-756
953.593	-1031
953.683	-616
953.773	-1913
953.863	-1504
953.953	-615
954.042	-747
954.132	-1527
954.222	-591
954.312	-1153
954.402	-824
954.492	-1220
954.581	-1341
954.671	-1145
954.761	-1241
954.850	-1041
954.940	-1411
955.030	-995
955.119	-1749
955.209	-597
955.298	-1968
955.388	-1366
955.477	-568
955.567	-1512
955.656	116
955.746	-617
955.835	-844
955.925	-925
956.014	-845
956.103	-1757
956.193	-761
956.282	-1310
956.371	-646
956.461	-907
956.550	-1219
956.639	-575
956.728	-948
956.817	-828
956.906	-1999
956.995	-1276
957.085	-955
957.174	-890
957.263	-1620
957.352	-609
957.441	-1324
957.530	-1062
957.619	-1219
957.708	-1025
957.796	-929
957.885	-731
957.974	-839
958.063	-543
958.152	-1947
958.241	-847
958.329	-1026
958.418	-1132
958.507	-1570
958.596	-1031
958.684	-848
958.773	-321
958.861	-959
958.950	-1044
959.039	-1038
959.127	-809
959.216	-73
959.304	-760
959.393	-1409
959.481	-652
959.570	-1029
959.658	-1669
959.746	-602
959.835	-1318
959.923	-1587
960.011	-1232
960.100	-533
960.188	-982
960.276	-1840
960.365	-1311
960.453	-810
960.541	-1881
960.629	-347
960.717	-933
960.805	-2029
960.893	-982
960.981	-1840
961.069	-40
961.158	-1574
961.245	-172
961.333	-1015
961.421	-1149
961.509	-1040
961.597	-1242
961.685	-45
961.773	-859
961.861	-1277
961.949	-1110
962.036	-1944
962.124	-771
962.212	-769
962.299	-130
962.387	-1693
962.475	-717
962.562	-2249
962.650	-813
962.738	-1359
962.825	-1679
962.913	-590
963.000	-887
963.088	-1385
963.175	-680
963.263	-638
963.350	-1529
963.438	-1465
963.525	-1325
963.612	-1483
963.700	-1555
963.787	124
963.874	-639
963.962	-618
964.049	-1288
964.136	-1214
964.223	-1636
964.310	-657
964.398	-1646
964.485	-1606
964.572	-1180
964.659	-191
964.746	-694
964.833	-1492
964.920	-876
965.007	-1267
965.094	-434
965.181	-1336
965.268	-972
965.355	-1246
965.441	-1711
965.528	-2395
965.615	-330
965.702	-1366
965.789	-1520
965.875	-726
965.962	-1368
966.049	-1802
966.136	-1264
966.222	-1748
966.309	-748
966.395	-1863
966.482	-1105
966.569	-1684
966.655	-1134
966.742	-1523
966.828	-1249
966.915	-1338
967.001	-982
967.087	-1695
967.174	-1589
967.260	-569
967.347	-563
967.433	-1320
967.519	164
967.605	-1692
967.692	-887
967.778	-1019
967.864	-1154
967.950	-1263
968.036	-2232
968.123	-1599
968.209	-1502
968.295	-1618
968.381	235
968.467	-543
968.553	-1759
968.639	-563
968.725	-2717
968.811	-793
968.897	-1725
968.983	-1063
969.069	-1993
969.154	-858
969.240	-68
969.326	-778
969.412	-1035
969.497	-1286
969.583	-1169
969.669	268
969.755	-880
969.840	-1891
969.926	-1339
970.012	-1244
970.097	-113
970.183	-1361
970.268	-1960
970.354	-728
970.439	-1527
970.525	177
970.610	-2268
970.696	-415
970.781	-542
970.866	-2325
970.952	-472
971.037	-1472
971.122	-1179
971.208	-1124
971.293	-793
971.378	-2403
971.463	-753
971.549	-1266
971.634	-352
971.719	-961
971.804	-1991
971.889	-487
971.974	-1900
972.059	-1991
972.144	-808
972.229	-920
972.314	-828
972.399	-1728
972.484	-1338
972.569	-1259
972.654	-2143
972.739	-72
972.824	-1709
972.908	-927
972.993	-1274
973.078	-1275
973.163	-1717
973.247	-689
973.332	-2905
973.417	380
973.501	-1567
973.586	-851
973.671	-1541
973.755	-914
973.840	-1415
973.924	-713
974.009	-1685
974.093	-1683
974.178	-143
974.262	-1937
974.346	-2116
974.431	-1028
974.515	-787
974.600	-1375
974.684	-800
974.768	-631
974.852	-540
974.937	-1967
975.021	-574
975.105	-1716
975.189	-1054
975.273	-642
975.358	-1554
975.442	-1199
975.526	-315
975.610	-2232
975.694	-1702
975.778	127
975.862	-1381
975.946	-2143
976.030	166
976.114	-1411
976.198	-1095
976.281	-1670
976.365	-592
976.449	-1430
976.533	-198
976.617	-1411
976.700	-987
976.784	-856
976.868	-1463
976.951	-747
977.035	-1383
977.119	-773
977.202	-1056
977.286	-1368
977.369	-989
977.453	-853
977.536	-945
977.620	-1507
977.703	-615
977.787	-1898
977.870	-765
977.953	-539
978.037	-2622
978.120	-299
978.203	-1547
978.287	-1276
978.370	-1266
978.453	-1510
978.536	-1331
978.620	-333
978.703	-886
978.786	-1731
978.869	-1741
978.952	-1689
979.035	-601
979.118	-780
979.201	-1570
979.284	-308
979.367	-1715
979.450	-479
979.533	-1538
979.616	-1268
979.699	-1808
979.782	-1905
979.865	-1238
979.948	-1315
980.030	-1172
980.113	-1243
980.196	-1271
980.279	-894
980.361	-1361
980.444	-1382
980.526	-1206
980.609	-1725
980.692	-2356
980.774	-862
980.857	-1910
980.939	-368
981.022	-2233
981.104	-1618
981.187	-1077
981.269	-1236
981.352	-668
981.434	-2544
981.516	-1485
981.599	-1030
981.681	-654
981.763	-874
981.846	-617
981.928	-1328
982.010	-2378
982.092	-1785
982.174	-740
982.256	-1740
982.339	-1594
982.421	-1747
982.503	-1088
982.585	-2185
982.667	-1201
982.749	-1399
982.831	-811
982.913	-2539
982.995	-7
983.077	-1952
983.158	-158
983.240	-1978
983.322	-1173
983.404	-651
983.486	-2468
983.568	-1068
983.649	-875
983.731	-867
983.813	-1268
983.894	-1441
983.976	-1740
984.058	-1563
984.139	-989
984.221	-2382
984.302	-968
984.384	-1870
984.465	-1808
984.547	-1336
984.628	-1512
984.710	-1597
984.791	-1842
984.872	-2194
984.954	-1813
985.035	-1554
985.116	-1333
985.198	-1496
985.279	842
985.360	-1524
985.441	-2018
985.522	-844
985.604	-2078
985.685	-2461
985.766	-1037
985.847	-206
985.928	-2080
986.009	-1717
986.090	-863
986.171	-1222
986.252	-1762
986.333	-1693
986.414	-1540
986.495	-1016
986.576	-1082
986.656	-805
986.737	-1002
986.818	-1835
986.899	-2467
986.980	-2062
987.060	-768
987.141	-2092
987.222	-992
987.302	-1635
987.383	-1788
987.464	-1186
987.544	-895
987.625	-2147
987.705	-1273
987.786	-1487
987.866	-1579
987.947	-1037
988.027	-1349
988.108	-1951
988.188	-794
988.268	-835
988.349	-741
988.429	-2328
988.509	-808
988.589	-1458
988.670	-2910
988.750	-349
988.830	-1081
988.910	-1148
988.990	-1890
989.070	-1124
989.151	-716
989.231	-1293
989.311	-758
989.391	-1500
989.471	-1033
989.551	-2033
989.631	-1738
989.711	-1075
989.791	-2630
989.870	-2189
989.950	-835
990.030	-1811
990.110	-1584
990.190	-2131
990.269	-1553
990.349	-1246
990.429	-1212
990.509	-1370
990.588	-2553
990.668	-1399
990.747	-1417
990.827	-1254
990.907	-594
990.986	-1484
991.066	-1894
991.145	-1939
991.225	-1180
991.304	-1708
991.383	-1418
991.463	-1721
991.542	-995
991.622	-1546
991.701	-1990
991.780	-1366
991.859	-1507
991.939	-2019
992.018	-1514
992.097	-1371
992.176	-1397
992.256	-1962
992.335	-2017
992.414	-770
992.493	-1887
992.572	-1808
992.651	-353
992.730	-1508
992.809	-1584
992.888	-2374
992.967	-1228
993.046	-817
993.125	-2179
993.203	-2000
993.282	-1835
993.361	-1633
993.440	-1117
993.519	-1764
993.597	-915
993.676	-1700
993.755	-972
993.834	-1507
993.912	-2150
993.991	-309
994.069	-2160
994.148	-1328
994.226	-1443
994.305	-1828
994.384	-1669
994.462	-964
994.540	-1198
994.619	-1834
994.697	-1290
994.776	-2154
994.854	-1001
994.932	-1729
995.011	-800
995.089	-2079
995.167	-1757
995.245	-1558
995.324	-2000
995.402	-1444
995.480	-1566
995.558	-1355
995.636	-1616
995.714	-1844
995.792	-677
995.870	-2117
995.948	-2048
996.026	-1643
996.104	-2869
996.182	-1206
996.260	-2084
996.338	-1670
996.416	-2814
996.494	-2005
996.572	-783
996.649	-1614
996.727	-2184
996.805	-1195
996.883	-1314
996.960	-2043
997.038	-1247
997.116	-1134
997.193	-1732
997.271	-786
997.348	-2014
997.426	-1697
997.504	-1300
997.581	-580
997.658	-752
997.736	-2147
997.813	-2308
997.891	-541
997.968	-1693
998.046	-942
998.123	-1872
998.200	-1280
998.277	-2595
998.355	-1443
998.432	-1977
998.509	-1743
998.586	-768
998.663	-946
998.741	-1294
998.818	-1709
998.895	-2211
998.972	-1862
999.049	-1844
999.126	-1754
999.203	-858
999.280	-1743
999.357	-2191
999.434	-1744
999.511	-828
999.587	-568
999.664	-2066
999.741	-1081
999.818	-1641
999.895	-1886
999.971	-833
1000.048	-1698
1000.125	-1077
1000.202	-2111
1000.278	-855
1000.355	-1336
1000.431	-1877
1000.508	-2472
1000.584	-1291
1000.661	-849
1000.738	-2733
1000.814	-2072
1000.890	-744
1000.967	-1350
1001.043	-1349
1001.120	-2113
1001.196	-1695
1001.272	-2186
1001.349	-1482
1001.425	-716
1001.501	-1635
1001.577	-2191
1001.654	-1908
1001.730	-1668
1001.806	-1211
1001.882	-3215
1001.958	-1867
1002.034	-1528
1002.110	-1202
1002.186	-2202
1002.262	-2053
1002.338	-2589
1002.414	-1097
1002.490	-1584
1002.566	-2327
1002.642	-1840
1002.718	-1335
1002.794	-2206
1002.870	-2587
1002.945	-1796
1003.021	-1443
1003.097	-2014
1003.173	-1143
1003.248	-1534
1003.324	-1566
1003.400	-1724
1003.475	-2092
1003.551	-1650
1003.626	-1303
1003.702	-2152
1003.777	-2261
1003.853	-2310
1003.928	-1653
1004.004	-836
1004.079	-2003
1004.155	-2424
1004.230	-1576
1004.305	-1872
1004.381	-1619
1004.456	-2428
1004.531	-2045
1004.607	-1564
1004.682	-2283
1004.757	-1614
1004.832	-1755
1004.907	-2416
1004.982	-1702
1005.057	-1418
1005.133	-1746
1005.208	-2101
1005.283	-2009
1005.358	-1021
1005.433	-2341
1005.508	-1660
1005.583	-2357
1005.657	-1842
1005.732	-2193
1005.807	-2560
1005.882	-1816
1005.957	-1450
1006.032	-1611
1006.106	-2025
1006.181	-1975
1006.256	-1342
1006.331	-2369
1006.405	-1816
1006.480	-1155
1006.554	-2772
1006.629	-1830
1006.704	-2070
1006.778	-1176
1006.853	-1226
1006.927	-2245
1007.002	-1238
1007.076	-1820
1007.150	-2574
1007.225	-1828
1007.299	-1940
1007.373	-1999
1007.448	-1664
1007.522	-1736
1007.596	-1304
1007.671	-2061
1007.745	-1578
1007.819	-1691
1007.893	-2790
1007.967	-1604
1008.041	-2168
1008.115	-687
1008.190	-2516
1008.264	-1324
1008.338	-2048
1008.412	-2538
1008.486	-1753
1008.560	-2241
1008.633	-2689
1008.707	-1998
1008.781	-1948
1008.855	-1944
1008.929	-1601
1009.003	-3047
1009.076	-1437
1009.150	-1864
1009.224	-2102
1009.298	-1167
1009.371	-2585
1009.445	-1925
1009.519	-1398
1009.592	-2792
1009.666	-2218
1009.739	-1971
1009.813	-2531
1009.886	-836
1009.960	-2430
1010.033	-1304
1010.107	-1400
1010.180	-2381
1010.253	-1124
1010.327	-3167
1010.400	-1172
1010.473	-2039
1010.547	-842
1010.620	-2465
1010.693	-1588
1010.766	-2245
1010.840	-1264
1010.913	-2542
1010.986	-3090
1011.059	-1665
1011.132	-1916
1011.205	-1423
1011.278	-1766
1011.351	-1835
1011.424	-2192
1011.497	-2352
1011.570	-2530
1011.643	-1613
1011.716	-2637
1011.789	-839
1011.862	-1241
1011.934	-2299
1012.007	-2846
1012.080	-1309
1012.153	-1902
1012.225	-1357
1012.298	-2962
1012.371	-1581
1012.443	-1748
1012.516	-2910
1012.588	-1318
1012.661	-1941
1012.733	-2451
1012.806	-1251
1012.879	-2102
1012.951	-2365
1013.023	-2064
1013.096	-1754
1013.168	-1632
1013.241	-1139
1013.313	-1814
1013.385	-2371
1013.458	-2709
1013.530	-1342
1013.602	-2574
1013.674	-1542
1013.746	-2532
1013.819	-1519
1013.891	-1066
1013.963	-2545
1014.035	-2014
1014.107	-1422
1014.179	-1784
1014.251	-1729
1014.323	-1300
1014.395	-1491
1014.467	-2034
1014.539	-1492
1014.611	-2790
1014.683	-1756
1014.754	-2230
1014.826	-1819
1014.898	-2059
1014.970	-2509
1015.042	-1663
1015.113	-1644
1015.185	-1600
1015.257	-2911
1015.328	-2587
1015.400	-1943
1015.471	-2201
1015.543	-3043
1015.615	-2128
1015.686	-2332
1015.757	-1854
1015.829	-2267
1015.901	-2575
1015.972	-1561
1016.043	-1934
1016.115	-2296
1016.186	-2794
1016.257	-2672
1016.328	-1857
1016.400	-1245
1016.471	-2132
1016.542	-2673
1016.613	-1403
1016.685	-1563
1016.756	-1998
1016.827	-1732
1016.898	-2550
1016.969	-1295
1017.040	-2557
1017.111	-2350
1017.182	-1972
1017.253	-1191
1017.324	-2294
1017.395	-2715
1017.466	-1626
1017.537	-1431
1017.608	-2250
1017.678	-2205
1017.749	-2476
1017.820	-1948
1017.891	-2128
1017.961	-1729
1018.032	-1993
1018.103	-1168
1018.173	-1489
1018.244	-1895
1018.315	-2208
1018.385	-1255
1018.456	-2148
1018.526	-2491
1018.597	-1862
1018.667	-2152
1018.738	-2156
1018.808	-1864
1018.878	-1915
1018.949	-1767
1019.019	-1280
1019.089	-2175
1019.160	-2352
1019.230	-1789
1019.300	-1848
1019.371	-2934
1019.441	-1398
1019.511	-1875
1019.581	-1500
1019.651	-2104
1019.721	-1687
1019.791	-1608
1019.861	-1921
1019.931	-2862
1020.001	-1886
1020.071	-2007
1020.141	-1950
1020.211	-2106
1020.281	-2354
1020.351	-2114
1020.421	-1396
1020.491	-1573
1020.560	-2789
1020.630	-2326
1020.700	-2296
1020.770	-2315
1020.839	-2350
1020.909	-2032
1020.979	-1832
1021.048	-1561
1021.118	-2367
1021.187	-1886
1021.257	-2241
1021.326	-2202
1021.396	-2496
1021.465	-2003
1021.535	-1969
1021.604	-2542
1021.674	-2131
1021.743	-1690
1021.812	-1770
1021.882	-1248
1021.951	-2521
1022.020	-2697
1022.089	-2826
1022.159	-2090
1022.228	-1870
1022.297	-2284
1022.366	-1583
1022.435	-2518
1022.504	-2672
1022.573	-2307
1022.642	-2102
1022.711	-2270
1022.781	-1731
1022.849	-2389
1022.918	-2317
1022.987	-2298
1023.056	-1828
1023.125	-2086
1023.194	-2517
1023.263	-2415
1023.331	-2379
1023.400	-2911
1023.469	-1768
1023.538	-1955
1023.606	-2591
1023.675	-2095
1023.744	-1722
1023.812	-2338
1023.881	-1858
1023.949	-2302
1024.018	-2747
1024.086	-1630
1024.155	-1939
1024.223	-1938
1024.292	-1921
1024.360	-2207
1024.429	-2788
1024.497	-2435
1024.565	-2082
1024.634	-2073
1024.702	-1858
1024.770	-2623
1024.838	-2408
1024.907	-2092
1024.975	-2900
1025.043	-2128
1025.111	-2897
1025.179	-2167
1025.247	-2316
1025.315	-2479
1025.383	-1956
1025.451	-2274
1025.519	-2156
1025.587	-2592
1025.655	-2770
1025.723	-2779
1025.791	-1672
1025.859	-2138
1025.927	-1895
1025.995	-2220
1026.062	-1554
1026.130	-1729
1026.198	-2536
1026.266	-2353
1026.333	-824
1026.401	-1770
1026.469	-2232
1026.536	-2016
1026.604	-1916
1026.671	-2251
1026.739	-1561
1026.806	-1200
1026.874	-2708
1026.941	-2486
1027.009	-2140
1027.076	-1926
1027.144	-2361
1027.211	-2957
1027.278	-2123
1027.345	-1930
1027.413	-2015
1027.480	-2654
1027.547	-1793
1027.614	-2092
1027.682	-2145
1027.749	-1935
1027.816	-2508
1027.883	-2074
1027.950	-1640
1028.017	-2292
1028.084	-1353
1028.151	-2775
1028.218	-2264
1028.285	-1576
1028.352	-2906
1028.419	-2667
1028.486	-3001
1028.553	-1082
1028.619	-1860
1028.686	-2197
1028.753	-2476
1028.820	-2871
1028.886	-2403
1028.953	-1991
1029.020	-1660
1029.086	-2059
1029.153	-2958
1029.220	-2060
1029.286	-2915
1029.353	-1659
1029.419	-3516
1029.486	-2880
1029.552	-2064
1029.619	-2143
1029.685	-1977
1029.751	-2391
1029.818	-1398
1029.884	-2543
1029.951	-1586
1030.017	-2188
1030.083	-2038
1030.149	-1790
1030.216	-2569
1030.282	-2157
1030.348	-2681
1030.414	-2593
1030.480	-2276
1030.546	-2372
1030.612	-1920
1030.678	-2008
1030.744	-2435
1030.810	-1691
1030.876	-2323
1030.942	-2929
1031.008	-2496
1031.074	-2911
1031.140	-2300
1031.206	-1405
1031.272	-2646
1031.337	-2614
1031.403	-2128
1031.469	-2642
1031.534	-1758
1031.600	-2348
1031.666	-2338
1031.731	-3069
1031.797	-2130
1031.863	-1570
1031.928	-3080
1031.994	-2131
1032.059	-2604
1032.125	-2332
1032.190	-2894
1032.256	-2959
1032.321	-3146
1032.386	-2480
1032.452	-1420
1032.517	-2344
1032.582	-1554
1032.647	-2037
1032.713	-2230
1032.778	-1834
1032.843	-2962
1032.908	-2172
1032.974	-2333
1033.039	-2816
1033.104	-1559
1033.169	-2051
1033.234	-1665
1033.299	-2418
1033.364	-1718
1033.429	-2251
1033.494	-2481
1033.559	-1908
1033.624	-2708
1033.688	-2005
1033.753	-3467
1033.818	-1910
1033.883	-2466
1033.948	-2022
1034.013	-2709
1034.077	-1871
1034.142	-1895
1034.207	-2176
1034.271	-2946
1034.336	-1954
1034.400	-1820
1034.465	-2560
1034.530	-2684
1034.594	-2654
1034.658	-2740
1034.723	-2637
1034.787	-2190
1034.852	-2320
1034.916	-2944
1034.981	-2266
1035.045	-3050
1035.109	-1968
1035.173	-1684
1035.238	-2456
1035.302	-1760
1035.366	-2293
1035.430	-2176
1035.495	-2983
1035.559	-934
1035.623	-1969
1035.687	-2724
1035.751	-2851
1035.815	-2921
1035.879	-2084
1035.943	-2287
1036.007	-2530
1036.071	-2249
1036.135	-2167
1036.198	-2091
1036.262	-3018
1036.326	-2338
1036.390	-2444
1036.454	-1685
1036.517	-1970
1036.581	-2141
1036.645	-2354
1036.709	-2217
1036.772	-2521
1036.836	-2381
1036.900	-3341
1036.963	-2288
1037.026	-2199
1037.090	-2004
1037.154	-1519
1037.217	-3413
1037.280	-2774
1037.344	-2637
1037.407	-2279
1037.471	-1222
1037.534	-2812
1037.597	-2026
1037.661	-2397
1037.724	-2242
1037.787	-2929
1037.850	-2688
1037.913	-2744
1037.977	-2064
1038.040	-2793
1038.103	-2510
1038.166	-2270
1038.229	-2212
1038.292	-2248
1038.355	-2992
1038.418	-2794
1038.481	-2696
1038.544	-2235
1038.607	-2175
1038.670	-1780
1038.732	-1825
1038.795	-2174
1038.858	-2359
1038.921	-1653
1038.984	-2270
1039.046	-2643
1039.109	-2061
1039.172	-2619
1039.234	-1824
1039.297	-2726
1039.360	-2704
1039.422	-1965
1039.485	-2213
1039.547	-2500
1039.610	-2062
1039.672	-2482
1039.734	-1971
1039.797	-2216
1039.859	-1791
1039.922	-2415
1039.984	-2708
1040.046	-1574
1040.109	-2621
1040.171	-1845
1040.233	-1882
1040.295	-2246
1040.358	-2031
1040.420	-1792
1040.482	-2713
1040.544	-2055
1040.606	-2668
1040.668	-2567
1040.730	-2368
1040.792	-1911
1040.854	-2190
1040.916	-2590
1040.978	-2664
1041.040	-1669
1041.102	-1876
1041.164	-1988
1041.225	-2474
1041.287	-1800
1041.349	-2085
1041.411	-2209
1041.472	-2215
1041.534	-2547
1041.596	-2663
1041.657	-2125
1041.719	-2663
1041.781	-2584
1041.842	-2758
1041.904	-1756
1041.965	-2387
1042.027	-2854
1042.088	-3006
1042.150	-2959
1042.211	-2098
1042.272	-1998
1042.334	-1714
1042.395	-2097
1042.456	-2071
1042.518	-2432
1042.579	-1450
1042.640	-2144
1042.701	-2800
1042.763	-2471
1042.824	-2290
1042.885	-1932
1042.946	-2841
1043.007	-1698
1043.068	-2467
1043.129	-1553
1043.190	-2306
1043.251	-1969
1043.312	-2808
1043.373	-2314
1043.434	-2857
1043.495	-2626
1043.556	-2133
1043.616	-1780
1043.677	-2872
1043.738	-2409
1043.799	-2282
1043.859	-2748
1043.920	-2914
1043.981	-1701
1044.041	-2141
1044.102	-2357
1044.162	-2603
1044.223	-3166
1044.284	-2495
1044.344	-2358
1044.405	-2808
1044.465	-2102
1044.525	-3239
1044.586	-1824
1044.646	-2274
1044.707	-2116
1044.767	-2605
1044.827	-2116
1044.887	-2538
1044.948	-2485
1045.008	-2559
1045.068	-2052
1045.128	-1997
1045.188	-2836
1045.249	-1722
1045.309	-2487
1045.369	-1436
1045.429	-1939
1045.489	-1679
1045.549	-1815
1045.609	-2191
1045.669	-2073
1045.729	-2233
1045.789	-2077
1045.848	-1162
1045.908	-2110
1045.968	-1661
1046.028	-2631
1046.088	-1922
1046.147	-1230
1046.207	-2529
1046.267	-2174
1046.326	-1482
1046.386	-1818
1046.446	-1179
1046.505	-1633
1046.565	-1001
1046.624	-1118
1046.684	-841
1046.743	-1507
1046.803	-1049
1046.862	-775
1046.922	0
