'Start Wavelength	183.907
'End Wavelength	1046.922
'Gate Delay	5.000
'Gate Width (ms)	1.050
'Laser Output Level	0.000
'X Position	0.000
'Y Position	0.000
'Z Position	0.000
'Grid Point Number	1.000
'Shot Number	100.000
183.907	732.000
183.977	-558.000
184.047	-378
184.116	132
184.186	539
184.256	-81
184.325	27
184.395	-509
184.465	680
184.534	27
184.604	-551
184.674	906
184.743	-263
184.813	74
184.883	-456
184.952	354
185.022	493
185.092	143
185.161	-421
185.231	498
185.301	187
185.370	705
185.440	-381
185.509	-136
185.579	329
185.649	52
185.718	479
185.788	927
185.857	261
185.927	-236
185.996	481
186.066	-484
186.136	-202
186.205	-82
186.275	-260
186.344	331
186.414	184
186.483	37
186.553	1607
186.622	779
186.692	-3
186.761	59
186.831	268
186.900	442
186.970	615
187.039	231
187.109	560
187.178	11
187.248	-283
187.317	18
187.387	-201
187.456	803
187.526	-118
187.595	865
187.664	332
187.734	279
187.803	564
187.873	595
187.942	108
188.012	299
188.081	244
188.150	255
188.220	-16
188.289	1150
188.358	123
188.428	399
188.497	-506
188.567	609
188.636	224
188.705	494
188.775	226
188.844	-216
188.913	542
188.983	230
189.052	216
189.121	344
189.191	193
189.260	533
189.329	247
189.399	-415
189.468	211
189.537	-125
189.606	-687
189.676	281
189.745	143
189.814	1034
189.883	198
189.953	77
190.022	122
190.091	466
190.161	33
190.230	588
190.299	189
190.368	-126
190.437	-646
190.507	282
190.576	462
190.645	-174
190.714	-43
190.783	-387
190.853	939
190.922	64
190.991	-866
191.060	592
191.129	250
191.198	-320
191.268	0
191.337	155
191.406	973
191.475	-308
191.544	-396
191.613	42
191.682	124
191.752	-184
191.821	-621
191.890	35
191.959	212
192.028	41
192.097	-228
192.166	374
192.235	13
192.304	229
192.373	-513
192.442	477
192.511	173
192.580	541
192.650	22
192.719	-512
192.788	234
192.857	37
192.926	113
192.995	42
193.064	-83
193.133	95
193.202	-438
193.271	-70
193.340	-65
193.409	-97
193.478	220
193.547	-648
193.615	-89
193.684	-524
193.753	34
193.822	571
193.891	273
193.960	626
194.029	-250
194.098	118
194.167	-921
194.236	1251
194.305	483
194.374	-527
194.443	135
194.512	-258
194.580	652
194.649	212
194.718	572
194.787	93
194.856	-76
194.925	375
194.994	-98
195.062	911
195.131	120
195.200	454
195.269	664
195.338	350
195.407	193
195.475	-336
195.544	1139
195.613	481
195.682	371
195.751	701
195.819	327
195.888	398
195.957	1152
196.026	-147
196.094	549
196.163	175
196.232	-140
196.301	-37
196.369	724
196.438	1009
196.507	113
196.576	-51
196.644	171
196.713	-542
196.782	-121
196.850	584
196.919	-639
196.988	686
197.056	-183
197.125	644
197.194	465
197.262	166
197.331	-794
197.400	-133
197.468	-67
197.537	84
197.606	255
197.674	999
197.743	211
197.812	164
197.880	29
197.949	221
198.017	364
198.086	575
198.155	214
198.223	779
198.292	574
198.360	845
198.429	365
198.497	437
198.566	227
198.635	491
198.703	351
198.772	857
198.840	226
198.909	228
198.977	-595
199.046	-412
199.114	416
199.183	506
199.251	-293
199.320	505
199.388	-212
199.457	126
199.525	-28
199.594	8
199.662	183
199.731	357
199.799	-155
199.867	263
199.936	150
200.004	863
200.073	940
200.141	102
200.210	430
200.278	506
200.346	173
200.415	435
200.483	736
200.552	952
200.620	240
200.688	425
200.757	-349
200.825	309
200.893	388
200.962	197
201.030	537
201.098	-410
201.167	361
201.235	-209
201.303	395
201.372	1340
201.440	923
201.508	272
201.577	531
201.645	18
201.713	-363
201.781	376
201.850	921
201.918	729
201.986	340
202.055	857
202.123	317
202.191	951
202.259	221
202.327	611
202.396	43
202.464	530
202.532	444
202.600	1392
202.669	438
202.737	338
202.805	361
202.873	267
202.941	290
203.009	435
203.078	-253
203.146	141
203.214	229
203.282	-419
203.350	593
203.418	306
203.487	1546
203.555	-166
203.623	588
203.691	23
203.759	-222
203.827	-578
203.895	706
203.963	311
204.031	-321
204.099	565
204.168	410
204.236	134
204.304	657
204.372	155
204.440	414
204.508	484
204.576	224
204.644	223
204.712	-264
204.780	-362
204.848	-260
204.916	491
204.984	245
205.052	-5
205.120	-144
205.188	395
205.256	194
205.324	182
205.392	125
205.460	-201
205.528	7
205.596	605
205.664	13
205.732	-35
205.799	860
205.867	1157
205.935	-78
206.003	229
206.071	-883
206.139	11
206.207	318
206.275	344
206.343	-177
206.411	-203
206.478	103
206.546	319
206.614	87
206.682	262
206.750	367
206.818	88
206.885	846
206.953	-289
207.021	845
207.089	770
207.157	-194
207.225	148
207.292	-529
207.360	416
207.428	-487
207.496	-57
207.563	-68
207.631	455
207.699	-739
207.767	-171
207.834	-216
207.902	-293
207.970	425
208.038	130
208.105	-10
208.173	705
208.241	416
208.309	209
208.376	-714
208.444	998
208.512	509
208.579	-590
208.647	871
208.715	1055
208.782	713
208.850	-50
208.918	89
208.985	482
209.053	-324
209.120	1182
209.188	-28
209.256	1143
209.323	-797
209.391	516
209.459	1226
209.526	408
209.594	199
209.661	-272
209.729	430
209.796	905
209.864	1123
209.932	-852
209.999	1264
210.067	1534
210.134	1083
210.202	588
210.269	1083
210.337	1347
210.404	282
210.472	647
210.539	16
210.607	-61
210.674	1554
210.742	-267
210.809	813
210.877	212
210.944	1219
211.012	257
211.079	1315
211.146	1172
211.214	210
211.281	1022
211.349	1469
211.416	1338
211.484	659
211.551	-573
211.618	1359
211.686	1236
211.753	201
211.821	910
211.888	520
211.955	858
212.023	1051
212.090	761
212.157	349
212.225	425
212.292	780
212.359	2094
212.427	3660
212.494	1494
212.561	931
212.629	545
212.696	519
212.763	1743
212.831	273
212.898	774
212.965	1225
213.032	1724
213.100	1369
213.167	533
213.234	988
213.301	905
213.369	620
213.436	615
213.503	183
213.570	1141
213.638	241
213.705	314
213.772	85
213.839	377
213.906	1303
213.973	248
214.041	575
214.108	749
214.175	1255
214.242	222
214.309	526
214.376	1081
214.444	1030
214.511	955
214.578	665
214.645	1118
214.712	1160
214.779	1346
214.846	597
214.913	1343
214.980	1606
215.048	1325
215.115	1346
215.182	1421
215.249	1604
215.316	1492
215.383	1459
215.450	857
215.517	874
215.584	874
215.651	505
215.718	1481
215.785	355
215.852	672
215.919	1616
215.986	1643
216.053	320
216.120	246
216.187	1321
216.254	1871
216.321	421
216.388	1493
216.455	1696
216.522	810
216.589	2095
216.656	1865
216.722	2149
216.789	1634
216.856	936
216.923	1075
216.990	1204
217.057	897
217.124	2048
217.191	795
217.258	1243
217.324	1933
217.391	1411
217.458	596
217.525	856
217.592	1150
217.659	536
217.725	2247
217.792	1179
217.859	2002
217.926	595
217.993	1135
218.059	1566
218.126	1933
218.193	1111
218.260	929
218.327	1063
218.393	1068
218.460	530
218.527	529
218.594	1001
218.660	1681
218.727	1958
218.794	771
218.860	1664
218.927	775
218.994	-65
219.061	1107
219.127	1854
219.194	1839
219.261	575
219.327	210
219.394	1434
219.461	384
219.527	992
219.594	1686
219.661	1278
219.727	673
219.794	1558
219.860	-347
219.927	1019
219.994	1860
220.060	1631
220.127	3333
220.193	1041
220.260	1396
220.326	2293
220.393	1315
220.460	1178
220.526	661
220.593	657
220.659	2736
220.726	1348
220.792	2346
220.859	1525
220.925	2355
220.992	2432
221.058	3330
221.125	2956
221.191	1981
221.258	930
221.324	2045
221.391	1820
221.457	378
221.524	598
221.590	1434
221.657	3145
221.723	2245
221.789	1534
221.856	3476
221.922	1190
221.989	2186
222.055	892
222.121	556
222.188	3099
222.254	1719
222.321	1417
222.387	1259
222.453	1276
222.520	1453
222.586	1275
222.652	977
222.719	514
222.785	1573
222.851	517
222.918	1502
222.984	1797
223.050	738
223.116	-633
223.183	1265
223.249	446
223.315	575
223.382	1319
223.448	1646
223.514	290
223.580	1682
223.647	729
223.713	943
223.779	945
223.845	2080
223.911	997
223.978	548
224.044	2044
224.110	1273
224.176	1409
224.242	1272
224.309	662
224.375	1236
224.441	812
224.507	853
224.573	-9
224.639	950
224.705	674
224.772	1396
224.838	1324
224.904	1208
224.970	855
225.036	991
225.102	751
225.168	941
225.234	1267
225.300	1079
225.366	1048
225.432	1091
225.499	1234
225.565	1294
225.631	1011
225.697	1624
225.763	2481
225.829	1591
225.895	2426
225.961	2453
226.027	2111
226.093	1606
226.159	1821
226.225	2819
226.291	2842
226.357	4552
226.423	3447
226.489	2881
226.554	1659
226.620	2020
226.686	1624
226.752	3618
226.818	2871
226.884	5732
226.950	5563
227.016	2338
227.082	2848
227.148	1192
227.214	2645
227.279	1948
227.345	1358
227.411	1770
227.477	3012
227.543	4334
227.609	3298
227.674	2722
227.740	2394
227.806	2187
227.872	1616
227.938	1771
228.003	2817
228.069	1763
228.135	953
228.201	1871
228.267	1011
228.332	1476
228.398	623
228.464	2151
228.530	406
228.595	1627
228.661	243
228.727	1828
228.792	2818
228.858	1555
228.924	994
228.990	2814
229.055	538
229.121	2464
229.187	1460
229.252	411
229.318	938
229.384	1857
229.449	1230
229.515	-737
229.581	-612
229.646	2790
229.712	1402
229.777	1145
229.843	2656
229.909	3810
229.974	2732
230.040	2954
230.105	1650
230.171	2032
230.236	3467
230.302	3326
230.368	2946
230.433	1366
230.499	2393
230.564	2902
230.630	1632
230.695	1821
230.761	2796
230.826	-31
230.892	3865
230.957	987
231.023	1173
231.088	1704
231.154	1619
231.219	1693
231.284	1292
231.350	2856
231.415	647
231.481	2722
231.546	1094
231.612	2074
231.677	1137
231.742	924
231.808	2572
231.873	1681
231.939	-509
232.004	2550
232.069	2718
232.135	736
232.200	1846
232.265	1507
232.331	566
232.396	1461
232.461	1212
232.527	1543
232.592	806
232.657	1372
232.723	1974
232.788	1531
232.853	1890
232.918	1948
232.984	792
233.049	1323
233.114	927
233.179	2754
233.245	2922
233.310	2958
233.375	203
233.440	1884
233.506	549
233.571	443
233.636	1406
233.701	1363
233.766	1750
233.832	2457
233.897	1067
233.962	1063
234.027	3087
234.092	2162
234.157	1285
234.222	1871
234.288	2324
234.353	3906
234.418	4693
234.483	4617
234.548	3237
234.613	3376
234.678	2143
234.743	2339
234.808	5937
234.873	3440
234.938	4107
235.004	2386
235.069	2420
235.134	2506
235.199	2697
235.264	1981
235.329	974
235.394	2771
235.459	3066
235.524	1987
235.589	2510
235.654	1708
235.719	116
235.784	1913
235.849	1444
235.913	1873
235.978	2583
236.043	3701
236.108	1872
236.173	1034
236.238	2339
236.303	1147
236.368	1482
236.433	2637
236.498	2500
236.563	2833
236.627	1931
236.692	8729
236.757	7312
236.822	3618
236.887	3837
236.952	4071
237.017	759
237.081	3420
237.146	2593
237.211	4561
237.276	6936
237.341	14081
237.405	6158
237.470	4719
237.535	3355
237.600	3093
237.664	3058
237.729	2189
237.794	1790
237.859	4488
237.923	2863
237.988	2747
238.053	4286
238.118	2721
238.182	4433
238.247	5609
238.312	3108
238.376	3331
238.441	777
238.506	2969
238.570	634
238.635	2964
238.700	1256
238.764	1734
238.829	3681
238.893	2663
238.958	3424
239.023	2681
239.087	2433
239.152	2396
239.216	1573
239.281	2494
239.346	2628
239.410	2289
239.475	1776
239.539	5780
239.604	4306
239.668	3009
239.733	2159
239.797	4096
239.862	7972
239.926	7449
239.991	3371
240.055	2977
240.120	2383
240.184	2472
240.249	2305
240.313	1961
240.378	1764
240.442	3294
240.507	4578
240.571	2370
240.635	2482
240.700	3367
240.764	1798
240.829	2060
240.893	220
240.957	1952
241.022	3655
241.086	4909
241.151	2861
241.215	918
241.279	2887
241.344	2684
241.408	3161
241.472	3001
241.537	4356
241.601	3599
241.665	2092
241.730	3128
241.794	4548
241.858	2677
241.922	3101
241.987	3638
242.051	2544
242.115	3229
242.179	3306
242.244	2040
242.308	3459
242.372	2266
242.436	2383
242.501	3261
242.565	1535
242.629	2501
242.693	3468
242.757	1891
242.822	1703
242.886	3146
242.950	2570
243.014	1828
243.078	3557
243.142	3230
243.206	1887
243.271	3075
243.335	2493
243.399	4004
243.463	6603
243.527	15422
243.591	6876
243.655	4534
243.719	2254
243.783	4056
243.847	4405
243.911	5990
243.975	5777
244.040	4730
244.104	4891
244.168	3100
244.232	3236
244.296	5318
244.360	4633
244.424	3659
244.488	4321
244.552	3498
244.615	1297
244.679	2632
244.743	3087
244.807	2193
244.871	2028
244.935	2431
244.999	936
245.063	2327
245.127	3420
245.191	3138
245.255	3765
245.319	3698
245.383	2783
245.446	3371
245.510	1697
245.574	3765
245.638	3488
245.702	1283
245.766	4329
245.829	4143
245.893	2389
245.957	2613
246.021	3606
246.085	2893
246.149	3021
246.212	7852
246.276	9578
246.340	5726
246.404	4951
246.467	4431
246.531	3751
246.595	4140
246.659	4476
246.722	3262
246.786	5763
246.850	4468
246.913	4027
246.977	2312
247.041	3109
247.104	4288
247.168	3204
247.232	6359
247.295	11744
247.359	7998
247.423	3681
247.486	5268
247.550	5566
247.614	3970
247.677	5281
247.741	3691
247.804	2649
247.868	3435
247.932	5437
247.995	13079
248.059	6853
248.122	2747
248.186	5495
248.249	7180
248.313	16951
248.376	19581
248.440	14127
248.503	6227
248.567	7110
248.630	6634
248.694	10162
248.757	13590
248.821	18720
248.884	16764
248.948	14100
249.011	17877
249.075	21171
249.138	20835
249.202	10841
249.265	7464
249.328	7418
249.392	5628
249.455	7434
249.519	5016
249.582	6408
249.645	8689
249.709	6586
249.772	4988
249.835	5071
249.899	4964
249.962	4903
250.025	4383
250.089	8461
250.152	13046
250.215	7632
250.279	4488
250.342	5594
250.405	4893
250.468	4377
250.532	5899
250.595	7974
250.658	15303
250.721	26449
250.785	13481
250.848	8074
250.911	5248
250.974	5134
251.038	6725
251.101	13400
251.164	7728
251.227	8860
251.290	7610
251.354	8447
251.417	21226
251.480	23387
251.543	16349
251.606	35205
251.669	31949
251.732	15086
251.795	16069
251.859	16195
251.922	24319
251.985	18089
252.048	8772
252.111	7202
252.174	6959
252.237	13559
252.300	22431
252.363	21993
252.426	33693
252.489	17610
252.552	10314
252.615	6411
252.678	8798
252.741	17219
252.804	18876
252.867	33359
252.930	25854
252.993	15995
253.056	10228
253.119	7935
253.182	6074
253.245	8072
253.308	8663
253.371	7932
253.434	7995
253.497	7429
253.559	12540
253.622	9913
253.685	12667
253.748	16236
253.811	7578
253.874	7721
253.937	6767
254.000	6498
254.062	9120
254.125	14065
254.188	11461
254.251	10287
254.314	5649
254.376	8127
254.439	11869
254.502	11871
254.565	10219
254.628	16776
254.690	12198
254.753	7458
254.816	6401
254.878	6184
254.941	9168
255.004	9744
255.067	5624
255.129	5718
255.192	3525
255.255	2196
255.317	4577
255.380	2982
255.443	2651
255.505	1832
255.568	1579
255.631	2339
255.693	3244
255.756	1902
255.819	2484
255.881	2096
255.944	1970
256.006	2167
256.069	2107
256.132	1481
256.194	2727
256.257	5124
256.319	4610
256.382	3801
256.444	4122
256.507	4302
256.569	3007
256.632	2406
256.694	2957
256.757	5953
256.819	12561
256.882	6049
256.944	4037
257.007	6158
257.069	4556
257.132	3861
257.194	3983
257.257	2722
257.319	2742
257.381	2581
257.444	4893
257.506	13739
257.569	19134
257.631	13623
257.693	8901
257.756	4432
257.818	3508
257.880	3252
257.943	4248
258.005	2842
258.067	3083
258.130	3030
258.192	3573
258.254	7766
258.317	4538
258.379	3849
258.441	7009
258.503	7020
258.566	6097
258.628	9090
258.690	4301
258.753	4884
258.815	9649
258.877	5207
258.939	3529
259.001	4132
259.064	3056
259.126	3202
259.188	3583
259.250	4363
259.312	4704
259.375	8920
259.437	8217
259.499	3568
259.561	3569
259.623	4389
259.685	2388
259.747	3162
259.809	6523
259.872	10294
259.934	13988
259.996	15417
260.058	5743
260.120	2853
260.182	3337
260.244	2652
260.306	2377
260.368	3011
260.430	2731
260.492	4037
260.554	7945
260.616	7315
260.678	8820
260.740	12587
260.802	4718
260.864	4292
260.926	3391
260.988	4730
261.050	2676
261.112	4835
261.174	10100
261.236	9884
261.298	4622
261.359	5456
261.421	8777
261.483	2981
261.545	3794
261.607	2109
261.669	2166
261.731	3990
261.793	10105
261.854	5610
261.916	4608
261.978	2904
262.040	3203
262.102	2596
262.164	4347
262.225	3690
262.287	3566
262.349	7256
262.411	6162
262.472	3492
262.534	2888
262.596	6850
262.658	3211
262.719	2126
262.781	4205
262.843	5199
262.904	4808
262.966	4162
263.028	3197
263.090	9260
263.151	25236
263.213	11264
263.275	8216
263.336	4279
263.398	2223
263.459	1728
263.521	2697
263.583	5657
263.644	5840
263.706	3029
263.767	1826
263.829	1796
263.891	1654
263.952	1280
264.014	1115
264.075	802
264.137	3709
264.198	4654
264.260	1250
264.321	1191
264.383	4070
264.444	7226
264.506	3066
264.567	2181
264.629	3216
264.690	3403
264.752	3721
264.813	3502
264.875	1710
264.936	2822
264.998	2152
265.059	1272
265.120	2779
265.182	2806
265.243	5995
265.305	5334
265.366	2533
265.427	2254
265.489	2419
265.550	481
265.611	1982
265.673	3040
265.734	1992
265.795	2202
265.857	815
265.918	887
265.979	2410
266.040	9513
266.102	8746
266.163	4256
266.224	4421
266.286	3149
266.347	1782
266.408	2484
266.469	1669
266.530	1572
266.592	1467
266.653	4339
266.714	9341
266.775	4231
266.836	2601
266.898	1272
266.959	2700
267.020	2307
267.081	3539
267.142	2178
267.203	1799
267.264	1067
267.326	3454
267.387	2794
267.448	1611
267.509	2710
267.570	2444
267.631	2533
267.692	1072
267.753	2405
267.814	1916
267.875	3256
267.936	9441
267.997	4322
268.058	4007
268.119	2690
268.180	3758
268.241	1703
268.302	2299
268.363	1478
268.424	3353
268.485	2710
268.546	1650
268.607	2416
268.668	1206
268.729	1083
268.790	2338
268.851	2080
268.912	4582
268.972	8008
269.033	5770
269.094	1411
269.155	1981
269.216	2172
269.277	2268
269.338	2488
269.398	2509
269.459	3199
269.520	5164
269.581	6648
269.642	10199
269.702	5836
269.763	3916
269.824	3083
269.885	3344
269.945	6711
270.006	2880
270.067	2531
270.128	1258
270.188	1910
270.249	2743
270.310	1994
270.370	1956
270.431	1617
270.492	1921
270.553	2094
270.613	4911
270.674	10195
270.734	4923
270.795	2669
270.856	4630
270.916	3327
270.977	2408
271.038	3574
271.098	4688
271.159	5110
271.219	5790
271.280	2521
271.340	2271
271.401	2855
271.462	4881
271.522	4882
271.583	2524
271.643	2886
271.704	2606
271.764	3802
271.825	8079
271.885	21774
271.946	30050
272.006	12868
272.066	14353
272.127	23078
272.187	10441
272.248	5854
272.308	4605
272.369	13704
272.429	9535
272.489	7658
272.550	9050
272.610	9073
272.671	7097
272.731	4259
272.791	7428
272.852	5619
272.912	6031
272.972	3361
273.033	1668
273.093	4510
273.153	5309
273.214	3648
273.274	3704
273.334	7735
273.394	20301
273.455	11178
273.515	9583
273.575	17933
273.635	9417
273.696	9571
273.756	20963
273.816	11117
273.876	5506
273.936	5960
273.997	11055
274.057	4929
274.117	3983
274.177	5844
274.237	22804
274.297	21971
274.358	13921
274.418	16131
274.478	14832
274.538	5844
274.598	3798
274.658	8668
274.718	12643
274.778	7092
274.838	3758
274.898	4264
274.958	15067
275.018	18268
275.078	15140
275.138	7910
275.198	2851
275.258	2593
275.318	3980
275.378	8161
275.438	11153
275.498	6343
275.558	7385
275.618	16616
275.678	15239
275.738	10121
275.798	7845
275.858	2713
275.918	2909
275.978	3318
276.038	4385
276.098	2478
276.157	4826
276.217	17475
276.277	8885
276.337	7666
276.397	3442
276.457	5353
276.517	4163
276.576	2089
276.636	1788
276.696	5216
276.756	10880
276.815	8947
276.875	3800
276.935	3979
276.995	5102
277.055	2568
277.114	3629
277.174	3340
277.234	12454
277.293	6905
277.353	3858
277.413	3155
277.472	3290
277.532	3532
277.592	3385
277.651	8456
277.711	17625
277.771	5574
277.830	20039
277.890	17791
277.950	9409
278.009	26637
278.069	12027
278.128	11113
278.188	19190
278.248	8231
278.307	17237
278.367	12536
278.426	4452
278.486	2776
278.545	3652
278.605	2790
278.664	2666
278.724	2447
278.783	6617
278.843	19236
278.902	6650
278.962	5220
279.021	3835
279.081	4355
279.140	4391
279.199	4948
279.259	4793
279.318	4980
279.378	5344
279.437	7210
279.496	27003
279.556	58274
279.615	49948
279.675	15300
279.734	9233
279.793	14391
279.853	24038
279.912	11122
279.971	5886
280.031	5191
280.090	9453
280.149	17152
280.208	10515
280.268	35689
280.327	42165
280.386	10919
280.445	10113
280.505	11089
280.564	4592
280.623	3677
280.682	6392
280.742	11219
280.801	4851
280.860	3996
280.919	2872
280.978	2823
281.037	2479
281.097	2115
281.156	3156
281.215	2525
281.274	2943
281.333	11819
281.392	10155
281.451	2552
281.510	1822
281.569	2102
281.628	2627
281.688	2064
281.747	2318
281.806	3726
281.865	2671
281.924	2136
281.983	1459
282.042	499
282.101	1368
282.160	1454
282.219	1427
282.278	2242
282.337	8119
282.396	6681
282.454	2661
282.513	3164
282.572	13520
282.631	9561
282.690	3314
282.749	2819
282.808	4001
282.867	3139
282.926	4499
282.985	2482
283.043	1568
283.102	2003
283.161	2583
283.220	5194
283.279	12513
283.338	5152
283.396	2786
283.455	2783
283.514	3682
283.573	7448
283.631	5319
283.690	3006
283.749	2851
283.808	7281
283.866	9155
283.925	4096
283.984	3682
284.043	4721
284.101	6146
284.160	3755
284.219	4296
284.277	4131
284.336	5895
284.395	17954
284.453	15743
284.512	6240
284.570	10560
284.629	9135
284.688	8214
284.746	8916
284.805	10238
284.863	13056
284.922	17794
284.981	19716
285.039	26251
285.098	43280
285.156	73349
285.215	72749
285.273	72475
285.332	82758
285.390	55600
285.449	35245
285.507	24433
285.566	17855
285.624	13760
285.683	11048
285.741	8844
285.799	7357
285.858	6744
285.916	7132
285.975	4852
286.033	3828
286.091	4303
286.150	3510
286.208	3518
286.267	3690
286.325	4335
286.383	8214
286.442	8241
286.500	3740
286.558	3637
286.616	2047
286.675	5671
286.733	4482
286.791	4141
286.850	4317
286.908	4609
286.966	9677
287.024	4503
287.083	2673
287.141	1904
287.199	3268
287.257	6105
287.315	3562
287.374	3741
287.432	8728
287.490	6290
287.548	3643
287.606	3139
287.664	1606
287.723	4077
287.781	5027
287.839	3459
287.897	3898
287.955	3505
288.013	3657
288.071	7290
288.129	28762
288.187	83083
288.245	42650
288.303	14778
288.361	7858
288.419	5277
288.477	3055
288.535	2650
288.593	1894
288.651	1835
288.709	1403
288.767	2340
288.825	1274
288.883	1959
288.941	760
288.999	1394
289.057	1362
289.115	747
289.173	1281
289.231	1632
289.289	1522
289.346	1696
289.404	2119
289.462	5260
289.520	6592
289.578	3238
289.636	853
289.694	295
289.751	1081
289.809	1044
289.867	1355
289.925	3042
289.983	3445
290.040	1482
290.098	1129
290.156	2416
290.214	3436
290.271	1674
290.329	1655
290.387	1087
290.444	639
290.502	1066
290.560	207
290.617	1131
290.675	1443
290.733	1228
290.790	2876
290.848	861
290.906	971
290.963	2293
291.021	2089
291.078	1403
291.136	1010
291.194	4813
291.251	13161
291.309	4213
291.366	1517
291.424	1843
291.481	2780
291.539	2151
291.596	1397
291.654	703
291.711	907
291.769	1689
291.826	5916
291.884	3920
291.941	1705
291.999	1585
292.056	2973
292.114	3346
292.171	2041
292.228	1663
292.286	3126
292.343	5984
292.401	8557
292.458	4916
292.515	2666
292.573	3897
292.630	4032
292.687	3294
292.745	1289
292.802	2054
292.859	4550
292.917	14485
292.974	10166
293.031	4078
293.089	1585
293.146	1189
293.203	1070
293.260	1561
293.318	1521
293.375	2551
293.432	1208
293.489	1692
293.546	1758
293.604	2213
293.661	7586
293.718	23674
293.775	13058
293.832	7526
293.889	5260
293.947	4252
294.004	3306
294.061	3040
294.118	7110
294.175	11970
294.232	10734
294.289	5070
294.346	2652
294.403	2963
294.460	2102
294.517	2660
294.574	1874
294.631	2041
294.688	1905
294.745	5673
294.802	22049
294.859	22203
294.916	9110
294.973	6070
295.030	6629
295.087	5378
295.144	3070
295.201	2602
295.258	2926
295.315	2488
295.372	9478
295.429	19228
295.486	9818
295.542	4164
295.599	5702
295.656	9981
295.713	8820
295.770	16974
295.827	7123
295.883	3309
295.940	3001
295.997	6713
296.054	6438
296.111	2932
296.167	2793
296.224	2165
296.281	1412
296.338	1502
296.394	1790
296.451	1943
296.508	7142
296.564	14574
296.621	9562
296.678	21582
296.734	31908
296.791	11944
296.848	6462
296.904	6549
296.961	16812
297.018	21492
297.074	15562
297.131	6319
297.187	4371
297.244	5004
297.301	17193
297.357	32649
297.414	13682
297.470	5459
297.527	3558
297.583	3121
297.640	3525
297.696	2123
297.753	1940
297.809	1762
297.866	713
297.922	1818
297.979	1590
298.035	1736
298.092	3664
298.148	10799
298.204	12862
298.261	5942
298.317	8401
298.374	25135
298.430	16739
298.486	7640
298.543	5400
298.599	4136
298.656	4858
298.712	8258
298.768	19947
298.824	12815
298.881	4706
298.937	3399
298.993	2587
299.050	4231
299.106	3370
299.162	3442
299.218	3676
299.275	2373
299.331	2072
299.387	4851
299.443	23046
299.500	29274
299.556	12438
299.612	5721
299.668	5085
299.724	8119
299.780	9277
299.837	3383
299.893	5168
299.949	20002
300.005	25735
300.061	21803
300.117	34056
300.173	18212
300.229	6796
300.285	8959
300.341	12861
300.397	6143
300.453	3151
300.510	2925
300.566	3518
300.622	4361
300.678	14229
300.734	27782
300.790	22161
300.845	24709
300.901	17095
300.957	24513
301.013	18540
301.069	7154
301.125	5115
301.181	5811
301.237	4058
301.293	2655
301.349	2134
301.405	1433
301.461	2111
301.516	3097
301.572	3617
301.628	9651
301.684	7172
301.740	8384
301.796	14241
301.851	10408
301.907	16796
301.963	16642
302.019	22420
302.074	54478
302.130	62581
302.186	31960
302.242	14201
302.297	7787
302.353	6716
302.409	13479
302.464	12530
302.520	9742
302.576	23595
302.631	30019
302.687	18246
302.743	8193
302.798	4168
302.854	2342
302.910	2963
302.965	3699
303.021	8386
303.076	8256
303.132	12876
303.187	15279
303.243	8230
303.299	2958
303.354	2243
303.410	2786
303.465	2335
303.521	1988
303.576	1926
303.632	2804
303.687	6667
303.743	20150
303.798	19224
303.853	8109
303.909	3404
303.964	3552
304.020	5841
304.075	11146
304.130	9186
304.186	19789
304.241	21532
304.297	16063
304.352	8475
304.358	8060
304.407	4693
304.449	4930
304.463	5014
304.518	5488
304.539	4868
304.573	3841
304.629	2999
304.630	3042
304.684	5338
304.720	12532
304.739	16072
304.794	25099
304.811	21627
304.850	13118
304.902	6529
304.905	6122
304.960	3570
304.992	2695
305.015	2088
305.071	1994
305.083	2108
305.126	2484
305.173	1690
305.181	1572
305.236	1753
305.264	1944
305.292	2183
305.347	4432
305.354	4510
305.402	4820
305.445	3868
305.457	3655
305.512	5489
305.535	5919
305.567	6370
305.622	5595
305.626	5694
305.678	9170
305.716	17027
305.733	19538
305.788	23845
305.807	20791
305.843	16094
305.897	22083
305.898	22135
305.953	22646
305.988	15623
306.008	12032
306.063	7843
306.078	7242
306.118	5780
306.168	3462
306.173	3267
306.228	2642
306.259	2402
306.283	2289
306.338	1048
306.349	1429
306.393	3002
306.440	2427
306.448	2362
306.503	3090
306.530	3180
306.558	4259
306.613	9220
306.620	10171
306.668	17216
306.711	24365
306.723	24710
306.778	19829
306.801	15126
306.833	10398
306.888	5518
306.892	5282
306.943	3627
306.982	3176
306.997	3013
307.052	2334
307.072	2305
307.107	2659
307.162	2686
307.163	2696
307.217	4448
307.253	5310
307.272	5432
307.327	5794
307.343	5650
307.381	5351
307.434	5233
307.436	5464
307.491	10905
307.524	16691
307.546	17995
307.600	20181
307.614	18376
307.655	11077
307.704	5073
307.710	4972
307.765	4865
307.795	6212
307.819	7005
307.874	8711
307.885	8840
307.929	7628
307.975	5955
307.984	5976
308.038	6157
308.065	6647
308.093	12215
308.148	26613
308.156	29922
308.202	47611
308.246	59906
308.257	58356
308.312	33203
308.336	25252
308.366	21916
308.421	16957
308.426	16200
308.475	9210
308.517	4937
308.530	4459
308.585	4049
308.607	4181
308.639	4793
308.694	5385
308.697	5427
308.748	9019
308.787	12756
308.803	12445
308.857	9664
308.877	8286
308.912	7989
308.967	8433
308.967	8434
309.021	13019
309.058	16581
309.076	20575
309.130	34885
309.148	39591
309.185	61277
309.238	96460
309.239	96800
309.293	107667
309.328	102419
309.348	88192
309.402	42003
309.418	30227
309.457	22403
309.508	15126
309.511	15192
309.566	18469
309.598	21197
309.620	28608
309.674	50356
309.688	55963
309.729	51746
309.778	39400
309.783	38299
309.837	25159
309.868	18502
309.892	23620
309.946	37845
309.959	41983
310.001	52965
310.049	62621
310.055	60155
310.109	32820
310.139	17480
310.163	13876
310.218	8191
310.229	7262
310.272	6400
310.319	5698
310.326	5478
310.381	3893
310.409	3183
310.435	3314
310.489	3603
310.499	3659
310.543	3489
310.589	3384
310.598	3441
310.652	3730
310.679	3790
310.706	3374
310.760	2591
310.769	2452
310.814	2897
310.859	3502
310.868	3503
310.923	3305
310.948	3259
310.977	3989
311.031	5285
311.038	5471
311.085	4779
311.128	3951
311.139	4003
311.193	4227
311.218	4343
311.247	4030
311.301	3298
311.308	3208
311.356	3534
311.398	3923
311.410	3791
311.464	2802
311.488	2510
311.518	2938
311.572	3544
311.578	3608
311.626	6769
311.668	9674
311.680	9203
311.734	6608
311.758	5488
311.788	5535
311.842	5691
311.847	5687
311.896	6643
311.937	7494
311.950	7432
312.004	7066
312.027	6880
312.058	6328
312.112	5322
312.117	5212
312.165	4342
312.207	3591
312.297	5068
312.386	4333
312.476	6670
312.566	16195
312.656	5223
312.745	3532
312.835	4223
312.925	5112
313.015	4309
313.104	3274
313.194	4465
313.284	4726
313.374	7581
313.463	5436
313.553	4078
313.643	3847
313.732	3903
313.822	2839
313.912	5319
314.001	6354
314.091	6363
314.180	6259
314.270	8478
314.360	8651
314.449	7956
314.539	4073
314.628	4203
314.718	4244
314.808	6163
314.897	4757
314.987	7036
315.076	9201
315.166	9692
315.255	6969
315.345	8268
315.434	6661
315.524	6651
315.613	8608
315.703	13044
315.792	18291
315.881	49839
315.971	16001
316.060	15789
316.150	14914
316.239	12799
316.328	5244
316.418	4426
316.507	5321
316.597	9107
316.686	7388
316.775	8625
316.865	11530
316.954	5313
317.043	4462
317.133	6086
317.222	4323
317.311	4206
317.400	3795
317.490	9057
317.579	9758
317.668	6752
317.757	11712
317.847	28948
317.936	84489
318.025	38221
318.114	22111
318.203	12623
318.293	19591
318.382	41587
318.471	28940
318.560	29698
318.649	29016
318.738	8593
318.828	9409
318.917	9460
319.006	7433
319.095	18791
319.184	43526
319.273	35507
319.362	23543
319.451	8597
319.540	7232
319.629	22270
319.718	33441
319.807	10491
319.896	19165
319.985	55622
320.074	25635
320.163	7465
320.252	10648
320.341	8123
320.430	8531
320.519	18630
320.608	9017
320.697	7612
320.786	7179
320.875	11531
320.964	15678
321.053	25793
321.142	38784
321.230	36381
321.319	26358
321.408	60696
321.497	23681
321.586	25144
321.675	19558
321.764	19412
321.852	12787
321.941	36528
322.030	21484
322.119	23111
322.207	60460
322.296	25251
322.385	14584
322.474	27337
322.562	78632
322.651	32452
322.740	28831
322.829	37393
322.917	22198
323.006	20985
323.095	19525
323.183	8872
323.272	14091
323.361	23615
323.449	46694
323.538	17229
323.626	38690
323.715	21080
323.804	9625
323.892	35307
323.981	24778
324.069	7525
324.158	15250
324.246	14170
324.335	12723
324.424	25046
324.512	7161
324.601	11487
324.689	14158
324.778	20548
324.866	16938
324.954	5621
325.043	7056
325.131	11085
325.220	13606
325.308	16187
325.397	14774
325.485	9629
325.574	4985
325.662	5605
325.750	6756
325.839	6690
325.927	3778
326.015	7387
326.104	6551
326.192	8261
326.280	4428
326.369	5339
326.457	11565
326.545	21149
326.634	7106
326.722	3938
326.810	5189
326.898	5308
326.987	6790
327.075	17488
327.163	12917
327.251	5240
327.340	9609
327.428	11294
327.516	4876
327.604	5476
327.692	4243
327.781	4384
327.869	7017
327.957	5508
328.045	7611
328.133	4418
328.221	4249
328.309	5407
328.397	4200
328.485	7490
328.574	11925
328.662	41604
328.750	15620
328.838	5291
328.926	4530
329.014	4040
329.102	7687
329.190	15985
329.278	11485
329.366	3776
329.454	2882
329.542	2996
329.630	2369
329.718	4383
329.806	6273
329.893	4228
329.981	2675
330.069	3644
330.157	6619
330.245	20805
330.333	10562
330.421	4362
330.509	10392
330.597	50709
330.684	27514
330.772	7933
330.860	6104
330.948	8687
331.036	4944
331.123	2864
331.211	3513
331.299	4308
331.387	8833
331.475	15826
331.562	4863
331.650	4156
331.738	4393
331.825	4536
331.913	3176
332.001	3928
332.089	3859
332.176	6881
332.264	15302
332.352	12954
332.439	5841
332.527	5078
332.614	3304
332.702	4060
332.790	4039
332.877	10266
332.965	16417
333.052	8189
333.140	9088
333.228	21595
333.315	5097
333.403	4420
333.490	9915
333.578	11940
333.665	29667
333.753	12704
333.840	4254
333.928	6184
334.015	10317
334.103	15754
334.190	45036
334.278	15174
334.365	12652
334.452	12883
334.540	7044
334.627	6760
334.715	8575
334.802	15639
334.889	56245
334.977	61553
335.064	20814
335.151	9159
335.239	6620
335.326	7817
335.413	25202
335.501	32498
335.588	7891
335.675	6608
335.762	6460
335.850	11470
335.937	12103
336.024	24293
336.111	75426
336.199	50278
336.286	16090
336.373	7684
336.460	5204
336.547	4465
336.635	6504
336.722	7056
336.809	3717
336.896	8075
336.983	18453
337.070	39931
337.157	46153
337.245	32224
337.332	20207
337.419	5187
337.506	3854
337.593	4853
337.680	11598
337.767	31506
337.854	12395
337.941	13844
338.028	14756
338.115	5472
338.202	6485
338.289	11043
338.376	35022
338.463	11976
338.550	18498
338.637	19313
338.724	7530
338.811	10706
338.898	3673
338.984	4619
339.071	3284
339.158	7156
339.245	22442
339.332	10811
339.419	10148
339.506	9295
339.593	2779
339.679	6129
339.766	4376
339.853	6975
339.940	18810
340.027	5960
340.113	6459
340.200	9946
340.287	5958
340.374	9610
340.460	16221
340.547	6004
340.634	11228
340.720	44807
340.807	22910
340.894	4992
340.980	5558
341.067	4782
341.154	5733
341.240	10700
341.327	24144
341.414	5718
341.500	4594
341.587	5570
341.674	4321
341.760	17909
341.847	19645
341.933	6195
342.020	1924
342.106	2995
342.193	6710
342.279	14064
342.366	8877
342.452	17063
342.539	7404
342.625	21895
342.712	49008
342.798	20703
342.885	7997
342.971	3483
343.058	2501
343.144	4409
343.230	3946
343.317	4474
343.403	3288
343.490	3067
343.576	2493
343.662	3714
343.749	3781
343.835	6397
343.921	9345
344.008	60371
344.094	125849
344.180	28621
344.267	13826
344.353	37504
344.439	36870
344.525	22395
344.612	7419
344.698	8150
344.784	5440
344.870	4602
344.957	5132
345.043	10267
345.129	7435
345.215	17320
345.301	7843
345.387	5282
345.474	2129
345.560	3321
345.646	2578
345.732	4507
345.818	5533
345.904	4361
345.990	5954
346.076	3997
346.162	4933
346.249	5138
346.335	3643
346.421	5060
346.507	15175
346.593	49549
346.679	11447
346.765	5254
346.851	6666
346.937	5658
347.023	4735
347.108	6849
347.194	5184
347.280	3900
347.366	6895
347.452	20605
347.538	63996
347.624	49205
347.710	38118
347.796	6416
347.882	4035
347.967	3661
348.053	3242
348.139	4605
348.225	3232
348.311	5128
348.397	3797
348.482	7595
348.568	7781
348.654	4616
348.740	10579
348.825	10338
348.911	9149
348.997	29802
349.083	52624
349.168	8526
349.254	3842
349.340	5054
349.425	3776
349.511	7119
349.597	7301
349.682	16165
349.768	44562
349.854	18736
349.939	4104
350.025	3909
350.110	2931
350.196	3761
350.282	2418
350.367	3464
350.453	5617
350.538	6172
350.624	7328
350.709	6176
350.795	4441
350.880	5030
350.966	5444
351.051	5684
351.137	4524
351.222	5725
351.308	16772
351.393	44726
351.479	9247
351.564	3474
351.649	4969
351.735	4308
351.820	3455
351.906	4468
351.991	4835
352.076	27574
352.162	40989
352.247	9008
352.332	6918
352.418	10797
352.503	12294
352.588	68676
352.673	57737
352.759	13123
352.844	6426
352.929	8404
353.014	11578
353.100	8110
353.185	17500
353.270	22935
353.355	19044
353.441	5977
353.526	5225
353.611	17644
353.696	20163
353.781	13240
353.866	5493
353.952	7060
354.037	17141
354.122	41084
354.207	34734
354.292	12713
354.377	5932
354.462	6099
354.547	7978
354.632	7834
354.717	10906
354.802	21472
354.887	8077
354.972	4611
355.057	3378
355.142	3508
355.227	6206
355.312	10600
355.397	25290
355.482	62285
355.567	27490
355.652	20980
355.737	20319
355.822	48942
355.907	37485
355.991	7792
356.076	4234
356.161	4029
356.246	3902
356.331	5306
356.416	10327
356.501	66841
356.585	69071
356.670	10707
356.755	10131
356.840	13782
356.924	62664
357.009	184118
357.094	70525
357.179	19835
357.263	14438
357.348	13674
357.433	12882
357.517	13353
357.602	9736
357.687	8061
357.771	12923
357.856	27336
357.941	16532
358.025	39725
358.110	161188
358.195	80563
358.279	15536
358.364	12196
358.448	43133
358.533	105411
358.617	77318
358.702	70858
358.787	27573
358.871	20240
358.956	17007
359.040	5696
359.125	4628
359.209	5200
359.294	12843
359.378	20684
359.462	16122
359.547	9012
359.631	4948
359.716	4331
359.800	3901
359.885	7341
359.969	5534
360.053	5572
360.138	5139
360.222	9289
360.306	19600
360.391	12902
360.475	18886
360.559	44632
360.644	41672
360.728	30211
360.812	41075
360.896	99352
360.981	49204
361.065	29906
361.149	9043
361.233	9707
361.318	7702
361.402	10612
361.486	8080
361.570	7330
361.654	9157
361.739	21068
361.823	71635
361.907	99698
361.991	19686
362.075	15818
362.159	37364
362.243	27166
362.327	32361
362.411	47727
362.495	20116
362.580	9352
362.664	6473
362.748	7299
362.832	10055
362.916	17494
363.000	68325
363.084	158662
363.168	139540
363.252	36620
363.336	15515
363.420	17801
363.503	35649
363.587	40385
363.671	12199
363.755	11624
363.839	18936
363.923	9392
364.007	19766
364.091	20019
364.175	18073
364.258	64658
364.342	84048
364.426	162886
364.510	89456
364.594	28772
364.677	24497
364.761	86554
364.845	62820
364.929	33296
365.013	28148
365.096	21904
365.180	23409
365.264	16406
365.347	49713
365.431	22863
365.515	8972
365.598	8290
365.682	7493
365.766	7694
365.849	8604
365.933	8756
366.017	8551
366.100	5737
366.184	3519
366.267	5274
366.351	5574
366.435	4691
366.518	4615
366.602	4681
366.685	5630
366.769	6990
366.852	9390
366.936	18123
367.019	13031
367.103	6249
367.186	9837
367.270	5781
367.353	3762
367.436	6524
367.520	5256
367.603	8519
367.687	13038
367.770	23240
367.853	12527
367.937	29004
368.020	46115
368.104	14204
368.187	16881
368.270	25911
368.353	21531
368.437	19312
368.520	24605
368.603	24566
368.687	36699
368.770	67910
368.853	18607
368.936	18960
369.020	16344
369.103	7977
369.186	5249
369.269	8054
369.352	15191
369.436	21396
369.519	12392
369.602	7195
369.685	8192
369.768	7773
369.851	6637
369.934	4080
370.018	7155
370.101	19625
370.184	14157
370.267	9096
370.350	18854
370.433	25546
370.516	51505
370.599	65600
370.682	26033
370.765	50200
370.848	50514
370.931	74361
371.014	27883
371.097	7701
371.180	7360
371.263	5314
371.346	2424
371.429	5591
371.511	5284
371.594	11786
371.677	16152
371.760	13345
371.843	15236
371.926	62681
372.009	134373
372.091	51608
372.174	32425
372.257	63914
372.340	26487
372.423	21605
372.505	20579
372.588	10670
372.671	27984
372.754	78763
372.836	37925
372.919	18202
373.002	33465
373.085	16864
373.167	16857
373.250	39224
373.332	67054
373.415	91169
373.498	178031
373.580	75352
373.663	98046
373.746	126970
373.828	33568
373.911	15503
373.993	13622
374.076	30858
374.159	28171
374.241	21851
374.324	69507
374.406	47514
374.489	52271
374.571	139049
374.654	60901
374.736	31345
374.819	84226
374.901	126954
374.983	127063
375.066	27388
375.148	9776
375.231	25861
375.313	48589
375.395	23505
375.478	7651
375.560	7558
375.643	9270
375.725	28696
375.807	104794
375.890	76945
375.972	27318
376.054	20572
376.136	19629
376.219	11432
376.301	31778
376.383	90881
376.465	39255
376.548	30339
376.630	32667
376.712	81008
376.794	37520
376.877	6141
376.959	4420
377.041	5577
377.123	6423
377.205	8180
377.287	3352
377.369	5526
377.452	5687
377.534	4648
377.616	4326
377.698	5190
377.780	3604
377.862	6371
377.944	6444
378.026	3485
378.108	4048
378.190	4301
378.272	4161
378.354	2786
378.436	2568
378.518	6312
378.600	20739
378.682	22793
378.764	50254
378.846	41364
378.928	12818
379.010	23345
379.091	11611
379.173	5516
379.255	4723
379.337	8467
379.419	25030
379.501	67692
379.583	27480
379.664	8724
379.746	20946
379.828	54910
379.910	68831
379.991	57586
380.073	10600
380.155	7765
380.237	6319
380.318	4826
380.400	5743
380.482	13922
380.564	22354
380.645	24188
380.727	23627
380.809	12052
380.890	9031
380.972	6189
381.053	5752
381.135	7903
381.217	19670
381.298	56084
381.380	28657
381.461	21223
381.543	79902
381.624	98667
381.706	20793
381.787	12335
381.869	13926
381.951	37389
382.032	131365
382.113	93741
382.195	22486
382.276	16854
382.358	35006
382.439	76168
382.521	82299
382.602	121119
382.684	62031
382.765	108541
382.846	134402
382.928	205143
383.009	114093
383.090	71607
383.172	249514
383.253	370100
383.334	131988
383.416	116957
383.497	63808
383.578	32404
383.659	60657
383.741	208563
383.822	479636
383.903	263474
383.984	97363
384.066	149748
384.147	95695
384.228	22099
384.309	19783
384.390	15966
384.471	11603
384.553	12429
384.634	15743
384.715	17155
384.796	8388
384.877	12094
384.958	44991
385.039	59596
385.120	24153
385.201	12242
385.282	10638
385.363	10233
385.444	10488
385.525	21262
385.606	59562
385.687	49012
385.768	12190
385.849	16883
385.930	68509
386.011	111047
386.092	33457
386.173	10114
386.254	6392
386.335	7309
386.416	10301
386.496	33935
386.577	53229
386.658	17910
386.739	11148
386.820	9747
386.901	7271
386.981	8502
387.062	7012
387.143	15015
387.224	50656
387.304	49559
387.385	20773
387.466	12853
387.547	15168
387.627	14016
387.708	22385
387.789	82848
387.869	95600
387.950	26720
388.031	6493
388.111	3733
388.192	9915
388.273	13562
388.353	10432
388.434	8378
388.514	16507
388.595	66941
388.676	93971
388.756	53133
388.837	55161
388.917	35403
388.998	6222
389.078	8060
389.159	6926
389.239	6224
389.320	12099
389.400	9216
389.480	18100
389.561	45837
389.641	24840
389.722	11394
389.802	19965
389.883	21386
389.963	51485
390.043	31268
390.124	9269
390.204	21822
390.284	62423
390.365	38380
390.445	26013
390.525	71531
390.605	75428
390.686	34329
390.766	14587
390.846	8332
390.927	3867
391.007	5979
391.087	7645
391.167	10949
391.247	7142
391.328	8553
391.408	9902
391.488	7395
391.568	3338
391.648	9813
391.728	16209
391.808	14214
391.888	14261
391.969	28280
392.049	45205
392.129	19222
392.209	21269
392.289	53131
392.369	29620
392.449	18301
392.529	15446
392.609	16987
392.689	20870
392.769	53285
392.849	48199
392.929	35361
393.009	72093
393.089	69929
393.169	78493
393.248	213138
393.328	549535
393.408	581614
393.488	233404
393.568	79583
393.648	38898
393.728	24690
393.807	17119
393.887	14594
393.967	11149
394.047	12133
394.127	12156
394.206	13575
394.286	28001
394.366	122774
394.446	135311
394.525	27298
394.605	8944
394.685	11250
394.764	21048
394.844	38425
394.924	32040
395.003	13698
395.083	9538
395.163	8490
395.242	7614
395.322	9447
395.402	3758
395.481	7955
395.561	16230
395.640	51479
395.720	57601
395.799	43859
395.879	28036
395.958	11781
396.038	33962
396.117	156175
396.197	176960
396.276	45608
396.356	19200
396.435	18984
396.515	21032
396.594	33198
396.673	68272
396.753	204979
396.832	504147
396.912	417511
396.991	130850
397.070	40308
397.150	21904
397.229	18014
397.308	29145
397.388	51214
397.467	23362
397.546	10144
397.625	5793
397.705	11115
397.784	12755
397.863	6686
397.942	4623
398.022	5047
398.101	12231
398.180	31451
398.259	17392
398.338	8823
398.417	7300
398.497	4970
398.576	5717
398.655	3664
398.734	3525
398.813	4940
398.892	10517
398.971	32521
399.050	17819
399.129	3793
399.208	2816
399.287	3812
399.366	2223
399.445	3532
399.524	3959
399.603	3104
399.682	8840
399.761	20705
399.840	38897
399.919	29379
399.998	3651
400.077	2313
400.156	1789
400.235	5653
400.313	2104
400.392	4869
400.471	30279
400.550	49470
400.629	12463
400.708	6659
400.786	3643
400.865	7511
400.944	10693
401.023	8284
401.102	2214
401.180	2059
401.259	2345
401.338	3248
401.416	6154
401.495	5911
401.574	3293
401.652	3278
401.731	5736
401.810	5283
401.888	3448
401.967	2419
402.046	4659
402.124	6195
402.203	7030
402.281	5485
402.360	7064
402.438	12101
402.517	7183
402.596	3621
402.674	2810
402.753	1878
402.831	2373
402.910	4713
402.988	18533
403.066	63927
403.145	39517
403.223	22361
403.302	58695
403.380	48341
403.459	51233
403.537	20749
403.615	7386
403.694	2272
403.772	2668
403.850	3072
403.929	2007
404.007	3461
404.085	11913
404.164	15756
404.242	3894
404.320	3850
404.398	5999
404.477	22418
404.555	97570
404.633	87746
404.711	13359
404.789	5687
404.868	5668
404.946	3117
405.024	1664
405.102	2265
405.180	1638
405.258	855
405.336	2529
405.415	2186
405.493	7771
405.571	9897
405.649	3443
405.727	1768
405.805	5001
405.883	5666
405.961	5889
406.039	3714
406.117	2377
406.195	7011
406.273	26124
406.351	90262
406.429	54489
406.507	7818
406.585	2066
406.663	4673
406.740	7223
406.818	5556
406.896	2841
406.974	3754
407.052	8366
407.130	56001
407.208	78002
407.285	15503
407.363	3599
407.441	3836
407.519	3280
407.596	3640
407.674	7497
407.752	14174
407.830	13481
407.907	10237
407.985	4912
408.063	3862
408.141	1462
408.218	5245
408.296	6430
408.373	6441
408.451	6685
408.529	6025
408.606	2196
408.684	2194
408.762	1280
408.839	2017
408.917	1412
408.994	2596
409.072	3182
409.149	3751
409.227	8083
409.304	11918
409.382	10119
409.459	10145
409.537	15471
409.614	12589
409.692	7560
409.769	8706
409.846	16231
409.924	21346
410.001	13196
410.079	8266
410.156	6132
410.233	5660
410.311	4497
410.388	3716
410.465	6019
410.543	6214
410.620	3726
410.697	5083
410.775	6827
410.852	2918
410.929	6719
411.006	9893
411.083	5610
411.161	13609
411.238	12077
411.315	4861
411.392	2861
411.469	7076
411.547	7972
411.624	4213
411.701	3532
411.778	4800
411.855	10968
411.932	5339
412.009	2523
412.086	3181
412.163	2909
412.240	3606
412.317	4866
412.394	4247
412.471	2867
412.548	2295
412.625	1720
412.702	4387
412.779	8572
412.856	7105
412.933	1702
413.010	1784
413.087	4800
413.164	30514
413.241	44901
413.318	10937
413.395	6884
413.471	11733
413.548	5475
413.625	3328
413.702	2549
413.779	2898
413.855	972
413.932	968
414.009	509
414.086	1553
414.162	1545
414.239	5158
414.316	27679
414.393	61837
414.469	21719
414.546	2960
414.623	1437
414.699	2475
414.776	4247
414.853	2443
414.929	2089
415.006	2806
415.082	1334
415.159	1915
415.236	1912
415.312	3607
415.389	7918
415.465	10556
415.542	4978
415.618	2910
415.695	7863
415.771	4602
415.848	2323
415.924	3214
416.000	1362
416.077	1411
416.153	711
416.230	86
416.306	262
416.383	1345
416.459	877
416.535	331
416.612	1210
416.688	1828
416.764	1221
416.841	1387
416.917	1670
416.993	2074
417.069	2755
417.146	3975
417.222	4679
417.298	4135
417.374	1491
417.451	3623
417.527	5191
417.603	5228
417.679	3904
417.755	3177
417.831	837
417.908	1647
417.984	607
418.060	1075
418.136	8775
418.212	13088
418.288	4213
418.364	1120
418.440	2224
418.516	5912
418.592	4334
418.668	13170
418.744	24004
418.820	17322
418.896	3145
418.972	1603
419.048	2184
419.124	10471
419.200	7990
419.276	2462
419.352	311
419.428	2157
419.504	2497
419.579	4584
419.655	3002
419.731	4001
419.807	15290
419.883	27484
419.959	17476
420.034	5348
420.110	9490
420.186	38430
420.262	31128
420.337	5199
420.413	4244
420.489	2793
420.565	2047
420.640	2062
420.716	4296
420.792	1529
420.867	3651
420.943	3313
421.019	7716
421.094	6494
421.170	3103
421.245	3212
421.321	4149
421.397	4143
421.472	5544
421.548	9773
421.623	11201
421.699	8677
421.774	8958
421.850	7185
421.925	12926
422.001	13554
422.076	11934
422.152	15178
422.227	22672
422.302	29275
422.378	41313
422.453	75027
422.529	156533
422.604	294990
422.679	330227
422.755	313448
422.830	179072
422.905	82069
422.981	47131
423.056	30113
423.131	21474
423.207	16947
423.282	15712
423.357	22590
423.432	15739
423.508	15767
423.583	28223
423.658	20615
423.733	7397
423.808	7445
423.883	10718
423.959	9594
424.034	9323
424.109	7374
424.184	3568
424.259	3678
424.334	2760
424.409	2624
424.484	3338
424.559	3625
424.634	2765
424.709	6032
424.784	7011
424.859	4359
424.934	7315
425.009	32091
425.084	49632
425.159	17566
425.234	3901
425.309	1961
425.384	6252
425.459	8583
425.534	3485
425.609	1676
425.683	1136
425.758	2747
425.833	2598
425.908	4578
425.983	18972
426.058	51525
426.132	21238
426.207	3062
426.282	3873
426.357	3181
426.431	2266
426.506	2035
426.581	2391
426.655	2251
426.730	1793
426.805	2362
426.879	2946
426.954	2024
427.029	6982
427.103	40453
427.178	85770
427.253	35459
427.327	4075
427.402	3861
427.476	10300
427.551	5023
427.625	2333
427.700	2860
427.774	644
427.849	2329
427.923	586
427.998	1628
428.072	2244
428.147	8231
428.221	34116
428.296	97540
428.370	50962
428.444	5832
428.519	3919
428.593	7362
428.667	5710
428.742	7226
428.816	11676
428.890	55266
428.965	91396
429.039	25408
429.113	8693
429.188	3795
429.262	1986
429.336	7527
429.410	23949
429.485	14049
429.559	5782
429.633	5863
429.707	2835
429.781	9934
429.855	58032
429.930	98343
430.004	35269
430.078	32601
430.152	41069
430.226	109265
430.300	113686
430.374	18980
430.448	5412
430.522	11215
430.596	29392
430.670	28637
430.744	94241
430.818	134266
430.892	25770
430.966	4797
431.040	1946
431.114	1186
431.188	557
431.262	1055
431.336	876
431.410	4261
431.484	12221
431.557	11323
431.631	2147
431.705	3920
431.779	18590
431.853	81467
431.927	57473
432.000	6208
432.074	1913
432.148	1746
432.222	1544
432.295	1456
432.369	842
432.443	3075
432.516	29595
432.590	77533
432.664	28588
432.737	3011
432.811	72
432.885	302
432.958	718
433.032	345
433.106	-350
433.179	858
433.253	88
433.326	500
433.400	-293
433.473	223
433.547	-667
433.620	1849
433.694	5402
433.767	4844
433.841	108
433.914	42
433.988	668
434.061	804
434.134	629
434.208	-138
434.281	-829
434.355	509
434.428	941
434.501	53
434.575	-25
434.648	1002
434.721	-554
434.795	-81
434.868	-357
434.941	367
435.014	-531
435.088	910
435.161	1787
435.234	5727
435.307	7847
435.381	3836
435.454	3337
435.527	7397
435.600	7640
435.673	5633
435.746	3159
435.819	2099
435.892	1651
435.966	491
436.039	93
436.112	931
436.185	-240
436.258	516
436.331	-959
436.404	1
436.477	-75
436.550	582
436.623	488
436.696	370
436.769	1504
436.842	901
436.915	1017
436.987	2242
437.060	1314
437.133	673
437.206	-628
437.279	1243
437.352	144
437.425	640
437.498	1312
437.570	7505
437.643	6780
437.716	1695
437.789	481
437.861	5598
437.934	17542
438.007	7420
438.080	283
438.152	1536
438.225	5575
438.298	38802
438.370	100020
438.443	46190
438.516	15131
438.588	2487
438.661	157
438.734	729
438.806	1306
438.879	2860
438.951	4957
439.024	8901
439.096	2081
439.169	1208
439.241	-782
439.314	142
439.386	1118
439.459	3323
439.531	5857
439.604	2400
439.676	177
439.749	-347
439.821	-469
439.893	-64
439.966	112
440.038	2350
440.110	2725
440.183	1370
440.255	-595
440.327	2509
440.400	16795
440.472	68562
440.544	44322
440.617	5492
440.689	5773
440.761	8620
440.833	15043
440.905	8856
440.978	404
441.050	482
441.122	-107
441.194	239
441.266	598
441.338	1047
441.411	4031
441.483	28250
441.555	42011
441.627	7552
441.699	2767
441.771	2045
441.843	681
441.915	263
441.987	-241
442.059	1216
442.131	1139
442.203	3428
442.275	4323
442.347	4647
442.419	8109
442.491	50600
442.563	122184
442.635	45742
442.706	15569
442.778	13712
442.850	2956
442.922	2101
442.994	2234
443.066	3891
443.137	3412
443.209	3070
443.281	4861
443.353	13543
443.425	55957
443.496	192391
443.568	196940
443.640	71498
443.711	10752
443.783	4490
443.855	2801
443.926	1415
443.998	1251
444.070	1990
444.141	2431
444.213	5258
444.285	6111
444.356	4291
444.428	2890
444.499	1319
444.571	40
444.642	1774
444.714	1797
444.785	5305
444.857	3536
444.928	6140
445.000	3907
445.071	4839
445.143	6633
445.214	7658
445.285	8815
445.357	30953
445.428	116855
445.500	247950
445.571	170081
445.642	101720
445.714	29518
445.785	16376
445.856	7205
445.928	9071
445.999	7644
446.070	5399
446.141	6019
446.213	9593
446.284	2538
446.355	1494
446.426	1026
446.497	1474
446.569	2370
446.640	5664
446.711	6081
446.782	1150
446.853	1136
446.924	2303
446.995	2083
447.066	1474
447.138	1608
447.209	1646
447.280	-850
447.351	-46
447.422	229
447.493	710
447.564	2754
447.635	5449
447.706	1698
447.777	204
447.847	69
447.918	-324
447.989	853
448.060	1783
448.131	3878
448.202	6795
448.273	5415
448.344	903
448.414	974
448.485	759
448.556	169
448.627	-417
448.698	799
448.768	268
448.839	-686
448.910	2311
448.981	2377
449.051	1139
449.122	286
449.193	11
449.263	-452
449.334	271
449.405	1174
449.475	7799
449.546	4141
449.616	2199
449.687	2644
449.758	123
449.828	-156
449.899	296
449.969	-579
450.040	-279
450.110	1180
450.181	954
450.251	-32
450.322	-548
450.392	867
450.463	-73
450.533	-375
450.604	-490
450.674	-595
450.744	365
450.815	75
450.885	716
450.955	471
451.026	500
451.096	-720
451.166	864
451.237	2351
451.307	7391
451.377	2815
451.447	-133
451.518	-36
451.588	76
451.658	-344
451.728	1248
451.799	6497
451.869	8557
451.939	1709
452.009	330
452.079	-391
452.149	850
452.219	1224
452.289	7407
452.360	6337
452.430	1592
452.500	1422
452.570	2338
452.640	5510
452.710	17530
452.780	20321
452.850	16398
452.920	13325
452.990	3747
453.060	1723
453.129	3884
453.199	3253
453.269	8649
453.339	19232
453.409	29860
453.479	28415
453.549	43900
453.619	47150
453.688	20116
453.758	1536
453.828	151
453.898	125
453.968	515
454.037	61
454.087	387
454.107	513
454.168	-374
454.177	-517
454.247	530
454.249	515
454.316	-65
454.330	-19
454.386	139
454.411	1431
454.456	3533
454.492	4990
454.525	6320
454.574	3310
454.595	2003
454.655	294
454.665	1
454.734	312
454.736	374
454.804	2292
454.817	3228
454.873	7118
454.898	8165
454.943	10050
454.979	5912
455.013	2146
455.060	1257
455.082	853
455.141	744
455.152	695
455.221	5072
455.222	5121
455.291	8339
455.303	7480
455.360	3612
455.384	2808
455.430	1397
455.465	1812
455.499	2045
455.546	4927
455.569	6289
455.627	5760
455.638	5656
455.707	560
455.708	567
455.777	-137
455.789	-44
455.846	490
455.869	544
455.916	592
455.950	359
455.985	147
456.031	836
456.054	1103
456.112	195
456.124	46
456.193	306
456.193	294
456.262	169
456.274	439
456.332	1845
456.355	1587
456.401	1008
456.436	890
456.470	631
456.516	339
456.540	274
456.597	604
456.609	656
456.678	157
456.678	144
456.747	744
456.759	608
456.817	11
456.840	343
456.886	824
456.920	471
456.955	254
457.001	762
457.024	910
457.082	927
457.093	949
457.162	1857
457.163	1868
457.232	1447
457.243	1478
457.301	1704
457.324	1093
457.370	40
457.405	779
457.439	1370
457.485	1202
457.508	1267
457.566	1898
457.577	2026
457.646	2446
457.647	2471
457.715	6003
457.727	6779
457.784	10510
457.808	14588
457.853	20039
457.889	22625
457.922	23354
457.969	14492
457.991	13084
458.050	16926
458.060	17511
458.129	33097
458.130	33475
458.198	34441
458.211	29444
458.267	12472
458.292	8583
458.336	5106
458.372	5298
458.405	8384
458.453	14346
458.474	17328
458.533	30361
458.543	31346
458.611	56092
458.614	55978
458.680	32495
458.694	25186
458.749	8485
458.775	5978
458.818	3259
458.855	2661
458.887	2098
458.936	1670
458.955	1544
459.016	1350
459.024	1421
459.093	2855
459.097	2860
459.162	2050
459.177	2251
459.230	3484
459.257	3828
459.299	3825
459.338	3777
459.368	3700
459.418	3778
459.437	3683
459.499	2520
459.505	2446
459.574	1766
459.579	1771
459.643	1769
459.659	1738
459.711	1819
459.740	2099
459.780	2522
459.820	2258
459.849	1919
459.900	2366
459.917	2587
459.981	2169
459.986	2101
460.054	1943
460.061	1907
460.123	2453
460.141	2818
460.191	3625
460.222	3849
460.260	3816
460.302	4760
460.328	4861
460.382	3130
460.397	2900
460.462	2172
460.465	2191
460.534	3883
460.543	4061
460.602	7952
460.623	9413
460.671	12515
460.703	16383
460.739	15618
460.783	12161
460.808	10545
460.864	3554
460.876	2874
460.944	2029
460.945	2018
461.013	2560
461.024	2519
461.081	2542
461.104	3062
461.150	3391
461.184	2932
461.218	2818
461.264	2804
461.286	2685
461.345	2405
461.355	2369
461.423	2558
461.425	2548
461.491	2414
461.505	2507
461.559	3521
461.585	3923
461.628	4426
461.665	5456
461.696	6092
461.745	7921
461.764	7867
461.825	4500
461.832	4445
461.901	3350
461.905	3431
461.969	2770
461.985	2419
462.037	2666
462.065	3080
462.105	2742
462.145	2170
462.173	2669
462.225	3802
462.241	3987
462.305	5067
462.310	5029
462.378	4701
462.385	4436
462.446	3369
462.465	3358
462.514	3301
462.545	3262
462.582	3089
462.625	2965
462.650	2774
462.705	2384
462.718	2505
462.785	3082
462.786	3092
462.854	3238
462.865	3419
462.922	3699
462.945	3717
462.990	3649
463.025	3286
463.058	3135
463.104	2894
463.126	2886
463.184	3216
463.194	3238
463.262	2930
463.264	2940
463.330	3593
463.344	3638
463.398	3549
463.424	3590
463.466	3484
463.504	3243
463.533	3436
463.583	3767
463.601	3714
463.663	3654
463.669	3727
463.737	4616
463.743	4665
463.805	5346
463.823	5710
463.873	6671
463.903	7262
463.940	7414
463.982	7864
464.008	7313
464.062	5115
464.076	5010
464.142	3768
464.144	3747
464.211	3449
464.221	3494
464.279	3647
464.301	3623
464.347	3951
464.381	4372
464.414	3812
464.461	2918
464.482	3262
464.540	4140
464.550	4213
464.617	4703
464.620	4708
464.685	5251
464.699	5409
464.753	4994
464.779	4797
464.820	4689
464.859	4409
464.888	4065
464.938	3690
464.956	3954
465.018	4625
465.023	4595
465.091	4348
465.098	4302
465.158	4141
465.177	4141
465.226	4510
465.257	4566
465.293	4632
465.336	4816
465.361	5483
465.416	7013
465.428	6987
465.495	6938
465.496	6953
465.563	7683
465.575	7831
465.631	8618
465.654	9173
465.698	7597
465.734	5626
465.765	5127
465.813	4241
465.833	3948
465.893	3670
465.900	3675
465.968	3508
465.972	3501
466.035	4115
466.052	4211
466.102	4220
466.131	4339
466.170	4211
466.210	3947
466.237	4122
466.290	4491
466.304	4478
466.369	4291
466.372	4301
466.439	4428
466.449	4422
466.506	5193
466.528	5505
466.573	6760
466.607	7659
466.641	9553
466.687	12212
466.708	12867
466.766	14769
466.775	13994
466.842	7954
466.845	7651
466.909	6571
466.925	6362
466.977	5354
467.004	4845
467.044	5025
467.083	5223
467.111	5629
467.163	6312
467.178	6225
467.242	5852
467.245	5884
467.312	6351
467.321	6406
467.379	6140
467.400	6022
467.446	6566
467.480	6942
467.559	5451
467.638	5492
467.717	6146
467.796	7555
467.875	8478
467.955	6575
468.034	8901
468.113	12102
468.192	16090
468.271	6996
468.350	8356
468.429	11760
468.508	13872
468.588	8496
468.667	6816
468.746	7029
468.825	6075
468.904	6177
468.983	6412
469.062	8465
469.141	8905
469.220	5572
469.299	5119
469.378	4864
469.456	6463
469.535	5994
469.614	5405
469.693	5101
469.772	7105
469.851	7664
469.930	6982
470.009	6699
470.088	6847
470.166	9012
470.245	13415
470.324	15408
470.403	9103
470.482	6745
470.560	6536
470.639	7113
470.718	8774
470.797	5916
470.875	7481
470.954	8184
471.033	7225
471.111	5399
471.190	4234
471.269	4885
471.347	5334
471.426	5602
471.505	5548
471.583	5923
471.662	5180
471.740	5390
471.819	5598
471.898	4758
471.976	5775
472.055	5429
472.133	5394
472.212	6534
472.290	5785
472.369	5498
472.447	4634
472.526	4750
472.604	6055
472.683	6998
472.761	8066
472.839	6062
472.918	6949
472.996	5790
473.075	6282
473.153	6326
473.231	5104
473.310	7093
473.388	6661
473.466	7120
473.545	7630
473.623	11006
473.701	10822
473.780	6531
473.858	5311
473.936	7779
474.014	6033
474.093	7874
474.171	7829
474.249	8081
474.327	7758
474.405	5622
474.484	6207
474.562	6605
474.640	5728
474.718	5358
474.796	5929
474.874	6203
474.952	5449
475.030	5301
475.108	5750
475.187	5986
475.265	8218
475.343	13447
475.421	14479
475.499	6045
475.577	5736
475.655	6383
475.733	9267
475.811	11917
475.889	11483
475.966	8346
476.044	7519
476.122	10023
476.200	12191
476.278	8291
476.356	5755
476.434	7131
476.512	8543
476.590	11661
476.667	10132
476.745	5570
476.823	6582
476.901	6331
476.979	5068
477.056	5341
477.134	6152
477.212	6407
477.290	6632
477.367	5210
477.445	5447
477.523	5105
477.601	5505
477.678	6231
477.756	5323
477.834	7178
477.911	5550
477.989	5558
478.066	4745
478.144	7294
478.222	10975
478.299	17260
478.377	14554
478.454	5343
478.532	5690
478.609	6299
478.687	7777
478.764	5795
478.842	6474
478.919	6955
478.997	6900
479.074	5660
479.152	5923
479.229	6197
479.307	4632
479.384	5282
479.461	5179
479.539	5451
479.616	5604
479.694	5657
479.771	6550
479.848	5692
479.926	5126
480.003	8279
480.080	5357
480.157	5682
480.235	5541
480.312	6137
480.389	5441
480.467	6557
480.544	7106
480.621	6190
480.698	6738
480.775	6250
480.853	6567
480.930	5851
481.007	6455
481.084	6691
481.161	6511
481.238	6445
481.315	5139
481.392	5048
481.470	5254
481.547	6248
481.624	5296
481.701	5951
481.778	5200
481.855	5896
481.932	6955
482.009	9378
482.086	7550
482.163	8256
482.240	14256
482.317	24327
482.393	15376
482.470	6794
482.547	6760
482.624	6569
482.701	7264
482.778	5886
482.855	5419
482.932	6560
483.009	5581
483.085	7171
483.162	8800
483.239	9277
483.316	6535
483.393	7265
483.469	6375
483.546	6496
483.623	6133
483.699	4998
483.776	6065
483.853	6221
483.930	8293
484.006	11941
484.083	16471
484.160	10938
484.236	13324
484.313	10585
484.389	8837
484.466	9906
484.543	8665
484.619	10616
484.696	13368
484.772	9794
484.849	9175
484.925	9012
485.002	8337
485.078	10541
485.155	10473
485.231	8425
485.308	8081
485.384	7535
485.461	9436
485.537	12432
485.614	13154
485.690	8670
485.766	9233
485.843	10929
485.919	18992
485.995	18462
486.072	9144
486.148	7854
486.224	7213
486.301	8001
486.377	10015
486.453	11441
486.530	9944
486.606	10022
486.682	10104
486.758	12018
486.835	13252
486.911	12222
486.987	20149
487.063	37092
487.139	54976
487.215	32341
487.292	13162
487.368	11442
487.444	13366
487.520	18651
487.596	18093
487.672	43655
487.748	122718
487.824	165504
487.900	38050
487.976	13949
488.052	13844
488.128	17470
488.204	12680
488.280	10213
488.356	11564
488.432	15224
488.508	18307
488.584	11594
488.660	10368
488.736	10030
488.812	10513
488.888	14934
488.964	23771
489.039	59704
489.115	85546
489.191	41623
489.267	10122
489.343	9117
489.418	7698
489.494	6463
489.570	7298
489.646	8925
489.722	7513
489.797	8722
489.873	9536
489.949	15331
490.024	13671
490.100	7830
490.176	7571
490.251	13450
490.327	17215
490.403	9665
490.478	7924
490.554	6966
490.629	7264
490.705	8581
490.781	8887
490.856	8352
490.932	9633
491.007	10919
491.083	8472
491.158	6767
491.234	9252
491.309	13293
491.385	12595
491.460	7954
491.536	9010
491.611	8346
491.686	11098
491.762	16586
491.837	38697
491.913	59797
491.988	82940
492.063	98778
492.139	17555
492.214	9769
492.289	8114
492.365	8317
492.440	9654
492.515	7966
492.590	8085
492.666	7556
492.741	8767
492.816	10332
492.891	7294
492.967	7629
493.042	7727
493.117	6552
493.192	7474
493.267	9155
493.342	11115
493.418	10386
493.493	8190
493.568	7873
493.643	7965
493.718	8797
493.793	12267
493.868	17885
493.943	13557
494.018	9850
494.093	7306
494.168	7852
494.243	7387
494.318	6852
494.393	7766
494.468	8097
494.543	7953
494.618	10326
494.693	8144
494.768	6460
494.842	7554
494.917	7968
494.992	8102
495.067	7014
495.142	8562
495.217	8272
495.292	9404
495.366	9011
495.441	10253
495.516	14794
495.591	25347
495.665	91523
495.740	187296
495.815	61591
495.890	10320
495.964	7718
496.039	10993
496.114	8708
496.188	9122
496.263	9282
496.338	8670
496.412	8835
496.487	11215
496.561	12548
496.636	12793
496.710	9318
496.785	9135
496.860	9788
496.934	8913
497.009	10811
497.083	9592
497.158	10244
497.232	10961
497.307	10796
497.381	10575
497.455	10506
497.530	9972
497.604	8668
497.679	8873
497.753	12516
497.827	11953
497.902	10853
497.976	13033
498.050	29925
498.125	85238
498.199	82286
498.273	23483
498.348	18837
498.422	16840
498.496	16921
498.570	16058
498.645	9650
498.719	8691
498.793	10109
498.867	13319
498.941	16170
499.016	39356
499.090	83671
499.164	31623
499.238	9653
499.312	10698
499.386	14146
499.460	11616
499.534	10386
499.609	10682
499.683	12120
499.757	11048
499.831	21163
499.905	57545
499.979	50617
500.053	14533
500.127	18662
500.201	17380
500.275	12162
500.349	9547
500.422	10879
500.496	20238
500.570	41269
500.644	52200
500.718	62278
500.792	17646
500.866	9329
500.940	8916
501.013	9215
501.087	11230
501.161	22012
501.235	22099
501.309	25386
501.382	51351
501.456	47631
501.530	16424
501.603	18539
501.677	10047
501.751	7071
501.825	10038
501.898	11471
501.972	21340
502.046	15139
502.119	8395
502.193	16740
502.266	24294
502.340	14784
502.413	13916
502.487	21185
502.561	13193
502.634	9247
502.708	9706
502.781	8930
502.855	8515
502.928	6290
503.002	7650
503.075	6490
503.149	7347
503.222	6392
503.295	6441
503.369	7623
503.442	8384
503.516	20180
503.589	36778
503.662	24189
503.736	12585
503.809	20950
503.882	19468
503.956	30267
504.029	41151
504.102	81301
504.175	101910
504.249	28383
504.322	12496
504.395	9765
504.468	8483
504.542	7180
504.615	6129
504.688	7543
504.761	5766
504.834	9976
504.907	13352
504.980	20156
505.053	10069
505.127	12643
505.200	15396
505.273	7657
505.346	6484
505.419	5618
505.492	6944
505.565	4804
505.638	5884
505.711	5325
505.784	5536
505.857	5452
505.930	7182
506.003	4989
506.076	6961
506.149	5752
506.221	5855
506.294	7932
506.367	12581
506.440	30593
506.513	20202
506.586	7754
506.659	7342
506.731	6503
506.804	9385
506.877	11960
506.950	7660
507.022	7126
507.095	6086
507.168	7930
507.241	7983
507.313	6591
507.386	7495
507.459	11882
507.531	8012
507.604	5581
507.677	6732
507.749	5292
507.822	9427
507.894	12997
507.967	14078
508.040	7290
508.112	7485
508.185	7877
508.257	7292
508.330	14555
508.402	7198
508.475	5436
508.547	7572
508.620	6595
508.692	7789
508.765	6486
508.837	5140
508.909	7321
508.982	6100
509.054	7951
509.127	6324
509.199	5606
509.271	4823
509.344	5434
509.416	5519
509.488	5875
509.560	7617
509.633	7363
509.705	9093
509.777	8553
509.849	13803
509.922	6748
509.994	5926
510.066	6864
510.138	5024
510.210	9833
510.283	6878
510.355	8090
510.427	7710
510.499	6518
510.571	7015
510.643	8101
510.715	16916
510.787	13088
510.859	8075
510.931	9238
511.003	16862
511.076	14720
511.148	6182
511.219	5364
511.291	8261
511.363	9122
511.435	5645
511.507	4923
511.579	7446
511.651	6875
511.723	6055
511.795	6089
511.867	5911
511.939	7768
512.010	9100
512.082	9078
512.154	5572
512.226	7015
512.298	10853
512.369	13439
512.441	10377
512.513	12094
512.585	7335
512.656	9347
512.728	10977
512.800	7260
512.871	8060
512.943	8174
513.015	6162
513.086	8648
513.158	8825
513.230	7706
513.301	13143
513.373	16219
513.444	8229
513.516	7515
513.588	6496
513.659	9545
513.731	11339
513.802	10083
513.874	25892
513.945	41017
514.016	10907
514.088	8081
514.159	7833
514.231	12872
514.302	13312
514.374	8261
514.445	6252
514.516	11685
514.588	8373
514.659	7688
514.730	9556
514.802	12088
514.873	5960
514.944	9170
515.016	9636
515.087	11598
515.158	10332
515.229	12200
515.301	5995
515.372	8893
515.443	6612
515.514	6338
515.585	5965
515.656	7845
515.728	7459
515.799	6629
515.870	8870
515.941	8346
516.012	7609
516.083	11075
516.154	10719
516.225	18586
516.296	15744
516.367	12457
516.438	13657
516.509	19832
516.580	33767
516.651	112560
516.722	321565
516.793	126606
516.864	24744
516.935	22163
517.006	23237
517.077	39041
517.148	108099
517.219	342107
517.289	409622
517.360	67660
517.431	22796
517.502	12711
517.573	12583
517.643	11165
517.714	11894
517.785	13429
517.856	12822
517.926	16932
517.997	18028
518.068	21468
518.138	32227
518.209	58841
518.280	235846
518.350	662535
518.421	209341
518.492	28118
518.562	18684
518.633	18199
518.703	21687
518.774	48604
518.845	126968
518.915	111407
518.986	27574
519.056	21567
519.127	33948
519.197	43779
519.268	49798
519.338	25262
519.408	13910
519.479	25032
519.549	16762
519.620	11028
519.690	8476
519.760	8349
519.831	10073
519.901	9498
519.971	7919
520.042	8590
520.112	7824
520.182	12710
520.253	14226
520.323	7930
520.393	9474
520.463	15192
520.534	7657
520.604	16323
520.674	10372
520.744	10409
520.814	18224
520.885	18850
520.955	16386
521.025	36902
521.095	17033
521.165	9082
521.235	8027
521.305	7325
521.375	8124
521.445	10028
521.515	14077
521.585	17397
521.655	14471
521.725	11945
521.795	9483
521.865	5372
521.935	10229
522.005	7722
522.075	6458
522.145	9221
522.215	6863
522.285	10440
522.355	10402
522.424	16366
522.494	12896
522.564	15512
522.634	39520
522.704	106970
522.774	36048
522.843	10220
522.913	10163
522.983	13039
523.053	8817
523.122	11691
523.192	17898
523.262	58802
523.331	47147
523.401	10367
523.471	8533
523.540	8941
523.610	5859
523.680	7670
523.749	7852
523.819	8460
523.888	7940
523.958	7367
524.027	7661
524.097	9208
524.166	8327
524.236	9444
524.305	9831
524.375	7568
524.444	6316
524.514	9291
524.583	8196
524.653	7704
524.722	9000
524.791	6737
524.861	9323
524.930	7733
524.999	9582
525.069	13272
525.138	8257
525.207	9361
525.277	9524
525.346	10123
525.415	9137
525.484	10065
525.554	10630
525.623	10526
525.692	11547
525.761	10971
525.830	13728
525.900	16097
525.969	24119
526.038	42444
526.107	94007
526.176	247776
526.245	175978
526.314	58559
526.383	129698
526.452	165815
526.522	269738
526.591	226749
526.660	62697
526.729	31399
526.797	38941
526.867	92590
526.935	342111
527.004	547333
527.073	250972
527.142	25293
527.211	14411
527.280	15819
527.349	15119
527.418	8346
527.487	11037
527.555	8650
527.624	8769
527.693	7539
527.762	10717
527.831	8214
527.899	8993
527.968	8043
528.037	7306
528.106	11441
528.174	18313
528.243	13531
528.312	17871
528.380	23439
528.449	7823
528.518	9130
528.586	5543
528.655	8668
528.723	6817
528.792	7255
528.861	7411
528.929	6601
528.998	7599
529.066	7761
529.135	9332
529.203	8078
529.272	9042
529.340	11275
529.409	11387
529.477	9258
529.545	10017
529.614	12628
529.682	10217
529.751	12707
529.819	14925
529.887	12910
529.956	11773
530.024	12705
530.092	10807
530.161	13319
530.229	18902
530.297	12964
530.365	13338
530.434	12958
530.502	11775
530.570	11790
530.638	10190
530.707	12193
530.775	12674
530.843	10365
530.911	11418
530.979	11758
531.047	11855
531.115	12263
531.183	10772
531.252	12502
531.320	11092
531.388	10713
531.456	12505
531.524	11180
531.592	13020
531.660	15774
531.728	11436
531.796	12323
531.864	13000
531.932	12838
532.000	11500
532.067	14244
532.135	14963
532.203	16590
532.271	16469
532.339	25451
532.407	52752
532.475	29332
532.542	18383
532.610	20641
532.678	29359
532.746	101823
532.814	207420
532.881	53651
532.949	16330
533.017	14458
533.084	12830
533.152	14123
533.220	13753
533.287	14249
533.355	14223
533.423	14372
533.490	12704
533.558	13688
533.625	13882
533.693	12570
533.761	13492
533.828	14042
533.896	13411
533.963	23405
534.031	26323
534.098	37577
534.166	20802
534.233	14122
534.300	14654
534.368	15188
534.435	13088
534.503	14260
534.570	15358
534.637	15105
534.705	16858
534.772	19957
534.840	33621
534.907	124393
534.974	130602
535.041	21529
535.109	14591
535.176	12806
535.243	13413
535.310	14530
535.378	13830
535.445	14087
535.512	13060
535.579	12850
535.646	12298
535.714	12775
535.781	14320
535.848	14026
535.915	13779
535.982	13012
536.049	12295
536.116	14797
536.183	12149
536.250	13751
536.317	13657
536.384	15335
536.451	21318
536.518	20480
536.585	15421
536.652	18702
536.719	24471
536.786	18723
536.853	17019
536.920	22096
536.987	32685
537.053	36748
537.120	123766
537.187	92137
537.254	16985
537.321	14008
537.388	15673
537.454	12754
537.521	13510
537.588	12732
537.654	14148
537.721	14760
537.788	15359
537.855	13524
537.921	13810
537.988	14209
538.055	13755
538.121	13656
538.188	13366
538.254	19570
538.321	33300
538.388	21211
538.454	15169
538.521	13965
538.587	15171
538.654	14688
538.720	13804
538.787	14376
538.853	15331
538.920	15157
538.986	13405
539.053	13309
539.119	14971
539.185	15858
539.252	18334
539.318	24876
539.385	19297
539.451	16476
539.517	17830
539.583	20670
539.650	42682
539.716	92461
539.782	28519
539.849	16115
539.915	15698
539.981	16499
540.047	17291
540.114	16857
540.180	17214
540.246	15847
540.312	20894
540.378	34355
540.444	35118
540.510	46110
540.576	106025
540.643	34411
540.709	15160
540.775	15077
540.841	13794
540.907	16410
540.973	18587
541.039	21355
541.105	22629
541.171	16139
541.237	14850
541.303	16033
541.369	18542
541.435	20518
541.500	31949
541.566	20813
541.632	14676
541.698	13932
541.764	14594
541.830	14685
541.896	13870
541.961	14802
542.027	15619
542.093	16419
542.159	16157
542.224	14604
542.290	20864
542.356	31520
542.421	34341
542.487	17967
542.553	14788
542.618	15904
542.684	15430
542.750	16552
542.815	19942
542.881	31244
542.947	95787
543.012	65173
543.078	15927
543.143	14381
543.209	16320
543.274	17583
543.340	20761
543.405	43586
543.471	59683
543.536	19009
543.602	15188
543.667	13605
543.732	15674
543.798	14305
543.863	15812
543.928	14525
543.994	13827
544.059	15199
544.124	15032
544.190	15786
544.255	16733
544.320	17420
544.386	16382
544.451	21861
544.516	24170
544.581	26040
544.646	65042
544.712	88886
544.777	21869
544.842	16700
544.907	16799
544.972	16974
545.037	17247
545.102	17580
545.168	18124
545.233	19507
545.298	19080
545.363	20169
545.428	24627
545.493	41173
545.558	80358
545.623	33553
545.688	18449
545.753	18470
545.818	18623
545.883	19540
545.947	19051
546.012	20940
546.077	19668
546.142	23050
546.207	23054
546.272	25918
546.337	27150
546.401	24145
546.466	24340
546.531	23547
546.596	26329
546.661	27470
546.725	28247
546.790	26695
546.855	30137
546.919	31491
546.984	34830
547.049	37370
547.113	41537
547.178	44608
547.243	49809
547.307	57489
547.372	64578
547.436	63125
547.501	65151
547.565	71665
547.630	67883
547.695	63762
547.759	62247
547.823	62715
547.888	62727
547.952	66137
548.017	68013
548.081	71010
548.146	71823
548.210	72054
548.274	74622
548.339	73652
548.403	68576
548.468	64353
548.532	63141
548.596	65290
548.660	65670
548.725	73680
548.789	79003
548.853	76584
548.917	72059
548.982	71741
549.046	64937
549.110	58905
549.174	60109
549.238	69516
549.303	75390
549.367	78174
549.431	73589
549.495	70361
549.559	68749
549.623	81159
549.687	90457
549.751	96701
549.815	104197
549.879	103127
549.943	98630
550.007	104892
550.071	103784
550.135	100155
550.199	89620
550.263	88512
550.327	83214
550.391	86410
550.455	94062
550.519	99436
550.582	105115
550.646	125791
550.710	126152
550.774	116569
550.838	117198
550.901	118459
550.965	125594
551.029	127532
551.093	137265
551.156	146180
551.220	161667
551.284	176782
551.347	139516
551.411	132011
551.475	129012
551.538	128011
551.602	118971
551.666	113614
551.729	106144
551.793	106936
551.856	103357
551.920	102250
551.983	102334
552.047	101729
552.110	101665
552.174	102976
552.237	105978
552.301	98267
552.364	94622
552.428	93356
552.491	94571
552.554	99912
552.618	96924
552.681	99605
552.745	98425
552.808	111628
552.871	117919
552.934	104283
552.998	97605
553.061	93486
553.124	93370
553.187	94333
553.251	95776
553.314	94222
553.377	95977
553.440	101804
553.503	105352
553.567	105454
553.630	102668
553.693	104066
553.756	105033
553.819	102286
553.882	99505
553.945	101544
554.008	99999
554.071	101390
554.134	101652
554.197	97692
554.260	96345
554.323	99828
554.386	99948
554.449	102065
554.512	102376
554.575	96712
554.638	97403
554.701	97202
554.764	96077
554.827	92354
554.889	90139
554.952	84377
555.015	83027
555.078	83704
555.141	84544
555.203	82704
555.266	84038
555.329	82271
555.391	80770
555.454	80629
555.517	76975
555.580	73185
555.642	70948
555.705	69904
555.768	70767
555.830	67078
555.893	64089
555.955	63518
556.018	62647
556.080	63498
556.143	64948
556.206	64427
556.268	63526
556.330	61346
556.393	59320
556.455	58611
556.518	59380
556.580	58011
556.643	52895
556.705	52199
556.767	52383
556.830	52863
556.892	53311
556.955	60581
557.017	51500
557.079	48991
557.142	48933
557.204	50390
557.266	63288
557.328	53587
557.391	41184
557.453	41187
557.515	42207
557.577	45162
557.639	45253
557.701	40344
557.764	39786
557.826	40049
557.888	40145
557.950	42617
558.012	44493
558.074	55359
558.136	102991
558.198	198002
558.260	75103
558.322	42216
558.384	42768
558.446	45512
558.508	46819
558.570	55814
558.632	74848
558.694	99870
558.756	124969
558.818	328605
558.880	621073
558.942	204470
559.003	201993
559.065	94165
559.127	47145
559.189	48332
559.251	56914
559.312	79423
559.374	177123
559.436	468016
559.498	198307
559.559	49921
559.621	47627
559.683	57095
559.744	91603
559.806	259917
559.868	319124
559.929	66558
559.991	51639
560.052	81633
560.114	196290
560.176	117119
560.237	122394
560.299	171189
560.360	43821
560.422	26340
560.483	25566
560.545	26059
560.606	24622
560.667	24390
560.729	23196
560.790	22644
560.852	22967
560.913	23876
560.974	22514
561.036	21756
561.097	23337
561.158	23038
561.220	22782
561.281	22637
561.342	23023
561.403	26945
561.465	31321
561.526	56266
561.587	61644
561.648	25337
561.709	22405
561.771	23110
561.832	22420
561.893	22230
561.954	21977
562.015	21658
562.076	21560
562.137	23672
562.198	21088
562.259	22132
562.320	23465
562.381	25145
562.442	30126
562.503	25456
562.564	21661
562.625	21288
562.686	22128
562.747	23565
562.808	22369
562.869	21753
562.930	22636
562.991	21196
563.051	20828
563.112	20660
563.173	20662
563.234	19773
563.294	20564
563.355	20734
563.416	20135
563.477	19535
563.537	20201
563.598	20916
563.659	20376
563.720	21069
563.780	21281
563.841	21953
563.901	20877
563.962	20266
564.023	19731
564.083	21110
564.144	20266
564.204	20207
564.265	19914
564.325	22043
564.386	25110
564.446	23668
564.507	19817
564.567	19847
564.628	19543
564.688	20034
564.749	19757
564.809	21137
564.869	22890
564.930	20577
564.990	21006
565.050	20334
565.111	20822
565.171	19867
565.231	20719
565.292	21339
565.352	19655
565.412	20703
565.472	20293
565.532	21020
565.593	19663
565.653	19527
565.713	21230
565.773	22182
565.833	24171
565.893	26667
565.953	20810
566.013	21289
566.074	21033
566.134	21574
566.194	26291
566.254	26774
566.314	21496
566.374	20410
566.434	20102
566.494	19933
566.554	20274
566.614	20523
566.673	21163
566.733	19874
566.793	21529
566.853	20345
566.913	21077
566.973	21526
567.033	21589
567.092	22391
567.152	21189
567.212	21893
567.272	20069
567.331	21074
567.391	20597
567.451	20600
567.511	23555
567.570	23027
567.630	19859
567.690	20457
567.749	19307
567.809	20065
567.868	21481
567.928	20747
567.988	21069
568.047	20690
568.107	21623
568.166	22334
568.226	25696
568.285	28535
568.345	24249
568.404	23616
568.464	21318
568.523	21982
568.582	22511
568.642	23631
568.701	25459
568.761	28075
568.820	35294
568.879	31326
568.939	27366
568.998	23046
569.057	20975
569.116	20196
569.176	19681
569.235	19610
569.294	20407
569.353	19397
569.413	19743
569.472	19085
569.531	18347
569.590	18232
569.649	18512
569.708	18644
569.767	19980
569.827	23205
569.886	20382
569.945	18547
570.004	19288
570.063	20562
570.122	21282
570.181	20467
570.240	20916
570.299	21270
570.358	23516
570.417	19104
570.475	19434
570.534	20435
570.593	20754
570.652	21410
570.711	21882
570.770	19776
570.829	19863
570.887	19641
570.946	21148
571.005	19153
571.064	19813
571.122	20141
571.181	20865
571.240	18443
571.299	18358
571.357	19382
571.416	18736
571.475	19731
571.533	20663
571.592	19488
571.650	19516
571.709	18658
571.768	20157
571.826	19525
571.885	19021
571.943	18736
572.002	18802
572.060	17606
572.119	17732
572.177	17923
572.236	16953
572.294	18104
572.352	18115
572.411	17895
572.469	18915
572.528	18494
572.586	18830
572.644	19279
572.703	22900
572.761	20009
572.819	17798
572.877	16344
572.936	17060
572.994	16867
573.052	16218
573.110	17365
573.169	17266
573.227	16753
573.285	16878
573.343	16755
573.401	16977
573.459	16007
573.517	16198
573.576	16890
573.634	16421
573.692	18042
573.750	16358
573.808	17325
573.866	16644
573.924	19126
573.982	17767
574.040	16347
574.098	15738
574.155	15730
574.213	15612
574.271	15785
574.329	16639
574.387	15539
574.445	14972
574.503	14623
574.560	14798
574.618	15095
574.676	14967
574.734	15615
574.792	14862
574.849	15631
574.907	14113
574.965	14602
575.022	14147
575.080	14416
575.138	15563
575.195	15016
575.253	14749
575.311	16337
575.368	14645
575.426	13543
575.483	14868
575.541	14111
575.598	14470
575.656	14637
575.713	15332
575.771	15036
575.828	14656
575.886	13305
575.943	14433
576.001	14433
576.058	14162
576.115	15452
576.173	16443
576.230	17190
576.287	17917
576.345	15603
576.402	15650
576.459	15549
576.517	15116
576.574	16068
576.631	15112
576.688	14610
576.746	14612
576.803	14940
576.860	13878
576.917	15187
576.974	13906
577.031	14952
577.089	14630
577.146	14855
577.203	13966
577.260	14837
577.317	15086
577.374	15349
577.431	14595
577.488	14008
577.545	13250
577.602	14094
577.659	14789
577.716	14462
577.773	14510
577.830	13564
577.886	14572
577.943	13780
578.000	13875
578.057	14408
578.114	13827
578.171	14119
578.227	12983
578.284	13568
578.341	14978
578.398	14235
578.454	13437
578.511	14963
578.568	16350
578.625	15125
578.681	14401
578.738	13404
578.794	14992
578.851	14875
578.908	15658
578.964	18562
579.021	17749
579.077	16361
579.134	15441
579.190	15278
579.247	15168
579.303	14378
579.360	13632
579.416	15216
579.473	14740
579.529	14465
579.586	13592
579.642	15358
579.698	14658
579.755	14753
579.811	15540
579.867	14656
579.924	14605
579.980	14072
580.036	15018
580.093	13736
580.149	15055
580.205	14988
580.261	15123
580.317	15825
580.374	16504
580.430	18151
580.486	16548
580.542	14931
580.598	14467
580.619	14827
580.654	15467
580.692	15944
580.710	16203
580.765	15874
580.767	15877
580.823	16576
580.838	16575
580.879	16620
580.911	16266
580.935	16033
580.984	15580
580.991	15534
581.047	15742
581.057	15724
581.103	15729
581.130	16021
581.159	16298
581.203	15417
581.215	15207
581.270	15014
581.276	15038
581.326	15402
581.349	15578
581.382	15818
581.422	16306
581.438	16520
581.494	15820
581.494	15810
581.550	15405
581.567	15821
581.606	16719
581.640	16099
581.661	15735
581.713	16362
581.717	16416
581.773	16592
581.786	16459
581.829	16063
581.859	16423
581.885	16743
581.932	17471
581.940	17597
581.996	17488
582.004	17402
582.052	16939
582.077	17166
582.107	17499
582.150	16946
582.163	16763
582.219	16775
582.223	16806
582.274	17374
582.296	17376
582.330	17268
582.368	16764
582.386	16609
582.441	16359
582.441	16360
582.497	17001
582.514	16966
582.552	16983
582.587	17260
582.608	17446
582.659	17218
582.663	17194
582.719	18050
582.732	17812
582.774	17010
582.805	17372
582.830	17820
582.877	17515
582.885	17429
582.941	18071
582.950	18048
582.996	18056
583.023	18493
583.052	19035
583.095	18454
583.107	18232
583.162	18206
583.168	18223
583.218	18373
583.240	18208
583.273	17907
583.313	18138
583.328	18345
583.384	17388
583.385	17382
583.439	16764
583.458	16961
583.494	17460
583.531	17307
583.549	17356
583.603	17499
583.605	17492
583.660	18226
583.676	18151
583.715	17867
583.748	17588
583.770	17545
583.820	18290
583.825	18338
583.881	18364
583.893	18265
583.936	18168
583.965	18085
583.991	17896
584.038	18161
584.046	18185
584.101	18046
584.110	18014
584.156	18166
584.183	18214
584.211	18130
584.255	17396
584.266	17258
584.321	18406
584.328	18430
584.376	18624
584.400	18546
584.431	18364
584.472	18238
584.486	18229
584.541	19703
584.545	19694
584.596	19571
584.617	19695
584.651	20192
584.689	20596
584.706	20555
584.761	19988
584.762	19986
584.816	20604
584.834	20733
584.871	21236
584.906	21604
584.926	21650
584.978	21426
584.980	21440
585.035	22916
585.051	23255
585.090	24296
585.123	24429
585.145	24441
585.195	25745
585.200	25916
585.254	27284
585.267	27659
585.309	29066
585.340	30329
585.364	31437
585.412	34194
585.419	34747
585.473	41184
585.484	42771
585.528	51967
585.556	60839
585.583	81131
585.628	123676
585.637	141179
585.692	288428
585.700	309770
585.747	369867
585.772	323400
585.801	197255
585.845	68289
585.856	57925
585.910	37026
585.917	34707
585.965	31233
585.989	30010
586.019	29378
586.061	29098
586.074	29182
586.128	28823
586.133	28852
586.183	29882
586.205	29817
586.237	29398
586.277	28971
586.292	28803
586.346	28590
586.349	28580
586.401	29185
586.421	29132
586.455	29418
586.493	30306
586.509	31981
586.564	37529
586.565	37721
586.618	50574
586.637	51866
586.672	44079
586.709	37136
586.727	36347
586.781	35929
586.781	35953
586.835	32091
586.853	30775
586.889	29467
586.925	28869
586.944	29032
586.996	29652
586.998	29682
587.052	29850
587.068	29867
587.106	30567
587.140	30597
587.161	30341
587.212	30447
587.215	30514
587.269	31403
587.284	31587
587.323	32072
587.356	32439
587.377	32734
587.427	33592
587.431	33679
587.485	33785
587.499	33806
587.539	33973
587.571	34416
587.593	35039
587.643	36196
587.648	36308
587.702	36483
587.715	36807
587.755	38104
587.786	38261
587.810	37955
587.858	37637
587.864	37825
587.917	39678
587.930	40059
587.971	41635
588.001	42473
588.025	42316
588.073	41750
588.079	41906
588.133	43464
588.145	43786
588.187	45696
588.217	46867
588.241	48117
588.288	50745
588.295	51189
588.348	55360
588.360	55975
588.402	59132
588.431	61862
588.456	64606
588.503	69607
588.510	70463
588.564	78178
588.575	80079
588.617	90713
588.646	98546
588.671	107483
588.718	128522
588.725	134270
588.778	185755
588.789	198544
588.832	305009
588.861	388434
588.886	509718
588.932	758396
588.939	774690
588.993	825262
589.004	820926
589.047	573646
589.075	402726
589.100	309446
589.147	170650
589.154	164262
589.207	128815
589.218	122574
589.261	117441
589.290	116201
589.314	121585
589.361	136074
589.368	142631
589.421	202564
589.433	217559
589.475	357204
589.504	469676
589.528	573321
589.576	751545
589.582	732088
589.635	468919
589.647	411644
589.689	239234
589.718	135947
589.742	115516
589.790	82154
589.795	81268
589.849	74810
589.861	73634
589.902	73096
589.932	71526
589.955	65753
590.004	53738
590.009	53453
590.062	50612
590.075	49752
590.115	48657
590.146	47676
590.168	47559
590.218	47532
590.222	47605
590.275	47472
590.289	47294
590.328	47148
590.360	46944
590.381	46605
590.431	45350
590.435	45422
590.488	45644
590.503	45667
590.541	46354
590.574	46562
590.594	46477
590.645	46201
590.647	46287
590.700	46228
590.716	46144
590.753	45872
590.787	45624
590.806	46129
590.859	47093
590.859	47180
590.912	47230
590.930	47241
590.965	48073
591.001	48727
591.018	48642
591.071	48041
591.072	47952
591.124	49072
591.143	49221
591.177	49481
591.214	49883
591.230	50472
591.283	52012
591.285	51969
591.336	52241
591.356	52176
591.389	52031
591.427	51511
591.442	51171
591.495	49753
591.498	49545
591.547	49295
591.569	49036
591.600	49070
591.640	48876
591.653	49261
591.706	50366
591.711	50410
591.759	52217
591.782	52953
591.811	54346
591.853	55969
591.864	55649
591.917	53415
591.924	52982
591.969	52891
591.995	52677
592.022	52986
592.066	53256
592.075	53905
592.127	57163
592.137	57670
592.180	60978
592.208	62805
592.233	60750
592.279	56505
592.285	56537
592.338	55778
592.350	55490
592.390	54794
592.421	54090
592.443	54671
592.491	55577
592.495	55695
592.548	55752
592.562	55660
592.600	55659
592.633	55436
592.653	55334
592.704	54467
592.705	54815
592.775	56626
592.846	57081
592.916	59398
592.987	60464
593.058	59999
593.128	57320
593.199	57432
593.270	56841
593.341	56098
593.411	59353
593.482	60189
593.553	59871
593.623	59420
593.694	61434
593.764	62906
593.835	61079
593.906	61460
593.976	61239
594.047	64581
594.117	70638
594.188	70824
594.258	63916
594.329	64355
594.399	65141
594.470	66945
594.540	66819
594.611	68659
594.681	68273
594.751	68227
594.822	71551
594.892	73957
594.963	76424
595.033	77261
595.103	77666
595.174	80060
595.244	90804
595.314	100824
595.384	82112
595.455	81853
595.525	84850
595.595	86601
595.665	86415
595.736	86968
595.806	87660
595.876	87824
595.946	87636
596.016	89504
596.087	92291
596.157	92779
596.227	93331
596.297	97421
596.367	104615
596.437	108937
596.507	115922
596.577	122349
596.647	109080
596.717	111875
596.787	113198
596.857	113035
596.927	113135
596.997	114114
597.067	113987
597.137	116478
597.207	118977
597.277	119981
597.347	114550
597.417	111976
597.487	113593
597.557	114777
597.626	117692
597.696	121264
597.766	124866
597.836	127161
597.906	110949
597.975	105961
598.045	106846
598.115	109403
598.185	117050
598.254	129080
598.324	138912
598.394	141342
598.464	137475
598.533	133057
598.603	124921
598.672	124294
598.742	125282
598.812	126353
598.881	129021
598.951	126516
599.020	128273
599.090	130710
599.159	135985
599.229	128804
599.299	127316
599.368	130252
599.437	128654
599.507	120986
599.576	117868
599.646	117053
599.715	116994
599.785	115655
599.854	114376
599.924	116085
599.993	113072
600.062	115254
600.132	114656
600.201	122956
600.270	139208
600.340	144019
600.409	141534
600.478	139901
600.547	141701
600.617	134782
600.686	112908
600.755	104742
600.824	102327
600.894	99214
600.963	97401
601.032	97639
601.101	95743
601.170	93660
601.239	94409
601.308	96514
601.378	94604
601.447	92636
601.516	95170
601.585	97813
601.654	103206
601.723	98733
601.792	98511
601.861	101718
601.930	107437
601.999	110404
602.068	107203
602.137	114915
602.206	114094
602.275	111088
602.343	115134
602.412	116423
602.481	112142
602.550	112351
602.619	113408
602.688	114578
602.756	115857
602.825	114582
602.894	117509
602.963	119408
603.032	119841
603.100	121202
603.169	119643
603.238	122886
603.307	121007
603.375	120375
603.444	124257
603.513	123210
603.581	127654
603.650	128977
603.719	121613
603.787	122468
603.856	127352
603.924	129064
603.993	133783
604.061	137622
604.130	141110
604.198	144883
604.267	147733
604.335	150325
604.404	148300
604.472	151206
604.541	153214
604.609	155170
604.678	155450
604.746	156612
604.815	162366
604.883	163225
604.951	162718
605.020	165006
605.088	166028
605.156	165187
605.225	168252
605.293	168599
605.361	169542
605.429	171492
605.498	174170
605.566	178271
605.634	186081
605.702	191085
605.771	195654
605.839	196706
605.907	192206
605.975	184170
606.043	183224
606.111	180907
606.180	182233
606.248	177797
606.316	179197
606.384	180770
606.452	182995
606.520	186963
606.588	184654
606.656	181924
606.724	178363
606.792	169998
606.860	152260
606.928	140467
606.996	135164
607.064	131128
607.132	134598
607.200	144510
607.267	149296
607.335	150792
607.403	152776
607.471	150287
607.539	144933
607.607	145412
607.674	129364
607.742	131694
607.810	131381
607.878	131292
607.946	132175
608.013	139509
608.081	141727
608.149	141946
608.216	145949
608.284	150325
608.352	149513
608.419	149717
608.487	155823
608.555	146259
608.622	145752
608.690	156445
608.757	170171
608.825	174047
608.893	170973
608.960	167488
609.028	162816
609.095	165199
609.163	155508
609.230	139208
609.298	129172
609.365	134737
609.432	143778
609.500	155717
609.567	178840
609.635	202258
609.702	212973
609.769	203897
609.837	161626
609.904	140417
609.971	140961
610.039	156131
610.106	200178
610.173	362539
610.241	791647
610.308	437476
610.375	178629
610.442	149414
610.509	139874
610.577	142293
610.644	143271
610.711	148619
610.778	153306
610.845	158054
610.912	167837
610.980	174636
611.047	172724
611.114	172415
611.181	166081
611.248	164746
611.315	174133
611.382	178761
611.449	183103
611.516	187756
611.583	182986
611.650	185673
611.717	188259
611.784	190549
611.851	198121
611.918	212842
611.984	241739
612.051	327321
612.118	607040
612.185	1342254
612.252	849456
612.319	282394
612.386	240175
612.452	221819
612.519	214529
612.586	217443
612.653	215770
612.719	217565
612.786	208757
612.853	194473
612.919	190914
612.986	193770
613.053	183614
613.120	172055
613.186	164586
613.253	168814
613.319	167291
613.386	171614
613.453	171503
613.519	176457
613.586	180885
613.652	193882
613.719	186172
613.785	182671
613.852	175402
613.918	172116
613.985	173810
614.051	181361
614.118	178126
614.184	172269
614.250	172595
614.317	176372
614.383	171374
614.449	178534
614.516	177854
614.582	178992
614.648	174317
614.715	171161
614.781	168909
614.847	171017
614.914	170662
614.980	166169
615.046	165828
615.112	170468
615.179	168668
615.245	172011
615.311	168971
615.377	172739
615.443	176128
615.509	176112
615.575	180571
615.642	179006
615.708	183343
615.774	191921
615.840	205856
615.906	216968
615.972	251671
616.038	364223
616.104	710866
616.170	1493804
616.236	1237762
616.302	388253
616.368	307882
616.434	228549
616.500	215276
616.565	240307
616.631	293582
616.697	240246
616.763	249100
616.829	367328
616.895	640626
616.961	577802
617.026	253601
617.092	189229
617.158	183944
617.224	180117
617.289	170465
617.355	163672
617.421	163409
617.487	162012
617.552	154491
617.618	151830
617.684	150496
617.749	154768
617.815	146051
617.880	144456
617.946	144698
618.012	147918
618.077	149716
618.143	144489
618.208	147072
618.274	155931
618.339	157969
618.405	133833
618.470	135554
618.536	135512
618.601	136325
618.667	127809
618.732	120749
618.798	120347
618.863	120019
618.928	118488
618.994	122430
619.059	125358
619.124	138623
619.190	124986
619.255	119410
619.320	119323
619.386	118655
619.451	117186
619.516	115319
619.581	115838
619.647	119873
619.712	121018
619.777	113769
619.842	117946
619.907	119716
619.972	120948
620.038	120519
620.103	113974
620.168	115106
620.233	118773
620.298	117261
620.363	118490
620.428	121962
620.493	123056
620.558	124960
620.623	125005
620.688	124471
620.753	124321
620.818	126438
620.883	126985
620.948	127057
621.013	125362
621.078	125582
621.143	124494
621.207	129000
621.272	127340
621.337	126873
621.402	128590
621.467	135792
621.532	135079
621.596	130533
621.661	124279
621.726	121552
621.791	122911
621.855	125604
621.920	125646
621.985	124971
622.049	131142
622.114	129046
622.179	129772
622.243	134096
622.308	135203
622.373	138573
622.437	136335
622.502	128648
622.566	128972
622.631	129995
622.695	132137
622.760	131042
622.824	131349
622.889	131625
622.953	135273
623.018	155448
623.082	154986
623.147	138174
623.211	134605
623.276	135112
623.340	128661
623.404	123019
623.469	125215
623.533	126421
623.597	121572
623.662	121861
623.726	115926
623.790	109210
623.854	109384
623.919	110384
623.983	111808
624.047	113781
624.111	113058
624.176	115489
624.240	120201
624.304	122473
624.368	113918
624.432	114696
624.496	116100
624.560	125326
624.625	127476
624.689	120189
624.753	124066
624.817	117997
624.881	116060
624.945	107477
625.009	104180
625.073	107781
625.137	112392
625.201	122721
625.265	122396
625.329	109733
625.393	112785
625.456	112906
625.520	114271
625.584	117584
625.648	125245
625.712	142588
625.776	195602
625.839	202790
625.903	120064
625.967	99157
626.031	121043
626.095	153468
626.158	109463
626.222	86034
626.286	82354
626.349	80748
626.413	75716
626.477	77168
626.540	76342
626.604	75122
626.668	75162
626.731	72620
626.795	76147
626.858	75849
626.922	72491
626.986	72480
627.049	70684
627.113	75036
627.176	72305
627.240	70574
627.303	71961
627.366	69784
627.430	70470
627.493	69601
627.557	69997
627.620	71394
627.684	71775
627.747	71278
627.810	65937
627.874	64055
627.937	60267
628.000	65607
628.064	63361
628.127	56015
628.190	56400
628.253	56586
628.317	53922
628.380	51984
628.443	51350
628.506	52904
628.569	49302
628.632	47537
628.696	46812
628.759	47110
628.822	45323
628.885	43899
628.948	42938
629.011	45897
629.074	43659
629.137	42736
629.200	42308
629.263	46101
629.326	40852
629.389	42607
629.452	41573
629.515	40783
629.578	40458
629.641	43710
629.704	41814
629.767	41931
629.830	39255
629.892	38575
629.955	38903
630.018	40846
630.081	41427
630.144	45951
630.207	39143
630.269	41996
630.332	41189
630.395	37835
630.458	36823
630.520	36723
630.583	37262
630.646	35461
630.708	35085
630.771	35742
630.834	37451
630.896	35542
630.959	36162
631.021	35282
631.084	35718
631.146	37834
631.209	38654
631.272	36236
631.334	35979
631.397	35904
631.459	35807
631.522	37693
631.584	39208
631.646	40252
631.709	41293
631.771	46759
631.834	42416
631.896	38775
631.958	35314
632.021	36037
632.083	34019
632.145	35001
632.208	35529
632.270	35468
632.332	32067
632.395	32690
632.457	34919
632.519	33323
632.581	33459
632.643	31825
632.706	32422
632.768	30885
632.830	32310
632.892	33023
632.954	31827
633.016	34748
633.078	32677
633.141	33690
633.203	32739
633.265	32997
633.327	31512
633.389	32132
633.451	36363
633.513	37270
633.575	37367
633.637	36348
633.698	34921
633.760	35612
633.822	35044
633.884	35329
633.946	35720
634.008	35731
634.070	36592
634.132	38139
634.193	40708
634.255	44778
634.317	45089
634.379	45161
634.441	41585
634.502	36922
634.564	34330
634.626	32661
634.687	31545
634.749	31622
634.811	31239
634.873	30103
634.934	30646
634.996	31180
635.057	31026
635.119	30308
635.181	31685
635.242	32011
635.304	30489
635.365	32706
635.427	31784
635.488	31334
635.550	30650
635.611	30751
635.673	30063
635.734	34768
635.796	33610
635.857	37662
635.918	37174
635.980	41317
636.041	42350
636.102	46131
636.164	46621
636.225	45625
636.286	39215
636.348	37152
636.409	33856
636.470	31399
636.531	30472
636.593	31454
636.654	30992
636.715	28208
636.776	27880
636.838	26784
636.899	28277
636.960	26470
637.021	25862
637.082	26057
637.143	26074
637.204	24812
637.265	25205
637.326	26366
637.387	26181
637.448	25208
637.509	25855
637.570	26520
637.631	26197
637.692	23810
637.753	22894
637.814	24513
637.875	24445
637.936	24953
637.997	24956
638.058	25053
638.119	26347
638.179	24581
638.240	22564
638.301	25405
638.362	24003
638.423	24735
638.483	24033
638.544	22077
638.605	23193
638.666	23367
638.726	23512
638.787	23846
638.848	22100
638.908	22798
638.969	22972
639.030	22998
639.090	20669
639.151	22429
639.211	24676
639.272	28508
639.332	37312
639.393	26771
639.453	23405
639.514	24112
639.574	22534
639.635	20987
639.695	23023
639.756	20488
639.816	22755
639.877	25663
639.937	33827
639.997	39843
640.058	22284
640.118	20350
640.178	22176
640.239	20959
640.299	20217
640.359	20257
640.420	21804
640.480	24048
640.540	26169
640.600	26060
640.661	24372
640.721	21858
640.781	26602
640.841	20011
640.901	22114
640.961	21477
641.021	23440
641.082	24367
641.142	29841
641.202	23313
641.262	18102
641.322	19955
641.382	18846
641.442	19570
641.502	19900
641.562	20122
641.622	20292
641.682	21104
641.742	24304
641.802	22030
641.861	21659
641.921	21281
641.981	23395
642.041	22504
642.101	25071
642.161	18970
642.221	18397
642.280	18102
642.340	17462
642.400	18616
642.460	19835
642.519	19702
642.579	19370
642.639	20473
642.698	17244
642.758	21147
642.818	19758
642.877	19049
642.937	21393
642.997	21769
643.056	27733
643.116	20189
643.175	21154
643.235	19524
643.294	20154
643.354	21692
643.414	21413
643.473	25796
643.532	29422
643.592	36354
643.651	54645
643.711	90888
643.770	176822
643.830	420405
643.889	826533
643.948	205899
644.008	46449
644.067	30452
644.126	25002
644.186	22640
644.245	21617
644.304	17968
644.363	21201
644.423	17791
644.482	19032
644.541	19452
644.600	18968
644.659	24437
644.719	28818
644.778	42817
644.837	68597
644.896	139430
644.955	313406
645.014	97525
645.073	27709
645.132	22549
645.191	21598
645.250	19200
645.309	22265
645.368	22404
645.427	28250
645.486	43114
645.545	72322
645.604	25257
645.663	18706
645.722	18555
645.781	20435
645.840	21526
645.898	26074
645.957	34358
646.016	49419
646.075	87464
646.134	169799
646.192	452833
646.251	625680
646.310	100313
646.369	34188
646.427	28996
646.486	21942
646.545	20798
646.603	18375
646.662	17737
646.721	17645
646.779	16924
646.838	17509
646.896	22234
646.955	28537
647.014	42548
647.072	77723
647.131	207585
647.189	93320
647.248	19826
647.306	16254
647.365	16071
647.423	12794
647.481	15437
647.540	13439
647.598	14687
647.657	13222
647.715	14705
647.773	12588
647.832	14491
647.890	12562
647.948	13398
648.007	14698
648.065	12646
648.123	13311
648.181	14206
648.240	13032
648.298	10860
648.356	12254
648.414	13733
648.472	12791
648.531	13172
648.589	12638
648.647	12500
648.705	12683
648.763	12584
648.821	11993
648.879	13358
648.937	14784
648.995	16491
649.053	20302
649.111	27490
649.169	43894
649.227	76643
649.285	162090
649.343	453055
649.401	204854
649.459	50495
649.516	31579
649.574	16642
649.632	17591
649.690	18916
649.748	21250
649.806	30367
649.863	53976
649.921	149016
649.979	92878
650.037	16949
650.094	12058
650.152	13276
650.210	10491
650.268	10655
650.325	10933
650.383	10669
650.440	9584
650.498	10380
650.556	10515
650.613	9550
650.671	10912
650.728	11184
650.786	11593
650.843	13253
650.901	10373
650.958	9532
651.016	9547
651.073	10101
651.131	8887
651.188	8791
651.246	9632
651.303	8422
651.360	9207
651.418	9243
651.475	8895
651.532	8130
651.590	9016
651.647	8265
651.704	8972
651.762	8752
651.819	9697
651.876	8655
651.933	8859
651.990	9304
652.048	7168
652.105	7630
652.162	8434
652.219	8084
652.276	8901
652.333	8617
652.390	7360
652.448	8209
652.505	7832
652.562	7994
652.619	8565
652.676	7826
652.733	8950
652.790	7442
652.847	6124
652.904	8001
652.961	7233
653.017	7507
653.074	8767
653.131	8682
653.188	7346
653.245	7994
653.302	8108
653.359	7354
653.415	7907
653.472	7033
653.529	8170
653.586	7192
653.642	7019
653.699	8069
653.756	7268
653.813	7661
653.869	7869
653.926	7623
653.983	6717
654.039	7324
654.096	8239
654.152	8200
654.209	6208
654.266	7546
654.322	6347
654.379	8548
654.435	9632
654.492	9612
654.548	12661
654.605	16773
654.661	10368
654.717	7792
654.774	8097
654.830	7662
654.887	7271
654.943	7618
655.000	7547
655.056	6999
655.112	7889
655.168	6140
655.225	7615
655.281	9874
655.337	10121
655.394	13966
655.450	11065
655.506	10092
655.562	14704
655.618	12435
655.675	6605
655.731	7218
655.787	6842
655.843	8578
655.899	6139
655.955	7376
656.011	7477
656.067	6317
656.123	7828
656.179	7382
656.235	8276
656.291	6665
656.347	9174
656.403	7516
656.459	7531
656.515	8656
656.571	8390
656.627	8544
656.683	8690
656.739	8422
656.795	7427
656.850	7379
656.906	9090
656.962	9343
657.018	6824
657.074	8272
657.129	9930
657.185	12937
657.241	24018
657.297	14085
657.352	7373
657.408	6476
657.464	8556
657.519	6892
657.575	6133
657.630	6397
657.686	6687
657.742	6653
657.797	7073
657.853	6820
657.908	8335
657.964	6367
658.019	7448
658.075	7756
658.130	6801
658.186	5523
658.241	6692
658.297	5895
658.352	6940
658.407	6924
658.463	5957
658.518	6848
658.573	6753
658.629	6481
658.684	6800
658.739	6658
658.795	5302
658.850	6928
658.905	6364
658.960	7575
659.016	6667
659.071	7292
659.126	6763
659.181	8127
659.236	12169
659.291	11810
659.346	8419
659.401	6742
659.457	7235
659.512	6581
659.567	7936
659.622	6479
659.677	6581
659.732	5883
659.787	6912
659.842	7453
659.897	9199
659.952	6936
660.007	6176
660.061	7051
660.116	6271
660.171	6190
660.226	6644
660.281	7387
660.336	5645
660.391	6129
660.445	5570
660.500	6878
660.555	7121
660.610	5854
660.664	6612
660.719	5651
660.774	6823
660.828	6705
660.883	6595
660.938	7054
660.992	4858
661.047	6711
661.101	5707
661.156	6219
661.211	5944
661.265	6533
661.320	6290
661.374	6587
661.429	5710
661.483	6777
661.538	5526
661.592	5550
661.647	6488
661.701	6952
661.755	6021
661.810	6865
661.864	5561
661.919	5667
661.973	6370
662.027	6292
662.081	5785
662.136	5696
662.190	6722
662.244	6881
662.299	5802
662.353	6078
662.407	6476
662.461	6209
662.515	6912
662.569	6994
662.624	7708
662.678	5938
662.732	6630
662.786	6511
662.840	6232
662.894	7067
662.948	5448
663.002	6256
663.056	6324
663.110	4967
663.164	6548
663.218	5434
663.272	6689
663.326	7579
663.380	6829
663.434	7261
663.488	6527
663.542	6235
663.595	6152
663.649	6590
663.703	7263
663.757	6973
663.811	5590
663.864	5447
663.918	6097
663.972	6236
664.026	5599
664.079	5974
664.133	6604
664.187	6369
664.240	5780
664.294	5816
664.348	6293
664.401	6263
664.455	6043
664.508	5502
664.562	6506
664.615	6135
664.669	5345
664.722	6457
664.776	5764
664.829	6348
664.883	6193
664.936	5766
664.990	6653
665.043	7053
665.097	7137
665.150	7417
665.203	7079
665.257	6302
665.310	7301
665.363	6897
665.417	6577
665.470	7041
665.523	6617
665.576	7720
665.630	6424
665.683	7504
665.736	8002
665.789	7057
665.842	6856
665.895	7420
665.949	6426
666.002	6628
666.055	7047
666.108	7607
666.161	6140
666.214	7553
666.267	7998
666.320	8363
666.373	6945
666.426	7316
666.479	7027
666.532	7387
666.585	9408
666.638	8155
666.691	8127
666.744	8386
666.796	8152
666.849	6410
666.902	6881
666.955	6602
667.008	5859
667.060	6227
667.113	5936
667.166	6067
667.219	6580
667.271	6202
667.324	6985
667.377	6995
667.430	6682
667.482	6720
667.535	5843
667.587	7613
667.640	6877
667.693	8111
667.745	12509
667.798	12669
667.850	7195
667.903	7613
667.955	6510
668.008	6760
668.060	8534
668.113	7419
668.165	7898
668.218	8143
668.270	8011
668.322	7759
668.375	6938
668.427	7215
668.479	6435
668.532	7780
668.584	6885
668.636	6284
668.689	7337
668.741	7044
668.793	6752
668.845	6491
668.898	6741
668.950	6953
669.002	7491
669.054	6685
669.106	6886
669.158	7104
669.211	7096
669.263	7132
669.315	7189
669.367	6296
669.419	6415
669.471	7980
669.523	6442
669.575	7321
669.627	6525
669.679	5477
669.731	6051
669.783	6518
669.835	6978
669.886	6140
669.938	6973
669.990	6263
670.042	5124
670.094	6764
670.146	6849
670.197	6673
670.249	7230
670.301	7552
670.353	8982
670.404	10855
670.456	12068
670.508	17293
670.560	25566
670.611	40074
670.663	64031
670.715	152183
670.766	230172
670.818	61456
670.869	14227
670.921	10894
670.972	9374
671.024	7956
671.075	6754
671.127	7784
671.178	7203
671.230	7050
671.281	7043
671.333	7738
671.384	9011
671.436	9186
671.487	12694
671.538	15272
671.590	20967
671.641	32926
671.692	57726
671.744	105901
671.795	59243
671.846	19930
671.897	11555
671.949	9918
672.000	8813
672.051	8165
672.102	8457
672.153	6188
672.204	6795
672.256	7459
672.307	8020
672.358	7853
672.409	6530
672.460	6926
672.511	6356
672.562	6278
672.613	6031
672.664	6044
672.715	5868
672.766	6281
672.817	5663
672.868	6107
672.919	5620
672.970	5611
673.021	5851
673.071	5420
673.122	6212
673.173	5621
673.224	5500
673.275	5878
673.326	5773
673.376	5999
673.427	6115
673.478	5553
673.528	6290
673.579	5335
673.630	5258
673.680	6089
673.731	5222
673.782	5155
673.832	5825
673.883	5481
673.934	6046
673.984	5648
674.035	6052
674.085	5641
674.136	6039
674.186	5373
674.237	7934
674.287	9103
674.338	6243
674.388	6205
674.438	5379
674.489	6266
674.539	6480
674.589	5729
674.640	6228
674.690	5561
674.740	6536
674.791	6812
674.841	5758
674.891	6116
674.942	5779
674.992	5836
675.042	4666
675.092	4940
675.142	5030
675.193	4282
675.243	5588
675.293	5830
675.343	5782
675.393	5321
675.443	6335
675.493	4812
675.543	4951
675.593	5490
675.643	5518
675.693	5415
675.743	6243
675.793	5552
675.843	5004
675.893	5321
675.943	5448
675.993	4295
676.043	4790
676.093	4719
676.142	4953
676.192	5684
676.242	4611
676.292	4471
676.341	5455
676.391	5649
676.441	4315
676.491	4676
676.540	4994
676.590	4379
676.640	4235
676.689	4238
676.739	3643
676.789	4287
676.838	3122
676.888	4495
676.937	4928
676.987	4985
677.037	3197
677.086	3300
677.136	3790
677.185	3708
677.235	3483
677.284	3645
677.333	4297
677.383	3941
677.432	2846
677.482	3767
677.531	4325
677.580	3970
677.630	2904
677.679	3869
677.728	4294
677.778	5041
677.827	3205
677.876	4021
677.925	3797
677.975	3685
678.024	3748
678.073	4740
678.122	4769
678.171	5159
678.220	4826
678.269	5534
678.319	5490
678.368	5174
678.417	5566
678.466	5241
678.515	5060
678.564	5317
678.613	3979
678.662	3705
678.711	4528
678.760	4395
678.809	4411
678.857	4046
678.906	4117
678.955	4232
679.004	3841
679.053	4033
679.102	3748
679.151	3790
679.199	3443
679.248	3902
679.297	4781
679.346	4094
679.394	4034
679.443	3875
679.492	4207
679.540	4020
679.589	4261
679.638	3546
679.686	3839
679.735	4422
679.784	4490
679.832	4623
679.881	3485
679.929	3253
679.978	4005
680.026	2708
680.075	3862
680.123	4167
680.172	3569
680.220	3384
680.268	3669
680.317	3033
680.365	3204
680.414	3582
680.462	4093
680.510	3495
680.559	2326
680.607	3075
680.655	2985
680.703	3610
680.752	3418
680.800	3378
680.848	3309
680.896	3085
680.945	3402
680.993	3092
681.041	3313
681.089	3160
681.137	2552
681.185	3739
681.233	3616
681.258	3752
681.281	3820
681.329	3221
681.377	2678
681.380	2789
681.425	3651
681.473	5503
681.502	4738
681.521	4091
681.569	4733
681.617	4548
681.624	4621
681.665	4636
681.713	4497
681.745	4439
681.761	4315
681.809	4955
681.857	4648
681.867	4602
681.904	4213
681.952	4941
681.989	4887
682.000	4798
682.048	5183
682.096	4270
682.111	4746
682.143	5540
682.191	5141
682.233	6038
682.239	6109
682.286	5760
682.334	5189
682.354	5605
682.382	6068
682.430	5941
682.476	6430
682.477	6385
682.525	5631
682.572	5670
682.598	5437
682.620	5165
682.667	6517
682.715	7428
682.720	7408
682.763	6632
682.810	6687
682.841	7331
682.857	7611
682.905	6816
682.952	7397
682.963	7458
683.000	7459
683.047	7022
683.085	8238
683.095	8504
683.142	7567
683.190	7557
683.206	7536
683.237	7365
683.284	7632
683.328	8395
683.332	8406
683.379	8478
683.426	7392
683.449	7489
683.473	7572
683.521	8089
683.568	8993
683.571	9023
683.615	8826
683.662	8740
683.693	8651
683.709	8503
683.757	8837
683.804	9149
683.814	9340
683.851	9938
683.898	9296
683.936	9525
683.945	9532
683.992	9505
684.039	9451
684.057	10071
684.086	11015
684.133	10402
684.179	10816
684.180	10787
684.227	11030
684.274	11029
684.300	10954
684.321	10810
684.368	9696
684.415	10974
684.422	10952
684.462	10627
684.509	10255
684.543	10359
684.556	10389
684.603	10935
684.649	10544
684.665	11038
684.696	11943
684.743	11150
684.786	10993
684.790	10976
684.837	11098
684.883	12507
684.908	12968
684.930	13236
684.977	13742
685.023	13479
685.029	13460
685.070	12717
685.117	13494
685.150	13206
685.164	13216
685.210	13922
685.257	14691
685.272	14828
685.303	14718
685.350	14248
685.393	14267
685.396	14267
685.443	14300
685.490	15375
685.514	15278
685.536	15034
685.583	14792
685.629	14437
685.636	14454
685.675	14375
685.722	14966
685.757	14810
685.768	14848
685.815	15384
685.861	15827
685.878	15796
685.908	15445
685.954	16004
686.000	15777
686.000	15769
686.047	17065
686.093	17801
686.121	17924
686.139	17545
686.185	17238
686.232	16653
686.242	16710
686.278	16835
686.324	15757
686.363	15461
686.370	15481
686.416	15397
686.463	16192
686.484	16010
686.509	15755
686.555	15421
686.601	15312
686.606	15404
686.647	16163
686.693	16210
686.727	16199
686.739	16167
686.785	16203
686.831	15982
686.848	15889
686.877	15664
686.923	15587
686.969	15341
686.969	15339
687.015	15899
687.061	16637
687.090	16598
687.107	16403
687.153	16783
687.199	15829
687.211	15811
687.245	16018
687.291	16694
687.332	16918
687.336	16957
687.382	17850
687.428	17621
687.453	17961
687.474	17848
687.520	17259
687.565	16779
687.574	16561
687.611	16168
687.657	16794
687.695	17103
687.702	17198
687.748	17780
687.794	17899
687.816	17989
687.839	17755
687.885	17397
687.931	16288
687.937	16260
687.976	16630
688.022	17632
688.058	17882
688.067	17951
688.113	17898
688.158	17406
688.179	17650
688.204	17917
688.249	18226
688.295	18825
688.300	18849
688.340	19425
688.386	20415
688.421	19916
688.431	19628
688.477	19570
688.522	19419
688.542	19324
688.567	19517
688.613	19644
688.658	20188
688.663	20204
688.703	20168
688.749	20023
688.784	19928
688.794	19930
688.839	19713
688.884	19866
688.905	19633
688.930	19350
688.975	19182
689.020	19305
689.026	19270
689.065	19591
689.110	19871
689.146	20514
689.155	20557
689.201	19482
689.246	19609
689.267	19383
689.291	19593
689.336	20055
689.381	20749
689.388	20724
689.426	20283
689.471	20190
689.509	20431
689.516	20464
689.561	19627
689.606	19215
689.630	19238
689.651	19535
689.696	19105
689.741	19911
689.750	19914
689.785	19911
689.830	19833
689.871	20332
689.875	20397
689.920	19796
689.965	19841
689.992	19619
690.010	19624
690.054	20080
690.099	20016
690.112	19987
690.144	19796
690.189	19505
690.233	19515
690.233	19542
690.278	19386
690.323	19684
690.354	19547
690.367	19647
690.412	19756
690.457	20525
690.474	20536
690.501	20236
690.546	19563
690.590	19233
690.595	19143
690.635	19170
690.680	19536
690.716	19767
690.724	19860
690.769	20402
690.813	20622
690.836	20525
690.857	20452
690.902	20595
690.946	20929
690.957	20884
690.991	20933
691.035	20951
691.077	21100
691.080	21142
691.124	21173
691.168	21946
691.198	21783
691.213	21751
691.257	22345
691.301	22034
691.318	22131
691.346	22065
691.390	21509
691.434	21155
691.439	21099
691.478	21635
691.522	22125
691.559	22176
691.567	22215
691.611	23112
691.655	22957
691.680	23001
691.699	22942
691.743	22981
691.787	22958
691.800	22763
691.831	22911
691.875	23577
691.919	24754
691.921	24715
691.964	24221
692.008	24383
692.041	24136
692.052	24192
692.096	24418
692.139	24801
692.162	24919
692.183	24874
692.227	24362
692.271	24251
692.282	24058
692.315	24041
692.359	24125
692.402	24211
692.403	24255
692.447	24075
692.490	24024
692.523	23867
692.534	24069
692.578	24430
692.622	24681
692.643	24966
692.666	24954
692.709	24409
692.753	23889
692.763	23820
692.797	23939
692.840	23706
692.884	23643
692.884	23692
692.928	23556
692.971	23695
693.004	23847
693.015	23953
693.059	23805
693.102	23911
693.124	23862
693.146	24089
693.189	24545
693.233	25010
693.245	25119
693.276	25451
693.320	25444
693.363	25793
693.365	25747
693.407	25718
693.450	25558
693.485	25351
693.493	25315
693.537	25292
693.580	24534
693.605	24367
693.624	24355
693.667	23881
693.710	23639
693.725	23564
693.753	24326
693.797	24824
693.840	25805
693.845	25911
693.883	25798
693.926	24768
693.966	23887
693.970	23868
694.013	23342
694.056	22976
694.086	22769
694.099	23252
694.142	24343
694.185	25508
694.206	25885
694.229	25783
694.272	25612
694.315	25766
694.326	25607
694.358	25602
694.401	26093
694.444	26309
694.446	26251
694.487	26015
694.530	26009
694.566	25753
694.573	25725
694.616	25271
694.659	24765
694.686	24481
694.702	24465
694.745	24127
694.787	23833
694.806	23646
694.830	23940
694.873	24311
694.916	24837
694.926	24903
694.959	24723
695.002	24255
695.044	23817
695.046	23748
695.087	24770
695.130	25453
695.166	26246
695.172	26334
695.215	26281
695.258	26543
695.286	26454
695.301	26464
695.343	26435
695.386	26492
695.406	26253
695.428	26015
695.471	25810
695.514	25733
695.526	25537
695.556	25818
695.599	26528
695.641	26838
695.646	26829
695.684	26565
695.726	26136
695.766	25706
695.769	25786
695.811	26134
695.854	26226
695.886	26435
695.896	26456
695.938	26109
695.981	25807
696.005	25548
696.023	25629
696.065	25682
696.108	25823
696.125	25737
696.150	26223
696.192	27143
696.235	27961
696.245	28119
696.277	27669
696.319	26767
696.361	26091
696.365	25958
696.404	26032
696.446	26047
696.485	26009
696.488	26113
696.530	26543
696.572	27117
696.604	27443
696.614	27435
696.656	26994
696.698	26697
696.724	26367
696.740	26299
696.783	25987
696.825	25746
696.844	25555
696.867	25819
696.909	26243
696.951	26536
696.964	26588
696.992	26452
697.034	26031
697.076	25808
697.083	25667
697.118	26164
697.160	26848
697.202	27502
697.203	27449
697.244	27204
697.286	26915
697.323	26500
697.327	26537
697.369	26363
697.411	26114
697.442	25815
697.453	26124
697.494	27192
697.536	28199
697.562	28844
697.578	28842
697.620	28580
697.661	28163
697.682	27949
697.703	28237
697.744	28664
697.786	29146
697.801	29217
697.828	29318
697.869	29322
697.911	29317
697.921	29238
697.952	28789
697.994	28171
698.035	27532
698.040	27382
698.077	27404
698.118	27283
698.160	27206
698.160	27133
698.201	27130
698.243	27027
698.279	26848
698.284	27022
698.325	28025
698.367	28973
698.399	29679
698.408	29495
698.449	28257
698.491	27033
698.518	26130
698.532	26336
698.573	26770
698.614	27214
698.638	27370
698.656	27887
698.697	28943
698.738	30010
698.757	30431
698.779	30415
698.820	30225
698.862	30020
698.877	29870
698.903	30079
698.944	30285
698.985	30485
698.996	30461
699.026	30441
699.067	30300
699.116	30054
699.235	28936
699.354	28383
699.474	29486
699.593	30520
699.713	30138
699.832	28471
699.951	28874
700.070	27575
700.190	27561
700.309	28298
700.428	29377
700.547	27094
700.667	27568
700.786	29333
700.905	25527
701.024	27219
701.143	25857
701.262	25323
701.381	25812
701.500	26485
701.619	26743
701.738	25108
701.857	24633
701.976	25042
702.095	23970
702.214	26704
702.333	26025
702.452	25605
702.571	24170
702.690	25555
702.809	23562
702.928	23226
703.047	24006
703.165	23451
703.284	23204
703.403	24392
703.522	24863
703.640	24533
703.759	26540
703.878	34378
703.997	23955
704.115	23574
704.234	22078
704.353	22834
704.471	21564
704.590	22039
704.708	20948
704.827	21303
704.946	21805
705.064	23591
705.183	23346
705.301	26806
705.420	40015
705.538	35560
705.656	28699
705.775	26739
705.893	28650
706.012	30452
706.130	29924
706.249	31323
706.367	31116
706.485	31589
706.604	31072
706.722	30868
706.840	33950
706.958	32471
707.077	28802
707.195	28827
707.313	27978
707.431	27617
707.549	28178
707.668	27687
707.786	28249
707.904	27503
708.022	26858
708.140	26908
708.258	26041
708.376	27406
708.494	26672
708.612	28245
708.730	41971
708.848	39925
708.966	35916
709.084	33171
709.202	31869
709.320	34660
709.438	34081
709.556	34307
709.674	33934
709.791	34837
709.909	32565
710.027	33593
710.145	31671
710.263	34185
710.380	31742
710.498	30989
710.616	31597
710.733	30861
710.851	31554
710.969	31904
711.086	30492
711.204	30914
711.322	30967
711.439	30185
711.557	30359
711.674	29870
711.792	28826
711.909	28148
712.027	26848
712.144	28900
712.262	27792
712.379	32218
712.497	46512
712.614	47889
712.732	39338
712.849	36410
712.966	36595
713.084	42782
713.201	38396
713.318	38371
713.436	37289
713.553	38125
713.670	37827
713.787	40340
713.905	39473
714.022	37597
714.139	36091
714.256	38943
714.373	41879
714.490	54189
714.608	98878
714.725	348272
714.842	353122
714.959	48906
715.076	36900
715.193	34029
715.310	34262
715.427	32258
715.544	30390
715.661	31164
715.778	31564
715.895	36096
716.011	33211
716.128	31399
716.245	30420
716.362	33907
716.479	33768
716.596	29102
716.713	30809
716.829	29548
716.946	30034
717.063	28632
717.180	28863
717.296	27817
717.413	27513
717.530	27428
717.646	27340
717.763	27897
717.880	25826
717.996	25872
718.113	25535
718.229	26194
718.346	24524
718.462	25986
718.579	28957
718.695	37189
718.812	33116
718.928	31798
719.045	26247
719.161	24982
719.277	23566
719.394	23192
719.510	25924
719.626	25403
719.743	32453
719.859	32109
719.975	43473
720.092	118997
720.208	246447
720.324	45298
720.440	26224
720.557	28804
720.673	32542
720.789	43792
720.905	83588
721.021	36571
721.137	23675
721.253	24747
721.369	24716
721.486	25699
721.602	33454
721.718	23270
721.834	20528
721.950	22517
722.066	20868
722.181	20969
722.297	21863
722.413	21321
722.529	21150
722.645	20074
722.761	19658
722.877	20331
722.993	19499
723.108	22057
723.224	20370
723.340	20528
723.456	17790
723.571	20589
723.687	18371
723.803	18863
723.918	18429
724.034	20140
724.150	19213
724.265	19636
724.381	34513
724.497	43839
724.612	17808
724.728	18131
724.843	17884
724.959	20309
725.074	32953
725.190	39183
725.305	19231
725.421	17937
725.536	16051
725.651	17055
725.767	16107
725.882	16595
725.997	15711
726.113	16007
726.228	15957
726.343	16985
726.459	14216
726.574	16871
726.689	15158
726.804	15291
726.920	15625
727.035	16148
727.150	15650
727.265	14664
727.380	15869
727.495	15731
727.610	13252
727.725	14715
727.841	14890
727.956	14772
728.071	17328
728.186	15142
728.301	13078
728.416	15444
728.531	14188
728.645	13826
728.760	14716
728.875	14198
728.990	13003
729.105	14710
729.220	13637
729.335	14725
729.449	12900
729.564	12408
729.679	12551
729.794	13539
729.908	14581
730.023	14043
730.138	13264
730.253	13354
730.367	12459
730.482	12508
730.596	12751
730.711	15016
730.826	13260
730.940	12762
731.055	13916
731.169	12898
731.284	12604
731.398	12650
731.513	14107
731.627	14304
731.742	15631
731.856	17250
731.970	14032
732.085	15261
732.199	18162
732.313	22473
732.428	49641
732.542	147840
732.656	87219
732.771	19519
732.885	15084
732.999	15654
733.113	16599
733.227	16567
733.342	13852
733.456	14171
733.570	13194
733.684	12832
733.798	12906
733.912	12738
734.026	12951
734.140	13512
734.254	14169
734.368	20927
734.482	26116
734.596	12578
734.710	12486
734.824	11941
734.938	12382
735.052	12696
735.166	14210
735.280	13556
735.393	11576
735.507	12029
735.621	15784
735.735	24383
735.849	13836
735.962	11804
736.076	13079
736.190	12234
736.303	15163
736.417	20232
736.531	11763
736.644	13140
736.758	11033
736.872	11806
736.985	11300
737.099	11131
737.212	10493
737.326	11007
737.439	10740
737.553	10776
737.666	10353
737.780	9694
737.893	10720
738.007	10267
738.120	9494
738.233	9269
738.347	10559
738.460	10892
738.573	11310
738.687	9704
738.800	9815
738.913	12771
739.026	10445
739.140	9991
739.253	9225
739.366	9735
739.479	8862
739.592	9828
739.705	9543
739.818	10023
739.932	9103
740.045	9415
740.158	10140
740.271	9204
740.384	9410
740.497	8684
740.610	9744
740.723	9321
740.836	9780
740.949	10048
741.062	12509
741.174	11151
741.287	9345
741.400	8845
741.513	9811
741.626	9654
741.739	9594
741.851	10164
741.964	8987
742.077	9781
742.189	8450
742.302	9271
742.415	8629
742.527	8158
742.640	8193
742.753	7751
742.865	8475
742.978	8386
743.090	8044
743.203	8635
743.316	8096
743.428	8372
743.541	7992
743.653	7527
743.766	7923
743.878	9652
743.990	11426
744.103	10675
744.215	7975
744.327	8083
744.440	10599
744.552	12243
744.664	9174
744.777	8272
744.889	8036
745.001	9182
745.113	7544
745.226	7270
745.338	7123
745.450	8485
745.562	7643
745.674	7594
745.786	7640
745.898	7482
746.010	7729
746.122	7479
746.234	7097
746.347	7626
746.459	7899
746.570	7150
746.682	7685
746.794	7169
746.906	6328
747.018	7226
747.130	7835
747.242	7669
747.354	7637
747.466	8258
747.577	7262
747.689	6928
747.801	7777
747.913	6565
748.024	6027
748.136	6449
748.248	6309
748.359	6949
748.471	6409
748.583	6415
748.694	6405
748.806	7213
748.918	8772
749.029	7513
749.141	7611
749.252	8354
749.364	8008
749.475	13125
749.587	9176
749.698	6939
749.809	6561
749.921	6195
750.032	6247
750.144	6377
750.255	6021
750.366	5863
750.478	6333
750.589	7368
750.700	5946
750.811	7922
750.923	7298
751.034	13086
751.145	12644
751.256	6098
751.367	6573
751.479	5710
751.590	6640
751.701	7112
751.812	4883
751.923	6106
752.034	6952
752.145	5529
752.256	5698
752.367	6503
752.478	5856
752.589	6110
752.700	6122
752.811	6056
752.922	5498
753.032	6217
753.143	7091
753.254	4633
753.365	6038
753.476	6234
753.586	6802
753.697	5904
753.808	5971
753.919	5982
754.029	5432
754.140	6749
754.251	5571
754.361	6204
754.472	5516
754.582	5868
754.693	5854
754.804	6265
754.914	5379
755.025	5220
755.135	5281
755.246	5976
755.356	5338
755.466	5993
755.577	5223
755.687	6021
755.798	5123
755.908	5609
756.018	4573
756.129	4670
756.239	5509
756.349	5720
756.460	5490
756.570	5088
756.680	5067
756.790	5538
756.900	6445
757.011	5255
757.121	4810
757.231	5145
757.341	5359
757.451	4352
757.561	4436
757.671	5063
757.781	3980
757.891	5768
758.001	4669
758.111	6115
758.221	5502
758.331	6970
758.441	6628
758.551	7625
758.661	6476
758.771	5703
758.880	6090
758.990	6781
759.100	5903
759.210	5112
759.320	6423
759.429	5616
759.539	5028
759.649	6350
759.758	6234
759.868	6260
759.978	5905
760.087	7312
760.197	6056
760.307	6690
760.416	5992
760.526	6209
760.635	5974
760.745	6983
760.854	6185
760.964	7607
761.073	6814
761.182	6387
761.292	6949
761.401	6615
761.511	6352
761.620	6352
761.729	5320
761.839	5701
761.948	6580
762.057	6675
762.166	5822
762.276	4710
762.385	6385
762.494	6218
762.603	5294
762.712	5885
762.822	6060
762.931	6143
763.040	3894
763.149	5353
763.258	5630
763.367	6049
763.476	5555
763.585	6206
763.694	6048
763.803	6951
763.912	6285
764.021	6113
764.130	4477
764.238	6055
764.347	6232
764.456	6161
764.565	5611
764.674	5636
764.783	5420
764.891	5434
765.000	5798
765.109	5388
765.217	5472
765.326	6455
765.435	6379
765.543	6367
765.652	5563
765.761	6109
765.869	6586
765.978	8308
766.086	11157
766.195	17858
766.303	45731
766.412	165585
766.520	127954
766.629	17336
766.737	9635
766.846	8602
766.954	6052
767.062	7804
767.171	6949
767.279	7145
767.387	6550
767.496	6920
767.604	5826
767.712	7095
767.820	5795
767.928	6897
768.037	6128
768.145	7362
768.253	6569
768.361	5945
768.469	5634
768.577	5534
768.685	7515
768.793	6066
768.901	6410
769.009	6025
769.117	6076
769.225	5874
769.333	7516
769.441	8407
769.549	10275
769.657	18497
769.765	59960
769.873	142999
769.981	32105
770.088	7989
770.196	6861
770.304	7393
770.412	7197
770.519	7893
770.627	6560
770.735	7305
770.842	6704
770.950	7135
771.058	6118
771.165	6856
771.273	6682
771.380	7340
771.488	8262
771.595	8200
771.703	6669
771.810	7545
771.918	7301
772.025	8385
772.133	7927
772.240	7874
772.348	8958
772.455	8555
772.562	7020
772.670	7870
772.777	8248
772.884	7260
772.991	7963
773.099	8104
773.206	6357
773.313	7635
773.420	6845
773.528	7118
773.635	7363
773.742	8002
773.849	8296
773.956	7846
774.063	6921
774.170	7505
774.277	7983
774.384	7036
774.491	6736
774.598	6871
774.705	7475
774.812	9498
774.919	9230
775.026	8216
775.133	7815
775.239	7084
775.346	6799
775.453	7068
775.560	8173
775.667	7334
775.773	6649
775.880	7367
775.987	6352
776.093	7751
776.200	6648
776.307	6531
776.413	7447
776.520	7871
776.627	7041
776.733	6761
776.840	4879
776.946	8478
777.053	6447
777.159	7532
777.266	5477
777.372	7727
777.478	6839
777.585	6860
777.691	5673
777.798	6837
777.904	7711
778.010	8225
778.117	8803
778.223	6952
778.329	6620
778.435	5878
778.542	7021
778.648	6397
778.754	5646
778.860	5983
778.966	6970
779.072	6406
779.178	5150
779.284	5221
779.391	5346
779.497	6161
779.603	7561
779.708	5164
779.815	6861
779.920	7671
780.026	8342
780.132	6174
780.238	5493
780.344	6008
780.450	6332
780.556	6085
780.661	4741
780.767	6217
780.873	5427
780.979	6207
781.085	5496
781.190	6720
781.296	5259
781.402	5830
781.507	5535
781.613	5671
781.719	5594
781.824	5631
781.930	6152
782.035	6320
782.141	5520
782.246	4632
782.352	4582
782.457	5471
782.563	5170
782.668	6036
782.773	5380
782.879	4896
782.984	5759
783.090	6163
783.195	7912
783.300	6978
783.405	5537
783.511	5717
783.616	5456
783.721	5162
783.826	4417
783.932	5874
784.037	5752
784.142	5220
784.247	4933
784.352	5862
784.457	4581
784.562	5768
784.667	5082
784.772	5507
784.877	4414
784.982	5932
785.087	4617
785.192	5778
785.297	4321
785.402	5821
785.507	4592
785.611	4593
785.716	4956
785.821	5083
785.926	4510
786.031	4957
786.135	4668
786.240	5750
786.345	3198
786.450	5863
786.554	5091
786.659	4410
786.763	3355
786.868	4189
786.973	4774
787.077	5288
787.182	4076
787.286	4754
787.391	4420
787.495	4008
787.600	3103
787.704	4572
787.809	4416
787.913	4712
788.017	5413
788.122	4889
788.226	4101
788.330	3937
788.435	4081
788.539	4784
788.643	3559
788.747	3583
788.852	3745
788.956	4586
789.060	4730
789.164	4722
789.268	3618
789.372	4685
789.476	3835
789.580	3620
789.684	2992
789.788	4468
789.892	3935
789.996	4396
790.100	4808
790.204	4663
790.308	4595
790.412	4091
790.516	4361
790.620	3204
790.724	4524
790.828	5009
790.931	3748
791.035	5736
791.139	3869
791.242	4169
791.346	4659
791.450	4067
791.554	3394
791.657	3373
791.761	5317
791.864	4938
791.968	4177
792.072	4151
792.175	4597
792.279	3850
792.382	3450
792.486	4042
792.589	4683
792.693	4521
792.796	2412
792.899	4883
793.003	4437
793.106	2626
793.209	3514
793.313	4750
793.416	1946
793.519	5011
793.623	5401
793.726	7352
793.829	4077
793.932	3244
794.035	2896
794.138	4668
794.242	4116
794.345	5050
794.448	4301
794.551	5217
794.654	6825
794.757	5275
794.860	5453
794.963	4499
795.066	3290
795.169	3786
795.272	2676
795.375	3668
795.477	3111
795.580	3879
795.683	2000
795.786	3207
795.889	3369
795.991	4144
796.094	4326
796.197	2553
796.300	4652
796.402	2717
796.505	2942
796.608	3372
796.710	3741
796.813	4053
796.915	3521
797.018	3198
797.120	3516
797.223	2596
797.326	3363
797.428	3323
797.530	3193
797.633	3434
797.735	5107
797.838	6701
797.940	5974
798.042	4114
798.145	2740
798.247	3236
798.349	1093
798.452	4444
798.554	3400
798.656	2479
798.758	3233
798.860	3002
798.962	3238
799.065	3217
799.167	1957
799.269	4077
799.371	4983
799.473	4335
799.575	3263
799.677	4119
799.779	4961
799.881	4261
799.983	4058
800.085	3152
800.187	3060
800.289	3011
800.390	3971
800.492	3894
800.594	3361
800.696	3152
800.798	2688
800.899	2350
801.001	3269
801.103	2990
801.205	2831
801.306	3472
801.408	2137
801.509	3463
801.611	3560
801.713	2774
801.814	2044
801.916	2264
802.017	2844
802.119	2196
802.220	3063
802.322	2047
802.423	4689
802.525	1975
802.626	2695
802.727	2984
802.829	2988
802.930	1009
803.031	3798
803.133	2585
803.234	2087
803.335	2712
803.436	1089
803.538	2651
803.639	1187
803.740	2502
803.841	1930
803.942	2239
804.043	2333
804.144	1816
804.245	1966
804.346	1940
804.447	2179
804.548	3657
804.649	4457
804.750	2666
804.851	1836
804.952	2209
805.053	2387
805.154	1148
805.255	2652
805.355	2161
805.456	1826
805.557	1326
805.658	712
805.758	2836
805.859	1623
805.960	1955
806.061	1809
806.161	1734
806.262	2287
806.362	1802
806.463	2043
806.564	2399
806.664	2347
806.765	2495
806.865	2429
806.966	2507
807.066	1655
807.166	2322
807.267	2127
807.367	1778
807.468	2015
807.568	494
807.668	1454
807.769	2958
807.869	2111
807.969	2602
808.069	2127
808.170	2565
808.270	1653
808.370	3279
808.470	3430
808.570	2001
808.670	1025
808.770	2196
808.870	1629
808.970	2798
809.070	1612
809.170	1644
809.271	2408
809.370	1183
809.470	2560
809.570	1965
809.670	647
809.770	1945
809.870	2614
809.970	2555
810.070	1385
810.169	2116
810.269	839
810.369	2538
810.469	2015
810.568	1706
810.668	947
810.768	974
810.867	2216
810.967	1948
811.066	1244
811.166	1839
811.265	2060
811.365	1863
811.464	650
811.564	1945
811.663	2548
811.763	687
811.862	1836
811.962	2357
812.061	1055
812.160	988
812.260	1656
812.359	1918
812.458	1878
812.557	2093
812.657	2685
812.756	2029
812.855	1605
812.954	1219
813.053	2418
813.153	2187
813.252	840
813.351	2529
813.450	1548
813.549	703
813.648	2337
813.747	1527
813.846	1685
813.945	1779
814.044	1397
814.143	1305
814.242	1864
814.341	1190
814.439	2503
814.538	2067
814.637	2160
814.736	1657
814.835	2377
814.933	1505
815.032	2670
815.131	2178
815.229	2217
815.328	4374
815.427	3097
815.525	2885
815.624	2775
815.722	2279
815.821	2248
815.919	2763
816.018	2638
816.116	3746
816.215	2170
816.313	3514
816.412	2815
816.510	3779
816.609	5046
816.707	4131
816.805	3024
816.904	2894
817.002	3930
817.100	4101
817.198	3503
817.296	3129
817.395	2810
817.493	3592
817.591	3105
817.689	3932
817.787	3509
817.885	4994
817.983	5415
818.081	9910
818.179	20161
818.277	52304
818.375	39585
818.473	8906
818.571	5213
818.669	5035
818.767	4078
818.865	4328
818.963	4361
819.061	6194
819.158	8005
819.256	18259
819.354	40375
819.452	95755
819.549	49021
819.647	11165
819.745	4888
819.842	5928
819.940	3567
820.038	3387
820.135	3507
820.233	4623
820.330	2687
820.428	2863
820.525	4297
820.623	2831
820.720	1973
820.818	3774
820.915	3514
821.012	3441
821.110	1852
821.207	3066
821.304	2417
821.402	3332
821.499	3153
821.596	3918
821.693	3380
821.791	4220
821.888	3421
821.985	6489
822.082	4904
822.179	3571
822.276	2755
822.373	1848
822.470	2844
822.567	2512
822.664	1882
822.761	3644
822.858	1758
822.955	3067
823.052	2259
823.149	2466
823.246	2182
823.343	1976
823.440	2806
823.536	2460
823.633	1939
823.730	2567
823.827	2210
823.923	2371
824.020	3367
824.117	2155
824.213	1414
824.310	3234
824.407	3108
824.503	2932
824.600	2601
824.696	2033
824.793	3400
824.889	1688
824.986	1298
825.082	1533
825.179	2047
825.275	2560
825.371	2627
825.468	2727
825.564	1436
825.660	2444
825.757	3403
825.853	3465
825.949	1332
826.045	1620
826.142	1626
826.238	2683
826.334	2203
826.430	2157
826.526	2017
826.622	1836
826.718	2755
826.814	2523
826.910	2292
827.006	1759
827.102	947
827.198	3037
827.294	2339
827.390	1944
827.486	2336
827.582	976
827.678	922
827.774	3571
827.869	426
827.965	2873
828.061	1032
828.157	2695
828.252	1953
828.348	939
828.444	2389
828.539	1161
828.635	1856
828.731	3051
828.826	894
828.922	2792
829.017	2088
829.113	2596
829.208	814
829.304	1065
829.399	2820
829.495	1657
829.590	2327
829.685	1491
829.781	2362
829.876	2005
829.971	1488
830.066	1881
830.162	1595
830.257	1553
830.352	1646
830.447	2663
830.543	2282
830.638	1166
830.733	2593
830.828	1140
830.923	2503
831.018	1402
831.113	1863
831.208	926
831.303	856
831.398	1611
831.493	1156
831.588	2543
831.683	1308
831.778	1921
831.873	1213
831.967	2490
832.062	1199
832.157	1093
832.252	2262
832.346	1769
832.441	2899
832.536	3260
832.631	6233
832.725	4970
832.820	1380
832.914	1492
833.009	845
833.104	1981
833.198	2487
833.293	1337
833.387	2044
833.482	1208
833.576	292
833.670	1963
833.765	1781
833.859	1919
833.954	2330
834.048	1926
834.142	872
834.237	1090
834.331	766
834.425	2434
834.519	842
834.613	2120
834.708	1406
834.802	1387
834.896	796
834.990	1345
835.084	963
835.178	1895
835.272	1543
835.366	1644
835.460	1793
835.554	1913
835.648	787
835.742	1067
835.836	1613
835.930	609
836.024	1549
836.117	2375
836.211	1705
836.305	3030
836.399	4314
836.493	1148
836.586	2192
836.680	962
836.774	902
836.867	3173
836.961	-4
837.055	1301
837.148	1220
837.242	1615
837.335	1404
837.429	1701
837.522	1686
837.616	3070
837.709	4693
837.803	3128
837.896	2110
837.989	1314
838.083	2644
838.176	6440
838.269	5338
838.363	2421
838.456	1133
838.549	3381
838.642	3282
838.735	7762
838.829	4244
838.922	1049
839.015	1066
839.108	713
839.201	833
839.294	1831
839.387	995
839.480	1179
839.573	2507
839.666	3688
839.759	888
839.852	1218
839.945	1620
840.038	1151
840.131	762
840.223	1296
840.316	1372
840.409	1055
840.502	719
840.594	2007
840.687	385
840.780	857
840.873	753
840.965	1995
841.058	2990
841.150	5469
841.243	4046
841.336	1155
841.428	608
841.521	1682
841.613	404
841.706	2001
841.798	1395
841.890	1129
841.983	1240
842.075	2511
842.167	1482
842.260	1406
842.352	2283
842.444	3993
842.537	5565
842.629	9127
842.721	1712
842.813	1902
842.905	212
842.997	1724
843.090	1907
843.182	3688
843.274	4811
843.366	11855
843.458	23549
843.550	17094
843.642	2145
843.734	2037
843.826	1779
843.918	2291
844.009	2049
844.101	10
844.193	983
844.285	662
844.377	1570
844.469	2183
844.560	801
844.652	1760
844.744	2195
844.835	2041
844.927	1243
845.019	2294
845.110	1597
845.202	2036
845.293	897
845.385	770
845.476	1141
845.568	2631
845.659	580
845.751	1388
845.842	1163
845.934	128
846.025	1676
846.116	1881
846.208	1144
846.299	1457
846.390	1186
846.482	1734
846.573	1475
846.664	2210
846.755	3036
846.846	3414
846.937	29
847.029	1931
847.120	788
847.211	939
847.302	1819
847.393	305
847.484	1775
847.575	1114
847.666	570
847.757	349
847.847	2064
847.938	3048
848.029	1550
848.120	458
848.211	1116
848.302	1149
848.392	173
848.483	1432
848.574	1392
848.664	1178
848.755	900
848.846	1577
848.936	391
849.027	1763
849.118	1788
849.208	1160
849.299	1850
849.389	2569
849.480	5064
849.570	10529
849.661	18227
849.751	31788
849.841	11398
849.932	1762
850.022	1085
850.112	440
850.203	782
850.293	1201
850.383	483
850.474	558
850.564	701
850.654	1575
850.744	928
850.834	1369
850.924	373
851.014	1491
851.104	935
851.194	877
851.284	1499
851.374	2003
851.464	1366
851.554	923
851.644	1414
851.734	3028
851.824	2027
851.914	829
852.004	1285
852.094	642
852.183	1422
852.273	1242
852.363	479
852.452	1236
852.542	724
852.632	1082
852.721	1228
852.811	1028
852.901	868
852.990	1095
853.080	1472
853.169	1056
853.259	1492
853.348	2066
853.438	1039
853.527	2872
853.617	1941
853.706	6236
853.795	10378
853.885	24003
853.974	43929
854.063	81795
854.152	129797
854.242	48825
854.331	8585
854.420	3512
854.509	3036
854.598	3873
854.687	2566
854.777	3012
854.866	1514
854.955	2363
855.044	110
855.133	1488
855.222	653
855.311	750
855.400	755
855.488	728
855.577	283
855.666	715
855.755	1328
855.844	1418
855.933	457
856.021	149
856.110	768
856.199	86
856.288	56
856.376	471
856.465	381
856.554	1678
856.642	1040
856.731	1858
856.819	1277
856.908	1145
856.996	414
857.085	1050
857.173	240
857.262	758
857.350	659
857.438	909
857.527	763
857.615	610
857.703	872
857.792	973
857.880	342
857.968	995
858.056	1466
858.145	731
858.233	323
858.321	531
858.409	741
858.497	1206
858.585	21
858.673	1319
858.761	347
858.849	1017
858.937	906
859.025	599
859.113	271
859.201	92
859.289	1371
859.377	225
859.465	975
859.552	931
859.640	471
859.728	1418
859.816	1014
859.903	855
859.991	389
860.079	955
860.166	544
860.254	1329
860.342	786
860.429	-135
860.517	198
860.604	644
860.692	721
860.779	798
860.867	401
860.954	562
861.042	1162
861.129	1430
861.216	748
861.304	560
861.391	1005
861.478	510
861.565	1134
861.653	927
861.740	-315
861.827	572
861.914	315
862.001	547
862.089	801
862.176	1240
862.263	633
862.350	239
862.437	1061
862.524	-214
862.611	446
862.698	668
862.785	727
862.871	127
862.958	1080
863.045	959
863.132	170
863.219	602
863.306	-223
863.392	1066
863.479	874
863.566	830
863.652	1115
863.739	1720
863.826	1282
863.912	612
863.999	597
864.086	1247
864.172	600
864.259	60
864.345	-261
864.432	1067
864.518	781
864.604	1039
864.691	-7
864.777	905
864.863	1170
864.950	1684
865.036	1457
865.122	3682
865.209	2654
865.295	2790
865.381	2840
865.467	3411
865.553	3725
865.639	4050
865.726	5962
865.812	13251
865.898	24605
865.984	36741
866.070	69574
866.156	75847
866.242	19012
866.328	5575
866.414	3397
866.499	3464
866.585	3140
866.671	2592
866.757	2499
866.843	2555
866.928	1770
867.014	2242
867.100	2072
867.186	2395
867.271	3098
867.357	3101
867.442	3831
867.528	3380
867.614	2119
867.699	2704
867.785	2381
867.870	2451
867.956	2445
868.041	2842
868.127	1651
868.212	2689
868.297	1734
868.383	2524
868.468	2909
868.553	4069
868.639	5495
868.724	7999
868.809	7646
868.894	3051
868.979	2559
869.065	1713
869.150	934
869.235	1571
869.320	1902
869.405	1330
869.490	1384
869.575	1559
869.660	1157
869.745	1798
869.830	1491
869.915	1209
870.000	1120
870.085	1610
870.169	2088
870.254	1763
870.339	1430
870.424	1893
870.509	1029
870.593	1530
870.678	1651
870.763	1304
870.847	1516
870.932	611
871.016	2713
871.101	710
871.186	1547
871.270	2070
871.355	971
871.439	975
871.523	1941
871.608	1650
871.692	1404
871.777	1922
871.861	1506
871.945	1613
872.030	1065
872.114	841
872.198	1518
872.282	719
872.367	1356
872.451	964
872.535	882
872.619	1691
872.703	950
872.787	1118
872.871	1929
872.955	1506
873.039	158
873.123	2211
873.207	1351
873.291	1052
873.375	1431
873.459	1633
873.543	1487
873.627	883
873.711	736
873.794	1671
873.878	1239
873.962	455
874.045	371
874.129	874
874.137	891
874.213	1056
874.245	1109
874.296	1202
874.352	888
874.380	730
874.460	607
874.464	602
874.547	-29
874.568	405
874.631	1681
874.676	1474
874.714	1311
874.784	1408
874.798	1425
874.881	1081
874.892	1114
874.965	1341
874.999	1042
875.048	589
875.107	1090
875.131	1327
875.215	1518
875.215	1518
875.298	1461
875.323	1226
875.381	780
875.430	1126
875.465	1325
875.538	1639
875.548	1678
875.631	1142
875.646	1051
875.714	711
875.753	709
875.798	672
875.861	838
875.881	892
875.964	1010
875.968	979
876.047	398
876.076	729
876.130	1411
876.183	1457
876.213	1443
876.291	1837
876.296	1863
876.379	864
876.398	957
876.462	1312
876.506	722
876.545	168
876.613	508
876.628	621
876.711	814
876.721	923
876.794	1532
876.828	1105
876.877	571
876.935	418
876.960	356
877.043	718
877.043	722
877.125	1734
877.150	1761
877.208	1845
877.258	1584
877.291	1360
877.365	1029
877.374	993
877.456	1098
877.472	1034
877.539	868
877.579	944
877.622	938
877.687	769
877.704	756
877.787	1380
877.794	1308
877.869	685
877.901	1061
877.952	1550
878.008	1328
878.034	1153
878.115	1291
878.117	1304
878.199	1013
878.222	971
878.282	616
878.329	1027
878.364	1377
878.437	1403
878.447	1397
878.529	760
878.544	915
878.611	1691
878.651	1621
878.694	1576
878.758	962
878.776	785
878.858	1263
878.865	1299
878.941	1402
878.972	908
879.023	404
879.078	667
879.105	817
879.185	1357
879.187	1369
879.269	2037
879.292	1837
879.351	1104
879.399	1188
879.433	1401
879.506	1644
879.516	1638
879.598	1015
879.613	910
879.680	792
879.720	1298
879.762	1626
879.827	976
879.844	867
879.926	1291
879.933	1293
880.007	1282
880.040	1166
880.089	1130
880.147	1607
880.171	1771
880.253	2682
880.254	2681
880.335	3087
880.360	3343
880.417	4387
880.467	6411
880.499	7650
880.574	8307
880.580	8184
880.662	3082
880.680	2562
880.744	1624
880.787	1359
880.825	1346
880.893	1119
880.907	1084
880.989	1615
881.000	1616
881.070	1510
881.106	1537
881.152	1703
881.213	1527
881.233	1451
881.315	1693
881.319	1676
881.396	1450
881.426	1314
881.478	1174
881.532	1927
881.559	2267
881.639	1383
881.641	1359
881.722	1893
881.745	1775
881.803	2134
881.852	2072
881.885	1627
881.958	1507
881.966	1578
882.047	2382
882.064	2461
882.129	2553
882.171	2630
882.210	2858
882.277	3722
882.291	3797
882.372	2706
882.383	2570
882.454	2271
882.489	2483
882.535	2411
882.596	2203
882.616	2220
882.697	2131
882.702	2120
882.778	1761
882.808	1663
882.859	1696
882.914	1755
882.940	1727
883.020	1496
883.021	1503
883.102	1947
883.127	2083
883.183	2080
883.233	2009
883.264	2157
883.339	2381
883.345	2342
883.426	1347
883.445	1311
883.507	2176
883.551	2623
883.587	2514
883.657	1894
883.668	1947
883.749	2963
883.763	3062
883.830	2171
883.869	1554
883.910	1538
883.975	2087
883.991	2191
884.072	2007
884.081	1998
884.152	2210
884.187	2322
884.233	2435
884.292	2498
884.314	2345
884.394	1724
884.398	1689
884.475	1345
884.504	1155
884.555	1580
884.610	2215
884.636	2202
884.716	2207
884.716	2218
884.797	2760
884.821	2857
884.877	2288
884.927	1898
884.958	2008
885.033	2077
885.038	2070
885.118	1811
885.139	1811
885.199	2070
885.244	2222
885.279	2280
885.350	2131
885.359	2161
885.439	2561
885.456	2619
885.520	2198
885.561	2063
885.600	2048
885.667	1660
885.680	1669
885.760	1954
885.773	1970
885.840	2241
885.878	2499
885.920	2697
885.984	2597
886.000	2475
886.080	2179
886.089	2114
886.160	2490
886.195	2702
886.240	2398
886.300	2172
886.320	2278
886.400	2497
886.406	2502
886.480	2198
886.511	2100
886.560	2276
886.616	2292
886.640	2402
886.720	2896
886.722	2899
886.800	2386
886.827	2191
886.879	2218
886.932	2165
886.959	2500
887.038	3556
887.039	3564
887.119	3224
887.143	3175
887.198	2826
887.248	2443
887.278	2444
887.354	2179
887.358	2181
887.437	2311
887.459	2340
887.517	2774
887.564	3071
887.596	2814
887.669	2199
887.676	2210
887.755	2245
887.774	2268
887.835	2352
887.880	2336
887.914	2232
887.985	2136
887.994	2140
888.073	2097
888.090	2052
888.153	2650
888.195	3091
888.232	2961
888.300	2725
888.311	2771
888.391	2975
888.405	3002
888.470	2585
888.510	2291
888.549	2784
888.615	3665
888.628	3551
888.708	2806
888.720	2678
888.787	2923
888.825	2999
888.866	2627
888.930	2119
888.945	2159
889.024	2260
889.035	2276
889.103	2715
889.140	2911
889.182	3009
889.245	3182
889.261	3079
889.340	2506
889.349	2438
889.419	2495
889.454	2508
889.498	2486
889.559	2442
889.577	2423
889.656	2325
889.664	2312
889.735	3171
889.768	3564
889.814	3258
889.873	2832
889.978	2189
890.083	2756
890.187	2700
890.292	2490
890.397	2700
890.501	2682
890.606	3106
890.710	2460
890.815	2892
890.919	3078
891.024	2758
891.128	2300
891.233	2573
891.337	3353
891.442	2517
891.546	2749
891.650	2044
891.755	2194
891.859	3599
891.963	2830
892.068	2467
892.172	3216
892.276	1481
892.380	3071
892.484	2548
892.589	2957
892.693	2712
892.797	2132
892.901	1878
893.005	2522
893.109	3362
893.213	3066
893.317	2310
893.421	2678
893.525	1879
893.629	2401
893.733	2735
893.837	2344
893.941	2135
894.045	3011
894.148	1924
894.252	2900
894.356	2983
894.460	3079
894.564	2397
894.667	2822
894.771	1808
894.875	2608
894.978	2737
895.082	2746
895.186	3337
895.289	2310
895.393	2498
895.496	2430
895.600	1858
895.703	1636
895.807	1981
895.910	2531
896.014	2777
896.117	2541
896.221	2834
896.324	2852
896.427	2338
896.531	2115
896.634	2860
896.737	2859
896.840	2589
896.944	2913
897.047	2445
897.150	3201
897.253	2191
897.356	2712
897.460	1995
897.563	2349
897.666	1750
897.769	2425
897.872	2700
897.975	2858
898.078	2325
898.181	1917
898.284	2259
898.387	2638
898.490	2223
898.593	2271
898.695	1439
898.798	2397
898.901	2018
899.004	3275
899.107	1922
899.209	1783
899.312	2836
899.415	2684
899.518	1620
899.620	1845
899.723	2618
899.826	2502
899.928	3040
900.031	3244
900.133	2499
900.236	1704
900.338	1688
900.441	2473
900.543	2357
900.646	2071
900.748	1636
900.851	2114
900.953	1479
901.055	2218
901.158	1815
901.260	1836
901.362	1459
901.465	2495
901.567	2859
901.669	2538
901.771	1413
901.873	2657
901.976	2474
902.078	1752
902.180	1401
902.282	2088
902.384	1743
902.486	3098
902.588	2376
902.690	2006
902.792	1737
902.894	2449
902.996	1899
903.098	2549
903.200	2376
903.302	1608
903.404	2785
903.505	1335
903.607	1859
903.709	3016
903.811	2493
903.913	2215
904.014	1598
904.116	2924
904.218	2006
904.319	1747
904.421	2866
904.523	2476
904.624	2521
904.726	1975
904.827	1878
904.929	1561
905.030	1305
905.132	2697
905.233	2527
905.335	2198
905.436	1691
905.537	1933
905.639	2194
905.740	2355
905.841	2269
905.943	2137
906.044	2176
906.145	2526
906.247	1176
906.348	1931
906.449	2019
906.550	2703
906.651	2532
906.752	2224
906.854	1136
906.955	1197
907.056	1840
907.157	2830
907.258	2420
907.359	2039
907.460	2586
907.561	1997
907.662	2156
907.762	2612
907.863	1942
907.964	1958
908.065	2672
908.166	1579
908.267	2221
908.367	2117
908.468	1711
908.569	2829
908.670	2561
908.770	3615
908.871	2657
908.971	1969
909.072	2763
909.173	3213
909.273	2382
909.374	2768
909.474	1985
909.575	2277
909.675	1260
909.776	2765
909.876	2691
909.977	2320
910.077	2567
910.177	2148
910.278	2040
910.378	1875
910.478	2287
910.579	3113
910.679	1588
910.779	2896
910.879	2464
910.980	1672
911.080	2352
911.180	1640
911.280	2186
911.380	2404
911.480	2553
911.580	1801
911.680	2308
911.780	2919
911.880	2554
911.980	2644
912.080	2442
912.180	2962
912.280	2152
912.380	2277
912.480	2378
912.580	2670
912.679	1583
912.779	2901
912.879	2107
912.979	2467
913.078	2063
913.178	2570
913.278	2152
913.377	2680
913.477	2332
913.577	2344
913.676	2753
913.776	3059
913.875	2662
913.975	2822
914.074	2945
914.174	2700
914.273	2131
914.373	2904
914.472	1534
914.572	2193
914.671	2926
914.770	1974
914.870	2318
914.969	2177
915.068	1607
915.167	2742
915.267	1880
915.366	2109
915.465	2309
915.564	2545
915.663	1938
915.763	2150
915.862	2549
915.961	2315
916.060	1942
916.159	3099
916.258	1430
916.357	3056
916.456	2661
916.555	2641
916.654	2216
916.752	2404
916.851	2290
916.950	2030
917.049	2143
917.148	2447
917.247	1629
917.345	2068
917.444	2319
917.543	2576
917.642	1637
917.740	2381
917.839	2953
917.937	2809
918.036	3060
918.135	2155
918.233	1542
918.332	2218
918.430	2335
918.529	1940
918.627	1308
918.726	1923
918.824	2556
918.923	2939
919.021	2641
919.119	1670
919.218	1623
919.316	3119
919.414	1463
919.512	2837
919.611	3050
919.709	2569
919.807	2485
919.905	2518
920.003	2643
920.102	2150
920.200	2547
920.298	2704
920.396	2461
920.494	2942
920.592	2324
920.690	3246
920.788	2556
920.886	3078
920.984	2934
921.082	2665
921.180	4068
921.277	3784
921.375	3340
921.473	4508
921.571	3481
921.669	3172
921.766	3023
921.864	3766
921.962	4014
922.060	2958
922.157	4246
922.255	3169
922.352	2867
922.450	3741
922.548	3899
922.645	3247
922.743	4368
922.840	7483
922.938	7814
923.035	6404
923.133	6948
923.230	7205
923.327	7726
923.425	7504
923.522	6741
923.619	6322
923.717	6555
923.814	6084
923.911	5115
924.008	6675
924.106	5874
924.203	5871
924.300	6060
924.397	6021
924.494	6739
924.591	5521
924.688	5414
924.786	5874
924.883	5515
924.979	5778
925.077	5355
925.173	5246
925.270	6007
925.367	6209
925.464	5988
925.561	6626
925.658	6842
925.755	6524
925.852	6915
925.948	6173
926.045	4515
926.142	6128
926.239	6094
926.335	5514
926.432	4855
926.529	5435
926.625	6526
926.722	5415
926.818	5201
926.915	5555
927.011	4992
927.108	4924
927.204	5813
927.301	4611
927.397	6239
927.494	5972
927.590	4432
927.687	5125
927.783	6427
927.879	5534
927.976	4789
928.072	4757
928.168	4899
928.264	5849
928.361	5327
928.457	6047
928.553	4989
928.649	5017
928.745	4434
928.841	5110
928.937	5316
929.033	5051
929.129	5343
929.225	5441
929.321	4990
929.417	5233
929.513	5811
929.609	5203
929.705	4437
929.801	5016
929.897	4107
929.993	4516
930.089	4526
930.184	4194
930.280	4997
930.376	6474
930.471	4600
930.567	4874
930.663	4752
930.758	4298
930.854	4215
930.950	4389
931.045	3953
931.141	4739
931.236	5305
931.332	3879
931.427	3591
931.523	5146
931.618	4274
931.714	3781
931.809	4006
931.905	5437
932.000	3062
932.095	3459
932.191	5022
932.286	4413
932.381	4001
932.476	4506
932.572	4362
932.667	3537
932.762	3782
932.857	4272
932.952	3965
933.047	4147
933.142	3095
933.237	3838
933.332	4122
933.427	5668
933.522	3756
933.617	4167
933.712	3795
933.807	4944
933.902	5266
933.997	5383
934.092	3513
934.187	3447
934.282	4805
934.376	4399
934.471	3544
934.566	3536
934.661	3171
934.755	3912
934.850	3402
934.945	3476
935.039	3700
935.134	3075
935.228	4339
935.323	4411
935.417	2613
935.512	2799
935.606	3140
935.701	3705
935.795	3641
935.890	3828
935.984	3829
936.079	3208
936.173	3761
936.267	3467
936.362	3232
936.456	3862
936.550	3717
936.644	4357
936.738	3454
936.833	3570
936.927	3134
937.021	2661
937.115	3266
937.209	3279
937.303	3581
937.397	3409
937.491	3724
937.585	3962
937.679	3951
937.773	3480
937.867	3238
937.961	3076
938.055	4068
938.149	4045
938.243	2951
938.337	2980
938.430	3160
938.524	4193
938.618	3262
938.712	4301
938.805	3744
938.899	3737
938.993	3239
939.086	2679
939.180	2288
939.274	2897
939.367	3040
939.461	3071
939.554	2829
939.648	3045
939.741	1958
939.835	3548
939.928	4074
940.022	3085
940.115	2332
940.208	3311
940.302	4775
940.395	3918
940.488	1965
940.582	3736
940.675	2322
940.768	2619
940.861	3547
940.954	3687
941.048	1798
941.141	3115
941.234	3089
941.327	2854
941.420	2921
941.513	3437
941.606	2162
941.699	3631
941.792	2553
941.885	2977
941.978	2773
942.071	2811
942.164	1902
942.257	2407
942.349	2232
942.442	3210
942.535	2428
942.628	2449
942.721	2354
942.813	2392
942.906	2877
942.999	3371
943.091	2191
943.184	2140
943.277	1810
943.369	2818
943.462	1688
943.554	3726
943.647	2392
943.739	2736
943.832	3258
943.924	1355
944.017	2556
944.109	1460
944.201	2493
944.294	2364
944.386	2417
944.478	2330
944.571	2103
944.663	3239
944.755	2480
944.847	3056
944.940	2314
945.032	871
945.124	2215
945.216	3181
945.308	2341
945.400	2639
945.492	2192
945.584	2428
945.676	2170
945.768	2152
945.860	3056
945.952	3097
946.044	1946
946.136	1496
946.228	2442
946.320	1550
946.412	2839
946.503	3593
946.595	3327
946.687	2348
946.779	904
946.870	2185
946.962	1721
947.054	2773
947.145	2423
947.237	1929
947.329	1866
947.420	2730
947.512	2955
947.603	1369
947.695	2187
947.786	1070
947.878	2278
947.969	2549
948.061	2430
948.152	2160
948.243	1821
948.335	1902
948.426	1333
948.517	2649
948.609	2953
948.700	1841
948.791	207
948.882	1954
948.973	1107
949.065	2365
949.156	1958
949.247	1312
949.338	1829
949.429	1851
949.520	1384
949.611	2087
949.702	2037
949.793	1909
949.884	2339
949.975	1590
950.066	2018
950.157	1072
950.247	1816
950.338	2076
950.429	1805
950.520	3062
950.611	865
950.701	1418
950.792	1560
950.883	1635
950.973	1606
951.064	2524
951.155	2068
951.245	1581
951.336	1914
951.427	2365
951.517	2092
951.608	2250
951.698	1464
951.788	1911
951.879	2352
951.969	1995
952.060	1487
952.150	1793
952.240	2220
952.331	1464
952.421	2581
952.511	870
952.602	911
952.692	1401
952.782	1332
952.872	1806
952.962	1928
953.052	2202
953.143	1483
953.233	1717
953.323	2578
953.413	1977
953.503	2185
953.593	1826
953.683	789
953.773	1039
953.863	1458
953.953	1513
954.042	1628
954.132	1445
954.222	1507
954.312	1457
954.402	1030
954.492	474
954.581	1765
954.671	1478
954.761	930
954.850	2977
954.940	1611
955.030	1218
955.119	1133
955.209	1795
955.298	774
955.388	2658
955.477	2482
955.567	1226
955.656	1524
955.746	1690
955.835	946
955.925	1212
956.014	1745
956.103	2679
956.193	1648
956.282	1723
956.371	1457
956.461	1815
956.550	1194
956.639	1852
956.728	660
956.817	1380
956.906	1473
956.995	2574
957.085	1272
957.174	1994
957.263	1398
957.352	1313
957.441	1549
957.530	1114
957.619	1398
957.708	1422
957.796	1504
957.885	1314
957.974	955
958.063	1271
958.152	810
958.241	1644
958.329	1420
958.418	1761
958.507	823
958.596	2189
958.684	343
958.773	2136
958.861	1759
958.950	2048
959.039	1612
959.127	1339
959.216	1654
959.304	293
959.393	687
959.481	1796
959.570	1407
959.658	1361
959.746	868
959.835	2560
959.923	961
960.011	1595
960.100	1918
960.188	2203
960.276	1289
960.365	1031
960.453	1205
960.541	775
960.629	502
960.717	1313
960.805	348
960.893	1673
960.981	530
961.069	1952
961.158	924
961.245	2449
961.333	1290
961.421	1208
961.509	1210
961.597	2264
961.685	580
961.773	1219
961.861	-76
961.949	1565
962.036	1182
962.124	1900
962.212	630
962.299	653
962.387	-58
962.475	1296
962.562	563
962.650	1750
962.738	1441
962.825	629
962.913	997
963.000	1050
963.088	591
963.175	825
963.263	1222
963.350	1282
963.438	1011
963.525	1048
963.612	2372
963.700	1761
963.787	2626
963.874	1885
963.962	1649
964.049	1564
964.136	1797
964.223	491
964.310	514
964.398	938
964.485	1822
964.572	1622
964.659	1385
964.746	814
964.833	987
964.920	1233
965.007	1010
965.094	1574
965.181	998
965.268	1749
965.355	804
965.441	1224
965.528	750
965.615	1790
965.702	1150
965.789	1199
965.875	836
965.962	1834
966.049	520
966.136	1602
966.222	964
966.309	2199
966.395	1053
966.482	2156
966.569	1341
966.655	720
966.742	1869
966.828	1676
966.915	1108
967.001	1005
967.087	367
967.174	1237
967.260	1608
967.347	606
967.433	737
967.519	1386
967.605	622
967.692	535
967.778	824
967.864	1566
967.950	711
968.036	1048
968.123	518
968.209	1019
968.295	161
968.381	1956
968.467	962
968.553	-31
968.639	933
968.725	-299
968.811	1134
968.897	1850
968.983	653
969.069	1385
969.154	1645
969.240	1803
969.326	156
969.412	474
969.497	830
969.583	632
969.669	1478
969.755	1398
969.840	212
969.926	1836
970.012	1054
970.097	2168
970.183	335
970.268	888
970.354	813
970.439	632
970.525	2001
970.610	331
970.696	1407
970.781	677
970.866	-196
970.952	1217
971.037	283
971.122	902
971.208	733
971.293	1857
971.378	-575
971.463	674
971.549	1152
971.634	1200
971.719	510
971.804	734
971.889	1172
971.974	1144
972.059	1401
972.144	698
972.229	281
972.314	299
972.399	983
972.484	1028
972.569	889
972.654	600
972.739	1233
972.824	828
972.908	712
972.993	-54
973.078	846
973.163	1422
973.247	987
973.332	-425
973.417	2013
973.501	319
973.586	674
973.671	1038
973.755	450
973.840	1002
973.924	651
974.009	680
974.093	307
974.178	2018
974.262	215
974.346	823
974.431	860
974.515	549
974.600	289
974.684	1077
974.768	194
974.852	1865
974.937	188
975.021	964
975.105	495
975.189	639
975.273	693
975.358	460
975.442	-661
975.526	1187
975.610	-73
975.694	324
975.778	2187
975.862	656
975.946	-1283
976.030	2435
976.114	547
976.198	914
976.281	828
976.365	2062
976.449	516
976.533	987
976.617	175
976.700	40
976.784	11
976.868	-16
976.951	-168
977.035	699
977.119	651
977.202	1395
977.286	1394
977.369	368
977.453	1529
977.536	41
977.620	534
977.703	515
977.787	-267
977.870	704
977.953	1575
978.037	-529
978.120	1371
978.203	1287
978.287	452
978.370	163
978.453	-153
978.536	702
978.620	1980
978.703	415
978.786	-152
978.869	-538
978.952	-33
979.035	1305
979.118	-147
979.201	-421
979.284	30
979.367	163
979.450	334
979.533	86
979.616	-44
979.699	468
979.782	798
979.865	1178
979.948	157
980.030	-12
980.113	763
980.196	154
980.279	1030
980.361	40
980.444	-325
980.526	998
980.609	820
980.692	788
980.774	1354
980.857	-99
980.939	1437
981.022	292
981.104	711
981.187	796
981.269	943
981.352	690
981.434	-449
981.516	-292
981.599	1538
981.681	880
981.763	279
981.846	812
981.928	265
982.010	-143
982.092	-46
982.174	1439
982.256	-83
982.339	1012
982.421	880
982.503	327
982.585	-52
982.667	-375
982.749	577
982.831	510
982.913	-560
982.995	1089
983.077	-75
983.158	1715
983.240	-55
983.322	1363
983.404	1084
983.486	109
983.568	1393
983.649	1060
983.731	1505
983.813	496
983.894	1348
983.976	336
984.058	-144
984.139	1366
984.221	253
984.302	2186
984.384	734
984.465	1307
984.547	230
984.628	306
984.710	1469
984.791	334
984.872	339
984.954	165
985.035	868
985.116	380
985.198	-133
985.279	1694
985.360	260
985.441	680
985.522	1382
985.604	625
985.685	-710
985.766	1599
985.847	930
985.928	258
986.009	349
986.090	790
986.171	932
986.252	458
986.333	598
986.414	682
986.495	718
986.576	1024
986.656	69
986.737	962
986.818	542
986.899	115
986.980	256
987.060	1368
987.141	34
987.222	863
987.302	1184
987.383	1709
987.464	570
987.544	1767
987.625	155
987.705	1978
987.786	1296
987.866	814
987.947	1852
988.027	777
988.108	612
988.188	1202
988.268	164
988.349	1238
988.429	899
988.509	1520
988.589	492
988.670	-474
988.750	2094
988.830	860
988.910	593
988.990	971
989.070	1008
989.151	643
989.231	225
989.311	1473
989.391	400
989.471	326
989.551	1181
989.631	673
989.711	1124
989.791	809
989.870	-20
989.950	1240
990.030	645
990.110	362
990.190	147
990.269	680
990.349	374
990.429	737
990.509	1232
990.588	142
990.668	521
990.747	959
990.827	-42
990.907	928
990.986	1198
991.066	1315
991.145	57
991.225	1209
991.304	134
991.383	755
991.463	338
991.542	892
991.622	333
991.701	82
991.780	-178
991.859	940
991.939	-257
992.018	565
992.097	726
992.176	838
992.256	358
992.335	20
992.414	1356
992.493	-89
992.572	42
992.651	1063
992.730	615
992.809	-341
992.888	-577
992.967	93
993.046	823
993.125	50
993.203	431
993.282	880
993.361	-526
993.440	-48
993.519	-188
993.597	459
993.676	-577
993.755	611
993.834	-458
993.912	-295
993.991	913
994.069	166
994.148	-238
994.226	9
994.305	-114
994.384	579
994.462	1736
994.540	-325
994.619	-88
994.697	560
994.776	-44
994.854	1077
994.932	-142
995.011	735
995.089	-1160
995.167	-139
995.245	-42
995.324	-1305
995.402	265
995.480	-415
995.558	463
995.636	-438
995.714	-614
995.792	1554
995.870	-847
995.948	668
996.026	518
996.104	-789
996.182	1293
996.260	-591
996.338	187
996.416	224
996.494	-361
996.572	927
996.649	-264
996.727	-515
996.805	215
996.883	-219
996.960	-475
997.038	737
997.116	386
997.193	-319
997.271	-136
997.348	113
997.426	9
997.504	-1137
997.581	533
997.658	-254
997.736	-224
997.813	-1034
997.891	245
997.968	177
998.046	-882
998.123	-123
998.200	-92
998.277	-1152
998.355	258
998.432	-1702
998.509	148
998.586	-53
998.663	-192
998.741	-210
998.818	-547
998.895	-18
998.972	311
999.049	397
999.126	-910
999.203	-713
999.280	-498
999.357	161
999.434	-1379
999.511	-83
999.587	-95
999.664	-853
999.741	-860
999.818	76
999.895	-363
999.971	-924
1000.048	-865
1000.125	1102
1000.202	-1194
1000.278	-797
1000.355	-636
1000.431	-1082
1000.508	-928
1000.584	-404
1000.661	103
1000.738	-272
1000.814	-344
1000.890	62
1000.967	-727
1001.043	-139
1001.120	-1230
1001.196	-595
1001.272	-1340
1001.349	-278
1001.425	213
1001.501	-123
1001.577	-1284
1001.654	-926
1001.730	-471
1001.806	-413
1001.882	-168
1001.958	-184
1002.034	-548
1002.110	-372
1002.186	-635
1002.262	-378
1002.338	-1289
1002.414	-520
1002.490	-164
1002.566	-981
1002.642	-1435
1002.718	299
1002.794	-1148
1002.870	-884
1002.945	-643
1003.021	-1376
1003.097	-452
1003.173	629
1003.248	-1496
1003.324	-835
1003.400	-700
1003.475	-1635
1003.551	246
1003.626	-475
1003.702	-489
1003.777	-696
1003.853	-1317
1003.928	-886
1004.004	-803
1004.079	-137
1004.155	-148
1004.230	-1306
1004.305	-269
1004.381	-1029
1004.456	-1243
1004.531	-601
1004.607	-1186
1004.682	-1100
1004.757	-942
1004.832	-1116
1004.907	-1060
1004.982	-549
1005.057	-657
1005.133	-1047
1005.208	-1059
1005.283	-631
1005.358	-462
1005.433	-1670
1005.508	-752
1005.583	-1271
1005.657	-701
1005.732	-356
1005.807	-1486
1005.882	-597
1005.957	-656
1006.032	-163
1006.106	-289
1006.181	-374
1006.256	-1003
1006.331	-1203
1006.405	-1071
1006.480	-604
1006.554	-1384
1006.629	-227
1006.704	-1205
1006.778	-901
1006.853	-1048
1006.927	-1330
1007.002	-957
1007.076	-1189
1007.150	-1211
1007.225	-815
1007.299	-321
1007.373	-968
1007.448	-1371
1007.522	-190
1007.596	-1354
1007.671	95
1007.745	-760
1007.819	-1508
1007.893	-1318
1007.967	-402
1008.041	-1879
1008.115	-113
1008.190	-1071
1008.264	296
1008.338	-1753
1008.412	-779
1008.486	-1269
1008.560	-899
1008.633	-720
1008.707	-1073
1008.781	-829
1008.855	-902
1008.929	-1106
1009.003	-657
1009.076	-1378
1009.150	-1247
1009.224	-510
1009.298	-78
1009.371	-1244
1009.445	-240
1009.519	-1121
1009.592	-960
1009.666	-493
1009.739	-443
1009.813	-2447
1009.886	-245
1009.960	-2442
1010.033	-198
1010.107	-413
1010.180	-1588
1010.253	-1375
1010.327	-1494
1010.400	-1868
1010.473	-796
1010.547	409
1010.620	-466
1010.693	-1324
1010.766	-1583
1010.840	-999
1010.913	-152
1010.986	-1641
1011.059	86
1011.132	-1317
1011.205	-218
1011.278	-1485
1011.351	-634
1011.424	-1237
1011.497	-1260
1011.570	-1171
1011.643	-1267
1011.716	-1574
1011.789	-994
1011.862	-221
1011.934	-567
1012.007	-1906
1012.080	-681
1012.153	-1591
1012.225	-820
1012.298	-1290
1012.371	-1168
1012.443	-1345
1012.516	-2262
1012.588	-1568
1012.661	-693
1012.733	-1737
1012.806	-233
1012.879	-1105
1012.951	-2079
1013.023	-2043
1013.096	143
1013.168	-1341
1013.241	-66
1013.313	-1434
1013.385	-1719
1013.458	-1892
1013.530	-605
1013.602	-1306
1013.674	-1112
1013.746	-2546
1013.819	-1706
1013.891	-583
1013.963	-1153
1014.035	-2117
1014.107	-1328
1014.179	-706
1014.251	-1506
1014.323	-1063
1014.395	-1795
1014.467	-708
1014.539	-772
1014.611	-1606
1014.683	-1048
1014.754	-864
1014.826	-977
1014.898	-1157
1014.970	-2008
1015.042	-702
1015.113	-793
1015.185	-1711
1015.257	-1920
1015.328	-529
1015.400	-1668
1015.471	-1523
1015.543	-2353
1015.615	-1751
1015.686	-921
1015.757	-975
1015.829	-573
1015.901	-1277
1015.972	-1247
1016.043	-1576
1016.115	-611
1016.186	-1369
1016.257	-2014
1016.328	-746
1016.400	-377
1016.471	-1123
1016.542	-842
1016.613	-1875
1016.685	-1156
1016.756	-727
1016.827	-1410
1016.898	-2410
1016.969	-265
1017.040	-1185
1017.111	-1814
1017.182	-1493
1017.253	-1592
1017.324	-1140
1017.395	-1482
1017.466	-1062
1017.537	-920
1017.608	-1195
1017.678	-1314
1017.749	-1444
1017.820	-1046
1017.891	-2021
1017.961	-1392
1018.032	-1743
1018.103	-1520
1018.173	-1770
1018.244	-1931
1018.315	-1655
1018.385	-607
1018.456	-1882
1018.526	-1350
1018.597	-1617
1018.667	-1318
1018.738	-1794
1018.808	-1223
1018.878	-1892
1018.949	-885
1019.019	-1404
1019.089	-1884
1019.160	-1803
1019.230	-2012
1019.300	-1608
1019.371	-1549
1019.441	-1385
1019.511	-956
1019.581	-1345
1019.651	-1173
1019.721	-2128
1019.791	-1782
1019.861	-1501
1019.931	-1037
1020.001	-1717
1020.071	-1569
1020.141	-2252
1020.211	-1548
1020.281	-2064
1020.351	-1560
1020.421	-690
1020.491	-1133
1020.560	-1667
1020.630	-1956
1020.700	-1402
1020.770	-1876
1020.839	-1564
1020.909	-902
1020.979	-1207
1021.048	-1190
1021.118	-1088
1021.187	-1868
1021.257	-1666
1021.326	-529
1021.396	-1406
1021.465	-1325
1021.535	-1657
1021.604	-1656
1021.674	-1053
1021.743	-911
1021.812	-2467
1021.882	-1138
1021.951	-2018
1022.020	-731
1022.089	-1251
1022.159	-1244
1022.228	-1659
1022.297	-1279
1022.366	-1812
1022.435	-1224
1022.504	-1461
1022.573	-1574
1022.642	-1738
1022.711	-2069
1022.781	-1144
1022.849	-1451
1022.918	-2594
1022.987	-1535
1023.056	-2568
1023.125	-1128
1023.194	-942
1023.263	-1238
1023.331	-1375
1023.400	-1631
1023.469	-2063
1023.538	-906
1023.606	-1843
1023.675	-1304
1023.744	-1804
1023.812	-2290
1023.881	-1476
1023.949	-1469
1024.018	-1968
1024.086	-1032
1024.155	-1896
1024.223	-1740
1024.292	-948
1024.360	-1035
1024.429	-1783
1024.497	-2493
1024.565	-1537
1024.634	-1198
1024.702	-1965
1024.770	-2294
1024.838	-2053
1024.907	-1741
1024.975	-2131
1025.043	-1463
1025.111	-2000
1025.179	-1343
1025.247	-1798
1025.315	-1351
1025.383	-1520
1025.451	-1213
1025.519	-1604
1025.587	-1856
1025.655	-1411
1025.723	-2118
1025.791	-2094
1025.859	-1393
1025.927	-1261
1025.995	-1731
1026.062	-1830
1026.130	-1617
1026.198	-1324
1026.266	-1735
1026.333	-771
1026.401	-1578
1026.469	-2169
1026.536	-1612
1026.604	-1735
1026.671	-1214
1026.739	-917
1026.806	-1657
1026.874	-1797
1026.941	-1309
1027.009	-1579
1027.076	-2532
1027.144	-1388
1027.211	-1376
1027.278	-2282
1027.345	-1356
1027.413	-1563
1027.480	-1869
1027.547	-1441
1027.614	-1288
1027.682	-1747
1027.749	-1077
1027.816	-2338
1027.883	-1326
1027.950	-1402
1028.017	-3949
1028.084	-917
1028.151	-983
1028.218	-2663
1028.285	-1974
1028.352	-2009
1028.419	-2082
1028.486	-2020
1028.553	-1807
1028.619	-1885
1028.686	-1813
1028.753	-1170
1028.820	-1990
1028.886	-1793
1028.953	-1331
1029.020	-1541
1029.086	-1807
1029.153	-1816
1029.220	-2132
1029.286	-1730
1029.353	-561
1029.419	-2985
1029.486	-1625
1029.552	-2509
1029.619	-2039
1029.685	-1458
1029.751	-1585
1029.818	-580
1029.884	-1837
1029.951	-1562
1030.017	-1452
1030.083	-2117
1030.149	-1599
1030.216	-2269
1030.282	-1769
1030.348	-1936
1030.414	-2195
1030.480	-1251
1030.546	-1754
1030.612	-1387
1030.678	-2085
1030.744	-1571
1030.810	-1441
1030.876	-1697
1030.942	-1869
1031.008	-1986
1031.074	-1794
1031.140	-1411
1031.206	-1658
1031.272	-2207
1031.337	-2455
1031.403	-1529
1031.469	-2350
1031.534	-2198
1031.600	-1307
1031.666	-1689
1031.731	-2762
1031.797	-1913
1031.863	-2306
1031.928	-2016
1031.994	-1742
1032.059	-2030
1032.125	-1756
1032.190	-1789
1032.256	-1894
1032.321	-2334
1032.386	-1428
1032.452	-1847
1032.517	-1571
1032.582	-2116
1032.647	-2156
1032.713	-2539
1032.778	-1684
1032.843	-2049
1032.908	-1985
1032.974	-1687
1033.039	-1270
1033.104	-1085
1033.169	-1792
1033.234	-1728
1033.299	-1171
1033.364	-1532
1033.429	-1917
1033.494	-1420
1033.559	-1760
1033.624	-2257
1033.688	-1874
1033.753	-2338
1033.818	-1195
1033.883	-1595
1033.948	-819
1034.013	-1650
1034.077	-1425
1034.142	-1774
1034.207	-700
1034.271	-1667
1034.336	-544
1034.400	-245
1034.465	-1643
1034.530	-1856
1034.594	-1929
1034.658	-1512
1034.723	-2158
1034.787	-1576
1034.852	-1877
1034.916	-2803
1034.981	-1902
1035.045	-1572
1035.109	-1974
1035.173	-1136
1035.238	-2256
1035.302	-1689
1035.366	-2465
1035.430	-2769
1035.495	-1752
1035.559	-1839
1035.623	-1428
1035.687	-3178
1035.751	-1808
1035.815	-2141
1035.879	-1254
1035.943	-2364
1036.007	-2102
1036.071	-2265
1036.135	-2852
1036.198	-1881
1036.262	-1931
1036.326	-2603
1036.390	-1096
1036.454	-2281
1036.517	-1871
1036.581	-1080
1036.645	-2392
1036.709	-1797
1036.772	-1671
1036.836	-2275
1036.900	-1829
1036.963	-1858
1037.026	-1965
1037.090	-2876
1037.154	-1777
1037.217	-2073
1037.280	-2490
1037.344	-1798
1037.407	-2361
1037.471	-2231
1037.534	-2252
1037.597	-2091
1037.661	-2096
1037.724	-2319
1037.787	-2427
1037.850	-2720
1037.913	-2478
1037.977	-1950
1038.040	-3207
1038.103	-1826
1038.166	-2641
1038.229	-2253
1038.292	-2022
1038.355	-2497
1038.418	-2110
1038.481	-1071
1038.544	-1351
1038.607	-2288
1038.670	-1486
1038.732	-2807
1038.795	-2142
1038.858	-1673
1038.921	-1038
1038.984	-1614
1039.046	-1803
1039.109	-2567
1039.172	-1818
1039.234	-2294
1039.297	-1773
1039.360	-2201
1039.422	-1811
1039.485	-2022
1039.547	-1879
1039.610	-2078
1039.672	-2466
1039.734	-1588
1039.797	-2259
1039.859	-2111
1039.922	-1814
1039.984	-2022
1040.046	-1797
1040.109	-2208
1040.171	-2466
1040.233	-1739
1040.295	-2007
1040.358	-2754
1040.420	-2036
1040.482	-1821
1040.544	-1986
1040.606	-1403
1040.668	-1738
1040.730	-2027
1040.792	-1937
1040.854	-1751
1040.916	-1612
1040.978	-2585
1041.040	-1856
1041.102	-1403
1041.164	-2037
1041.225	-2831
1041.287	-2060
1041.349	-2431
1041.411	-2306
1041.472	-2160
1041.534	-1428
1041.596	-2324
1041.657	-2217
1041.719	-1860
1041.781	-2079
1041.842	-1228
1041.904	-1998
1041.965	-2193
1042.027	-1771
1042.088	-1469
1042.150	-1752
1042.211	-2527
1042.272	-995
1042.334	-1398
1042.395	-2053
1042.456	-2111
1042.518	-2526
1042.579	-1535
1042.640	-1727
1042.701	-2160
1042.763	-1529
1042.824	-2410
1042.885	-2279
1042.946	-2032
1043.007	-1807
1043.068	-2536
1043.129	-1381
1043.190	-2105
1043.251	-1774
1043.312	-2520
1043.373	-1189
1043.434	-1441
1043.495	-1807
1043.556	-1824
1043.616	-1522
1043.677	-1536
1043.738	-1118
1043.799	-1948
1043.859	-1928
1043.920	-2242
1043.981	-1606
1044.041	-2156
1044.102	-1470
1044.162	-2741
1044.223	-1987
1044.284	-1437
1044.344	-1677
1044.405	-2453
1044.465	-2023
1044.525	-1986
1044.586	-1614
1044.646	-2049
1044.707	-932
1044.767	-1357
1044.827	-1785
1044.887	-2485
1044.948	-1255
1045.008	-2435
1045.068	-2292
1045.128	-1992
1045.188	-3138
1045.249	-1082
1045.309	-1922
1045.369	-1370
1045.429	-1398
1045.489	-1641
1045.549	-1431
1045.609	-2273
1045.669	-2134
1045.729	-2212
1045.789	-2034
1045.848	-1711
1045.908	-1231
1045.968	-2070
1046.028	-1606
1046.088	-1605
1046.147	-1192
1046.207	-1839
1046.267	-1638
1046.326	-1304
1046.386	-855
1046.446	-1187
1046.505	-469
1046.565	-578
1046.624	-836
1046.684	-702
1046.743	-632
1046.803	-245
1046.862	-443
1046.922	0
