'Start Wavelength	183.907
'End Wavelength	1046.922
'Gate Delay	5.000
'Gate Width (ms)	1.050
'Laser Output Level	0.000
'X Position	0.000
'Y Position	0.000
'Z Position	0.000
'Grid Point Number	1.000
'Shot Number	100.000
183.907	48.000
183.977	388.000
184.047	-94
184.116	220
184.186	-15
184.256	804
184.325	808
184.395	-540
184.465	1099
184.534	848
184.604	131
184.674	591
184.743	-386
184.813	189
184.883	-105
184.952	239
185.022	43
185.092	23
185.161	522
185.231	-490
185.301	171
185.370	781
185.440	601
185.509	109
185.579	58
185.649	370
185.718	230
185.788	942
185.857	-265
185.927	-121
185.996	346
186.066	296
186.136	274
186.205	164
186.275	1209
186.344	472
186.414	563
186.483	-305
186.553	1101
186.622	1650
186.692	582
186.761	-25
186.831	77
186.900	-241
186.970	1382
187.039	1016
187.109	1312
187.178	695
187.248	558
187.317	1342
187.387	440
187.456	237
187.526	933
187.595	877
187.664	780
187.734	1348
187.803	392
187.873	860
187.942	1450
188.012	1114
188.081	302
188.150	795
188.220	1766
188.289	1934
188.358	1536
188.428	1117
188.497	-62
188.567	1123
188.636	614
188.705	925
188.775	1145
188.844	214
188.913	1602
188.983	407
189.052	682
189.121	787
189.191	1374
189.260	1565
189.329	1414
189.399	1508
189.468	853
189.537	700
189.606	1429
189.676	881
189.745	827
189.814	1396
189.883	636
189.953	1025
190.022	1141
190.091	3375
190.161	4378
190.230	1941
190.299	519
190.368	672
190.437	1592
190.507	1074
190.576	803
190.645	1121
190.714	264
190.783	1085
190.853	622
190.922	898
190.991	1151
191.060	1404
191.129	314
191.198	1584
191.268	900
191.337	181
191.406	1044
191.475	934
191.544	642
191.613	1083
191.682	876
191.752	38
191.821	403
191.890	-378
191.959	738
192.028	651
192.097	1192
192.166	1219
192.235	611
192.304	760
192.373	938
192.442	250
192.511	-69
192.580	1284
192.650	421
192.719	133
192.788	1571
192.857	509
192.926	-567
192.995	288
193.064	1262
193.133	755
193.202	255
193.271	1704
193.340	969
193.409	1386
193.478	1959
193.547	1650
193.615	1745
193.684	2353
193.753	2139
193.822	1188
193.891	554
193.960	1245
194.029	1254
194.098	1260
194.167	692
194.236	622
194.305	1094
194.374	1214
194.443	635
194.512	1965
194.580	1116
194.649	1734
194.718	2564
194.787	1106
194.856	123
194.925	1007
194.994	1518
195.062	2249
195.131	2228
195.200	2578
195.269	2824
195.338	2789
195.407	1352
195.475	1044
195.544	2469
195.613	3172
195.682	2410
195.751	3026
195.819	2411
195.888	2122
195.957	2492
196.026	3023
196.094	2309
196.163	2933
196.232	3088
196.301	2894
196.369	2356
196.438	1691
196.507	1003
196.576	884
196.644	878
196.713	926
196.782	1094
196.850	1557
196.919	1059
196.988	858
197.056	261
197.125	1488
197.194	1409
197.262	923
197.331	848
197.400	966
197.468	1473
197.537	614
197.606	532
197.674	2185
197.743	4958
197.812	1999
197.880	3670
197.949	2079
198.017	3356
198.086	2862
198.155	1496
198.223	1631
198.292	4597
198.360	2511
198.429	1044
198.497	1470
198.566	2349
198.635	4723
198.703	2892
198.772	1586
198.840	3823
198.909	6107
198.977	2763
199.046	1320
199.114	1241
199.183	1528
199.251	743
199.320	1225
199.388	1160
199.457	1167
199.525	1448
199.594	1904
199.662	1150
199.731	1633
199.799	1182
199.867	2051
199.936	1948
200.004	2015
200.073	1375
200.141	1681
200.210	1013
200.278	1821
200.346	1417
200.415	2701
200.483	2204
200.552	1559
200.620	1413
200.688	1149
200.757	1932
200.825	1642
200.893	1353
200.962	2194
201.030	624
201.098	1264
201.167	1886
201.235	1013
201.303	931
201.372	2049
201.440	596
201.508	1383
201.577	2751
201.645	1631
201.713	1695
201.781	2100
201.850	2167
201.918	1658
201.986	1316
202.055	1562
202.123	1561
202.191	1505
202.259	1472
202.327	1777
202.396	1833
202.464	1870
202.532	1899
202.600	7231
202.669	5551
202.737	1515
202.805	1366
202.873	1327
202.941	1332
203.009	1258
203.078	2015
203.146	1879
203.214	1189
203.282	1241
203.350	2521
203.418	2147
203.487	1389
203.555	1439
203.623	1474
203.691	2107
203.759	1347
203.827	1240
203.895	2227
203.963	2106
204.031	1099
204.099	1528
204.168	1132
204.236	1910
204.304	1718
204.372	1900
204.440	1172
204.508	1400
204.576	577
204.644	1507
204.712	456
204.780	1636
204.848	1567
204.916	1406
204.984	931
205.052	1654
205.120	1760
205.188	1714
205.256	1339
205.324	1118
205.392	1075
205.460	1609
205.528	966
205.596	1541
205.664	825
205.732	1539
205.799	4041
205.867	9138
205.935	2247
206.003	2114
206.071	1724
206.139	1709
206.207	1543
206.275	1891
206.343	1283
206.411	1936
206.478	1172
206.546	1385
206.614	1439
206.682	1741
206.750	1382
206.818	2088
206.885	2874
206.953	366
207.021	2435
207.089	1344
207.157	781
207.225	1779
207.292	233
207.360	1483
207.428	1059
207.496	1799
207.563	1579
207.631	2128
207.699	662
207.767	1397
207.834	1237
207.902	1711
207.970	1156
208.038	1066
208.105	964
208.173	1275
208.241	1676
208.309	2709
208.376	1664
208.444	6034
208.512	3170
208.579	1104
208.647	2396
208.715	3786
208.782	2816
208.850	1334
208.918	1033
208.985	1302
209.053	2883
209.120	2641
209.188	1224
209.256	2382
209.323	1278
209.391	3085
209.459	3396
209.526	2019
209.594	1654
209.661	1777
209.729	1155
209.796	2107
209.864	1988
209.932	1742
209.999	3470
210.067	3222
210.134	2329
210.202	1850
210.269	4941
210.337	4216
210.404	1980
210.472	2200
210.539	2182
210.607	2572
210.674	3899
210.742	2357
210.809	2158
210.877	2531
210.944	4215
211.012	3059
211.079	4494
211.146	1623
211.214	2289
211.281	4011
211.349	4300
211.416	3223
211.484	3398
211.551	3006
211.618	2484
211.686	2566
211.753	1926
211.821	2861
211.888	2043
211.955	2473
212.023	1985
212.090	2944
212.157	2948
212.225	3727
212.292	5619
212.359	9654
212.427	23909
212.494	13483
212.561	5032
212.629	3550
212.696	2503
212.763	2709
212.831	2150
212.898	2452
212.965	2436
213.032	3100
213.100	3630
213.167	2762
213.234	4319
213.301	2403
213.369	2840
213.436	2331
213.503	2527
213.570	4853
213.638	8848
213.705	3786
213.772	2220
213.839	3588
213.906	4943
213.973	4060
214.041	2713
214.108	3247
214.175	3003
214.242	2939
214.309	2577
214.376	3813
214.444	2558
214.511	3428
214.578	2539
214.645	2484
214.712	4078
214.779	2921
214.846	3387
214.913	6820
214.980	5371
215.048	3927
215.115	5590
215.182	6023
215.249	4372
215.316	3400
215.383	4280
215.450	4608
215.517	4058
215.584	3662
215.651	3532
215.718	3274
215.785	5005
215.852	4930
215.919	5862
215.986	6023
216.053	3819
216.120	2434
216.187	3963
216.254	5176
216.321	3840
216.388	4962
216.455	4923
216.522	3802
216.589	6673
216.656	10598
216.722	10398
216.789	4878
216.856	4022
216.923	2652
216.990	3353
217.057	3634
217.124	6313
217.191	4442
217.258	5248
217.324	4966
217.391	3693
217.458	3406
217.525	2336
217.592	3422
217.659	2579
217.725	4853
217.792	6469
217.859	7409
217.926	2584
217.993	2502
218.059	2670
218.126	2623
218.193	1935
218.260	2569
218.327	2317
218.393	3300
218.460	3420
218.527	2448
218.594	4096
218.660	8391
218.727	9167
218.794	3749
218.860	3794
218.927	2848
218.994	2423
219.061	3729
219.127	4812
219.194	7983
219.261	4970
219.327	2200
219.394	3160
219.461	2159
219.527	3018
219.594	4805
219.661	4350
219.727	1809
219.794	2711
219.860	1575
219.927	3468
219.994	5007
220.060	9821
220.127	8203
220.193	3936
220.260	3139
220.326	3664
220.393	3999
220.460	4365
220.526	3561
220.593	2287
220.659	3980
220.726	4286
220.792	10744
220.859	8374
220.925	6561
220.992	7127
221.058	10785
221.125	14724
221.191	12021
221.258	4017
221.324	3793
221.391	4540
221.457	3038
221.524	3249
221.590	4857
221.657	14892
221.723	11958
221.789	9552
221.856	10185
221.922	5321
221.989	4419
222.055	3709
222.121	2915
222.188	7200
222.254	4669
222.321	4511
222.387	2795
222.453	2754
222.520	3205
222.586	2814
222.652	3322
222.719	3849
222.785	4013
222.851	3122
222.918	3291
222.984	3503
223.050	5141
223.116	3435
223.183	4411
223.249	1954
223.315	2329
223.382	3602
223.448	3321
223.514	2019
223.580	2136
223.647	2934
223.713	1752
223.779	2641
223.845	2933
223.911	3040
223.978	1544
224.044	4176
224.110	2966
224.176	2589
224.242	2941
224.309	2131
224.375	2964
224.441	2933
224.507	2711
224.573	2269
224.639	3262
224.705	1866
224.772	2276
224.838	1760
224.904	4659
224.970	3321
225.036	3594
225.102	4066
225.168	4747
225.234	3776
225.300	3707
225.366	3181
225.432	2841
225.499	2272
225.565	4280
225.631	3590
225.697	3507
225.763	3704
225.829	3965
225.895	5175
225.961	8124
226.027	7712
226.093	7215
226.159	6142
226.225	5675
226.291	7969
226.357	12199
226.423	11686
226.489	9412
226.554	5596
226.620	5210
226.686	8537
226.752	14399
226.818	10837
226.884	16673
226.950	16162
227.016	7205
227.082	6738
227.148	7241
227.214	7883
227.279	8775
227.345	7973
227.411	7774
227.477	7032
227.543	14246
227.609	16111
227.674	11775
227.740	7947
227.806	6095
227.872	4652
227.938	5349
228.003	12758
228.069	6554
228.135	2350
228.201	4241
228.267	3776
228.332	6740
228.398	6830
228.464	5610
228.530	3348
228.595	3881
228.661	3567
228.727	8233
228.792	8775
228.858	4131
228.924	4990
228.990	6949
229.055	6668
229.121	9589
229.187	5376
229.252	5776
229.318	3780
229.384	5476
229.449	7674
229.515	3364
229.581	2178
229.646	4773
229.712	6485
229.777	11732
229.843	13578
229.909	10074
229.974	10561
230.040	10351
230.105	6932
230.171	7581
230.236	9623
230.302	13948
230.368	12214
230.433	6208
230.499	6402
230.564	10281
230.630	5648
230.695	4542
230.761	4616
230.826	2408
230.892	8077
230.957	5654
231.023	3497
231.088	3807
231.154	3120
231.219	4266
231.284	6010
231.350	7571
231.415	4546
231.481	4443
231.546	3735
231.612	3532
231.677	2501
231.742	1820
231.808	5574
231.873	3935
231.939	1929
232.004	7397
232.069	8833
232.135	3972
232.200	3644
232.265	4536
232.331	2884
232.396	3614
232.461	1712
232.527	3442
232.592	3935
232.657	4385
232.723	9472
232.788	9915
232.853	4575
232.918	4019
232.984	3415
233.049	3116
233.114	9019
233.179	10609
233.245	10515
233.310	15516
233.375	5628
233.440	5709
233.506	3873
233.571	4259
233.636	4336
233.701	4435
233.766	9349
233.832	14354
233.897	7773
233.962	8724
234.027	10590
234.092	9423
234.157	7151
234.222	7558
234.288	10411
234.353	27461
234.418	29089
234.483	18631
234.548	12265
234.613	10258
234.678	9174
234.743	10291
234.808	30616
234.873	21964
234.938	11592
235.004	7727
235.069	7420
235.134	6924
235.199	6833
235.264	5162
235.329	4049
235.394	6505
235.459	9353
235.524	9402
235.589	7004
235.654	4874
235.719	3431
235.784	5500
235.849	6322
235.913	16806
235.978	19843
236.043	24975
236.108	9468
236.173	8338
236.238	10721
236.303	5572
236.368	5602
236.433	8563
236.498	17559
236.563	9962
236.627	9681
236.692	24914
236.757	21128
236.822	13154
236.887	16434
236.952	10933
237.017	7030
237.081	10733
237.146	9448
237.211	11614
237.276	21699
237.341	46593
237.405	31234
237.470	15793
237.535	15083
237.600	9275
237.664	6917
237.729	6618
237.794	8169
237.859	9328
237.923	14152
237.988	10324
238.053	14399
238.118	16425
238.182	34053
238.247	36767
238.312	22127
238.376	15903
238.441	13181
238.506	12079
238.570	5558
238.635	7352
238.700	6149
238.764	6353
238.829	15181
238.893	22184
238.958	11451
239.023	10697
239.087	6735
239.152	9839
239.216	6441
239.281	5455
239.346	5691
239.410	6033
239.475	7922
239.539	33861
239.604	33288
239.668	11486
239.733	7133
239.797	9398
239.862	24035
239.926	33668
239.991	15898
240.055	9145
240.120	7605
240.184	8671
240.249	6986
240.313	7569
240.378	7685
240.442	22664
240.507	34620
240.571	13568
240.635	15679
240.700	23992
240.764	11043
240.829	7814
240.893	4758
240.957	6982
241.022	17654
241.086	36600
241.151	21205
241.215	9070
241.279	10242
241.344	20515
241.408	11975
241.472	7808
241.537	9470
241.601	8545
241.665	6662
241.730	7044
241.794	9743
241.858	8576
241.922	8558
241.987	8543
242.051	6444
242.115	6982
242.179	7388
242.244	6683
242.308	7693
242.372	9389
242.436	13171
242.501	10236
242.565	5740
242.629	6514
242.693	7411
242.757	5758
242.822	7594
242.886	8284
242.950	9000
243.014	9888
243.078	11335
243.142	13164
243.206	10555
243.271	11206
243.335	9577
243.399	12200
243.463	30679
243.527	82622
243.591	35742
243.655	18931
243.719	11388
243.783	11635
243.847	16891
243.911	22505
243.975	32800
244.040	28191
244.104	13908
244.168	9594
244.232	17019
244.296	24785
244.360	20643
244.424	15938
244.488	13150
244.552	11826
244.615	8696
244.679	8879
244.743	10526
244.807	13223
244.871	9026
244.935	7875
244.999	7709
245.063	9478
245.127	10975
245.191	15051
245.255	16473
245.319	15179
245.383	15780
245.446	12112
245.510	8294
245.574	12186
245.638	12629
245.702	10485
245.766	22856
245.829	16757
245.893	13760
245.957	10481
246.021	12207
246.085	13189
246.149	17037
246.212	30365
246.276	46808
246.340	26937
246.404	19103
246.467	16202
246.531	24423
246.595	17384
246.659	17470
246.722	17070
246.786	21354
246.850	19995
246.913	23176
246.977	12762
247.041	12664
247.104	16819
247.168	13431
247.232	28218
247.295	58742
247.359	35655
247.423	15749
247.486	27901
247.550	19715
247.614	16086
247.677	23446
247.741	15854
247.804	12619
247.868	15222
247.932	25995
247.995	60323
248.059	28411
248.122	15079
248.186	17669
248.249	30161
248.313	81917
248.376	96890
248.440	67470
248.503	29827
248.567	23082
248.630	30382
248.694	43438
248.757	51648
248.821	91358
248.884	69007
248.948	58725
249.011	79173
249.075	104178
249.138	101549
249.202	48716
249.265	30450
249.328	38318
249.392	28342
249.455	22646
249.519	16054
249.582	21871
249.645	32812
249.709	25327
249.772	17507
249.835	16280
249.899	21516
249.962	16639
250.025	14488
250.089	34338
250.152	57164
250.215	32245
250.279	23141
250.342	22250
250.405	21303
250.468	18498
250.532	24330
250.595	32726
250.658	73302
250.721	129034
250.785	61076
250.848	32849
250.911	20682
250.974	18494
251.038	25358
251.101	55402
251.164	35346
251.227	34465
251.290	30077
251.354	33305
251.417	98926
251.480	115879
251.543	76961
251.606	172688
251.669	154551
251.732	71611
251.795	72834
251.859	69550
251.922	121796
251.985	89050
252.048	40656
252.111	32885
252.174	32016
252.237	54674
252.300	109262
252.363	106495
252.426	164011
252.489	93807
252.552	62652
252.615	44142
252.678	39531
252.741	80060
252.804	90543
252.867	162177
252.930	131652
252.993	83061
253.056	50186
253.119	43463
253.182	32820
253.245	44092
253.308	40949
253.371	49361
253.434	49880
253.497	42404
253.559	64980
253.622	54831
253.685	70083
253.748	81448
253.811	38971
253.874	44900
253.937	46271
254.000	32584
254.062	45100
254.125	68263
254.188	63717
254.251	59491
254.314	30534
254.376	49811
254.439	60555
254.502	60702
254.565	50235
254.628	83629
254.690	66922
254.753	39566
254.816	31282
254.878	32306
254.941	47081
255.004	52878
255.067	28823
255.129	31861
255.192	18386
255.255	15652
255.317	24459
255.380	19178
255.443	13312
255.505	14591
255.568	14599
255.631	14862
255.693	16617
255.756	12541
255.819	11984
255.881	10269
255.944	10560
256.006	9765
256.069	12024
256.132	10746
256.194	15295
256.257	40211
256.319	31477
256.382	32215
256.444	15957
256.507	11603
256.569	9378
256.632	10272
256.694	18622
256.757	19479
256.819	35964
256.882	22957
256.944	17217
257.007	15581
257.069	23846
257.132	16729
257.194	12196
257.257	12513
257.319	14699
257.381	10338
257.444	18169
257.506	41523
257.569	70466
257.631	84006
257.693	44693
257.756	21105
257.818	23036
257.880	13597
257.943	12807
258.005	12800
258.067	13863
258.130	13700
258.192	16708
258.254	43844
258.317	27412
258.379	14086
258.441	34479
258.503	33341
258.566	34949
258.628	53024
258.690	17584
258.753	16063
258.815	38430
258.877	23131
258.939	12900
259.001	11048
259.064	11256
259.126	15734
259.188	26258
259.250	16145
259.312	23114
259.375	60053
259.437	44090
259.499	16896
259.561	14086
259.623	16244
259.685	16586
259.747	14617
259.809	34571
259.872	69132
259.934	90635
259.996	105180
260.058	37245
260.120	15029
260.182	12428
260.244	10938
260.306	10807
260.368	12181
260.430	13635
260.492	28871
260.554	61824
260.616	52466
260.678	51356
260.740	78204
260.802	26403
260.864	20707
260.926	18517
260.988	18035
261.050	17302
261.112	37160
261.174	83427
261.236	63997
261.298	23348
261.359	31938
261.421	52447
261.483	19503
261.545	15940
261.607	11096
261.669	11642
261.731	21188
261.793	59523
261.854	31423
261.916	21235
261.978	19210
262.040	23301
262.102	15279
262.164	25695
262.225	23762
262.287	13653
262.349	31789
262.411	30417
262.472	14328
262.534	21984
262.596	54774
262.658	21186
262.719	13492
262.781	15720
262.843	49166
262.904	26130
262.966	18166
263.028	19357
263.090	59915
263.151	169469
263.213	74160
263.275	49991
263.336	20704
263.398	14310
263.459	10643
263.521	12005
263.583	28986
263.644	25420
263.706	12797
263.767	9029
263.829	10038
263.891	7965
263.952	8820
264.014	9114
264.075	16033
264.137	47498
264.198	25467
264.260	10728
264.321	8491
264.383	22245
264.444	66328
264.506	24469
264.567	14426
264.629	22006
264.690	54258
264.752	24418
264.813	15715
264.875	11193
264.936	11659
264.998	10617
265.059	7767
265.120	8493
265.182	10261
265.243	15874
265.305	16714
265.366	10078
265.427	8293
265.489	9638
265.550	6728
265.611	12017
265.673	13776
265.734	11772
265.795	8457
265.857	6630
265.918	7072
265.979	8316
266.040	23106
266.102	25650
266.163	16672
266.224	25057
266.286	14882
266.347	10500
266.408	11301
266.469	13778
266.530	11195
266.592	7743
266.653	19448
266.714	41683
266.775	14322
266.836	11242
266.898	8581
266.959	20416
267.020	15447
267.081	9816
267.142	8255
267.203	7530
267.264	8237
267.326	10879
267.387	8739
267.448	8298
267.509	8567
267.570	9563
267.631	7637
267.692	7250
267.753	9031
267.814	7920
267.875	15058
267.936	39024
267.997	24961
268.058	22626
268.119	12680
268.180	13982
268.241	11483
268.302	9394
268.363	8658
268.424	12457
268.485	13218
268.546	10143
268.607	7368
268.668	7268
268.729	7464
268.790	10149
268.851	11817
268.912	27694
268.972	38188
269.033	23425
269.094	11285
269.155	9069
269.216	7713
269.277	12907
269.338	9554
269.398	8680
269.459	12935
269.520	19529
269.581	26344
269.642	34034
269.702	22909
269.763	15236
269.824	11133
269.885	13965
269.945	24356
270.006	11384
270.067	7734
270.128	8231
270.188	8430
270.249	10250
270.310	8640
270.370	8636
270.431	10480
270.492	8293
270.553	9253
270.613	24634
270.674	43586
270.734	23451
270.795	12325
270.856	20019
270.916	18533
270.977	11869
271.038	15109
271.098	16128
271.159	22158
271.219	25798
271.280	12329
271.340	10161
271.401	14110
271.462	38127
271.522	23971
271.583	13646
271.643	14802
271.704	13338
271.764	15787
271.825	30183
271.885	84436
271.946	125414
272.006	51594
272.066	52030
272.127	92700
272.187	35423
272.248	19231
272.308	18540
272.369	55405
272.429	40225
272.489	34780
272.550	42321
272.610	37982
272.671	32669
272.731	27259
272.791	51004
272.852	29657
272.912	25588
272.972	14198
273.033	12983
273.093	25764
273.153	28187
273.214	18171
273.274	15975
273.334	48046
273.394	97030
273.455	51909
273.515	41137
273.575	88102
273.635	42714
273.696	48933
273.756	91676
273.816	46471
273.876	25834
273.936	43610
273.997	92561
274.057	30481
274.117	22098
274.177	26885
274.237	103517
274.297	102923
274.358	82328
274.418	72699
274.478	63435
274.538	30453
274.598	22237
274.658	67628
274.718	102729
274.778	45965
274.838	22671
274.898	38895
274.958	134719
275.018	101501
275.078	71022
275.138	35822
275.198	19499
275.258	14807
275.318	20054
275.378	40976
275.438	45902
275.498	28405
275.558	48296
275.618	106576
275.678	69391
275.738	46487
275.798	43204
275.858	26806
275.918	13050
275.978	16804
276.038	18930
276.098	13567
276.157	25043
276.217	73925
276.277	39330
276.337	31717
276.397	17973
276.457	23632
276.517	17148
276.576	10844
276.636	10752
276.696	21684
276.756	44729
276.815	39612
276.875	19702
276.935	22915
276.995	21552
277.055	12114
277.114	12644
277.174	14306
277.234	52215
277.293	30795
277.353	19544
277.413	12712
277.472	15189
277.532	17620
277.592	15003
277.651	35233
277.711	72692
277.771	27337
277.830	80567
277.890	78014
277.950	45724
278.009	116383
278.069	54143
278.128	45843
278.188	76506
278.248	35667
278.307	72098
278.367	53067
278.426	22475
278.486	14695
278.545	12891
278.605	11384
278.664	11470
278.724	13150
278.783	27680
278.843	81455
278.902	30953
278.962	21685
279.021	23350
279.081	27873
279.140	30006
279.199	25001
279.259	22107
279.318	21671
279.378	25919
279.437	43802
279.496	140891
279.556	320017
279.615	297683
279.675	101850
279.734	55650
279.793	79216
279.853	131580
279.912	57360
279.971	31585
280.031	30452
280.090	45740
280.149	85110
280.208	61035
280.268	214244
280.327	254777
280.386	81805
280.445	56713
280.505	55744
280.564	28834
280.623	25478
280.682	29024
280.742	48962
280.801	20860
280.860	16595
280.919	15937
280.978	15190
281.037	14965
281.097	12892
281.156	13954
281.215	12347
281.274	14643
281.333	48657
281.392	46824
281.451	13264
281.510	10665
281.569	11645
281.628	10363
281.688	9237
281.747	12637
281.806	15804
281.865	11891
281.924	11024
281.983	12412
282.042	8813
282.101	9950
282.160	9360
282.219	8551
282.278	10927
282.337	34264
282.396	29346
282.454	12232
282.513	14155
282.572	52451
282.631	38490
282.690	14643
282.749	11424
282.808	17064
282.867	16578
282.926	17391
282.985	10695
283.043	7946
283.102	10384
283.161	11848
283.220	25752
283.279	57016
283.338	21103
283.396	13546
283.455	13253
283.514	12802
283.573	24600
283.631	20094
283.690	12654
283.749	12053
283.808	23954
283.866	34903
283.925	13601
283.984	12408
284.043	17760
284.101	22208
284.160	14760
284.219	23249
284.277	17248
284.336	21532
284.395	67436
284.453	61703
284.512	23809
284.570	34338
284.629	30666
284.688	24116
284.746	24810
284.805	30235
284.863	38813
284.922	48739
284.981	52779
285.039	68829
285.098	111979
285.156	228079
285.215	319061
285.273	319990
285.332	268184
285.390	158225
285.449	96247
285.507	64761
285.566	47475
285.624	38406
285.683	31340
285.741	25183
285.799	23082
285.858	23628
285.916	22900
285.975	16113
286.033	13589
286.091	14303
286.150	10992
286.208	13511
286.267	18125
286.325	17028
286.383	28249
286.442	24410
286.500	11583
286.558	9583
286.616	9140
286.675	16030
286.733	15054
286.791	14251
286.850	16525
286.908	21359
286.966	35614
287.024	16718
287.083	11353
287.141	8714
287.199	9562
287.257	20087
287.315	14846
287.374	14393
287.432	31054
287.490	24340
287.548	16663
287.606	11174
287.664	10221
287.723	18425
287.781	30114
287.839	15560
287.897	15681
287.955	17913
288.013	21200
288.071	37481
288.129	128270
288.187	369017
288.245	200918
288.303	67511
288.361	37563
288.419	33298
288.477	23925
288.535	15782
288.593	13569
288.651	12743
288.709	10632
288.767	10824
288.825	12369
288.883	10132
288.941	9664
288.999	10616
289.057	9291
289.115	10253
289.173	10943
289.231	11431
289.289	12709
289.346	10340
289.404	11746
289.462	23737
289.520	26922
289.578	13541
289.636	8311
289.694	5712
289.751	6535
289.809	7979
289.867	9680
289.925	12262
289.983	17315
290.040	8535
290.098	6951
290.156	11276
290.214	16085
290.271	10809
290.329	7844
290.387	6631
290.444	6730
290.502	5792
290.560	7111
290.617	8917
290.675	9914
290.733	9122
290.790	11951
290.848	8867
290.906	10297
290.963	11494
291.021	11093
291.078	10172
291.136	9981
291.194	27679
291.251	70261
291.309	22579
291.366	10742
291.424	10039
291.481	12953
291.539	10752
291.596	10457
291.654	6940
291.711	6464
291.769	9882
291.826	29081
291.884	20355
291.941	10747
291.999	9929
292.056	13225
292.114	15969
292.171	9894
292.228	9769
292.286	14627
292.343	31329
292.401	38776
292.458	24732
292.515	16428
292.573	20798
292.630	20326
292.687	19456
292.745	14489
292.802	15982
292.859	45833
292.917	70851
292.974	47337
293.031	18757
293.089	12438
293.146	9905
293.203	9234
293.260	9876
293.318	20449
293.375	29482
293.432	15810
293.489	11018
293.546	9695
293.604	13779
293.661	35092
293.718	93553
293.775	62270
293.832	33772
293.889	25833
293.947	35756
294.004	26666
294.061	19882
294.118	30894
294.175	63880
294.232	81950
294.289	35742
294.346	18728
294.403	15170
294.460	17004
294.517	15414
294.574	13415
294.631	11184
294.688	12833
294.745	28623
294.802	102060
294.859	128803
294.916	65917
294.973	48230
295.030	33174
295.087	27594
295.144	18117
295.201	13952
295.258	12543
295.315	14561
295.372	39473
295.429	77440
295.486	39995
295.542	23586
295.599	46875
295.656	85948
295.713	62027
295.770	71910
295.827	31536
295.883	17984
295.940	18506
295.997	34396
296.054	36107
296.111	17786
296.167	12775
296.224	10636
296.281	9108
296.338	10009
296.394	10934
296.451	13430
296.508	32234
296.564	67562
296.621	49022
296.678	77431
296.734	124435
296.791	53889
296.848	28570
296.904	26143
296.961	61262
297.018	83003
297.074	67485
297.131	28703
297.187	19647
297.244	24052
297.301	64168
297.357	125470
297.414	50708
297.470	23425
297.527	17661
297.583	14072
297.640	16763
297.696	12976
297.753	11790
297.809	8852
297.866	9171
297.922	9781
297.979	10382
298.035	11673
298.092	17468
298.148	44102
298.204	50904
298.261	25105
298.317	37257
298.374	100559
298.430	64995
298.486	36563
298.543	30664
298.599	22427
298.656	20417
298.712	32871
298.768	75548
298.824	52896
298.881	21593
298.937	14789
298.993	14091
299.050	21209
299.106	19390
299.162	15589
299.218	17387
299.275	12850
299.331	10996
299.387	20854
299.443	77326
299.500	92931
299.556	41310
299.612	21905
299.668	21731
299.724	23910
299.780	25518
299.837	16062
299.893	20963
299.949	70307
300.005	88670
300.061	75421
300.117	121917
300.173	63827
300.229	30336
300.285	37888
300.341	47516
300.397	24302
300.453	16671
300.510	15188
300.566	16250
300.622	16413
300.678	41523
300.734	85115
300.790	73987
300.845	85163
300.901	57213
300.957	81200
301.013	64378
301.069	26355
301.125	21518
301.181	25573
301.237	17191
301.293	12792
301.349	11635
301.405	10159
301.461	11178
301.516	11809
301.572	15666
301.628	32714
301.684	30160
301.740	35992
301.796	54559
301.851	38338
301.907	62520
301.963	60225
302.019	76319
302.074	199558
302.130	216069
302.186	104577
302.242	46232
302.297	30698
302.353	26739
302.409	47967
302.464	44783
302.520	35920
302.576	88477
302.631	104852
302.687	67991
302.743	29916
302.798	18200
302.854	13470
302.910	13776
302.965	19924
303.021	38892
303.076	36666
303.132	47681
303.187	59370
303.243	29752
303.299	16620
303.354	12711
303.410	11646
303.465	12079
303.521	11323
303.576	12457
303.632	13035
303.687	22268
303.743	68099
303.798	64141
303.853	28213
303.909	17122
303.964	15447
304.020	23147
304.075	40665
304.130	34505
304.186	67274
304.241	72635
304.297	57916
304.352	31974
304.358	30642
304.407	19858
304.449	21051
304.463	21459
304.518	23058
304.539	21835
304.573	19881
304.629	17318
304.630	17450
304.684	24352
304.720	45555
304.739	56006
304.794	86682
304.811	74659
304.850	45967
304.902	25020
304.905	23693
304.960	16190
304.992	14404
305.015	13177
305.071	12584
305.083	12155
305.126	10546
305.173	8927
305.181	8691
305.236	9160
305.264	10320
305.292	11555
305.347	16249
305.354	16435
305.402	17331
305.445	16546
305.457	16428
305.512	20458
305.535	21919
305.567	23599
305.622	21659
305.626	22002
305.678	31947
305.716	59149
305.733	68687
305.788	84316
305.807	74066
305.843	57531
305.897	71986
305.898	72088
305.953	73798
305.988	50809
306.008	38751
306.063	25982
306.078	23961
306.118	19071
306.168	14090
306.173	13667
306.228	11780
306.259	11222
306.283	10920
306.338	10103
306.349	10307
306.393	10968
306.440	9947
306.448	9958
306.503	13007
306.530	14966
306.558	19427
306.613	48986
306.620	52688
306.668	75971
306.711	86309
306.723	85807
306.778	67313
306.801	52983
306.833	37008
306.888	20067
306.892	19428
306.943	14405
306.982	12999
306.997	12673
307.052	12667
307.072	12997
307.107	14404
307.162	19127
307.163	19275
307.217	33437
307.253	40298
307.272	42005
307.327	45714
307.343	40104
307.381	29172
307.434	25106
307.436	25424
307.491	47756
307.524	71554
307.546	79921
307.600	74186
307.614	65637
307.655	38632
307.704	20182
307.710	19440
307.765	22819
307.795	29833
307.819	34296
307.874	57544
307.885	55722
307.929	41113
307.975	24336
307.984	22510
308.038	20188
308.065	20315
308.093	29407
308.148	56775
308.156	64185
308.202	99607
308.246	121121
308.257	120366
308.312	73156
308.336	62409
308.366	56828
308.421	47065
308.426	45168
308.475	27136
308.517	17254
308.530	15751
308.585	14499
308.607	14256
308.639	15751
308.694	19655
308.697	20186
308.748	37202
308.787	60009
308.803	62666
308.857	47281
308.877	38389
308.912	29121
308.967	26223
308.967	26234
309.021	33886
309.058	40599
309.076	48764
309.130	81526
309.148	92611
309.185	130904
309.238	192040
309.239	192497
309.293	221150
309.328	205797
309.348	179481
309.402	93250
309.418	72075
309.457	54147
309.508	39225
309.511	39206
309.566	44757
309.598	50213
309.620	64276
309.674	108895
309.688	120525
309.729	114192
309.778	90837
309.783	88779
309.837	61477
309.868	47875
309.892	58755
309.946	92746
309.959	103874
310.001	130293
310.049	150428
310.055	145214
310.109	82705
310.139	47057
310.163	36652
310.218	22916
310.229	20821
310.272	18022
310.319	15440
310.326	14963
310.381	13115
310.409	12154
310.435	12198
310.489	12201
310.499	12319
310.543	12645
310.589	13013
310.598	12948
310.652	13452
310.679	12965
310.706	11921
310.760	9919
310.769	9652
310.814	8950
310.859	8497
310.868	8559
310.923	9045
310.948	9511
310.977	11042
311.031	14080
311.038	14530
311.085	14063
311.128	12803
311.139	12631
311.193	12184
311.218	11925
311.247	11083
311.301	9391
311.308	9223
311.356	9487
311.398	9839
311.410	9615
311.464	8347
311.488	7764
311.518	8935
311.572	11344
311.578	11629
311.626	18252
311.668	24215
311.680	23436
311.734	19263
311.758	17531
311.788	16906
311.842	15594
311.847	15474
311.896	21812
311.937	27672
311.950	26804
312.004	22793
312.027	20943
312.058	17915
312.112	12705
312.117	12204
312.165	11654
312.207	11228
312.297	17058
312.386	12612
312.476	16221
312.566	38931
312.656	15297
312.745	8966
312.835	10630
312.925	13183
313.015	12633
313.104	10948
313.194	10081
313.284	10918
313.374	17730
313.463	14258
313.553	10660
313.643	8745
313.732	9315
313.822	8186
313.912	10654
314.001	15375
314.091	16314
314.180	19702
314.270	22047
314.360	23215
314.449	19566
314.539	10217
314.628	10248
314.718	14173
314.808	16376
314.897	11588
314.987	11680
315.076	18858
315.166	24947
315.255	18433
315.345	22275
315.434	18035
315.524	16915
315.613	21381
315.703	31420
315.792	41724
315.881	80280
315.971	31196
316.060	46427
316.150	50330
316.239	44189
316.328	14145
316.418	11179
316.507	13936
316.597	20266
316.686	17011
316.775	28208
316.865	37404
316.954	11272
317.043	9168
317.133	14192
317.222	11733
317.311	11074
317.400	11412
317.490	21057
317.579	24642
317.668	13336
317.757	26981
317.847	60840
317.936	139832
318.025	78238
318.114	43260
318.203	27756
318.293	38028
318.382	69816
318.471	56015
318.560	67112
318.649	84372
318.738	21441
318.828	24190
318.917	25224
319.006	27716
319.095	60261
319.184	126455
319.273	91159
319.362	56402
319.451	20309
319.540	21828
319.629	57089
319.718	82294
319.807	27579
319.896	64050
319.985	156480
320.074	64904
320.163	22311
320.252	30698
320.341	29183
320.430	24971
320.519	45897
320.608	23506
320.697	17693
320.786	18926
320.875	29183
320.964	39991
321.053	64848
321.142	96109
321.230	86472
321.319	69107
321.408	148717
321.497	53495
321.586	63954
321.675	62287
321.764	53218
321.852	38141
321.941	93775
322.030	52759
322.119	61908
322.207	155044
322.296	69230
322.385	37770
322.474	61978
322.562	183339
322.651	75619
322.740	77297
322.829	104420
322.917	71442
323.006	52717
323.095	50200
323.183	27318
323.272	39481
323.361	79353
323.449	136445
323.538	55392
323.626	124896
323.715	58976
323.804	39207
323.892	114907
323.981	67387
324.069	24396
324.158	63663
324.246	46230
324.335	36602
324.424	59735
324.512	18567
324.601	26384
324.689	28009
324.778	42238
324.866	51569
324.954	15357
325.043	20170
325.131	40707
325.220	54154
325.308	55208
325.397	49631
325.485	26658
325.574	14761
325.662	15922
325.750	18447
325.839	14160
325.927	12371
326.015	19410
326.104	26672
326.192	24346
326.280	12100
326.369	13917
326.457	28227
326.545	51119
326.634	18778
326.722	10324
326.810	12137
326.898	11371
326.987	16006
327.075	45663
327.163	35135
327.251	12275
327.340	11750
327.428	12929
327.516	10285
327.604	12412
327.692	11553
327.781	16634
327.869	23719
327.957	17820
328.045	20154
328.133	10724
328.221	13490
328.309	12166
328.397	12181
328.485	16940
328.574	28547
328.662	94770
328.750	40210
328.838	14980
328.926	11690
329.014	10899
329.102	22262
329.190	50532
329.278	31373
329.366	8513
329.454	8070
329.542	8063
329.630	8042
329.718	9520
329.806	16477
329.893	13102
329.981	7898
330.069	7678
330.157	12024
330.245	23513
330.333	13687
330.421	9605
330.509	29011
330.597	121968
330.684	64832
330.772	22582
330.860	27856
330.948	32014
331.036	14292
331.123	7161
331.211	9790
331.299	13214
331.387	36914
331.475	51011
331.562	14677
331.650	10351
331.738	15520
331.825	15811
331.913	8764
332.001	8424
332.089	15098
332.176	28152
332.264	62949
332.352	40144
332.439	17916
332.527	13110
332.614	12397
332.702	13358
332.790	14970
332.877	41183
332.965	52318
333.052	17814
333.140	24556
333.228	47393
333.315	13283
333.403	15224
333.490	39867
333.578	32744
333.665	59987
333.753	27047
333.840	10957
333.928	16763
334.015	39761
334.103	60039
334.190	135171
334.278	34503
334.365	22698
334.452	17762
334.540	12371
334.627	16853
334.715	19770
334.802	49607
334.889	183022
334.977	130801
335.064	27879
335.151	15926
335.239	15457
335.326	20275
335.413	81598
335.501	84214
335.588	16533
335.675	13765
335.762	20631
335.850	27829
335.937	21606
336.024	62807
336.111	184792
336.199	76795
336.286	20241
336.373	11976
336.460	9544
336.547	9994
336.635	15094
336.722	15357
336.809	10933
336.896	20788
336.983	63384
337.070	127423
337.157	136752
337.245	114227
337.332	58326
337.419	11716
337.506	9422
337.593	12886
337.680	51353
337.767	104193
337.854	40601
337.941	49015
338.028	50363
338.115	15586
338.202	23148
338.289	45407
338.376	115383
338.463	37108
338.550	75680
338.637	56678
338.724	34905
338.811	36593
338.898	10087
338.984	9673
339.071	13004
339.158	17800
339.245	58421
339.332	28843
339.419	40451
339.506	25633
339.593	7617
339.679	12966
339.766	10711
339.853	19035
339.940	42620
340.027	12822
340.113	16291
340.200	24035
340.287	13857
340.374	22975
340.460	39977
340.547	13798
340.634	30761
340.720	101604
340.807	47377
340.894	10259
340.980	12679
341.067	12702
341.154	14318
341.240	25594
341.327	55583
341.414	12339
341.500	11394
341.587	12360
341.674	11870
341.760	42093
341.847	47804
341.933	14568
342.020	6324
342.106	7270
342.193	16079
342.279	31235
342.366	22358
342.452	40532
342.539	20538
342.625	55884
342.712	109215
342.798	46513
342.885	18799
342.971	6740
343.058	6369
343.144	9336
343.230	8487
343.317	9094
343.403	7616
343.490	6666
343.576	6305
343.662	10064
343.749	11350
343.835	14295
343.921	26127
344.008	147609
344.094	273073
344.180	62426
344.267	33672
344.353	93348
344.439	88441
344.525	53459
344.612	16501
344.698	18424
344.784	13265
344.870	8586
344.957	11736
345.043	23444
345.129	18487
345.215	40664
345.301	18230
345.387	10616
345.474	6349
345.560	8255
345.646	10780
345.732	9309
345.818	12423
345.904	11022
345.990	16860
346.076	15968
346.162	20143
346.249	11284
346.335	8111
346.421	10334
346.507	40523
346.593	110484
346.679	27504
346.765	9878
346.851	12916
346.937	12474
347.023	9109
347.108	15731
347.194	11488
347.280	9442
347.366	13587
347.452	44142
347.538	145770
347.624	110617
347.710	86628
347.796	15123
347.882	10297
347.967	9490
348.053	13821
348.139	9331
348.225	9095
348.311	11234
348.397	8267
348.482	16656
348.568	17170
348.654	8698
348.740	14124
348.825	14271
348.911	20073
348.997	75192
349.083	118980
349.168	18896
349.254	9444
349.340	9509
349.425	8368
349.511	18129
349.597	17316
349.682	41378
349.768	100202
349.854	39861
349.939	9308
350.025	8735
350.110	6847
350.196	7156
350.282	5714
350.367	7102
350.453	18800
350.538	15792
350.624	18300
350.709	14976
350.795	9383
350.880	11139
350.966	12147
351.051	17464
351.137	11500
351.222	11842
351.308	38846
351.393	93172
351.479	20353
351.564	8227
351.649	12033
351.735	8562
351.820	7244
351.906	9888
351.991	13422
352.076	64225
352.162	85599
352.247	20056
352.332	16088
352.418	27573
352.503	32674
352.588	158853
352.673	130063
352.759	31314
352.844	15983
352.929	20242
353.014	28417
353.100	20020
353.185	51498
353.270	62157
353.355	48285
353.441	13946
353.526	15725
353.611	45496
353.696	51707
353.781	29160
353.866	12680
353.952	15240
354.037	47737
354.122	103909
354.207	90125
354.292	29561
354.377	13034
354.462	11766
354.547	21048
354.632	18969
354.717	33222
354.802	60178
354.887	21241
354.972	10700
355.057	8104
355.142	8507
355.227	15029
355.312	28023
355.397	67766
355.482	154018
355.567	65663
355.652	52494
355.737	51314
355.822	111752
355.907	78711
355.991	17162
356.076	10811
356.161	9693
356.246	8673
356.331	11176
356.416	28897
356.501	159850
356.585	146098
356.670	25893
356.755	19986
356.840	35509
356.924	169888
357.009	421679
357.094	150795
357.179	48944
357.263	32921
357.348	34018
357.433	33288
357.517	31551
357.602	24166
357.687	19296
357.771	30335
357.856	31911
357.941	27063
358.025	103017
358.110	358291
358.195	168994
358.279	35994
358.364	29940
358.448	108858
358.533	235889
358.617	175824
358.702	157572
358.787	62611
358.871	50132
358.956	39266
359.040	11963
359.125	9460
359.209	11686
359.294	17076
359.378	23739
359.462	36446
359.547	22103
359.631	13090
359.716	9234
359.800	11575
359.885	19323
359.969	15998
360.053	15426
360.138	14153
360.222	26192
360.306	47084
360.391	31712
360.475	39024
360.559	86821
360.644	96432
360.728	68921
360.812	102364
360.896	221075
360.981	125078
361.065	78307
361.149	23977
361.233	22828
361.318	18028
361.402	20856
361.486	17117
361.570	13519
361.654	20988
361.739	55278
361.823	176600
361.907	213180
361.991	42990
362.075	42213
362.159	89624
362.243	57294
362.327	53660
362.411	60826
362.495	33286
362.580	18014
362.664	12621
362.748	11484
362.832	15145
362.916	26438
363.000	90026
363.084	240969
363.168	270513
363.252	75860
363.336	37547
363.420	49722
363.503	119822
363.587	106400
363.671	30245
363.755	29835
363.839	41908
363.923	19012
364.007	44754
364.091	46675
364.175	52143
364.258	160585
364.342	130570
364.426	175471
364.510	97605
364.594	48925
364.677	57319
364.761	198338
364.845	131620
364.929	75183
365.013	63551
365.096	51191
365.180	56356
365.264	54914
365.347	149936
365.431	63630
365.515	26193
365.598	18550
365.682	15256
365.766	27882
365.849	28513
365.933	21860
366.017	24853
366.100	16052
366.184	8619
366.267	11229
366.351	12020
366.435	11346
366.518	9226
366.602	8538
366.685	13285
366.769	17357
366.852	28903
366.936	50448
367.019	31537
367.103	22480
367.186	31097
367.270	11575
367.353	8195
367.436	12101
367.520	10210
367.603	18622
367.687	31911
367.770	54697
367.853	28509
367.937	69574
368.020	99009
368.104	31221
368.187	42462
368.270	60550
368.353	49547
368.437	62223
368.520	91301
368.603	67202
368.687	89773
368.770	143020
368.853	41560
368.936	53108
369.020	41961
369.103	18247
369.186	12191
369.269	14731
369.352	40149
369.436	55342
369.519	31048
369.602	14776
369.685	17165
369.768	21210
369.851	13602
369.934	11061
370.018	19128
370.101	50788
370.184	33670
370.267	22108
370.350	41303
370.433	61232
370.516	118012
370.599	133778
370.682	60150
370.765	114276
370.848	116981
370.931	165524
371.014	70177
371.097	22279
371.180	14612
371.263	8788
371.346	6369
371.429	9682
371.511	12559
371.594	31417
371.677	45044
371.760	36933
371.843	36278
371.926	148847
372.009	289465
372.091	103927
372.174	80727
372.257	141547
372.340	58630
372.423	63684
372.505	58418
372.588	27039
372.671	71317
372.754	174807
372.836	81957
372.919	63269
373.002	98014
373.085	39062
373.167	40768
373.250	94591
373.332	155871
373.415	214565
373.498	391668
373.580	163705
373.663	211071
373.746	254216
373.828	73260
373.911	35402
373.993	41446
374.076	105323
374.159	84251
374.241	55636
374.324	157023
374.406	100804
374.489	128693
374.571	305464
374.654	127928
374.736	76441
374.819	199921
374.901	288012
374.983	269461
375.066	52930
375.148	27205
375.231	88788
375.313	143917
375.395	62763
375.478	17078
375.560	13243
375.643	22545
375.725	76400
375.807	244592
375.890	191582
375.972	83541
376.054	65669
376.136	71926
376.219	31738
376.301	80585
376.383	199484
376.465	80356
376.548	72599
376.630	80021
376.712	175921
376.794	77694
376.877	12962
376.959	9961
377.041	16890
377.123	28903
377.205	27245
377.287	8282
377.369	12193
377.452	18648
377.534	12451
377.616	11943
377.698	12500
377.780	8897
377.862	14312
377.944	12836
378.026	6536
378.108	8796
378.190	8427
378.272	8552
378.354	5821
378.436	6689
378.518	22370
378.600	68035
378.682	59830
378.764	113214
378.846	85369
378.928	33651
379.010	52253
379.091	26792
379.173	12183
379.255	11127
379.337	20698
379.419	63736
379.501	144967
379.583	54298
379.664	20524
379.746	56434
379.828	122938
379.910	150258
379.991	114268
380.073	21304
380.155	18758
380.237	14386
380.318	10065
380.400	12404
380.482	34542
380.564	54192
380.645	62587
380.727	56745
380.809	27294
380.890	20827
380.972	16481
381.053	13384
381.135	16887
381.217	47097
381.298	121513
381.380	61800
381.461	55557
381.543	187719
381.624	210241
381.706	45080
381.787	27637
381.869	30582
381.951	96593
382.032	299594
382.113	197968
382.195	55616
382.276	37865
382.358	90551
382.439	177696
382.521	187223
382.602	264061
382.684	137934
382.765	244367
382.846	279868
382.928	399337
383.009	213702
383.090	156508
383.172	495191
383.253	669105
383.334	268572
383.416	260478
383.497	131467
383.578	72475
383.659	141431
383.741	433052
383.822	876857
383.903	471867
383.984	217019
384.066	321748
384.147	195027
384.228	46603
384.309	44182
384.390	34305
384.471	23924
384.553	27845
384.634	39975
384.715	41478
384.796	18223
384.877	26607
384.958	100794
385.039	125784
385.120	52070
385.201	24288
385.282	32248
385.363	28598
385.444	24223
385.525	45792
385.606	130240
385.687	100619
385.768	30941
385.849	45606
385.930	162214
386.011	234887
386.092	68720
386.173	21485
386.254	16907
386.335	17100
386.416	21580
386.496	74923
386.577	112806
386.658	43461
386.739	31072
386.820	26748
386.901	20645
386.981	18291
387.062	13460
387.143	33873
387.224	113169
387.304	99409
387.385	42462
387.466	28535
387.547	32671
387.627	24621
387.708	48963
387.789	182073
387.869	201842
387.950	52692
388.031	12658
388.111	16147
388.192	42829
388.273	54567
388.353	30542
388.434	20612
388.514	43221
388.595	153797
388.676	200328
388.756	114564
388.837	119588
388.917	71243
388.998	15504
389.078	15162
389.159	13703
389.239	14555
389.320	27308
389.400	25716
389.480	46046
389.561	103525
389.641	48027
389.722	27326
389.802	49661
389.883	54830
389.963	117569
390.043	75314
390.124	26197
390.204	47836
390.284	132956
390.365	85630
390.445	83222
390.525	153194
390.605	139855
390.686	68564
390.766	26134
390.846	14415
390.927	10476
391.007	13778
391.087	16416
391.167	17720
391.247	15697
391.328	25894
391.408	33759
391.488	20053
391.568	9632
391.648	22274
391.728	34087
391.808	31000
391.888	35235
391.969	65310
392.049	95352
392.129	43032
392.209	51180
392.289	114265
392.369	66401
392.449	54241
392.529	36748
392.609	35279
392.689	44354
392.769	113221
392.849	96809
392.929	79947
393.009	161865
393.089	127639
393.169	128953
393.248	369313
393.328	921600
393.408	892368
393.488	317752
393.568	110465
393.648	57771
393.728	37408
393.807	25454
393.887	21554
393.967	17602
394.047	21366
394.127	22437
394.206	24378
394.286	58127
394.366	213085
394.446	207961
394.525	42116
394.605	15890
394.685	30868
394.764	78982
394.844	119975
394.924	77400
395.003	30699
395.083	21843
395.163	18358
395.242	17565
395.322	17972
395.402	9911
395.481	17553
395.561	58599
395.640	140790
395.720	115004
395.799	121741
395.879	73097
395.958	23097
396.038	67781
396.117	271765
396.197	279049
396.276	87870
396.356	48567
396.435	49528
396.515	38532
396.594	62680
396.673	122550
396.753	365862
396.832	833106
396.912	646995
396.991	195526
397.070	61356
397.150	36551
397.229	25867
397.308	35463
397.388	56280
397.467	27991
397.546	13059
397.625	13099
397.705	20872
397.784	25822
397.863	12989
397.942	8554
398.022	11848
398.101	48292
398.180	111124
398.259	56460
398.338	19378
398.417	17444
398.497	11905
398.576	12668
398.655	9580
398.734	8292
398.813	13303
398.892	45522
398.971	113308
399.050	47833
399.129	7962
399.208	5672
399.287	7415
399.366	6277
399.445	7554
399.524	7941
399.603	9999
399.682	24974
399.761	64707
399.840	128951
399.919	80895
399.998	12580
400.077	7029
400.156	6650
400.235	11402
400.313	8190
400.392	15421
400.471	70193
400.550	104464
400.629	29140
400.708	15889
400.786	17386
400.865	37443
400.944	38046
401.023	19827
401.102	5337
401.180	6361
401.259	8168
401.338	10169
401.416	17486
401.495	15933
401.574	10068
401.652	10862
401.731	17941
401.810	19573
401.888	9297
401.967	5165
402.046	9073
402.124	16514
402.203	20643
402.281	11761
402.360	20783
402.438	46161
402.517	28146
402.596	11774
402.674	11621
402.753	7020
402.831	6050
402.910	12858
402.988	55883
403.066	152427
403.145	82507
403.223	59018
403.302	136005
403.380	108185
403.459	109882
403.537	47918
403.615	19355
403.694	5331
403.772	5210
403.850	5396
403.929	5288
404.007	10109
404.085	31827
404.164	41595
404.242	11107
404.320	10126
404.398	20510
404.477	63339
404.555	226962
404.633	181294
404.711	30217
404.789	13108
404.868	16767
404.946	10704
405.024	4270
405.102	4537
405.180	4686
405.258	5250
405.336	6844
405.415	9256
405.493	24648
405.571	26820
405.649	8677
405.727	6790
405.805	13841
405.883	17612
405.961	16514
406.039	15020
406.117	8123
406.195	18499
406.273	72594
406.351	202401
406.429	113100
406.507	21983
406.585	8869
406.663	12738
406.740	19976
406.818	16831
406.896	8048
406.974	9333
407.052	27697
407.130	130185
407.208	158586
407.285	31349
407.363	8669
407.441	9247
407.519	7911
407.596	11514
407.674	24466
407.752	35698
407.830	40863
407.907	30096
407.985	16614
408.063	6997
408.141	5939
408.218	15974
408.296	21520
408.373	20253
408.451	17281
408.529	14239
408.606	6014
408.684	5054
408.762	3204
408.839	3190
408.917	2977
408.994	4485
409.072	5656
409.149	6112
409.227	11256
409.304	14148
409.382	9393
409.459	12086
409.537	18041
409.614	16709
409.692	10190
409.769	12049
409.846	21305
409.924	24635
410.001	17889
410.079	12897
410.156	12125
410.233	15976
410.311	9739
410.388	6458
410.465	9601
410.543	11037
410.620	6987
410.697	10638
410.775	13750
410.852	6798
410.929	13265
411.006	16291
411.083	9837
411.161	23433
411.238	24301
411.315	12595
411.392	7194
411.469	13793
411.547	12542
411.624	6942
411.701	6504
411.778	12193
411.855	28162
411.932	14398
412.009	6824
412.086	6330
412.163	8789
412.240	11289
412.317	13709
412.394	10738
412.471	4291
412.548	5780
412.625	7417
412.702	12018
412.779	24271
412.856	18075
412.933	6812
413.010	4971
413.087	13693
413.164	70137
413.241	92481
413.318	24311
413.395	15585
413.471	27228
413.548	10650
413.625	7483
413.702	12545
413.779	7389
413.855	2867
413.932	2356
414.009	3337
414.086	3952
414.162	5936
414.239	19050
414.316	76019
414.393	136842
414.469	43639
414.546	5667
414.623	3706
414.699	5947
414.776	9534
414.853	7190
414.929	7428
415.006	8153
415.082	8854
415.159	6664
415.236	6079
415.312	7609
415.389	21663
415.465	28710
415.542	13208
415.618	9986
415.695	17698
415.771	12980
415.848	10928
415.924	9806
416.000	5995
416.077	4419
416.153	1777
416.230	1771
416.306	3170
416.383	3969
416.459	4029
416.535	2825
416.612	3543
416.688	4080
416.764	5526
416.841	5033
416.917	5134
416.993	5030
417.069	9147
417.146	11336
417.222	13443
417.298	10048
417.374	6826
417.451	9515
417.527	13552
417.603	15361
417.679	11583
417.755	9580
417.831	3657
417.908	3975
417.984	2965
418.060	6071
418.136	23212
418.212	31520
418.288	10454
418.364	5278
418.440	8215
418.516	14791
418.592	19000
418.668	38307
418.744	61532
418.820	41519
418.896	9779
418.972	4322
419.048	7420
419.124	27651
419.200	20444
419.276	4894
419.352	2826
419.428	3199
419.504	8804
419.579	12225
419.655	9085
419.731	10895
419.807	41273
419.883	67608
419.959	40319
420.034	11115
420.110	25373
420.186	87264
420.262	62430
420.337	13451
420.413	10927
420.489	5668
420.565	5052
420.640	5435
420.716	6647
420.792	4231
420.867	6276
420.943	7249
421.019	17823
421.094	14600
421.170	5920
421.245	3898
421.321	5006
421.397	6588
421.472	7880
421.548	14818
421.623	18716
421.699	11587
421.774	12107
421.850	11530
421.925	21271
422.001	18087
422.076	13045
422.152	17047
422.227	29023
422.302	28941
422.378	40365
422.453	74192
422.529	168245
422.604	400139
422.679	547052
422.755	413903
422.830	166765
422.905	65786
422.981	37370
423.056	25545
423.131	18120
423.207	15497
423.282	20574
423.357	39352
423.432	26275
423.508	29385
423.583	64072
423.658	42089
423.733	13615
423.808	15851
423.883	19818
423.959	17223
424.034	12244
424.109	9174
424.184	4694
424.259	4795
424.334	4644
424.409	4529
424.484	5690
424.559	8389
424.634	7585
424.709	13401
424.784	15594
424.859	9232
424.934	20633
425.009	77813
425.084	109814
425.159	36106
425.234	6154
425.309	3413
425.384	5164
425.459	5898
425.534	6385
425.609	5899
425.683	4351
425.758	5779
425.833	7281
425.908	10324
425.983	49640
426.058	120512
426.132	47509
426.207	10652
426.282	14864
426.357	11742
426.431	5075
426.506	5700
426.581	6862
426.655	6566
426.730	5560
426.805	6426
426.879	6241
426.954	6324
427.029	22300
427.103	104571
427.178	191122
427.253	72162
427.327	11469
427.402	13367
427.476	18904
427.551	7388
427.625	7717
427.700	7158
427.774	5939
427.849	7025
427.923	3564
427.998	4502
428.072	7953
428.147	19799
428.221	73308
428.296	153264
428.370	68174
428.444	13251
428.519	19859
428.593	34131
428.667	27818
428.742	34471
428.816	34296
428.890	106681
428.965	135892
429.039	46988
429.113	35750
429.188	12216
429.262	5908
429.336	19155
429.410	56783
429.485	35477
429.559	29508
429.633	19212
429.707	7496
429.781	30510
429.855	133006
429.930	182684
430.004	106729
430.078	130300
430.152	103749
430.226	173470
430.300	153375
430.374	24841
430.448	14765
430.522	52558
430.596	112263
430.670	70285
430.744	180321
430.818	230559
430.892	47850
430.966	11512
431.040	6161
431.114	3846
431.188	3385
431.262	4488
431.336	5553
431.410	21051
431.484	50176
431.557	28605
431.631	4771
431.705	5551
431.779	33397
431.853	121248
431.927	74695
432.000	8555
432.074	4611
432.148	7882
432.222	5562
432.295	2409
432.369	3535
432.443	14009
432.516	80375
432.590	170108
432.664	58662
432.737	8757
432.811	2021
432.885	2018
432.958	2745
433.032	2547
433.106	1002
433.179	1999
433.253	1724
433.326	1530
433.400	1470
433.473	2046
433.547	1904
433.620	4393
433.694	16185
433.767	13622
433.841	2341
433.914	1357
433.988	1693
434.061	2678
434.134	1866
434.208	2012
434.281	1335
434.355	2427
434.428	1855
434.501	1373
434.575	2770
434.648	3643
434.721	2378
434.795	1225
434.868	1241
434.941	2287
435.014	1583
435.088	2423
435.161	4954
435.234	13184
435.307	16525
435.381	7563
435.454	5926
435.527	9875
435.600	8625
435.673	5840
435.746	4123
435.819	3730
435.892	4045
435.966	2612
436.039	3035
436.112	3073
436.185	2085
436.258	1475
436.331	613
436.404	1566
436.477	2036
436.550	424
436.623	1828
436.696	2471
436.769	5255
436.842	4188
436.915	4942
436.987	8704
437.060	3086
437.133	1643
437.206	1274
437.279	2657
437.352	2294
437.425	3684
437.498	7667
437.570	18032
437.643	15281
437.716	3895
437.789	1789
437.861	12935
437.934	30466
438.007	11792
438.080	2835
438.152	3910
438.225	15944
438.298	100818
438.370	220855
438.443	90625
438.516	25985
438.588	5996
438.661	2154
438.734	3648
438.806	6612
438.879	7090
438.951	9141
439.024	15397
439.096	5434
439.169	2831
439.241	1079
439.314	3615
439.386	6563
439.459	12021
439.531	15883
439.604	5886
439.676	1400
439.749	1565
439.821	1046
439.893	2036
439.966	2655
440.038	6642
440.110	6977
440.183	3700
440.255	3023
440.327	7782
440.400	47184
440.472	159147
440.544	89591
440.617	12500
440.689	10812
440.761	17081
440.833	27206
440.905	15722
440.978	2564
441.050	1621
441.122	1886
441.194	2204
441.266	2139
441.338	2795
441.411	11758
441.483	69409
441.555	88656
441.627	18971
441.699	11203
441.771	8530
441.843	2407
441.915	2506
441.987	1596
442.059	2423
442.131	5775
442.203	10519
442.275	12141
442.347	8385
442.419	13308
442.491	70069
442.563	149021
442.635	60306
442.706	46394
442.778	32107
442.850	5806
442.922	3930
442.994	7408
443.066	11503
443.137	8063
443.209	5410
443.281	9664
443.353	23233
443.425	87598
443.496	265150
443.568	231866
443.640	76821
443.711	15685
443.783	7758
443.855	5562
443.926	3373
443.998	4623
444.070	6785
444.141	7522
444.213	15519
444.285	19801
444.356	15349
444.428	9370
444.499	3727
444.571	2415
444.642	2674
444.714	6565
444.785	14801
444.857	17489
444.928	27883
445.000	13658
445.071	21713
445.143	22779
445.214	16478
445.285	27541
445.357	66279
445.428	184573
445.500	361421
445.571	220237
445.642	113032
445.714	52719
445.785	42201
445.856	17080
445.928	20788
445.999	15485
446.070	11167
446.141	15460
446.213	20837
446.284	10208
446.355	8069
446.426	4701
446.497	6791
446.569	11865
446.640	19435
446.711	15688
446.782	5361
446.853	8406
446.924	8113
446.995	7645
447.066	7927
447.138	10240
447.209	4496
447.280	1996
447.351	2425
447.422	2310
447.493	6212
447.564	8908
447.635	16484
447.706	6194
447.777	1639
447.847	895
447.918	2916
447.989	6366
448.060	9626
448.131	20284
448.202	18067
448.273	16569
448.344	5969
448.414	3885
448.485	3538
448.556	2474
448.627	1070
448.698	2209
448.768	1588
448.839	4017
448.910	11328
448.981	9158
449.051	4759
449.122	2281
449.193	1365
449.263	1578
449.334	2388
449.405	6629
449.475	20809
449.546	12653
449.616	11360
449.687	6224
449.758	2342
449.828	1335
449.899	2292
449.969	1800
450.040	2078
450.110	4615
450.181	5270
450.251	3071
450.322	2157
450.392	2741
450.463	1950
450.533	954
450.604	2059
450.674	2217
450.744	1942
450.815	1367
450.885	2612
450.955	1492
451.026	1642
451.096	2557
451.166	4954
451.237	16465
451.307	26362
451.377	6901
451.447	2571
451.518	2026
451.588	2566
451.658	2511
451.728	8937
451.799	33525
451.869	23691
451.939	3823
452.009	1362
452.079	1111
452.149	2877
452.219	11393
452.289	35981
452.360	15842
452.430	4118
452.500	5040
452.570	7980
452.640	11373
452.710	35267
452.780	37367
452.850	35174
452.920	35177
452.990	9581
453.060	4712
453.129	10220
453.199	10594
453.269	41890
453.339	60994
453.409	80153
453.479	106986
453.549	149088
453.619	143472
453.688	38295
453.758	6253
453.828	2575
453.898	2951
453.968	1892
454.037	2163
454.087	1767
454.107	1585
454.168	1420
454.177	1374
454.247	1597
454.249	1624
454.316	1818
454.330	2551
454.386	4979
454.411	10665
454.456	19782
454.492	19578
454.525	19477
454.574	8901
454.595	4388
454.655	2463
454.665	2193
454.734	4409
454.736	4725
454.804	13208
454.817	17693
454.873	34548
454.898	32372
454.943	27879
454.979	18120
455.013	9770
455.060	5881
455.082	4527
455.141	8138
455.152	8457
455.221	27451
455.222	27659
455.291	31857
455.303	28097
455.360	12425
455.384	12703
455.430	13145
455.465	15716
455.499	17572
455.546	25759
455.569	28651
455.627	15254
455.638	13034
455.707	3876
455.708	3893
455.777	2811
455.789	2709
455.846	2257
455.869	2418
455.916	2702
455.950	3008
455.985	3202
456.031	3057
456.054	2961
456.112	2904
456.124	2941
456.193	2916
456.193	2889
456.262	4345
456.274	4808
456.332	6646
456.355	6811
456.401	6214
456.436	4634
456.470	3285
456.516	2537
456.540	2197
456.597	2551
456.609	2653
456.678	2132
456.678	2115
456.747	1924
456.759	1916
456.817	1792
456.840	1963
456.886	2292
456.920	2405
456.955	2788
457.001	3306
457.024	3848
457.082	5060
457.093	5150
457.162	9210
457.163	9259
457.232	9127
457.243	8335
457.301	4321
457.324	3342
457.370	2669
457.405	2888
457.439	2985
457.485	3248
457.508	3441
457.566	3580
457.577	3697
457.646	5001
457.647	5045
457.715	9798
457.727	10887
457.784	16215
457.808	20616
457.853	25723
457.889	27797
457.922	27658
457.969	18473
457.991	17771
458.050	24503
458.060	25395
458.129	44224
458.130	44604
458.198	39582
458.211	34168
458.267	15866
458.292	11276
458.336	8346
458.372	9073
458.405	13500
458.453	21406
458.474	25853
458.533	44121
458.543	45280
458.611	69031
458.614	68954
458.680	37457
458.694	28898
458.749	12036
458.775	9120
458.818	6255
458.855	5706
458.887	5393
458.936	4570
458.955	4391
459.016	4745
459.024	4769
459.093	5412
459.097	5443
459.162	6461
459.177	6947
459.230	8761
459.257	9748
459.299	9975
459.338	9309
459.368	9217
459.418	9808
459.437	9342
459.499	6022
459.505	5844
459.574	5013
459.579	5018
459.643	4982
459.659	4863
459.711	4973
459.740	5301
459.780	5861
459.820	6495
459.849	6643
459.900	6848
459.917	6699
459.981	5088
459.986	4994
460.054	4784
460.061	4794
460.123	6170
460.141	6653
460.191	8956
460.222	10592
460.260	11447
460.302	13454
460.328	12705
460.382	7370
460.397	6849
460.462	5287
460.465	5269
460.534	6481
460.543	6657
460.602	9787
460.623	11070
460.671	14357
460.703	17838
460.739	17043
460.783	14010
460.808	12614
460.864	6875
460.876	6374
460.944	5908
460.945	5900
461.013	6377
461.024	6472
461.081	7516
461.104	8380
461.150	8138
461.184	7144
461.218	6978
461.264	6514
461.286	6172
461.345	6013
461.355	6048
461.423	6202
461.425	6197
461.491	7456
461.505	7877
461.559	16581
461.585	20655
461.628	30508
461.665	41382
461.696	45023
461.745	52565
461.764	46205
461.825	12271
461.832	11467
461.901	9666
461.905	9786
461.969	8500
461.985	7771
462.037	7278
462.065	7145
462.105	9010
462.145	11425
462.173	15698
462.225	23743
462.241	26029
462.305	38350
462.310	37309
462.378	16922
462.385	14222
462.446	9198
462.465	8803
462.514	8312
462.545	7965
462.582	7744
462.625	7067
462.650	7203
462.705	7860
462.718	8141
462.785	9868
462.786	9960
462.854	15223
462.865	16204
462.922	18909
462.945	19830
462.990	14631
463.025	9542
463.058	8385
463.104	7309
463.126	7156
463.184	7366
463.194	7601
463.262	8847
463.264	8907
463.330	9416
463.344	9465
463.398	10122
463.424	10257
463.466	10162
463.504	10540
463.533	10765
463.583	10482
463.601	11102
463.663	13594
463.669	14077
463.737	19773
463.743	20311
463.805	31906
463.823	35132
463.873	47776
463.903	56424
463.940	57947
463.982	59333
464.008	47033
464.062	16677
464.076	15227
464.142	9498
464.144	9465
464.211	9637
464.221	9703
464.279	11687
464.301	12526
464.347	14250
464.381	15546
464.414	15900
464.461	16097
464.482	16386
464.540	17505
464.550	16973
464.617	12078
464.620	11910
464.685	13814
464.699	14329
464.753	13633
464.779	13205
464.820	12852
464.859	12021
464.888	12324
464.938	13188
464.956	13605
465.018	15520
465.023	15195
465.091	10013
465.098	9475
465.158	8602
465.177	8363
465.226	9195
465.257	9717
465.293	11347
465.336	13172
465.361	15645
465.416	21319
465.428	22935
465.495	32049
465.496	32203
465.563	48444
465.575	51356
465.631	59188
465.654	62547
465.698	37384
465.734	14825
465.765	12012
465.813	8790
465.833	8948
465.893	9786
465.900	9710
465.968	9175
465.972	9109
466.035	8616
466.052	8483
466.102	9016
466.131	9291
466.170	9737
466.210	10181
466.237	10065
466.290	9816
466.304	9959
466.369	10394
466.372	10428
466.439	10939
466.449	10986
466.506	14062
466.528	15228
466.573	26773
466.607	35352
466.641	52248
466.687	75758
466.708	81479
466.766	97494
466.775	89659
466.842	28451
466.845	25511
466.909	17038
466.925	15129
466.977	13857
467.004	13206
467.044	13094
467.083	12971
467.111	13471
467.163	14328
467.178	14527
467.242	15234
467.245	15337
467.312	16898
467.321	17074
467.379	19501
467.400	20324
467.446	23180
467.480	25167
467.559	17301
467.638	13856
467.717	15669
467.796	21376
467.875	25260
467.955	20477
468.034	38918
468.113	82779
468.192	115832
468.271	24466
468.350	18326
468.429	21601
468.508	21984
468.588	17170
468.667	15068
468.746	15399
468.825	14814
468.904	14955
468.983	22412
469.062	35373
469.141	43348
469.220	14488
469.299	12845
469.378	13441
469.456	12784
469.535	13235
469.614	13720
469.693	17072
469.772	25144
469.851	38801
469.930	22409
470.009	15596
470.088	15397
470.166	21679
470.245	35092
470.324	40398
470.403	23955
470.482	17813
470.560	15868
470.639	19943
470.718	25967
470.797	17317
470.875	24169
470.954	35048
471.033	32824
471.111	12115
471.190	10966
471.269	12020
471.347	12307
471.426	14950
471.505	14685
471.583	13019
471.662	12167
471.740	11944
471.819	10994
471.898	11670
471.976	11940
472.055	12819
472.133	15958
472.212	23565
472.290	24482
472.369	13808
472.447	12212
472.526	11993
472.604	14282
472.683	18057
472.761	20197
472.839	15270
472.918	14666
472.996	15574
473.075	17944
473.153	17996
473.231	14705
473.310	19128
473.388	17767
473.466	15673
473.545	20263
473.623	30557
473.701	30154
473.780	13897
473.858	12988
473.936	15715
474.014	13961
474.093	19406
474.171	29957
474.249	41639
474.327	24324
474.405	13399
474.484	13732
474.562	14470
474.640	14301
474.718	15561
474.796	13798
474.874	12794
474.952	11743
475.030	11406
475.108	12329
475.187	13850
475.265	23991
475.343	45250
475.421	47843
475.499	14362
475.577	13947
475.655	25701
475.733	53946
475.811	96774
475.889	80554
475.966	49704
476.044	20972
476.122	37084
476.200	48821
476.278	29752
476.356	16434
476.434	19815
476.512	31760
476.590	45779
476.667	32138
476.745	17238
476.823	17975
476.901	17249
476.979	17741
477.056	16439
477.134	16121
477.212	16185
477.290	16385
477.367	14442
477.445	14634
477.523	14571
477.601	16153
477.678	16574
477.756	20610
477.834	23614
477.911	15539
477.989	15418
478.066	17046
478.144	22474
478.222	37378
478.299	68069
478.377	48297
478.454	15990
478.532	14862
478.609	19463
478.687	19687
478.764	14480
478.842	17594
478.919	20518
478.997	18458
479.074	14773
479.152	19675
479.229	26014
479.307	14877
479.384	12064
479.461	12645
479.539	16155
479.616	19857
479.694	15842
479.771	18756
479.848	21219
479.926	28400
480.003	29923
480.080	14989
480.157	13680
480.235	14361
480.312	15190
480.389	20295
480.467	34178
480.544	41065
480.621	20325
480.698	20996
480.775	23505
480.853	23231
480.930	17384
481.007	19016
481.084	21869
481.161	20297
481.238	21058
481.315	16277
481.392	15657
481.470	15563
481.547	16390
481.624	15418
481.701	17151
481.778	18062
481.855	22534
481.932	35668
482.009	55079
482.086	37003
482.163	23971
482.240	50029
482.317	93116
482.393	55470
482.470	20088
482.547	19322
482.624	17924
482.701	20439
482.778	17828
482.855	14495
482.932	15372
483.009	15440
483.085	19562
483.162	22503
483.239	22481
483.316	17153
483.393	17826
483.469	17118
483.546	21370
483.623	21837
483.699	16909
483.776	17413
483.853	22471
483.930	36440
484.006	84157
484.083	126479
484.160	34029
484.236	25368
484.313	23510
484.389	22221
484.466	21634
484.543	21085
484.619	22595
484.696	25868
484.772	29801
484.849	31823
484.925	21689
485.002	20653
485.078	24517
485.155	25617
485.231	21765
485.308	20253
485.384	24285
485.461	39129
485.537	73318
485.614	84823
485.690	24424
485.766	22374
485.843	31579
485.919	56891
485.995	55625
486.072	20600
486.148	20324
486.224	19073
486.301	23218
486.377	32080
486.453	30548
486.530	23012
486.606	23239
486.682	29098
486.758	52584
486.835	67950
486.911	54190
486.987	106624
487.063	138250
487.139	177028
487.215	100221
487.292	29710
487.368	23353
487.444	29758
487.520	40858
487.596	36221
487.672	70295
487.748	192089
487.824	261763
487.900	69282
487.976	32572
488.052	35346
488.128	46105
488.204	32254
488.280	27447
488.356	42950
488.432	94764
488.508	141193
488.584	38068
488.660	25552
488.736	24494
488.812	27750
488.888	38851
488.964	73398
489.039	197295
489.115	281991
489.191	126432
489.267	26598
489.343	23669
489.418	18349
489.494	16300
489.570	16337
489.646	20247
489.722	18219
489.797	22751
489.873	48024
489.949	111341
490.024	85757
490.100	21456
490.176	22654
490.251	36020
490.327	50834
490.403	21745
490.478	17544
490.554	15513
490.629	15810
490.705	17313
490.781	19862
490.856	21690
490.932	27485
491.007	30236
491.083	23059
491.158	22532
491.234	35492
491.309	85946
491.385	81293
491.460	23116
491.536	25625
491.611	21864
491.686	27878
491.762	50804
491.837	127347
491.913	208611
491.988	300438
492.063	331411
492.139	71220
492.214	39519
492.289	18397
492.365	21175
492.440	26421
492.515	26912
492.590	22694
492.666	19848
492.741	31907
492.816	48363
492.891	23216
492.967	16737
493.042	15615
493.117	14886
493.192	15705
493.267	24315
493.342	42406
493.418	42585
493.493	15379
493.568	14451
493.643	16408
493.718	26772
493.793	50987
493.868	57069
493.943	32426
494.018	19729
494.093	18086
494.168	18615
494.243	14333
494.318	14341
494.393	14399
494.468	14407
494.543	17372
494.618	21746
494.693	18296
494.768	16470
494.842	17208
494.917	15986
494.992	17762
495.067	15718
495.142	16158
495.217	18085
495.292	19601
495.366	22843
495.441	30336
495.516	42121
495.591	82788
495.665	312056
495.740	634221
495.815	188119
495.890	32496
495.964	24735
496.039	26750
496.114	24238
496.188	24297
496.263	25249
496.338	24507
496.412	28708
496.487	34138
496.561	40824
496.636	38420
496.710	27656
496.785	33046
496.860	35899
496.934	27181
497.009	27331
497.083	23951
497.158	23460
497.232	32963
497.307	41940
497.381	28812
497.455	36689
497.530	50142
497.604	29426
497.679	31449
497.753	53574
497.827	62164
497.902	42477
497.976	56889
498.050	180297
498.125	603355
498.199	540787
498.273	89146
498.348	63568
498.422	47604
498.496	51563
498.570	45145
498.645	29007
498.719	28562
498.793	41617
498.867	70518
498.941	103031
499.016	284664
499.090	649182
499.164	196818
499.238	29988
499.312	29746
499.386	40340
499.460	33934
499.534	30410
499.609	37857
499.683	57701
499.757	57220
499.831	139944
499.905	465887
499.979	392275
500.053	81109
500.127	92141
500.201	66401
500.275	37219
500.349	33095
500.422	40618
500.496	71063
500.570	163581
500.644	310577
500.718	477874
500.792	98269
500.866	35214
500.940	46400
501.013	38406
501.087	37894
501.161	73536
501.235	96157
501.309	200325
501.382	477470
501.456	381801
501.530	105614
501.603	165661
501.677	62047
501.751	28618
501.825	38294
501.898	77562
501.972	200430
502.046	118423
502.119	40854
502.193	103204
502.266	217627
502.340	100189
502.413	105282
502.487	198673
502.561	113450
502.634	37911
502.708	33954
502.781	30042
502.855	23601
502.928	21039
503.002	22044
503.075	21692
503.149	22289
503.222	22461
503.295	22974
503.369	29158
503.442	47707
503.516	166897
503.589	385052
503.662	232513
503.736	79462
503.809	181352
503.882	147076
503.956	203793
504.029	189792
504.102	147246
504.175	165081
504.249	53799
504.322	36839
504.395	33980
504.468	23182
504.542	24093
504.615	17776
504.688	17653
504.761	18486
504.834	28523
504.907	38858
504.980	60815
505.053	28692
505.127	40399
505.200	40938
505.273	37196
505.346	24329
505.419	18668
505.492	17867
505.565	16481
505.638	15650
505.711	15980
505.784	15446
505.857	15523
505.930	17255
506.003	15539
506.076	19027
506.149	25670
506.221	32396
506.294	33015
506.367	90779
506.440	261859
506.513	134713
506.586	35357
506.659	22655
506.731	20517
506.804	28857
506.877	41698
506.950	24506
507.022	18450
507.095	27177
507.168	32940
507.241	21166
507.313	17091
507.386	24127
507.459	36101
507.531	20415
507.604	16555
507.677	16944
507.749	13623
507.822	24291
507.894	39064
507.967	31535
508.040	15015
508.112	16094
508.185	16962
508.257	18794
508.330	32380
508.402	16650
508.475	17087
508.547	19401
508.620	20889
508.692	38421
508.765	20962
508.837	12522
508.909	12962
508.982	14665
509.054	20293
509.127	15016
509.199	13324
509.271	11411
509.344	11234
509.416	11850
509.488	13072
509.560	14714
509.633	17732
509.705	22122
509.777	21663
509.849	34631
509.922	18208
509.994	10690
510.066	12801
510.138	11043
510.210	15561
510.283	14402
510.355	14629
510.427	13265
510.499	13637
510.571	13219
510.643	17369
510.715	38550
510.787	28183
510.859	17352
510.931	24250
511.003	36810
511.076	28843
511.148	12804
511.219	15002
511.291	31132
511.363	37167
511.435	13403
511.507	10642
511.579	11827
511.651	11950
511.723	11847
511.795	12355
511.867	13563
511.939	22858
512.010	52486
512.082	39515
512.154	16324
512.226	16296
512.298	20475
512.369	28966
512.441	23731
512.513	29922
512.585	18091
512.656	20375
512.728	24804
512.800	14626
512.871	15141
512.943	14581
513.015	11041
513.086	16596
513.158	17994
513.230	22735
513.301	42949
513.373	48954
513.444	19285
513.516	15193
513.588	15611
513.659	20366
513.731	29664
513.802	28590
513.874	77164
513.945	126080
514.016	28285
514.088	17771
514.159	21621
514.231	31256
514.302	27568
514.374	15817
514.445	20642
514.516	55633
514.588	37473
514.659	24211
514.730	52599
514.802	38550
514.873	16043
514.944	17102
515.016	18168
515.087	27826
515.158	38099
515.229	49363
515.301	12535
515.372	15929
515.443	12184
515.514	12114
515.585	11229
515.656	14355
515.728	14161
515.799	12591
515.870	16575
515.941	18060
516.012	16724
516.083	21285
516.154	28550
516.225	48997
516.296	37462
516.367	28949
516.438	34076
516.509	47575
516.580	84694
516.651	298147
516.722	864577
516.793	303933
516.864	67489
516.935	62268
517.006	67071
517.077	114481
517.148	297984
517.219	930059
517.289	1086451
517.360	334784
517.431	107134
517.502	35455
517.573	35661
517.643	33278
517.714	33062
517.785	35009
517.856	37619
517.926	43689
517.997	48621
518.068	57339
518.138	81519
518.209	159963
518.280	640026
518.350	1742891
518.421	503656
518.492	69583
518.562	48244
518.633	49720
518.703	49722
518.774	89052
518.845	202404
518.915	176992
518.986	61657
519.056	58240
519.127	113767
519.197	172576
519.268	311755
519.338	171302
519.408	51929
519.479	71941
519.549	47598
519.620	29540
519.690	22500
519.760	23150
519.831	26399
519.901	27056
519.971	20963
520.042	26289
520.112	30855
520.182	37516
520.253	37605
520.323	21504
520.393	22962
520.463	29402
520.534	25915
520.604	40048
520.674	26301
520.744	29383
520.814	48827
520.885	52051
520.955	103083
521.025	320274
521.095	113170
521.165	25223
521.235	23563
521.305	20582
521.375	20315
521.445	26544
521.515	39317
521.585	46650
521.655	39401
521.725	33037
521.795	26264
521.865	19475
521.935	36002
522.005	31471
522.075	19927
522.145	22650
522.215	27253
522.285	42044
522.355	59125
522.424	111942
522.494	88594
522.564	49617
522.634	124865
522.704	303132
522.774	89507
522.843	26450
522.913	26784
522.983	36955
523.053	25693
523.122	29627
523.192	53563
523.262	192460
523.331	141020
523.401	25772
523.471	19599
523.540	21319
523.610	15164
523.680	15710
523.749	17382
523.819	24573
523.888	24391
523.958	17167
524.027	20458
524.097	23170
524.166	20805
524.236	24994
524.305	23198
524.375	19511
524.444	16606
524.514	20814
524.583	21273
524.653	27891
524.722	30016
524.791	19207
524.861	20531
524.930	18343
524.999	22585
525.069	33377
525.138	25950
525.207	31869
525.277	22765
525.346	23593
525.415	20287
525.484	23989
525.554	29553
525.623	25849
525.692	21450
525.761	25530
525.830	25404
525.900	29746
525.969	46166
526.038	69878
526.107	141878
526.176	364311
526.245	267898
526.314	110524
526.383	207678
526.452	255487
526.522	434244
526.591	404164
526.660	162885
526.729	68262
526.797	78702
526.867	211857
526.935	768358
527.004	1003752
527.073	437412
527.142	48496
527.211	29427
527.280	36077
527.349	36161
527.418	18948
527.487	20412
527.555	18462
527.624	17408
527.693	14773
527.762	18458
527.831	15664
527.899	17291
527.968	18419
528.037	19280
528.106	29250
528.174	54630
528.243	40490
528.312	67204
528.380	77694
528.449	23348
528.518	17816
528.586	13481
528.655	15528
528.723	14491
528.792	15587
528.861	18483
528.929	15607
528.998	16763
529.066	15811
529.135	17802
529.203	17595
529.272	18748
529.340	21944
529.409	22426
529.477	21311
529.545	27366
529.614	31151
529.682	34509
529.751	38874
529.819	37256
529.887	30558
529.956	24496
530.024	26046
530.092	23261
530.161	32426
530.229	48269
530.297	28416
530.365	24825
530.434	24176
530.502	23090
530.570	22922
530.638	20785
530.707	25120
530.775	25481
530.843	21914
530.911	22997
530.979	21585
531.047	24168
531.115	24053
531.183	23288
531.252	22970
531.320	23791
531.388	22113
531.456	23722
531.524	23668
531.592	24331
531.660	30496
531.728	25755
531.796	24057
531.864	24447
531.932	26329
532.000	25954
532.067	29171
532.135	29917
532.203	35368
532.271	38669
532.339	66861
532.407	154843
532.475	73980
532.542	38350
532.610	42574
532.678	67931
532.746	259518
532.814	490652
532.881	118429
532.949	33038
533.017	29595
533.084	27600
533.152	26830
533.220	28513
533.287	32310
533.355	25803
533.423	26244
533.490	24701
533.558	26770
533.625	25608
533.693	25754
533.761	26708
533.828	27852
533.896	29805
533.963	57215
534.031	67041
534.098	90843
534.166	39515
534.233	25796
534.300	26394
534.368	25878
534.435	25032
534.503	25143
534.570	26395
534.637	26360
534.705	28044
534.772	33034
534.840	54823
534.907	189875
534.974	199953
535.041	37423
535.109	31638
535.176	22507
535.243	22844
535.310	26358
535.378	24483
535.445	20675
535.512	20867
535.579	21826
535.646	20662
535.714	20675
535.781	22261
535.848	21911
535.915	24216
535.982	22399
536.049	22203
536.116	24900
536.183	23031
536.250	25269
536.317	24625
536.384	30975
536.451	50189
536.518	48512
536.585	31563
536.652	43098
536.719	63985
536.786	46782
536.853	34922
536.920	55063
536.987	92657
537.053	90275
537.120	298003
537.187	196826
537.254	27881
537.321	25627
537.388	24983
537.454	20642
537.521	20254
537.588	19316
537.654	20774
537.721	24030
537.788	24517
537.855	20888
537.921	22000
537.988	21883
538.055	22684
538.121	22465
538.188	26305
538.254	48617
538.321	97116
538.388	48020
538.454	23323
538.521	21873
538.587	19602
538.654	20581
538.720	19934
538.787	21552
538.853	23669
538.920	30939
538.986	30687
539.053	25725
539.119	26636
539.185	26386
539.252	33529
539.318	51548
539.385	30680
539.451	26526
539.517	27634
539.583	37175
539.650	99210
539.716	210027
539.782	50927
539.849	25139
539.915	26286
539.981	28241
540.047	34068
540.114	28230
540.180	28589
540.246	27998
540.312	44514
540.378	96041
540.444	84339
540.510	102262
540.576	235727
540.643	62105
540.709	23148
540.775	24494
540.841	22730
540.907	31321
540.973	42810
541.039	45385
541.105	47912
541.171	25995
541.237	22648
541.303	25319
541.369	31169
541.435	45772
541.500	82439
541.566	44092
541.632	21430
541.698	20506
541.764	20936
541.830	19040
541.896	20221
541.961	22200
542.027	25350
542.093	23930
542.159	23846
542.224	27267
542.290	40785
542.356	82893
542.421	86896
542.487	32899
542.553	24107
542.618	27479
542.684	23227
542.750	26449
542.815	34760
542.881	68360
542.947	225706
543.012	126361
543.078	24154
543.143	21067
543.209	24528
543.274	27020
543.340	33935
543.405	90622
543.471	119882
543.536	26473
543.602	22998
543.667	21845
543.732	21237
543.798	19787
543.863	20613
543.928	19636
543.994	18426
544.059	19427
544.124	19914
544.190	20618
544.255	20599
544.320	22267
544.386	24347
544.451	39501
544.516	44692
544.581	48123
544.646	150455
544.712	186716
544.777	34586
544.842	30886
544.907	32548
544.972	28664
545.037	26764
545.102	31709
545.168	30106
545.233	32007
545.298	33618
545.363	39723
545.428	46619
545.493	93358
545.558	179598
545.623	61860
545.688	30898
545.753	28933
545.818	28669
545.883	29726
545.947	28677
546.012	34432
546.077	35258
546.142	32776
546.207	34083
546.272	47669
546.337	47482
546.401	34754
546.466	31178
546.531	32805
546.596	39512
546.661	40171
546.725	35271
546.790	32445
546.855	33996
546.919	35100
546.984	37511
547.049	43515
547.113	49258
547.178	46379
547.243	50361
547.307	56576
547.372	67736
547.436	70661
547.501	57558
547.565	62839
547.630	69965
547.695	68017
547.759	70600
547.823	61317
547.888	53083
547.952	55203
548.017	58158
548.081	66811
548.146	81048
548.210	69705
548.274	61879
548.339	58343
548.403	55466
548.468	52089
548.532	52208
548.596	53878
548.660	54466
548.725	62942
548.789	74099
548.853	70922
548.917	61720
548.982	76951
549.046	71568
549.110	51603
549.174	50151
549.238	55782
549.303	57718
549.367	60343
549.431	57773
549.495	54908
549.559	56577
549.623	64535
549.687	75866
549.751	93025
549.815	80713
549.879	76782
549.943	72633
550.007	79276
550.071	82299
550.135	87918
550.199	73419
550.263	68600
550.327	72342
550.391	85560
550.455	73662
550.519	76425
550.582	82862
550.646	107298
550.710	103595
550.774	85670
550.838	84857
550.901	89210
550.965	91660
551.029	97218
551.093	107488
551.156	131210
551.220	206138
551.284	224458
551.347	136692
551.411	196535
551.475	191321
551.538	93871
551.602	84069
551.666	80835
551.729	73918
551.793	74221
551.856	71660
551.920	70805
551.983	71358
552.047	70974
552.110	70304
552.174	71252
552.237	72777
552.301	68533
552.364	66520
552.428	65463
552.491	68488
552.554	70418
552.618	69898
552.681	75610
552.745	80338
552.808	108107
552.871	119707
552.934	82131
552.998	71536
553.061	72952
553.124	66063
553.187	64722
553.251	66927
553.314	67457
553.377	65143
553.440	71292
553.503	79627
553.567	79986
553.630	67935
553.693	68227
553.756	70426
553.819	65298
553.882	65525
553.945	64610
554.008	62961
554.071	63618
554.134	65112
554.197	61833
554.260	60825
554.323	65357
554.386	66529
554.449	67151
554.512	64988
554.575	62668
554.638	64927
554.701	62176
554.764	59577
554.827	58737
554.889	57302
554.952	54091
555.015	53173
555.078	55132
555.141	55744
555.203	54419
555.266	55630
555.329	56072
555.391	53199
555.454	57343
555.517	55186
555.580	50820
555.642	48033
555.705	47307
555.768	49534
555.830	49648
555.893	44527
555.955	46133
556.018	46480
556.080	46960
556.143	45745
556.206	47660
556.268	50614
556.330	51734
556.393	48430
556.455	50144
556.518	66185
556.580	64654
556.643	43754
556.705	43252
556.767	42076
556.830	45557
556.892	52212
556.955	76609
557.017	52292
557.079	42215
557.142	44782
557.204	54399
557.266	99970
557.328	70807
557.391	38774
557.453	37725
557.515	38554
557.577	51318
557.639	49402
557.701	37741
557.764	36814
557.826	38758
557.888	42333
557.950	42324
558.012	46682
558.074	63491
558.136	134368
558.198	273255
558.260	91348
558.322	47581
558.384	46479
558.446	52781
558.508	58455
558.570	77531
558.632	133783
558.694	181311
558.756	183887
558.818	524831
558.880	1021685
558.942	300942
559.003	277975
559.065	120119
559.127	56348
559.189	58650
559.251	69696
559.312	105430
559.374	264486
559.436	733410
559.498	289868
559.559	61357
559.621	58161
559.683	75967
559.744	137980
559.806	407317
559.868	485828
559.929	96904
559.991	72876
560.052	115382
560.114	277720
560.176	163112
560.237	176014
560.299	249733
560.360	61758
560.422	40438
560.483	37356
560.545	36657
560.606	35531
560.667	34778
560.729	32954
560.790	33260
560.852	33652
560.913	33607
560.974	32893
561.036	32497
561.097	32865
561.158	33278
561.220	35293
561.281	35610
561.342	36727
561.403	44080
561.465	60892
561.526	139946
561.587	146494
561.648	43067
561.709	34262
561.771	32486
561.832	33617
561.893	32777
561.954	32797
562.015	32796
562.076	32025
562.137	32435
562.198	31556
562.259	32819
562.320	33043
562.381	40025
562.442	53952
562.503	39659
562.564	31072
562.625	31047
562.686	30943
562.747	35329
562.808	32466
562.869	32989
562.930	41508
562.991	40233
563.051	38376
563.112	33684
563.173	32628
563.234	31721
563.294	30735
563.355	32897
563.416	34064
563.477	31258
563.537	33044
563.598	34082
563.659	33712
563.720	34373
563.780	34713
563.841	35554
563.901	32775
563.962	32013
564.023	31996
564.083	33379
564.144	34765
564.204	32786
564.265	33599
564.325	41175
564.386	71793
564.446	60060
564.507	31621
564.567	30641
564.628	31011
564.688	30609
564.749	31089
564.809	37373
564.869	41979
564.930	31452
564.990	29682
565.050	30009
565.111	30109
565.171	28750
565.231	28964
565.292	30068
565.352	28336
565.412	31226
565.472	32560
565.532	34326
565.593	30808
565.653	29256
565.713	31237
565.773	33279
565.833	41174
565.893	46986
565.953	31525
566.013	30000
566.074	32594
566.134	43600
566.194	67790
566.254	66821
566.314	42033
566.374	30762
566.434	30467
566.494	29570
566.554	27967
566.614	28945
566.673	29420
566.733	32196
566.793	30934
566.853	31550
566.913	31014
566.973	31504
567.033	33265
567.092	33767
567.152	31860
567.212	32015
567.272	32430
567.331	32826
567.391	32010
567.451	33675
567.511	44386
567.570	45119
567.630	29267
567.690	28686
567.749	28680
567.809	28775
567.868	30481
567.928	30606
567.988	33860
568.047	28821
568.107	27715
568.166	29366
568.226	31374
568.285	33566
568.345	30459
568.404	29477
568.464	28406
568.523	28400
568.582	30605
568.642	33412
568.701	32531
568.761	35155
568.820	39896
568.879	39503
568.939	45020
568.998	34066
569.057	28263
569.116	28206
569.176	25915
569.235	25932
569.294	26269
569.353	26080
569.413	26453
569.472	28782
569.531	26599
569.590	26449
569.649	26667
569.708	25679
569.767	28888
569.827	34399
569.886	28736
569.945	25590
570.004	26805
570.063	27806
570.122	30760
570.181	33206
570.240	35195
570.299	34840
570.358	33758
570.417	28930
570.475	25701
570.534	29255
570.593	30635
570.652	31107
570.711	30339
570.770	28695
570.829	31579
570.887	32096
570.946	33059
571.005	26704
571.064	27239
571.122	30190
571.181	33187
571.240	28852
571.299	25994
571.357	28376
571.416	29092
571.475	35095
571.533	35147
571.592	28246
571.650	28698
571.709	26559
571.768	28181
571.826	27207
571.885	24719
571.943	24294
572.002	26386
572.060	25690
572.119	22240
572.177	23621
572.236	22660
572.294	23125
572.352	23257
572.411	23705
572.469	22989
572.528	23833
572.586	23926
572.644	28127
572.703	33406
572.761	26069
572.819	24289
572.877	24198
572.936	22391
572.994	22516
573.052	23663
573.110	24851
573.169	23790
573.227	23123
573.285	21481
573.343	21497
573.401	23280
573.459	22199
573.517	21530
573.576	22731
573.634	23716
573.692	23895
573.750	22010
573.808	22416
573.866	23723
573.924	32122
573.982	30339
574.040	23373
574.098	22314
574.155	21224
574.213	21312
574.271	21363
574.329	22403
574.387	21488
574.445	20992
574.503	20002
574.560	18816
574.618	18905
574.676	19301
574.734	19710
574.792	19877
574.849	18723
574.907	18981
574.965	17891
575.022	18321
575.080	19568
575.138	20550
575.195	21808
575.253	22887
575.311	24328
575.368	18928
575.426	18501
575.483	19315
575.541	19671
575.598	18837
575.656	21058
575.713	20413
575.771	19399
575.828	18976
575.886	19935
575.943	21001
576.001	22124
576.058	20960
576.115	24278
576.173	27393
576.230	32810
576.287	34948
576.345	25875
576.402	22423
576.459	23193
576.517	22491
576.574	25902
576.631	26876
576.688	22872
576.746	21859
576.803	22361
576.860	20012
576.917	21495
576.974	21490
577.031	20854
577.089	20290
577.146	21704
577.203	21838
577.260	23194
577.317	24989
577.374	29077
577.431	24237
577.488	22116
577.545	20642
577.602	20910
577.659	20037
577.716	20001
577.773	20312
577.830	19381
577.886	19099
577.943	19825
578.000	18937
578.057	22737
578.114	20026
578.171	19690
578.227	19087
578.284	20104
578.341	20189
578.398	21032
578.454	21646
578.511	24946
578.568	28845
578.625	23987
578.681	20225
578.738	19467
578.794	19879
578.851	20119
578.908	21245
578.964	21829
579.021	21980
579.077	21452
579.134	20064
579.190	19057
579.247	19280
579.303	19510
579.360	18749
579.416	18263
579.473	17962
579.529	18310
579.586	19151
579.642	19517
579.698	20042
579.755	20873
579.811	19611
579.867	19005
579.924	18069
579.980	17968
580.036	19262
580.093	18686
580.149	19960
580.205	20498
580.261	20129
580.317	21995
580.374	23293
580.430	27413
580.486	25234
580.542	21166
580.598	19876
580.619	20604
580.654	21888
580.692	20988
580.710	20577
580.765	20178
580.767	20185
580.823	21271
580.838	21026
580.879	20456
580.911	20690
580.935	20898
580.984	19774
580.991	19643
581.047	19956
581.057	20157
581.103	21117
581.130	21298
581.159	21538
581.203	21166
581.215	21091
581.270	20933
581.276	20980
581.326	21549
581.349	21604
581.382	21758
581.422	22596
581.438	22964
581.494	23526
581.494	23491
581.550	21448
581.567	22279
581.606	24105
581.640	23308
581.661	22830
581.713	21839
581.717	21784
581.773	20856
581.786	21124
581.829	21978
581.859	22118
581.885	22332
581.932	22602
581.940	22631
581.996	22575
582.004	22592
582.052	22791
582.077	22626
582.107	22465
582.150	22221
582.163	22181
582.219	22811
582.223	22810
582.274	22719
582.296	23137
582.330	23853
582.368	23434
582.386	23336
582.441	22066
582.441	22067
582.497	22181
582.514	22036
582.552	22009
582.587	22181
582.608	22214
582.659	23258
582.663	23332
582.719	23141
582.732	22898
582.774	22462
582.805	23105
582.830	23577
582.877	23435
582.885	23433
582.941	23636
582.950	23757
582.996	24328
583.023	25188
583.052	26213
583.095	25943
583.107	25767
583.162	25147
583.168	25099
583.218	24627
583.240	24258
583.273	23817
583.313	23592
583.328	23604
583.384	23811
583.385	23797
583.439	22757
583.458	22603
583.494	22590
583.531	22501
583.549	22477
583.603	23317
583.605	23339
583.660	22277
583.676	22345
583.715	22551
583.748	23288
583.770	23846
583.820	23896
583.825	23857
583.881	22775
583.893	22610
583.936	22476
583.965	22542
583.991	22411
584.038	23044
584.046	23173
584.101	23439
584.110	23348
584.156	22958
584.183	23090
584.211	23139
584.255	22193
584.266	21964
584.321	22276
584.328	22419
584.376	24080
584.400	24198
584.431	23925
584.472	23662
584.486	23682
584.541	24656
584.545	24633
584.596	23660
584.617	23908
584.651	25049
584.689	25602
584.706	25613
584.761	26541
584.762	26537
584.816	26287
584.834	26543
584.871	26842
584.906	26739
584.926	26750
584.978	26833
584.980	26838
585.035	27136
585.051	27498
585.090	28695
585.123	28909
585.145	28920
585.195	29670
585.200	29778
585.254	30796
585.267	31202
585.309	32231
585.340	33128
585.364	33923
585.412	36421
585.419	36893
585.473	42160
585.484	43804
585.528	51765
585.556	60392
585.583	74240
585.628	109175
585.637	120322
585.692	241119
585.700	258030
585.747	315504
585.772	246534
585.801	140114
585.845	59820
585.856	49662
585.910	37881
585.917	36873
585.965	34357
585.989	33657
586.019	33088
586.061	32630
586.074	32630
586.128	32540
586.133	32721
586.183	34876
586.205	34744
586.237	34031
586.277	33234
586.292	33001
586.346	31673
586.349	31652
586.401	31848
586.421	32310
586.455	33109
586.493	34642
586.509	35993
586.564	42251
586.565	42698
586.618	63006
586.637	60263
586.672	49942
586.709	40235
586.727	36444
586.781	34974
586.781	34977
586.835	32503
586.853	31651
586.889	30232
586.925	29651
586.944	29737
586.996	30693
586.998	30735
587.052	31634
587.068	31603
587.106	31418
587.140	31394
587.161	31282
587.212	31757
587.215	31842
587.269	33293
587.284	33279
587.323	32590
587.356	32396
587.377	32700
587.427	34182
587.431	34244
587.485	33675
587.499	33569
587.539	34060
587.571	34608
587.593	34870
587.643	35701
587.648	35836
587.702	35800
587.715	36171
587.755	36908
587.786	37063
587.810	37333
587.858	36584
587.864	36591
587.917	38361
587.930	38697
587.971	40105
588.001	40938
588.025	41178
588.073	40294
588.079	40417
588.133	42769
588.145	43210
588.187	44324
588.217	45357
588.241	46913
588.288	49168
588.295	49648
588.348	54604
588.360	55502
588.402	58435
588.431	60285
588.456	61930
588.503	65706
588.510	66743
588.564	76101
588.575	78027
588.617	86104
588.646	92920
588.671	101780
588.718	122445
588.725	127990
588.778	178498
588.789	191109
588.832	309952
588.861	403176
588.886	554186
588.932	895097
588.939	920871
588.993	1026180
589.004	1007901
589.047	594105
589.075	362661
589.100	271605
589.147	144815
589.154	140391
589.207	112290
589.218	107237
589.261	106857
589.290	108098
589.314	114735
589.361	131257
589.368	138177
589.421	201435
589.433	217406
589.475	383214
589.504	520512
589.528	657762
589.576	915282
589.582	889502
589.635	484313
589.647	408122
589.689	221322
589.718	111380
589.742	96441
589.790	69979
589.795	69275
589.849	64225
589.861	63734
589.902	64615
589.932	61509
589.955	56964
590.004	47304
590.009	46982
590.062	45855
590.075	45562
590.115	44722
590.146	43999
590.168	43684
590.218	42651
590.222	42774
590.275	44236
590.289	44391
590.328	43772
590.360	43282
590.381	43099
590.431	42202
590.435	42209
590.488	41717
590.503	41575
590.541	42654
590.574	43401
590.594	43048
590.645	41726
590.647	41781
590.700	41994
590.716	41960
590.753	42011
590.787	42001
590.806	42315
590.859	43062
590.859	43121
590.912	42551
590.930	42328
590.965	42846
591.001	43391
591.018	43992
591.071	45384
591.072	45322
591.124	45156
591.143	45032
591.177	44996
591.214	44825
591.230	45519
591.283	47835
591.285	47844
591.336	48360
591.356	48554
591.389	48543
591.427	47928
591.442	47315
591.495	45056
591.498	44818
591.547	44410
591.569	44175
591.600	44475
591.640	44792
591.653	45119
591.706	46103
591.711	46139
591.759	46456
591.782	46669
591.811	47993
591.853	49511
591.864	49262
591.917	47323
591.924	47015
591.969	47600
591.995	47819
592.022	47635
592.066	47129
592.075	47686
592.127	50690
592.137	51238
592.180	51914
592.208	51945
592.233	50623
592.279	47917
592.285	48015
592.338	48423
592.350	48442
592.390	47618
592.421	46862
592.443	47008
592.491	47115
592.495	47291
592.548	48657
592.562	48958
592.600	48431
592.633	47823
592.653	47753
592.704	47123
592.705	47404
592.775	47969
592.846	49034
592.916	50946
592.987	51456
593.058	49238
593.128	47994
593.199	48204
593.270	48808
593.341	48520
593.411	50186
593.482	49578
593.553	49592
593.623	48774
593.694	50207
593.764	51165
593.835	49975
593.906	50708
593.976	50194
594.047	50959
594.117	55129
594.188	53781
594.258	51624
594.329	50030
594.399	50852
594.470	52574
594.540	52637
594.611	52171
594.681	52000
594.751	52253
594.822	54832
594.892	56935
594.963	56798
595.033	57365
595.103	59308
595.174	59723
595.244	65519
595.314	67766
595.384	59483
595.455	58986
595.525	61949
595.595	63145
595.665	63845
595.736	60882
595.806	62541
595.876	62470
595.946	63497
596.016	62535
596.087	65627
596.157	64816
596.227	64958
596.297	69231
596.367	71655
596.437	74436
596.507	78279
596.577	80620
596.647	75395
596.717	76496
596.787	76712
596.857	78331
596.927	76884
596.997	77774
597.067	79395
597.137	82991
597.207	83999
597.277	83392
597.347	81626
597.417	79736
597.487	82829
597.557	82861
597.626	84721
597.696	84994
597.766	86513
597.836	86717
597.906	79265
597.975	77355
598.045	76950
598.115	79556
598.185	82935
598.254	90752
598.324	97760
598.394	99157
598.464	95484
598.533	93971
598.603	90464
598.672	89616
598.742	92613
598.812	91866
598.881	93259
598.951	91986
599.020	93639
599.090	95096
599.159	95259
599.229	93312
599.299	92264
599.368	94737
599.437	93607
599.507	90319
599.576	90693
599.646	89788
599.715	90304
599.785	89803
599.854	90128
599.924	89603
599.993	90322
600.062	92490
600.132	94041
600.201	99343
600.270	108998
600.340	111275
600.409	110951
600.478	110618
600.547	113147
600.617	108348
600.686	98291
600.755	94788
600.824	94638
600.894	93887
600.963	92943
601.032	93310
601.101	94990
601.170	93950
601.239	94937
601.308	100369
601.378	99602
601.447	97234
601.516	100405
601.585	106389
601.654	111974
601.723	106650
601.792	107876
601.861	111663
601.930	118838
601.999	124865
602.068	122534
602.137	128642
602.206	125831
602.275	122724
602.343	128160
602.412	127863
602.481	122261
602.550	122467
602.619	125875
602.688	126746
602.756	125965
602.825	125806
602.894	128424
602.963	126818
603.032	130326
603.100	130470
603.169	128438
603.238	131120
603.307	124739
603.375	127500
603.444	134526
603.513	125790
603.581	131371
603.650	136779
603.719	117278
603.787	112497
603.856	114978
603.924	117191
603.993	121447
604.061	125266
604.130	127794
604.198	130256
604.267	132050
604.335	133266
604.404	134824
604.472	138562
604.541	138764
604.609	143733
604.678	145518
604.746	146141
604.815	155557
604.883	148221
604.951	147028
605.020	149474
605.088	142181
605.156	136202
605.225	137634
605.293	135375
605.361	137069
605.429	137042
605.498	141232
605.566	138857
605.634	145405
605.702	144606
605.771	148104
605.839	152599
605.907	142386
605.975	145141
606.043	137886
606.111	136480
606.180	146156
606.248	131106
606.316	131754
606.384	142624
606.452	127115
606.520	121260
606.588	114576
606.656	109569
606.724	107628
606.792	101301
606.860	93925
606.928	85523
606.996	84923
607.064	83841
607.132	84037
607.200	89879
607.267	93361
607.335	92739
607.403	95622
607.471	92852
607.539	89607
607.607	89739
607.674	82767
607.742	82505
607.810	82520
607.878	81141
607.946	83333
608.013	85401
608.081	86618
608.149	88157
608.216	88820
608.284	91800
608.352	90066
608.419	89578
608.487	93150
608.555	86269
608.622	88582
608.690	92771
608.757	98994
608.825	102011
608.893	100289
608.960	100096
609.028	96028
609.095	94938
609.163	91853
609.230	82655
609.298	78495
609.365	80139
609.432	86734
609.500	93534
609.567	105583
609.635	117015
609.702	122725
609.769	116945
609.837	93335
609.904	81451
609.971	84094
610.039	92892
610.106	116156
610.173	200464
610.241	417447
610.308	216672
610.375	99196
610.442	86583
610.509	83275
610.577	82390
610.644	85701
610.711	87548
610.778	91197
610.845	93455
610.912	98941
610.980	101288
611.047	101010
611.114	99526
611.181	97243
611.248	93027
611.315	101570
611.382	102685
611.449	105511
611.516	107630
611.583	106591
611.650	105977
611.717	107947
611.784	110961
611.851	115310
611.918	124661
611.984	142269
612.051	191963
612.118	363218
612.185	827454
612.252	457269
612.319	150587
612.386	133571
612.452	124328
612.519	120985
612.586	122008
612.653	121769
612.719	123954
612.786	118810
612.853	108951
612.919	108270
612.986	110731
613.053	104276
613.120	98607
613.186	97495
613.253	100779
613.319	98187
613.386	97617
613.453	101214
613.519	104672
613.586	114383
613.652	131740
613.719	118142
613.785	109384
613.852	100861
613.918	98262
613.985	100648
614.051	104482
614.118	106697
614.184	101746
614.250	97572
614.317	100287
614.383	100048
614.449	101136
614.516	100479
614.582	100918
614.648	100424
614.715	99842
614.781	98698
614.847	101517
614.914	100123
614.980	96720
615.046	95608
615.112	98593
615.179	97806
615.245	98882
615.311	97763
615.377	101353
615.443	101780
615.509	101236
615.575	104891
615.642	103521
615.708	109452
615.774	111251
615.840	118698
615.906	127075
615.972	151440
616.038	217719
616.104	436608
616.170	973808
616.236	719054
616.302	196642
616.368	158137
616.434	125873
616.500	121749
616.565	132193
616.631	151368
616.697	128077
616.763	134976
616.829	191712
616.895	306672
616.961	266022
617.026	131534
617.092	107132
617.158	105262
617.224	102875
617.289	98983
617.355	95454
617.421	94359
617.487	94418
617.552	90633
617.618	89487
617.684	89825
617.749	91587
617.815	87809
617.880	84866
617.946	87035
618.012	90443
618.077	89801
618.143	86193
618.208	89487
618.274	94831
618.339	93643
618.405	78863
618.470	81316
618.536	80957
618.601	82446
618.667	77476
618.732	74737
618.798	74117
618.863	76158
618.928	73758
618.994	77225
619.059	82369
619.124	96971
619.190	81975
619.255	73276
619.320	72744
619.386	73716
619.451	70101
619.516	71087
619.581	70225
619.647	73554
619.712	71901
619.777	72256
619.842	71285
619.907	74801
619.972	75449
620.038	74865
620.103	71105
620.168	70814
620.233	72268
620.298	73334
620.363	72702
620.428	73658
620.493	76314
620.558	77519
620.623	77391
620.688	76735
620.753	76070
620.818	78397
620.883	76192
620.948	77543
621.013	76302
621.078	75685
621.143	76083
621.207	77877
621.272	78106
621.337	78334
621.402	76700
621.467	81050
621.532	79227
621.596	79035
621.661	75674
621.726	74479
621.791	76677
621.855	79406
621.920	79339
621.985	77439
622.049	78564
622.114	78041
622.179	79388
622.243	82820
622.308	82756
622.373	86341
622.437	84308
622.502	78735
622.566	79035
622.631	77707
622.695	82630
622.760	80659
622.824	80264
622.889	82356
622.953	87430
623.018	109189
623.082	104201
623.147	85096
623.211	83591
623.276	84420
623.340	79193
623.404	77812
623.469	75471
623.533	77466
623.597	75712
623.662	76320
623.726	71902
623.790	68761
623.854	68653
623.919	69639
623.983	70233
624.047	70991
624.111	70228
624.176	72738
624.240	76506
624.304	80024
624.368	70690
624.432	71367
624.496	72954
624.560	78494
624.625	81125
624.689	75073
624.753	76526
624.817	73143
624.881	70674
624.945	66485
625.009	65515
625.073	67077
625.137	71437
625.201	84279
625.265	80914
625.329	70371
625.393	73123
625.456	70082
625.520	70714
625.584	74405
625.648	77658
625.712	85300
625.776	108659
625.839	111571
625.903	72707
625.967	61704
626.031	73231
626.095	87963
626.158	66267
626.222	54786
626.286	52324
626.349	51741
626.413	49039
626.477	54177
626.540	49953
626.604	48732
626.668	49670
626.731	48950
626.795	49467
626.858	49032
626.922	46996
626.986	47678
627.049	45117
627.113	48022
627.176	46949
627.240	46147
627.303	45456
627.366	45775
627.430	46157
627.493	46678
627.557	45100
627.620	48091
627.684	46356
627.747	47524
627.810	42396
627.874	42789
627.937	39035
628.000	44029
628.064	41814
628.127	37225
628.190	38098
628.253	37594
628.317	36081
628.380	35235
628.443	35384
628.506	36870
628.569	34222
628.632	33386
628.696	32709
628.759	33512
628.822	31415
628.885	31532
628.948	32438
629.011	32084
629.074	31049
629.137	30454
629.200	30748
629.263	32501
629.326	29004
629.389	29661
629.452	30116
629.515	30364
629.578	29486
629.641	31888
629.704	30443
629.767	30831
629.830	28965
629.892	28631
629.955	27740
630.018	32536
630.081	31968
630.144	36632
630.207	29630
630.269	32103
630.332	27575
630.395	28251
630.458	27522
630.520	25782
630.583	28517
630.646	27346
630.708	25253
630.771	26281
630.834	27266
630.896	26486
630.959	27438
631.021	26032
631.084	27252
631.146	27939
631.209	28044
631.272	25412
631.334	25352
631.397	26181
631.459	25786
631.522	28864
631.584	27633
631.646	29481
631.709	29594
631.771	34333
631.834	29980
631.896	26883
631.958	24389
632.021	26330
632.083	24452
632.145	26190
632.208	26101
632.270	26643
632.332	23668
632.395	23088
632.457	24631
632.519	24929
632.581	25503
632.643	24098
632.706	24244
632.768	23427
632.830	24317
632.892	24850
632.954	23453
633.016	25843
633.078	24049
633.141	23880
633.203	23058
633.265	24741
633.327	23711
633.389	24422
633.451	27376
633.513	30289
633.575	27398
633.637	28037
633.698	26385
633.760	24885
633.822	24549
633.884	25459
633.946	24656
634.008	24211
634.070	24240
634.132	25988
634.193	25868
634.255	27928
634.317	27587
634.379	28674
634.441	25206
634.502	24713
634.564	24182
634.626	22796
634.687	22396
634.749	23182
634.811	23442
634.873	20846
634.934	20851
634.996	22845
635.057	21015
635.119	20539
635.181	22869
635.242	23310
635.304	19748
635.365	23840
635.427	21192
635.488	22874
635.550	20208
635.611	22636
635.673	20134
635.734	24038
635.796	22635
635.857	25966
635.918	23745
635.980	26192
636.041	25368
636.102	27774
636.164	26531
636.225	28016
636.286	22804
636.348	23407
636.409	20596
636.470	21082
636.531	20451
636.593	21681
636.654	20882
636.715	20177
636.776	19619
636.838	19098
636.899	19983
636.960	19942
637.021	18065
637.082	18112
637.143	18292
637.204	17620
637.265	17404
637.326	19359
637.387	19067
637.448	17841
637.509	18930
637.570	19122
637.631	19499
637.692	17220
637.753	17077
637.814	19026
637.875	18305
637.936	18495
637.997	17587
638.058	18520
638.119	18011
638.179	17930
638.240	16881
638.301	17163
638.362	16368
638.423	18799
638.483	18263
638.544	15837
638.605	17451
638.666	17359
638.726	17018
638.787	17505
638.848	16132
638.908	16671
638.969	16603
639.030	16876
639.090	15058
639.151	17089
639.211	19474
639.272	23506
639.332	34558
639.393	21879
639.453	16951
639.514	17403
639.574	16606
639.635	16264
639.695	16887
639.756	15640
639.816	17775
639.877	20703
639.937	31445
639.997	36300
640.058	16902
640.118	15768
640.178	16938
640.239	15277
640.299	14505
640.359	15954
640.420	15616
640.480	16832
640.540	17351
640.600	16988
640.661	17092
640.721	16629
640.781	19746
640.841	15467
640.901	16384
640.961	16171
641.021	16803
641.082	18482
641.142	24658
641.202	18302
641.262	13106
641.322	15673
641.382	13176
641.442	15303
641.502	14647
641.562	15373
641.622	13060
641.682	15350
641.742	16266
641.802	15267
641.861	15574
641.921	15670
641.981	17845
642.041	18226
642.101	21939
642.161	14695
642.221	14216
642.280	13189
642.340	13027
642.400	13292
642.460	14676
642.519	14303
642.579	13801
642.639	16207
642.698	11901
642.758	16753
642.818	13759
642.877	15035
642.937	15950
642.997	19243
643.056	25046
643.116	15839
643.175	17045
643.235	14674
643.294	14511
643.354	16018
643.414	17630
643.473	21346
643.532	19955
643.592	26760
643.651	38961
643.711	62642
643.770	117884
643.830	277354
643.889	536978
643.948	117423
644.008	27683
644.067	20850
644.126	17623
644.186	16196
644.245	15450
644.304	12458
644.363	15516
644.423	12839
644.482	13917
644.541	14240
644.600	12613
644.659	16709
644.719	18531
644.778	24677
644.837	37164
644.896	71310
644.955	149290
645.014	48995
645.073	17555
645.132	15105
645.191	15405
645.250	14103
645.309	14876
645.368	14710
645.427	18275
645.486	22879
645.545	34025
645.604	16217
645.663	13641
645.722	14789
645.781	13984
645.840	16916
645.898	18651
645.957	25298
646.016	33608
646.075	59038
646.134	108498
646.192	286919
646.251	383918
646.310	56123
646.369	20742
646.427	18457
646.486	14041
646.545	14804
646.603	12532
646.662	12901
646.721	12529
646.779	12679
646.838	12102
646.896	15990
646.955	16951
647.014	24150
647.072	40518
647.131	97713
647.189	44649
647.248	13454
647.306	12517
647.365	11945
647.423	10039
647.481	13017
647.540	11059
647.598	11831
647.657	10142
647.715	11381
647.773	9567
647.832	11414
647.890	8724
647.948	10312
648.007	10372
648.065	9721
648.123	9990
648.181	12603
648.240	10227
648.298	8980
648.356	9131
648.414	10750
648.472	10366
648.531	10572
648.589	9927
648.647	9046
648.705	9368
648.763	10024
648.821	9085
648.879	9786
648.937	11574
648.995	12974
649.053	14147
649.111	20072
649.169	29538
649.227	47545
649.285	94729
649.343	254879
649.401	115887
649.459	46803
649.516	28155
649.574	12968
649.632	14909
649.690	15387
649.748	15467
649.806	18153
649.863	29794
649.921	70814
649.979	42409
650.037	12161
650.094	8218
650.152	10646
650.210	8339
650.268	8949
650.325	9014
650.383	8390
650.440	6731
650.498	8978
650.556	8002
650.613	8459
650.671	7749
650.728	7516
650.786	8507
650.843	9245
650.901	7285
650.958	8704
651.016	7072
651.073	8160
651.131	6832
651.188	7533
651.246	7877
651.303	6729
651.360	8203
651.418	7611
651.475	8061
651.532	6827
651.590	7539
651.647	6765
651.704	6705
651.762	8316
651.819	7585
651.876	7948
651.933	6818
651.990	8194
652.048	5341
652.105	6530
652.162	7100
652.219	6831
652.276	6854
652.333	7875
652.390	5365
652.448	7625
652.505	7494
652.562	6055
652.619	6149
652.676	7676
652.733	7135
652.790	7152
652.847	6017
652.904	6766
652.961	5257
653.017	6221
653.074	6901
653.131	6997
653.188	5411
653.245	7479
653.302	6620
653.359	7052
653.415	6935
653.472	6824
653.529	7287
653.586	6141
653.642	7205
653.699	7435
653.756	6026
653.813	6766
653.869	5857
653.926	6218
653.983	6077
654.039	7469
654.096	6486
654.152	7611
654.209	5018
654.266	7008
654.322	5592
654.379	7626
654.435	7821
654.492	7952
654.548	10648
654.605	14005
654.661	8695
654.717	7006
654.774	6904
654.830	6232
654.887	5594
654.943	6884
655.000	6832
655.056	7195
655.112	7047
655.168	6432
655.225	5940
655.281	7878
655.337	8397
655.394	10018
655.450	7970
655.506	7772
655.562	8714
655.618	10648
655.675	5202
655.731	6960
655.787	5851
655.843	7212
655.899	6210
655.955	7464
656.011	5832
656.067	5693
656.123	6057
656.179	6896
656.235	6885
656.291	5225
656.347	7014
656.403	6546
656.459	6682
656.515	6895
656.571	6910
656.627	7546
656.683	6821
656.739	7157
656.795	6857
656.850	6986
656.906	7789
656.962	8042
657.018	5950
657.074	7728
657.129	6835
657.185	9647
657.241	13895
657.297	9863
657.352	7822
657.408	6402
657.464	7265
657.519	6946
657.575	5815
657.630	6585
657.686	5740
657.742	4971
657.797	5535
657.853	7324
657.908	7303
657.964	5425
658.019	6408
658.075	5975
658.130	6155
658.186	5571
658.241	5697
658.297	5377
658.352	5858
658.407	6841
658.463	5648
658.518	6342
658.573	5810
658.629	5379
658.684	5389
658.739	6986
658.795	5376
658.850	7464
658.905	5165
658.960	5578
659.016	5683
659.071	5708
659.126	6717
659.181	7624
659.236	13329
659.291	13272
659.346	7603
659.401	7743
659.457	5903
659.512	5872
659.567	6938
659.622	5868
659.677	6224
659.732	6992
659.787	6186
659.842	6405
659.897	7552
659.952	6250
660.007	5902
660.061	7001
660.116	5752
660.171	5704
660.226	6216
660.281	6857
660.336	5182
660.391	6225
660.445	4554
660.500	6665
660.555	6188
660.610	6084
660.664	6248
660.719	5581
660.774	6544
660.828	5547
660.883	6183
660.938	7474
660.992	4849
661.047	7167
661.101	4887
661.156	5988
661.211	4904
661.265	5757
661.320	5375
661.374	7164
661.429	5140
661.483	6461
661.538	5265
661.592	5271
661.647	5610
661.701	6229
661.755	5392
661.810	5658
661.864	4976
661.919	5439
661.973	6369
662.027	6763
662.081	4749
662.136	6442
662.190	6637
662.244	6878
662.299	5518
662.353	6793
662.407	5856
662.461	5126
662.515	5736
662.569	6182
662.624	6106
662.678	6330
662.732	6220
662.786	5551
662.840	5720
662.894	6062
662.948	5810
663.002	5824
663.056	5402
663.110	5497
663.164	5112
663.218	6147
663.272	5777
663.326	6759
663.380	5725
663.434	6887
663.488	5323
663.542	5762
663.595	5519
663.649	6206
663.703	6286
663.757	6432
663.811	5305
663.864	5298
663.918	5793
663.972	5831
664.026	5035
664.079	6010
664.133	5736
664.187	5820
664.240	5065
664.294	5795
664.348	5861
664.401	6057
664.455	5235
664.508	5733
664.562	5131
664.615	6626
664.669	4455
664.722	5383
664.776	4697
664.829	5441
664.883	4867
664.936	5757
664.990	5652
665.043	7124
665.097	5742
665.150	7582
665.203	5590
665.257	5797
665.310	5722
665.363	6375
665.417	6474
665.470	6237
665.523	6288
665.576	5926
665.630	5537
665.683	6674
665.736	6509
665.789	5913
665.842	5337
665.895	6408
665.949	5782
666.002	6214
666.055	5899
666.108	6642
666.161	6228
666.214	6701
666.267	6452
666.320	7772
666.373	6327
666.426	6707
666.479	6299
666.532	6913
666.585	5586
666.638	7415
666.691	5850
666.744	6848
666.796	5783
666.849	7096
666.902	6070
666.955	5582
667.008	5158
667.060	4389
667.113	4886
667.166	5623
667.219	5364
667.271	6338
667.324	5997
667.377	6222
667.430	5803
667.482	6748
667.535	6763
667.587	7275
667.640	6978
667.693	9246
667.745	13198
667.798	12414
667.850	7138
667.903	6490
667.955	5741
668.008	6824
668.060	6625
668.113	7567
668.165	6425
668.218	7345
668.270	6901
668.322	6183
668.375	5576
668.427	6426
668.479	6025
668.532	6176
668.584	6290
668.636	6661
668.689	6304
668.741	5892
668.793	5529
668.845	5681
668.898	5836
668.950	6264
669.002	6549
669.054	6516
669.106	5548
669.158	6554
669.211	4986
669.263	5748
669.315	5680
669.367	6796
669.419	5047
669.471	6984
669.523	5712
669.575	6151
669.627	5725
669.679	5818
669.731	6015
669.783	6136
669.835	6121
669.886	5958
669.938	5105
669.990	6365
670.042	4599
670.094	6279
670.146	5619
670.197	5612
670.249	6347
670.301	6435
670.353	7901
670.404	8692
670.456	8863
670.508	12150
670.560	16900
670.611	25600
670.663	40857
670.715	100264
670.766	142308
670.818	36008
670.869	9781
670.921	8237
670.972	6998
671.024	6935
671.075	6060
671.127	5920
671.178	5514
671.230	6796
671.281	5953
671.333	7011
671.384	6159
671.436	7640
671.487	8210
671.538	9765
671.590	12457
671.641	18067
671.692	28435
671.744	51671
671.795	28902
671.846	11784
671.897	7617
671.949	7419
672.000	7028
672.051	7059
672.102	7145
672.153	6166
672.204	6030
672.256	6256
672.307	6242
672.358	6706
672.409	6550
672.460	6551
672.511	5764
672.562	5495
672.613	5658
672.664	6026
672.715	5660
672.766	6501
672.817	5553
672.868	5454
672.919	5360
672.970	5639
673.021	4903
673.071	5239
673.122	5061
673.173	5356
673.224	5175
673.275	5726
673.326	4914
673.376	5233
673.427	4511
673.478	5308
673.528	5727
673.579	5469
673.630	4947
673.680	5989
673.731	4942
673.782	5062
673.832	4586
673.883	6097
673.934	4926
673.984	5186
674.035	4514
674.085	5512
674.136	5858
674.186	7001
674.237	6067
674.287	7679
674.338	5615
674.388	5369
674.438	4685
674.489	6188
674.539	4754
674.589	6490
674.640	5569
674.690	5040
674.740	5594
674.791	5908
674.841	5716
674.891	6505
674.942	5614
674.992	6171
675.042	3957
675.092	4872
675.142	4926
675.193	5004
675.243	4671
675.293	5977
675.343	4838
675.393	5765
675.443	5451
675.493	5388
675.543	4627
675.593	5087
675.643	5186
675.693	5681
675.743	5194
675.793	5302
675.843	4963
675.893	5027
675.943	4435
675.993	4641
676.043	4745
676.093	4797
676.142	4435
676.192	4980
676.242	4298
676.292	4443
676.341	3992
676.391	4745
676.441	4149
676.491	5310
676.540	3867
676.590	4992
676.640	4177
676.689	4510
676.739	3329
676.789	4974
676.838	4048
676.888	4348
676.937	4325
676.987	3991
677.037	4280
677.086	4666
677.136	3801
677.185	4642
677.235	3341
677.284	4391
677.333	3872
677.383	3826
677.432	3993
677.482	4529
677.531	4113
677.580	4150
677.630	3713
677.679	4671
677.728	3156
677.778	4391
677.827	3752
677.876	3959
677.925	3019
677.975	3855
678.024	3872
678.073	5117
678.122	5031
678.171	4703
678.220	3755
678.269	6052
678.319	4524
678.368	4848
678.417	4561
678.466	4653
678.515	5395
678.564	5427
678.613	4094
678.662	5069
678.711	4153
678.760	4676
678.809	3827
678.857	4992
678.906	3530
678.955	4861
679.004	3839
679.053	4501
679.102	4530
679.151	4570
679.199	3387
679.248	4451
679.297	4329
679.346	4215
679.394	3584
679.443	4039
679.492	3256
679.540	4553
679.589	4522
679.638	5182
679.686	4960
679.735	4164
679.784	4619
679.832	4390
679.881	3319
679.929	3871
679.978	3509
680.026	4020
680.075	3216
680.123	3925
680.172	3876
680.220	3381
680.268	3297
680.317	3855
680.365	3170
680.414	4008
680.462	3676
680.510	4438
680.559	3592
680.607	3059
680.655	4062
680.703	4158
680.752	2642
680.800	4078
680.848	3220
680.896	3638
680.945	2944
680.993	3430
681.041	3564
681.089	4089
681.137	2924
681.185	3696
681.233	3259
681.258	3414
681.281	3527
681.329	2619
681.377	3929
681.380	3989
681.425	4460
681.473	4429
681.502	4485
681.521	4463
681.569	3989
681.617	3180
681.624	3454
681.665	4985
681.713	3835
681.745	4182
681.761	4291
681.809	4008
681.857	4512
681.867	4429
681.904	4025
681.952	4568
681.989	4450
682.000	4372
682.048	5075
682.096	4152
682.111	4273
682.143	4426
682.191	4819
682.233	5695
682.239	5791
682.286	5437
682.334	5251
682.354	4991
682.382	4559
682.430	5175
682.476	4680
682.477	4640
682.525	5430
682.572	4131
682.598	4839
682.620	5398
682.667	4335
682.715	6586
682.720	6530
682.763	5718
682.810	6507
682.841	5610
682.857	5085
682.905	5471
682.952	6362
682.963	6195
683.000	5520
683.047	5478
683.085	6138
683.095	6266
683.142	5963
683.190	5975
683.206	5930
683.237	5833
683.284	7080
683.328	5619
683.332	5462
683.379	6906
683.426	5753
683.449	6219
683.473	6691
683.521	5611
683.568	6497
683.571	6540
683.615	6692
683.662	6824
683.693	6435
683.709	6229
683.757	6366
683.804	6996
683.814	7073
683.851	7203
683.898	7403
683.936	7698
683.945	7753
683.992	7248
684.039	7949
684.057	7857
684.086	7630
684.133	7917
684.179	8071
684.180	8047
684.227	8256
684.274	7751
684.300	7998
684.321	8162
684.368	7936
684.415	8039
684.422	7961
684.462	7418
684.509	7443
684.543	7494
684.556	7460
684.603	8064
684.649	7572
684.665	7770
684.696	8252
684.743	7339
684.786	8998
684.790	9109
684.837	7981
684.883	8914
684.908	8789
684.930	8737
684.977	9322
685.023	9067
685.029	9113
685.070	9048
685.117	9166
685.150	9022
685.164	9031
685.210	9142
685.257	10168
685.272	9988
685.303	9470
685.350	9794
685.393	9683
685.396	9688
685.443	10424
685.490	11235
685.514	11465
685.536	11253
685.583	10759
685.629	10597
685.636	10437
685.675	9818
685.722	10863
685.757	10733
685.768	10614
685.815	10948
685.861	9981
685.878	9957
685.908	10055
685.954	10191
686.000	11420
686.000	11432
686.047	10817
686.093	11017
686.121	11024
686.139	10906
686.185	11292
686.232	10596
686.242	10570
686.278	10597
686.324	10962
686.363	10831
686.370	10788
686.416	10460
686.463	10953
686.484	10560
686.509	10052
686.555	10233
686.601	10293
686.606	10303
686.647	10809
686.693	10841
686.727	11157
686.739	11132
686.785	10543
686.831	11143
686.848	10922
686.877	10630
686.923	10599
686.969	10626
686.969	10625
687.015	11344
687.061	11392
687.090	11481
687.107	11401
687.153	11117
687.199	10977
687.211	10895
687.245	10861
687.291	11349
687.332	11495
687.336	11514
687.382	11968
687.428	11427
687.453	11824
687.474	12039
687.520	11896
687.565	12349
687.574	12186
687.611	11541
687.657	11535
687.695	11543
687.702	11581
687.748	11803
687.794	11786
687.816	11945
687.839	11959
687.885	11569
687.931	11591
687.937	11490
687.976	11369
688.022	12197
688.058	12273
688.067	12232
688.113	12383
688.158	11897
688.179	11940
688.204	12012
688.249	12410
688.295	12099
688.300	12143
688.340	12783
688.386	13677
688.421	13221
688.431	13038
688.477	13262
688.522	13352
688.542	13466
688.567	13662
688.613	13528
688.658	13286
688.663	13326
688.703	13562
688.749	13589
688.784	12936
688.794	12821
688.839	13416
688.884	13217
688.905	13489
688.930	13700
688.975	12964
689.020	12873
689.026	12859
689.065	13114
689.110	13599
689.146	13180
689.155	13038
689.201	12939
689.246	12576
689.267	12919
689.291	13472
689.336	13445
689.381	14160
689.388	14085
689.426	13514
689.471	13633
689.509	13059
689.516	13023
689.561	13837
689.606	13926
689.630	14024
689.651	13973
689.696	13875
689.741	13971
689.750	13910
689.785	13930
689.830	13775
689.871	13825
689.875	13828
689.920	13838
689.965	13477
689.992	13293
690.010	13369
690.054	14182
690.099	14439
690.112	14479
690.144	14351
690.189	14401
690.233	13363
690.233	13377
690.278	14125
690.323	13851
690.354	13857
690.367	13986
690.412	14234
690.457	14650
690.474	14711
690.501	14592
690.546	14799
690.590	14031
690.595	14005
690.635	14396
690.680	14256
690.716	14778
690.724	14873
690.769	14829
690.813	15400
690.836	15117
690.857	14989
690.902	15607
690.946	15449
690.957	15567
690.991	16808
691.035	17930
691.077	19350
691.080	19368
691.124	18246
691.168	17910
691.198	17628
691.213	17511
691.257	17111
691.301	15966
691.318	15909
691.346	16154
691.390	15424
691.434	15537
691.439	15494
691.478	15719
691.522	16661
691.559	16106
691.567	16032
691.611	17014
691.655	16904
691.680	16948
691.699	16874
691.743	16901
691.787	16825
691.800	16787
691.831	16835
691.875	16606
691.919	16680
691.921	16652
691.964	16877
692.008	16864
692.041	17178
692.052	17301
692.096	16904
692.139	16970
692.162	17061
692.183	17127
692.227	17248
692.271	16918
692.282	16971
692.315	17235
692.359	16730
692.402	16986
692.403	17022
692.447	16938
692.490	17340
692.523	17648
692.534	17729
692.578	17694
692.622	17497
692.643	17531
692.666	17530
692.709	17103
692.753	17008
692.763	16926
692.797	17051
692.840	17265
692.884	17502
692.884	17537
692.928	17652
692.971	17631
693.004	17840
693.015	17945
693.059	17789
693.102	18023
693.124	17928
693.146	17826
693.189	18020
693.233	17713
693.245	17705
693.276	17971
693.320	18060
693.363	18193
693.365	18156
693.407	18351
693.450	18718
693.485	18883
693.493	18898
693.537	18810
693.580	18991
693.605	18962
693.624	19476
693.667	20406
693.710	21471
693.725	21778
693.753	23181
693.797	25663
693.840	27982
693.845	28195
693.883	27061
693.926	25360
693.966	24303
693.970	24211
694.013	22127
694.056	20404
694.086	19218
694.099	19255
694.142	19229
694.185	19304
694.206	19251
694.229	19304
694.272	18964
694.315	19281
694.326	19163
694.358	19845
694.401	21077
694.444	22282
694.446	22296
694.487	22198
694.530	21738
694.566	21570
694.573	21452
694.616	19977
694.659	18919
694.686	18150
694.702	18206
694.745	18424
694.787	18340
694.806	18318
694.830	18517
694.873	18740
694.916	19141
694.926	19113
694.959	19198
695.002	19613
695.044	19570
695.046	19544
695.087	20023
695.130	20319
695.166	20539
695.172	20585
695.215	20133
695.258	20234
695.286	20063
695.301	20053
695.343	19995
695.386	19858
695.406	19863
695.428	19847
695.471	19374
695.514	19011
695.526	18887
695.556	19391
695.599	20315
695.641	20683
695.646	20711
695.684	20529
695.726	19986
695.766	19847
695.769	19905
695.811	19763
695.854	19755
695.886	19701
695.896	19751
695.938	19703
695.981	19462
696.005	19471
696.023	19785
696.065	20205
696.108	20689
696.125	20833
696.150	20609
696.192	20337
696.235	19800
696.245	19691
696.277	20136
696.319	20346
696.361	20736
696.365	20710
696.404	20646
696.446	20593
696.485	20494
696.488	20569
696.530	20989
696.572	21034
696.604	21302
696.614	21277
696.656	20774
696.698	20389
696.724	20043
696.740	20133
696.783	20313
696.825	20431
696.844	20442
696.867	20669
696.909	20866
696.951	21257
696.964	21303
696.992	21368
697.034	21449
697.076	21418
697.083	21376
697.118	21305
697.160	21000
697.202	20882
697.203	20824
697.244	20874
697.286	20926
697.323	20799
697.327	20851
697.369	20935
697.411	21001
697.442	21021
697.453	21194
697.494	21603
697.536	22089
697.562	22287
697.578	22213
697.620	21952
697.661	21594
697.682	21418
697.703	22201
697.744	23578
697.786	25036
697.801	25450
697.828	25212
697.869	24874
697.911	24355
697.921	24205
697.952	23728
697.994	22907
698.035	22199
698.040	22047
698.077	21868
698.118	21622
698.160	21340
698.160	21282
698.201	21614
698.243	21780
698.279	21938
698.284	22009
698.325	22135
698.367	22243
698.399	22237
698.408	22238
698.449	22050
698.491	21804
698.518	21580
698.532	21704
698.573	21927
698.614	22164
698.638	22218
698.656	22418
698.697	22781
698.738	23118
698.757	23238
698.779	23228
698.820	23062
698.862	22898
698.877	22774
698.903	23013
698.944	23320
698.985	23612
698.996	23634
699.026	23598
699.067	23457
699.116	23230
699.235	22685
699.354	23525
699.474	22425
699.593	23285
699.713	22666
699.832	22819
699.951	24163
700.070	23506
700.190	23069
700.309	22103
700.428	22416
700.547	22060
700.667	22562
700.786	22787
700.905	23259
701.024	22385
701.143	21857
701.262	21342
701.381	20898
701.500	22418
701.619	24987
701.738	20805
701.857	20438
701.976	20814
702.095	21195
702.214	23378
702.333	23611
702.452	22622
702.571	20522
702.690	20634
702.809	20610
702.928	20936
703.047	20516
703.165	20995
703.284	19533
703.403	20241
703.522	21759
703.640	20689
703.759	22298
703.878	23489
703.997	19937
704.115	20723
704.234	20357
704.353	19081
704.471	19422
704.590	18655
704.708	19248
704.827	18556
704.946	19171
705.064	18937
705.183	19260
705.301	20475
705.420	25484
705.538	22936
705.656	22122
705.775	20573
705.893	22809
706.012	23579
706.130	21870
706.249	21770
706.367	21925
706.485	22320
706.604	21712
706.722	22515
706.840	24526
706.958	22936
707.077	21913
707.195	20854
707.313	20957
707.431	20928
707.549	20844
707.668	19613
707.786	20936
707.904	19898
708.022	19279
708.140	19708
708.258	20475
708.376	20789
708.494	19807
708.612	20949
708.730	26503
708.848	24321
708.966	24810
709.084	23558
709.202	22630
709.320	22556
709.438	22924
709.556	23002
709.674	22888
709.791	21452
709.909	21351
710.027	22049
710.145	21052
710.263	21902
710.380	20380
710.498	20804
710.616	21346
710.733	21590
710.851	20069
710.969	21752
711.086	20141
711.204	20934
711.322	20718
711.439	21014
711.557	20291
711.674	20125
711.792	20373
711.909	19778
712.027	19814
712.144	19274
712.262	19998
712.379	21468
712.497	26617
712.614	25805
712.732	22998
712.849	23489
712.966	24955
713.084	29382
713.201	23544
713.318	23866
713.436	23921
713.553	22630
713.670	23637
713.787	24755
713.905	23186
714.022	22193
714.139	23471
714.256	24927
714.373	28497
714.490	37995
714.608	76569
714.725	283035
714.842	241626
714.959	31600
715.076	24557
715.193	22911
715.310	21968
715.427	20618
715.544	21712
715.661	20784
715.778	20891
715.895	22637
716.011	21173
716.128	20954
716.245	21991
716.362	25520
716.479	25098
716.596	19942
716.713	20902
716.829	19675
716.946	20310
717.063	19388
717.180	19208
717.296	18978
717.413	19665
717.530	19661
717.646	19158
717.763	19129
717.880	19304
717.996	18401
718.113	19041
718.229	19106
718.346	18211
718.462	19555
718.579	25375
718.695	40711
718.812	24386
718.928	20919
719.045	18332
719.161	17889
719.277	17868
719.394	17503
719.510	18518
719.626	18460
719.743	21177
719.859	22756
719.975	31605
720.092	89949
720.208	159818
720.324	28096
720.440	19351
720.557	21653
720.673	31022
720.789	29248
720.905	36074
721.021	20390
721.137	17155
721.253	16860
721.369	16255
721.486	18462
721.602	19225
721.718	16527
721.834	15893
721.950	16857
722.066	16227
722.181	15378
722.297	17336
722.413	16692
722.529	16005
722.645	15596
722.761	14782
722.877	15233
722.993	15564
723.108	16555
723.224	16008
723.340	14235
723.456	14835
723.571	16310
723.687	14999
723.803	15510
723.918	15635
724.034	15845
724.150	15143
724.265	14974
724.381	21721
724.497	20506
724.612	14294
724.728	14721
724.843	13647
724.959	15001
725.074	19799
725.190	20442
725.305	14392
725.421	14392
725.536	14036
725.651	14097
725.767	13427
725.882	13701
725.997	13982
726.113	14924
726.228	13874
726.343	12835
726.459	13113
726.574	14008
726.689	13361
726.804	12433
726.920	13502
727.035	12937
727.150	12278
727.265	13394
727.380	13135
727.495	13287
727.610	12832
727.725	12671
727.841	12201
727.956	12747
728.071	13968
728.186	12049
728.301	11999
728.416	14165
728.531	13253
728.645	11591
728.760	13169
728.875	13635
728.990	12035
729.105	12834
729.220	14070
729.335	13840
729.449	12810
729.564	11768
729.679	11349
729.794	11946
729.908	11800
730.023	12497
730.138	11238
730.253	12124
730.367	11650
730.482	12083
730.596	12579
730.711	12352
730.826	12632
730.940	11493
731.055	12846
731.169	11842
731.284	11682
731.398	12256
731.513	12014
731.627	11621
731.742	12365
731.856	13525
731.970	12960
732.085	13190
732.199	13825
732.313	18162
732.428	35588
732.542	98940
732.656	52654
732.771	14052
732.885	13607
732.999	12757
733.113	12819
733.227	13116
733.342	12133
733.456	11942
733.570	11824
733.684	11912
733.798	12159
733.912	11944
734.026	11630
734.140	11625
734.254	12985
734.368	14963
734.482	14439
734.596	11317
734.710	11394
734.824	11652
734.938	11348
735.052	12457
735.166	12598
735.280	12442
735.393	11553
735.507	11655
735.621	13511
735.735	15059
735.849	11578
735.962	10951
736.076	11772
736.190	11123
736.303	13161
736.417	13224
736.531	10822
736.644	10742
736.758	9553
736.872	9507
736.985	10796
737.099	10466
737.212	10229
737.326	10497
737.439	10655
737.553	11407
737.666	10480
737.780	9750
737.893	9874
738.007	9949
738.120	10099
738.233	10592
738.347	9451
738.460	10902
738.573	12253
738.687	10861
738.800	12808
738.913	14368
739.026	10563
739.140	9765
739.253	9777
739.366	9837
739.479	10062
739.592	9913
739.705	9602
739.818	9403
739.932	9769
740.045	9590
740.158	10399
740.271	9963
740.384	9833
740.497	9679
740.610	10371
740.723	9756
740.836	10324
740.949	10949
741.062	14897
741.174	12020
741.287	8914
741.400	9691
741.513	9596
741.626	9367
741.739	9063
741.851	10264
741.964	8573
742.077	9034
742.189	9221
742.302	9731
742.415	9740
742.527	9052
742.640	8828
742.753	9166
742.865	8691
742.978	8992
743.090	9280
743.203	9595
743.316	9439
743.428	8996
743.541	8923
743.653	9794
743.766	8985
743.878	8436
743.990	10332
744.103	10531
744.215	9980
744.327	9260
744.440	11822
744.552	16727
744.664	10207
744.777	8686
744.889	8538
745.001	9103
745.113	8005
745.226	8062
745.338	9121
745.450	8698
745.562	8460
745.674	8798
745.786	8655
745.898	8244
746.010	8452
746.122	8567
746.234	8455
746.347	8321
746.459	8994
746.570	8080
746.682	8638
746.794	9182
746.906	8321
747.018	8381
747.130	8505
747.242	7510
747.354	8315
747.466	8844
747.577	8125
747.689	8368
747.801	8218
747.913	7617
748.024	7510
748.136	7671
748.248	8035
748.359	7558
748.471	7798
748.583	7964
748.694	8157
748.806	7919
748.918	8529
749.029	8827
749.141	9483
749.252	9238
749.364	10513
749.475	19297
749.587	11171
749.698	8333
749.809	8310
749.921	7557
750.032	6933
750.144	7517
750.255	6904
750.366	7426
750.478	8840
750.589	7977
750.700	7920
750.811	8140
750.923	10749
751.034	21631
751.145	18341
751.256	7811
751.367	8211
751.479	6576
751.590	7414
751.701	6551
751.812	6508
751.923	7352
752.034	7285
752.145	7214
752.256	7041
752.367	7130
752.478	6390
752.589	7671
752.700	6833
752.811	6749
752.922	7383
753.032	8063
753.143	8114
753.254	7100
753.365	8240
753.476	6183
753.586	6417
753.697	6184
753.808	7040
753.919	6613
754.029	6349
754.140	6658
754.251	7132
754.361	7266
754.472	6436
754.582	7496
754.693	7827
754.804	7117
754.914	7050
755.025	6392
755.135	6899
755.246	7253
755.356	6710
755.466	6628
755.577	6603
755.687	5907
755.798	6785
755.908	7025
756.018	7175
756.129	6964
756.239	6869
756.349	7124
756.460	6239
756.570	7030
756.680	6961
756.790	7431
756.900	7558
757.011	6720
757.121	6759
757.231	6559
757.341	7084
757.451	5797
757.561	5160
757.671	5821
757.781	6324
757.891	7911
758.001	6696
758.111	6583
758.221	7643
758.331	7982
758.441	8580
758.551	11015
758.661	8708
758.771	7447
758.880	6861
758.990	6681
759.100	6615
759.210	6940
759.320	6428
759.429	6149
759.539	6624
759.649	6931
759.758	7110
759.868	8146
759.978	7151
760.087	7213
760.197	7189
760.307	6987
760.416	6793
760.526	6423
760.635	7678
760.745	5810
760.854	7251
760.964	7410
761.073	7958
761.182	7169
761.292	7234
761.401	7217
761.511	6228
761.620	6667
761.729	6859
761.839	6220
761.948	8120
762.057	6629
762.166	6427
762.276	5230
762.385	8534
762.494	5855
762.603	5825
762.712	6892
762.822	6230
762.931	6814
763.040	6305
763.149	6265
763.258	7498
763.367	6658
763.476	7184
763.585	7626
763.694	6420
763.803	6891
763.912	7457
764.021	7099
764.130	6946
764.238	6638
764.347	6813
764.456	6912
764.565	7155
764.674	7476
764.783	8033
764.891	6748
765.000	8123
765.109	8396
765.217	8005
765.326	8957
765.435	10183
765.543	10689
765.652	11104
765.761	12997
765.869	18135
765.978	25232
766.086	44836
766.195	84425
766.303	225493
766.412	603057
766.520	471695
766.629	120187
766.737	47576
766.846	27750
766.954	20861
767.062	17401
767.171	14195
767.279	11963
767.387	10337
767.496	9883
767.604	10377
767.712	8810
767.820	8985
767.928	9800
768.037	8037
768.145	8500
768.253	8480
768.361	7960
768.469	8205
768.577	7778
768.685	8857
768.793	8133
768.901	7880
769.009	9050
769.117	9341
769.225	10797
769.333	13762
769.441	20743
769.549	35945
769.657	81570
769.765	262826
769.873	500040
769.981	160086
770.088	38135
770.196	21442
770.304	15361
770.412	13813
770.519	10619
770.627	9474
770.735	9289
770.842	8505
770.950	7892
771.058	8221
771.165	8812
771.273	8174
771.380	7553
771.488	7822
771.595	8099
771.703	7432
771.810	7526
771.918	7492
772.025	7276
772.133	7433
772.240	8275
772.348	9148
772.455	8485
772.562	7426
772.670	7173
772.777	8194
772.884	7697
772.991	8165
773.099	7966
773.206	7620
773.313	7440
773.420	7812
773.528	6141
773.635	7084
773.742	7436
773.849	7148
773.956	7375
774.063	7239
774.170	6582
774.277	7185
774.384	6150
774.491	6717
774.598	7513
774.705	7526
774.812	9158
774.919	7565
775.026	7667
775.133	7269
775.239	6381
775.346	7320
775.453	6512
775.560	6859
775.667	7291
775.773	6260
775.880	7833
775.987	6618
776.093	7716
776.200	6519
776.307	5535
776.413	7149
776.520	6812
776.627	6834
776.733	6375
776.840	5063
776.946	8250
777.053	7550
777.159	8335
777.266	5502
777.372	8169
777.478	6919
777.585	6842
777.691	6539
777.798	6601
777.904	7216
778.010	10241
778.117	8076
778.223	6984
778.329	6451
778.435	6192
778.542	6126
778.648	6097
778.754	6445
778.860	6103
778.966	6693
779.072	5928
779.178	5735
779.284	6266
779.391	5021
779.497	4866
779.603	7278
779.708	5145
779.815	7070
779.920	9864
780.026	14572
780.132	7026
780.238	5518
780.344	6116
780.450	6429
780.556	5424
780.661	6012
780.767	6128
780.873	5874
780.979	6478
781.085	5235
781.190	5269
781.296	5468
781.402	5095
781.507	5074
781.613	5431
781.719	6111
781.824	5339
781.930	5956
782.035	4950
782.141	5116
782.246	4798
782.352	5151
782.457	4818
782.563	4722
782.668	4900
782.773	5503
782.879	5322
782.984	6310
783.090	6871
783.195	9930
783.300	6628
783.405	4651
783.511	5367
783.616	5320
783.721	5090
783.826	4547
783.932	6667
784.037	5724
784.142	5239
784.247	4675
784.352	5047
784.457	4767
784.562	5222
784.667	5017
784.772	4588
784.877	5126
784.982	5245
785.087	4635
785.192	5246
785.297	5082
785.402	4634
785.507	5150
785.611	4702
785.716	5680
785.821	5297
785.926	4586
786.031	4393
786.135	5942
786.240	4911
786.345	3920
786.450	5444
786.554	5416
786.659	3617
786.763	3962
786.868	4553
786.973	6300
787.077	4653
787.182	4676
787.286	4830
787.391	4703
787.495	4686
787.600	4739
787.704	3611
787.809	4784
787.913	4712
788.017	4756
788.122	4809
788.226	4294
788.330	3985
788.435	4601
788.539	4815
788.643	4627
788.747	4388
788.852	4651
788.956	5057
789.060	5054
789.164	3463
789.268	3255
789.372	4959
789.476	4713
789.580	3820
789.684	3094
789.788	4538
789.892	3739
789.996	4836
790.100	4318
790.204	4077
790.308	4739
790.412	3923
790.516	4266
790.620	4225
790.724	4470
790.828	4197
790.931	3230
791.035	5587
791.139	4294
791.242	3308
791.346	5026
791.450	3932
791.554	3926
791.657	2317
791.761	5196
791.864	4625
791.968	3893
792.072	3911
792.175	4829
792.279	3894
792.382	4266
792.486	4764
792.589	3867
792.693	4017
792.796	3467
792.899	4544
793.003	5193
793.106	2315
793.209	3911
793.313	5423
793.416	2239
793.519	5514
793.623	8355
793.726	8854
793.829	4246
793.932	4365
794.035	4142
794.138	4837
794.242	4422
794.345	3801
794.448	5592
794.551	7589
794.654	8515
794.757	8589
794.860	4381
794.963	4169
795.066	3347
795.169	4791
795.272	3824
795.375	3850
795.477	3479
795.580	4684
795.683	3506
795.786	3903
795.889	3026
795.991	4371
796.094	4474
796.197	2542
796.300	5192
796.402	3183
796.505	2627
796.608	3991
796.710	4023
796.813	4033
796.915	2490
797.018	4787
797.120	4118
797.223	2596
797.326	4770
797.428	2282
797.530	3909
797.633	3473
797.735	5336
797.838	4802
797.940	5278
798.042	2936
798.145	4176
798.247	4825
798.349	1757
798.452	4178
798.554	3543
798.656	2007
798.758	4545
798.860	2877
798.962	3592
799.065	3840
799.167	2495
799.269	3700
799.371	4265
799.473	4134
799.575	3213
799.677	3338
799.779	6159
799.881	6669
799.983	5188
800.085	3881
800.187	3479
800.289	2066
800.390	2424
800.492	2983
800.594	3801
800.696	3190
800.798	2960
800.899	3470
801.001	2549
801.103	2780
801.205	3125
801.306	2753
801.408	2424
801.509	3100
801.611	3361
801.713	3557
801.814	2489
801.916	3045
802.017	3797
802.119	2276
802.220	3426
802.322	2246
802.423	5004
802.525	1856
802.626	3303
802.727	3672
802.829	4519
802.930	1072
803.031	3815
803.133	2805
803.234	3181
803.335	3686
803.436	1881
803.538	2774
803.639	2102
803.740	3719
803.841	2682
803.942	3787
804.043	3849
804.144	2690
804.245	3056
804.346	2297
804.447	3255
804.548	5293
804.649	6584
804.750	2960
804.851	2931
804.952	2196
805.053	2843
805.154	1779
805.255	4171
805.355	2664
805.456	2181
805.557	1797
805.658	2238
805.758	2907
805.859	2658
805.960	2856
806.061	2694
806.161	2705
806.262	3130
806.362	2594
806.463	2743
806.564	2728
806.664	3483
806.765	2711
806.865	3503
806.966	2725
807.066	2676
807.166	3706
807.267	3245
807.367	1692
807.468	2571
807.568	895
807.668	3890
807.769	3428
807.869	1632
807.969	2492
808.069	2323
808.170	2238
808.270	2213
808.370	3343
808.470	4954
808.570	2204
808.670	2020
808.770	2400
808.870	2339
808.970	2546
809.070	2033
809.170	1686
809.271	2857
809.370	2709
809.470	3082
809.570	2094
809.670	1411
809.770	2404
809.870	3102
809.970	1987
810.070	2969
810.169	2774
810.269	1097
810.369	3898
810.469	3035
810.568	2038
810.668	1796
810.768	1847
810.867	1781
810.967	1850
811.066	2509
811.166	2260
811.265	3087
811.365	1793
811.464	2121
811.564	3146
811.663	2950
811.763	1349
811.862	1820
811.962	2602
812.061	2456
812.160	832
812.260	2789
812.359	1994
812.458	1650
812.557	2883
812.657	2215
812.756	2491
812.855	2656
812.954	2130
813.053	3177
813.153	2310
813.252	1642
813.351	2823
813.450	2765
813.549	1582
813.648	2195
813.747	2539
813.846	2679
813.945	2078
814.044	1722
814.143	2866
814.242	2693
814.341	1806
814.439	3127
814.538	3270
814.637	2040
814.736	2480
814.835	2689
814.933	1695
815.032	3081
815.131	2201
815.229	3154
815.328	2992
815.427	2504
815.525	3734
815.624	2955
815.722	2194
815.821	3656
815.919	3028
816.018	2251
816.116	4603
816.215	2901
816.313	3117
816.412	2613
816.510	3448
816.609	4801
816.707	3701
816.805	2776
816.904	2717
817.002	2963
817.100	3943
817.198	3901
817.296	2536
817.395	3269
817.493	3743
817.591	2783
817.689	3268
817.787	3133
817.885	4292
817.983	4652
818.081	10161
818.179	22035
818.277	58813
818.375	38801
818.473	8032
818.571	4916
818.669	5007
818.767	4854
818.865	3794
818.963	5186
819.061	5464
819.158	9074
819.256	18883
819.354	44244
819.452	109445
819.549	48300
819.647	10312
819.745	5543
819.842	5239
819.940	4670
820.038	3589
820.135	3112
820.233	3750
820.330	3083
820.428	2729
820.525	4964
820.623	2839
820.720	2601
820.818	2832
820.915	3450
821.012	2652
821.110	1273
821.207	3516
821.304	2466
821.402	3191
821.499	3622
821.596	4075
821.693	2751
821.791	3148
821.888	5344
821.985	10543
822.082	6538
822.179	3458
822.276	3305
822.373	2862
822.470	1926
822.567	3261
822.664	1844
822.761	3080
822.858	2342
822.955	2660
823.052	2433
823.149	2469
823.246	2897
823.343	1860
823.440	3118
823.536	2514
823.633	2594
823.730	2549
823.827	2840
823.923	1800
824.020	3195
824.117	1978
824.213	1930
824.310	2238
824.407	2342
824.503	2754
824.600	2980
824.696	2972
824.793	3806
824.889	1982
824.986	1927
825.082	1038
825.179	2999
825.275	2509
825.371	2377
825.468	3431
825.564	1953
825.660	2867
825.757	2502
825.853	2569
825.949	1408
826.045	1822
826.142	1382
826.238	2014
826.334	2230
826.430	1695
826.526	3058
826.622	2010
826.718	2878
826.814	1344
826.910	2542
827.006	960
827.102	1157
827.198	2916
827.294	2079
827.390	2238
827.486	2057
827.582	640
827.678	804
827.774	2558
827.869	1913
827.965	2682
828.061	1563
828.157	2076
828.252	2185
828.348	1366
828.444	2154
828.539	1739
828.635	2554
828.731	2374
828.826	813
828.922	1432
829.017	2256
829.113	3072
829.208	1381
829.304	1888
829.399	2737
829.495	1577
829.590	2577
829.685	1523
829.781	1748
829.876	1623
829.971	1081
830.066	722
830.162	1487
830.257	1945
830.352	1965
830.447	2877
830.543	2336
830.638	556
830.733	2504
830.828	1502
830.923	2682
831.018	2300
831.113	1794
831.208	1243
831.303	1929
831.398	1912
831.493	1653
831.588	2192
831.683	1551
831.778	2710
831.873	1803
831.967	2656
832.062	1520
832.157	1340
832.252	2894
832.346	2570
832.441	3349
832.536	5616
832.631	11015
832.725	7559
832.820	2219
832.914	2442
833.009	1546
833.104	2862
833.198	3028
833.293	1903
833.387	2223
833.482	1932
833.576	1072
833.670	2711
833.765	1967
833.859	2299
833.954	3319
834.048	1633
834.142	2946
834.237	1447
834.331	1488
834.425	1720
834.519	1575
834.613	2110
834.708	1167
834.802	1492
834.896	1357
834.990	1939
835.084	1593
835.178	1385
835.272	1598
835.366	1999
835.460	2087
835.554	2120
835.648	1501
835.742	646
835.836	1751
835.930	539
836.024	1426
836.117	2766
836.211	1969
836.305	2320
836.399	3217
836.493	1224
836.586	3190
836.680	614
836.774	1259
836.867	2767
836.961	495
837.055	1524
837.148	1169
837.242	1324
837.335	843
837.429	1416
837.522	1522
837.616	2190
837.709	3666
837.803	2043
837.896	2855
837.989	1766
838.083	3164
838.176	3417
838.269	1714
838.363	2342
838.456	2281
838.549	3969
838.642	6322
838.735	12223
838.829	5653
838.922	1249
839.015	2063
839.108	669
839.201	1920
839.294	2279
839.387	2111
839.480	1361
839.573	2014
839.666	2045
839.759	1284
839.852	1005
839.945	2817
840.038	468
840.131	1539
840.223	1560
840.316	1752
840.409	830
840.502	504
840.594	2083
840.687	792
840.780	1962
840.873	906
840.965	1953
841.058	2920
841.150	3068
841.243	1653
841.336	1320
841.428	1844
841.521	711
841.613	1209
841.706	1470
841.798	991
841.890	1241
841.983	528
842.075	2378
842.167	1390
842.260	1479
842.352	3162
842.444	2269
842.537	4100
842.629	3573
842.721	1166
842.813	1772
842.905	499
842.997	1641
843.090	1560
843.182	3268
843.274	4354
843.366	7882
843.458	10356
843.550	6444
843.642	2317
843.734	1910
843.826	1616
843.918	2704
844.009	2018
844.101	1167
844.193	1301
844.285	499
844.377	1756
844.469	1849
844.560	1615
844.652	1601
844.744	1457
844.835	1142
844.927	1730
845.019	1671
845.110	1556
845.202	1203
845.293	1189
845.385	416
845.476	1848
845.568	1718
845.659	1013
845.751	2022
845.842	1678
845.934	1303
846.025	682
846.116	1909
846.208	1377
846.299	1487
846.390	2007
846.482	1536
846.573	2532
846.664	2917
846.755	4500
846.846	3963
846.937	771
847.029	616
847.120	362
847.211	833
847.302	2226
847.393	258
847.484	1891
847.575	961
847.666	1233
847.757	1112
847.847	1462
847.938	2294
848.029	864
848.120	349
848.211	1208
848.302	17
848.392	932
848.483	2147
848.574	807
848.664	280
848.755	1864
848.846	575
848.936	-20
849.027	2044
849.118	2049
849.208	1394
849.299	2580
849.389	3152
849.480	6138
849.570	9327
849.661	18651
849.751	24739
849.841	7769
849.932	2333
850.022	834
850.112	1249
850.203	938
850.293	185
850.383	1303
850.474	-227
850.564	736
850.654	1018
850.744	935
850.834	980
850.924	1674
851.014	1212
851.104	1158
851.194	1276
851.284	2952
851.374	2961
851.464	1888
851.554	1273
851.644	1545
851.734	2097
851.824	1316
851.914	122
852.004	1501
852.094	280
852.183	1383
852.273	971
852.363	822
852.452	527
852.542	1539
852.632	1225
852.721	1158
852.811	1086
852.901	1522
852.990	1301
853.080	1342
853.169	1082
853.259	1768
853.348	801
853.438	1916
853.527	2131
853.617	4612
853.706	6759
853.795	11727
853.885	26333
853.974	48570
854.063	91664
854.152	126313
854.242	37166
854.331	7094
854.420	2932
854.509	2670
854.598	2883
854.687	3087
854.777	2091
854.866	1727
854.955	1657
855.044	1040
855.133	910
855.222	1453
855.311	797
855.400	922
855.488	433
855.577	1323
855.666	1879
855.755	1244
855.844	669
855.933	1315
856.021	905
856.110	1430
856.199	1122
856.288	562
856.376	259
856.465	408
856.554	1601
856.642	1463
856.731	1607
856.819	726
856.908	1194
856.996	781
857.085	993
857.173	840
857.262	1309
857.350	1498
857.438	986
857.527	844
857.615	1121
857.703	1105
857.792	604
857.880	1070
857.968	499
858.056	1379
858.145	1195
858.233	1417
858.321	105
858.409	986
858.497	245
858.585	1412
858.673	415
858.761	1139
858.849	491
858.937	1230
859.025	1333
859.113	1154
859.201	464
859.289	1377
859.377	1130
859.465	1139
859.552	491
859.640	571
859.728	1170
859.816	617
859.903	956
859.991	981
860.079	1601
860.166	648
860.254	508
860.342	773
860.429	450
860.517	807
860.604	889
860.692	1246
860.779	1105
860.867	1089
860.954	1612
861.042	1571
861.129	2344
861.216	1630
861.304	812
861.391	1475
861.478	762
861.565	881
861.653	1337
861.740	40
861.827	1193
861.914	825
862.001	792
862.089	1590
862.176	953
862.263	236
862.350	980
862.437	543
862.524	1444
862.611	100
862.698	690
862.785	1102
862.871	994
862.958	306
863.045	-37
863.132	1260
863.219	393
863.306	281
863.392	1538
863.479	903
863.566	914
863.652	382
863.739	1092
863.826	1476
863.912	652
863.999	809
864.086	22
864.172	200
864.259	208
864.345	1494
864.432	662
864.518	1426
864.604	907
864.691	1906
864.777	1010
864.863	1738
864.950	1233
865.036	1104
865.122	2921
865.209	2450
865.295	2728
865.381	2764
865.467	2681
865.553	1936
865.639	4083
865.726	7124
865.812	15176
865.898	27351
865.984	39206
866.070	78098
866.156	68097
866.242	14478
866.328	4834
866.414	2376
866.499	2379
866.585	2500
866.671	2038
866.757	2027
866.843	2739
866.928	1638
867.014	1667
867.100	2771
867.186	1976
867.271	2503
867.357	3971
867.442	2368
867.528	1913
867.614	1815
867.699	940
867.785	2898
867.870	474
867.956	1260
868.041	2310
868.127	2382
868.212	1376
868.297	3285
868.383	2897
868.468	3658
868.553	6220
868.639	7052
868.724	15427
868.809	12416
868.894	2432
868.979	1628
869.065	1878
869.150	1202
869.235	1956
869.320	804
869.405	998
869.490	522
869.575	1342
869.660	1419
869.745	1241
869.830	1224
869.915	1130
870.000	1626
870.085	1368
870.169	1803
870.254	2263
870.339	80
870.424	719
870.509	1781
870.593	1481
870.678	1712
870.763	900
870.847	913
870.932	86
871.016	2314
871.101	566
871.186	1650
871.270	2502
871.355	1274
871.439	1452
871.523	687
871.608	869
871.692	1398
871.777	1825
871.861	1891
871.945	1448
872.030	867
872.114	885
872.198	1022
872.282	676
872.367	1462
872.451	647
872.535	1133
872.619	655
872.703	1308
872.787	1004
872.871	728
872.955	913
873.039	760
873.123	1108
873.207	1978
873.291	850
873.375	707
873.459	1353
873.543	390
873.627	998
873.711	1308
873.794	1118
873.878	298
873.962	64
874.045	588
874.129	983
874.137	1040
874.213	1607
874.245	1241
874.296	650
874.352	845
874.380	941
874.460	1217
874.464	1227
874.547	808
874.568	901
874.631	1204
874.676	1003
874.714	810
874.784	568
874.798	529
874.881	2264
874.892	1961
874.965	-160
874.999	267
875.048	864
875.107	721
875.131	657
875.215	1473
875.215	1473
875.298	987
875.323	1064
875.381	1217
875.430	1257
875.465	1323
875.538	1561
875.548	1580
875.631	995
875.646	945
875.714	719
875.753	360
875.798	-9
875.861	850
875.881	1107
875.964	565
875.968	596
876.047	1091
876.076	1095
876.130	1234
876.183	1334
876.213	1308
876.291	1477
876.296	1495
876.379	732
876.398	907
876.462	1436
876.506	1475
876.545	1572
876.613	1101
876.628	979
876.711	1361
876.721	1303
876.794	929
876.828	820
876.877	582
876.935	385
876.960	351
877.043	1177
877.043	1177
877.125	1087
877.150	1051
877.208	972
877.258	1248
877.291	1415
877.365	866
877.374	823
877.456	793
877.472	875
877.539	1013
877.579	1081
877.622	1203
877.687	1230
877.704	1237
877.787	884
877.794	888
877.869	811
877.901	810
877.952	934
878.008	1000
878.034	1024
878.115	539
878.117	532
878.199	684
878.222	839
878.282	1158
878.329	997
878.364	831
878.437	1351
878.447	1431
878.529	850
878.544	902
878.611	1125
878.651	780
878.694	634
878.758	1534
878.776	1675
878.858	1292
878.865	1262
878.941	1005
878.972	995
879.023	1211
879.078	1385
879.105	1430
879.185	1905
879.187	1913
879.269	1504
879.292	1429
879.351	1271
879.399	1191
879.433	1086
879.506	1732
879.516	1850
879.598	1476
879.613	1576
879.680	1746
879.720	1581
879.762	1439
879.827	948
879.844	899
879.926	785
879.933	876
880.007	1523
880.040	1585
880.089	1777
880.147	2320
880.171	2512
880.253	3644
880.254	3653
880.335	5604
880.360	5828
880.417	7862
880.467	11845
880.499	14120
880.574	15435
880.580	15066
880.662	5884
880.680	4555
880.744	2131
880.787	1423
880.825	1344
880.893	1200
880.907	1188
880.989	1007
881.000	1015
881.070	1290
881.106	1322
881.152	1155
881.213	1212
881.233	1286
881.315	1290
881.319	1334
881.396	2210
881.426	1882
881.478	1210
881.532	1466
881.559	1605
881.639	1074
881.641	1063
881.722	2038
881.745	1983
881.803	2037
881.852	1771
881.885	1498
881.958	2026
881.966	2114
882.047	2429
882.064	2567
882.129	3307
882.171	3693
882.210	4392
882.277	5811
882.291	5746
882.372	3508
882.383	3302
882.454	1701
882.489	1080
882.535	1230
882.596	1282
882.616	1155
882.697	1583
882.702	1550
882.778	1345
882.808	1275
882.859	1207
882.914	1434
882.940	1468
883.020	1300
883.021	1297
883.102	877
883.127	571
883.183	838
883.233	1404
883.264	1439
883.339	1509
883.345	1504
883.426	989
883.445	924
883.507	1287
883.551	1645
883.587	1721
883.657	1575
883.668	1555
883.749	1719
883.763	1664
883.830	1428
883.869	1591
883.910	1770
883.975	1554
883.991	1562
884.072	1805
884.081	1820
884.152	1588
884.187	1505
884.233	1712
884.292	2073
884.314	1985
884.394	1398
884.398	1365
884.475	1234
884.504	1247
884.555	1340
884.610	1244
884.636	1410
884.716	2400
884.716	2406
884.797	2093
884.821	2031
884.877	1950
884.927	1738
884.958	1506
885.033	1158
885.038	1179
885.118	1198
885.139	1301
885.199	1159
885.244	961
885.279	1099
885.350	1490
885.359	1535
885.439	1630
885.456	1567
885.520	1497
885.561	1836
885.600	1657
885.667	1331
885.680	1489
885.760	1971
885.773	2091
885.840	2431
885.878	2524
885.920	2114
885.984	1634
886.000	1626
886.080	1318
886.089	1297
886.160	1987
886.195	2306
886.240	2002
886.300	1730
886.320	1968
886.400	2685
886.406	2731
886.480	2349
886.511	2133
886.560	2697
886.616	3420
886.640	3215
886.720	2378
886.722	2355
886.800	1609
886.827	1209
886.879	1078
886.932	1201
886.959	1705
887.038	3073
887.039	3073
887.119	2210
887.143	2025
887.198	2365
887.248	2539
887.278	2413
887.354	1898
887.358	1887
887.437	1765
887.459	1714
887.517	2025
887.564	2233
887.596	2134
887.669	1913
887.676	1872
887.755	1277
887.774	1132
887.835	1578
887.880	1911
887.914	1992
887.985	2168
887.994	2187
888.073	2234
888.090	2227
888.153	2157
888.195	2168
888.232	2070
888.300	1845
888.311	1841
888.391	1667
888.405	1646
888.470	1709
888.510	1737
888.549	2042
888.615	2498
888.628	2537
888.708	2788
888.720	2815
888.787	2370
888.825	2091
888.866	2180
888.930	2356
888.945	2287
889.024	1877
889.035	1813
889.103	2284
889.140	2529
889.182	2607
889.245	2720
889.261	2635
889.340	2226
889.349	2169
889.419	2009
889.454	1933
889.498	2196
889.559	2561
889.577	2462
889.656	1994
889.664	1946
889.735	2484
889.768	2729
889.814	2164
889.873	1402
889.978	2633
890.083	2451
890.187	2628
890.292	2066
890.397	1896
890.501	2095
890.606	2243
890.710	2690
890.815	2635
890.919	1876
891.024	2319
891.128	2242
891.233	1152
891.337	2312
891.442	2863
891.546	2151
891.650	1566
891.755	2565
891.859	3695
891.963	2144
892.068	2394
892.172	1500
892.276	1850
892.380	1820
892.484	2365
892.589	2591
892.693	2282
892.797	1879
892.901	2452
893.005	2288
893.109	1973
893.213	1727
893.317	2802
893.421	2635
893.525	1979
893.629	2101
893.733	2600
893.837	2149
893.941	1835
894.045	2008
894.148	1555
894.252	2206
894.356	2914
894.460	1785
894.564	2461
894.667	936
894.771	1720
894.875	1613
894.978	1557
895.082	1908
895.186	2208
895.289	1768
895.393	2903
895.496	1701
895.600	1283
895.703	1276
895.807	1485
895.910	1963
896.014	2526
896.117	900
896.221	2089
896.324	1292
896.427	2341
896.531	1627
896.634	3003
896.737	1598
896.840	1882
896.944	1864
897.047	2202
897.150	1188
897.253	1960
897.356	1854
897.460	1894
897.563	1023
897.666	2398
897.769	1561
897.872	1980
897.975	1541
898.078	1889
898.181	1188
898.284	2465
898.387	2083
898.490	1607
898.593	1462
898.695	1692
898.798	1048
898.901	2828
899.004	2171
899.107	1944
899.209	877
899.312	1739
899.415	2006
899.518	1989
899.620	1164
899.723	2449
899.826	3739
899.928	5327
900.031	2415
900.133	1814
900.236	637
900.338	907
900.441	1876
900.543	1503
900.646	1366
900.748	1972
900.851	1997
900.953	1810
901.055	851
901.158	2437
901.260	1443
901.362	769
901.465	837
901.567	2017
901.669	2350
901.771	1887
901.873	881
901.976	1796
902.078	1314
902.180	2124
902.282	1094
902.384	1772
902.486	2530
902.588	3025
902.690	2696
902.792	2127
902.894	905
902.996	2025
903.098	1076
903.200	1343
903.302	975
903.404	1895
903.505	693
903.607	1147
903.709	1986
903.811	2481
903.913	2169
904.014	1239
904.116	388
904.218	2273
904.319	1243
904.421	2610
904.523	1286
904.624	1903
904.726	1288
904.827	1828
904.929	1304
905.030	1416
905.132	1472
905.233	1522
905.335	1123
905.436	1505
905.537	1032
905.639	1928
905.740	1346
905.841	1455
905.943	1051
906.044	1321
906.145	1256
906.247	988
906.348	1399
906.449	1515
906.550	2098
906.651	2249
906.752	905
906.854	1491
906.955	1570
907.056	1633
907.157	1191
907.258	1133
907.359	1052
907.460	1733
907.561	777
907.662	1482
907.762	1450
907.863	1604
907.964	1609
908.065	1028
908.166	1301
908.267	1454
908.367	1143
908.468	1288
908.569	1726
908.670	2660
908.770	2800
908.871	2921
908.971	3524
909.072	3704
909.173	937
909.273	1887
909.374	1416
909.474	1588
909.575	1425
909.675	1757
909.776	1030
909.876	2253
909.977	2111
910.077	1680
910.177	1139
910.278	1569
910.378	261
910.478	1382
910.579	1645
910.679	1194
910.779	1178
910.879	1470
910.980	1172
911.080	1798
911.180	1214
911.280	551
911.380	876
911.480	1128
911.580	814
911.680	1318
911.780	1694
911.880	1650
911.980	568
912.080	1523
912.180	852
912.280	1741
912.380	958
912.480	1227
912.580	1103
912.679	1774
912.779	596
912.879	1542
912.979	722
913.078	1384
913.178	836
913.278	1631
913.377	574
913.477	1090
913.577	1464
913.676	1951
913.776	1035
913.875	1121
913.975	844
914.074	1383
914.174	2038
914.273	1078
914.373	2462
914.472	1486
914.572	693
914.671	1672
914.770	676
914.870	1283
914.969	81
915.068	1726
915.167	894
915.267	1975
915.366	884
915.465	1690
915.564	1404
915.663	1139
915.763	1095
915.862	1542
915.961	687
916.060	1600
916.159	1311
916.258	729
916.357	801
916.456	1539
916.555	1847
916.654	1985
916.752	1997
916.851	1265
916.950	894
917.049	1561
917.148	1259
917.247	1859
917.345	1455
917.444	793
917.543	340
917.642	1681
917.740	757
917.839	1614
917.937	2253
918.036	1995
918.135	1364
918.233	1970
918.332	1411
918.430	881
918.529	761
918.627	1469
918.726	1324
918.824	871
918.923	840
919.021	1743
919.119	1037
919.218	1119
919.316	1064
919.414	1154
919.512	1360
919.611	1461
919.709	1955
919.807	1373
919.905	904
920.003	1253
920.102	1078
920.200	1893
920.298	1240
920.396	1392
920.494	854
920.592	1232
920.690	1337
920.788	1727
920.886	1811
920.984	1633
921.082	1367
921.180	1886
921.277	1386
921.375	2030
921.473	1739
921.571	2096
921.669	959
921.766	1884
921.864	2085
921.962	1312
922.060	2117
922.157	1843
922.255	2191
922.352	1822
922.450	2877
922.548	1975
922.645	2507
922.743	2025
922.840	3025
922.938	4768
923.035	3353
923.133	3699
923.230	4054
923.327	4138
923.425	4565
923.522	3716
923.619	4121
923.717	2973
923.814	3489
923.911	3116
924.008	3925
924.106	3620
924.203	2949
924.300	3089
924.397	3611
924.494	4612
924.591	4320
924.688	3789
924.786	3521
924.883	3411
924.979	3204
925.077	3506
925.173	3344
925.270	3797
925.367	3180
925.464	3274
925.561	4042
925.658	4369
925.755	4097
925.852	4495
925.948	3759
926.045	4348
926.142	3890
926.239	3926
926.335	3599
926.432	3455
926.529	3613
926.625	3300
926.722	2121
926.818	3229
926.915	3751
927.011	3236
927.108	2937
927.204	3270
927.301	2887
927.397	3584
927.494	3258
927.590	2287
927.687	2581
927.783	3188
927.879	3217
927.976	2032
928.072	2294
928.168	3546
928.264	2279
928.361	2522
928.457	2977
928.553	2774
928.649	2461
928.745	2890
928.841	2168
928.937	3167
929.033	2539
929.129	3252
929.225	3194
929.321	2620
929.417	2301
929.513	2832
929.609	1444
929.705	2363
929.801	3093
929.897	2061
929.993	2146
930.089	1928
930.184	2508
930.280	3294
930.376	3147
930.471	2417
930.567	2357
930.663	3132
930.758	2119
930.854	2170
930.950	1604
931.045	2879
931.141	3051
931.236	3745
931.332	1933
931.427	2810
931.523	3105
931.618	2587
931.714	844
931.809	2567
931.905	3023
932.000	1600
932.095	2189
932.191	2810
932.286	2651
932.381	1871
932.476	2079
932.572	2298
932.667	1337
932.762	2380
932.857	2510
932.952	2266
933.047	2414
933.142	2145
933.237	2085
933.332	2584
933.427	2420
933.522	1912
933.617	1434
933.712	2581
933.807	2394
933.902	2969
933.997	1948
934.092	1351
934.187	2632
934.282	2414
934.376	2201
934.471	1829
934.566	1573
934.661	2022
934.755	1740
934.850	1910
934.945	2052
935.039	1968
935.134	1680
935.228	2784
935.323	3179
935.417	1871
935.512	1087
935.606	1704
935.701	1846
935.795	2400
935.890	2070
935.984	1632
936.079	1807
936.173	2340
936.267	2309
936.362	1683
936.456	2096
936.550	2824
936.644	2697
936.738	2370
936.833	1703
936.927	1390
937.021	1004
937.115	1585
937.209	1378
937.303	2753
937.397	841
937.491	2000
937.585	1973
937.679	1842
937.773	371
937.867	1450
937.961	1286
938.055	2393
938.149	2151
938.243	2197
938.337	839
938.430	2385
938.524	1440
938.618	2424
938.712	1890
938.805	1465
938.899	2205
938.993	2662
939.086	854
939.180	1245
939.274	1910
939.367	3270
939.461	2032
939.554	1225
939.648	1806
939.741	1914
939.835	2427
939.928	2064
940.022	1960
940.115	1641
940.208	2105
940.302	2100
940.395	1716
940.488	913
940.582	1497
940.675	820
940.768	1881
940.861	2618
940.954	2821
941.048	1821
941.141	1665
941.234	1563
941.327	2314
941.420	3889
941.513	1913
941.606	1846
941.699	2168
941.792	1591
941.885	1250
941.978	2379
942.071	2172
942.164	1039
942.257	1221
942.349	2333
942.442	1323
942.535	597
942.628	1967
942.721	1331
942.813	268
942.906	2560
942.999	631
943.091	1065
943.184	1491
943.277	423
943.369	407
943.462	1105
943.554	1062
943.647	1971
943.739	2185
943.832	1865
943.924	126
944.017	2132
944.109	1195
944.201	1356
944.294	1572
944.386	1604
944.478	1606
944.571	2013
944.663	1522
944.755	1635
944.847	1589
944.940	1420
945.032	586
945.124	724
945.216	1969
945.308	661
945.400	1814
945.492	2079
945.584	907
945.676	1121
945.768	816
945.860	1832
945.952	1527
946.044	1794
946.136	1076
946.228	1913
946.320	760
946.412	1764
946.503	1474
946.595	2394
946.687	766
946.779	838
946.870	464
946.962	1675
947.054	633
947.145	1448
947.237	941
947.329	884
947.420	1238
947.512	2179
947.603	130
947.695	1750
947.786	-365
947.878	580
947.969	1246
948.061	1019
948.152	458
948.243	1369
948.335	1468
948.426	931
948.517	-123
948.609	1511
948.700	764
948.791	-217
948.882	1238
948.973	1000
949.065	255
949.156	839
949.247	602
949.338	622
949.429	1302
949.520	1061
949.611	1232
949.702	1285
949.793	1378
949.884	877
949.975	806
950.066	819
950.157	914
950.247	1470
950.338	793
950.429	1616
950.520	1584
950.611	1462
950.701	1005
950.792	2395
950.883	1397
950.973	1085
951.064	548
951.155	1764
951.245	880
951.336	1932
951.427	277
951.517	2472
951.608	1296
951.698	1944
951.788	667
951.879	102
951.969	207
952.060	386
952.150	449
952.240	1113
952.331	374
952.421	2513
952.511	374
952.602	638
952.692	561
952.782	708
952.872	167
952.962	967
953.052	683
953.143	22
953.233	95
953.323	89
953.413	-5
953.503	915
953.593	1300
953.683	316
953.773	61
953.863	697
953.953	439
954.042	512
954.132	271
954.222	1497
954.312	588
954.402	1569
954.492	3851
954.581	4861
954.671	854
954.761	1001
954.850	1567
954.940	1021
955.030	111
955.119	1268
955.209	478
955.298	-213
955.388	779
955.477	1081
955.567	-693
955.656	1068
955.746	958
955.835	508
955.925	37
956.014	1156
956.103	-314
956.193	625
956.282	990
956.371	269
956.461	564
956.550	636
956.639	649
956.728	497
956.817	344
956.906	882
956.995	1008
957.085	960
957.174	533
957.263	277
957.352	305
957.441	412
957.530	1210
957.619	1390
957.708	261
957.796	668
957.885	893
957.974	195
958.063	918
958.152	343
958.241	284
958.329	570
958.418	731
958.507	111
958.596	1118
958.684	540
958.773	1262
958.861	-12
958.950	179
959.039	701
959.127	365
959.216	1874
959.304	123
959.393	1360
959.481	883
959.570	1508
959.658	209
959.746	1361
959.835	4595
959.923	5085
960.011	1082
960.100	1173
960.188	947
960.276	177
960.365	496
960.453	352
960.541	-1126
960.629	820
960.717	217
960.805	259
960.893	953
960.981	36
961.069	1295
961.158	986
961.245	1898
961.333	782
961.421	-147
961.509	330
961.597	615
961.685	235
961.773	-339
961.861	393
961.949	1201
962.036	-253
962.124	954
962.212	308
962.299	-157
962.387	794
962.475	-415
962.562	153
962.650	883
962.738	306
962.825	129
962.913	610
963.000	118
963.088	1306
963.175	240
963.263	930
963.350	865
963.438	1293
963.525	2067
963.612	7131
963.700	18453
963.787	25337
963.874	7114
963.962	767
964.049	1453
964.136	512
964.223	-452
964.310	505
964.398	599
964.485	833
964.572	2935
964.659	5618
964.746	2468
964.833	538
964.920	522
965.007	760
965.094	48
965.181	-525
965.268	-395
965.355	348
965.441	369
965.528	-131
965.615	730
965.702	1181
965.789	37
965.875	285
965.962	52
966.049	403
966.136	531
966.222	431
966.309	1021
966.395	950
966.482	524
966.569	204
966.655	541
966.742	192
966.828	1442
966.915	481
967.001	702
967.087	-180
967.174	637
967.260	2795
967.347	5448
967.433	13783
967.519	15720
967.605	3983
967.692	484
967.778	342
967.864	23
967.950	689
968.036	-434
968.123	432
968.209	610
968.295	-638
968.381	1209
968.467	430
968.553	-805
968.639	1755
968.725	1626
968.811	4821
968.897	2592
968.983	901
969.069	-426
969.154	1150
969.240	780
969.326	837
969.412	-315
969.497	-128
969.583	-287
969.669	537
969.755	808
969.840	412
969.926	686
970.012	1888
970.097	2327
970.183	1517
970.268	1155
970.354	4217
970.439	7691
970.525	10625
970.610	1734
970.696	1165
970.781	-213
970.866	-510
970.952	397
971.037	-663
971.122	-85
971.208	880
971.293	595
971.378	-711
971.463	316
971.549	1119
971.634	208
971.719	1640
971.804	1907
971.889	2211
971.974	155
972.059	1302
972.144	-67
972.229	47
972.314	-368
972.399	2189
972.484	-101
972.569	2573
972.654	2016
972.739	7837
972.824	4784
972.908	1205
972.993	481
973.078	512
973.163	-76
973.247	-167
973.332	-1312
973.417	589
973.501	-295
973.586	193
973.671	-128
973.755	752
973.840	801
973.924	1796
974.009	1102
974.093	829
974.178	3604
974.262	6355
974.346	4370
974.431	566
974.515	711
974.600	631
974.684	517
974.768	260
974.852	826
974.937	365
975.021	591
975.105	267
975.189	354
975.273	1074
975.358	-882
975.442	-338
975.526	595
975.610	356
975.694	-1108
975.778	695
975.862	322
975.946	-1481
976.030	1742
976.114	240
976.198	149
976.281	1
976.365	610
976.449	156
976.533	321
976.617	-644
976.700	477
976.784	1423
976.868	1013
976.951	2932
977.035	1719
977.119	572
977.202	-55
977.286	591
977.369	645
977.453	1153
977.536	-342
977.620	499
977.703	130
977.787	-28
977.870	611
977.953	1333
978.037	422
978.120	3490
978.203	3758
978.287	5216
978.370	992
978.453	329
978.536	861
978.620	3769
978.703	3003
978.786	1066
978.869	-210
978.952	-1434
979.035	489
979.118	655
979.201	-843
979.284	-253
979.367	235
979.450	733
979.533	-785
979.616	-385
979.699	-18
979.782	-68
979.865	-154
979.948	462
980.030	-705
980.113	589
980.196	-698
980.279	922
980.361	-227
980.444	-622
980.526	-236
980.609	1118
980.692	707
980.774	736
980.857	-1105
980.939	714
981.022	513
981.104	489
981.187	-346
981.269	893
981.352	370
981.434	-821
981.516	-1337
981.599	1298
981.681	445
981.763	223
981.846	-373
981.928	392
982.010	-250
982.092	-814
982.174	666
982.256	-673
982.339	-768
982.421	26
982.503	483
982.585	-873
982.667	-311
982.749	-832
982.831	-701
982.913	-1457
982.995	1116
983.077	567
983.158	1379
983.240	-1122
983.322	594
983.404	951
983.486	-622
983.568	559
983.649	-543
983.731	258
983.813	571
983.894	524
983.976	-576
984.058	-120
984.139	562
984.221	-741
984.302	844
984.384	554
984.465	-227
984.547	646
984.628	-312
984.710	161
984.791	-260
984.872	553
984.954	124
985.035	201
985.116	-343
985.198	-721
985.279	314
985.360	-640
985.441	-1016
985.522	773
985.604	-148
985.685	-2034
985.766	434
985.847	934
985.928	-546
986.009	148
986.090	316
986.171	509
986.252	-848
986.333	527
986.414	-62
986.495	-499
986.576	-1112
986.656	-382
986.737	9
986.818	294
986.899	-850
986.980	-526
987.060	233
987.141	-304
987.222	-377
987.302	150
987.383	-70
987.464	-465
987.544	71
987.625	725
987.705	64
987.786	239
987.866	-766
987.947	194
988.027	-246
988.108	34
988.188	83
988.268	342
988.349	193
988.429	121
988.509	962
988.589	197
988.670	-1380
988.750	804
988.830	513
988.910	537
988.990	-489
989.070	-300
989.151	-660
989.231	-1709
989.311	485
989.391	-420
989.471	57
989.551	-371
989.631	-1093
989.711	-139
989.791	-691
989.870	-557
989.950	975
990.030	223
990.110	77
990.190	-407
990.269	-430
990.349	-139
990.429	-645
990.509	327
990.588	-856
990.668	-204
990.747	-327
990.827	-52
990.907	525
990.986	133
991.066	491
991.145	-351
991.225	228
991.304	-907
991.383	-85
991.463	135
991.542	-266
991.622	-407
991.701	-788
991.780	-255
991.859	-870
991.939	-537
992.018	-541
992.097	-487
992.176	-366
992.256	-1078
992.335	-741
992.414	554
992.493	-928
992.572	657
992.651	805
992.730	553
992.809	-99
992.888	-941
992.967	-659
993.046	65
993.125	-1132
993.203	138
993.282	621
993.361	-51
993.440	-569
993.519	-1346
993.597	-849
993.676	-1096
993.755	-34
993.834	-1122
993.912	-1435
993.991	614
994.069	-1468
994.148	-37
994.226	-382
994.305	-365
994.384	-907
994.462	952
994.540	-998
994.619	-425
994.697	-1050
994.776	-1125
994.854	-245
994.932	-232
995.011	676
995.089	-1056
995.167	-377
995.245	-718
995.324	-1890
995.402	120
995.480	-1140
995.558	-332
995.636	-1027
995.714	-795
995.792	-464
995.870	-1603
995.948	-760
996.026	82
996.104	-908
996.182	-277
996.260	-793
996.338	323
996.416	-1906
996.494	-588
996.572	-130
996.649	-711
996.727	-1767
996.805	-478
996.883	-645
996.960	-879
997.038	-1042
997.116	-574
997.193	-1492
997.271	-141
997.348	-567
997.426	-200
997.504	-1064
997.581	-39
997.658	-199
997.736	-1247
997.813	-1583
997.891	-38
997.968	-931
998.046	-90
998.123	-821
998.200	130
998.277	-1463
998.355	-288
998.432	-1425
998.509	-441
998.586	-310
998.663	-419
998.741	-1016
998.818	-364
998.895	-791
998.972	76
999.049	-521
999.126	-989
999.203	267
999.280	-783
999.357	-1153
999.434	-580
999.511	-972
999.587	34
999.664	-1294
999.741	-392
999.818	-619
999.895	-908
999.971	-1531
1000.048	-896
1000.125	483
1000.202	-1399
1000.278	-1224
1000.355	-239
1000.431	-313
1000.508	-677
1000.584	-794
1000.661	-527
1000.738	-1681
1000.814	-1085
1000.890	-837
1000.967	-1625
1001.043	-2226
1001.120	-1548
1001.196	-803
1001.272	-1384
1001.349	-788
1001.425	-655
1001.501	-1063
1001.577	-1757
1001.654	-1811
1001.730	-930
1001.806	-885
1001.882	-983
1001.958	-410
1002.034	-485
1002.110	-424
1002.186	-1420
1002.262	-1171
1002.338	-793
1002.414	-830
1002.490	-46
1002.566	-820
1002.642	-1843
1002.718	-511
1002.794	-560
1002.870	-1046
1002.945	-145
1003.021	-516
1003.097	-185
1003.173	127
1003.248	-200
1003.324	-876
1003.400	-380
1003.475	-1876
1003.551	-965
1003.626	-1632
1003.702	-915
1003.777	-657
1003.853	-555
1003.928	-2220
1004.004	-1354
1004.079	-1074
1004.155	-856
1004.230	-2343
1004.305	-42
1004.381	-1537
1004.456	-1243
1004.531	-739
1004.607	-1429
1004.682	-1276
1004.757	-520
1004.832	-1016
1004.907	-1133
1004.982	-1281
1005.057	-508
1005.133	-1416
1005.208	-1404
1005.283	-1476
1005.358	-508
1005.433	-1410
1005.508	-378
1005.583	-1899
1005.657	-512
1005.732	-551
1005.807	-663
1005.882	-1341
1005.957	-957
1006.032	-609
1006.106	-1439
1006.181	-603
1006.256	-747
1006.331	-1769
1006.405	-1512
1006.480	-1365
1006.554	-1024
1006.629	-663
1006.704	-297
1006.778	-415
1006.853	-26
1006.927	-1170
1007.002	-1485
1007.076	-990
1007.150	-455
1007.225	-1699
1007.299	-989
1007.373	-1673
1007.448	-695
1007.522	-361
1007.596	-657
1007.671	-1588
1007.745	-407
1007.819	-2152
1007.893	-1777
1007.967	-300
1008.041	-1838
1008.115	-714
1008.190	-1040
1008.264	-327
1008.338	-1117
1008.412	-1653
1008.486	-702
1008.560	-809
1008.633	-1317
1008.707	-1364
1008.781	-922
1008.855	-824
1008.929	-896
1009.003	-1572
1009.076	-1309
1009.150	-936
1009.224	-605
1009.298	-1043
1009.371	-1531
1009.445	-781
1009.519	-986
1009.592	-2057
1009.666	-1049
1009.739	-1303
1009.813	-849
1009.886	-433
1009.960	-1688
1010.033	-727
1010.107	-634
1010.180	-1986
1010.253	-185
1010.327	-1258
1010.400	-644
1010.473	-1511
1010.547	-217
1010.620	-1650
1010.693	-458
1010.766	-1664
1010.840	-554
1010.913	-510
1010.986	-1762
1011.059	-1526
1011.132	-1692
1011.205	-1298
1011.278	-1139
1011.351	-1203
1011.424	-969
1011.497	-1902
1011.570	-1234
1011.643	-1500
1011.716	-718
1011.789	-1044
1011.862	-59
1011.934	-230
1012.007	-1995
1012.080	-1664
1012.153	-1606
1012.225	550
1012.298	-940
1012.371	-2289
1012.443	-1079
1012.516	-1802
1012.588	-631
1012.661	-1364
1012.733	-1383
1012.806	-772
1012.879	-1024
1012.951	-1229
1013.023	-1140
1013.096	-1677
1013.168	-1252
1013.241	-973
1013.313	-593
1013.385	-1306
1013.458	-1338
1013.530	-958
1013.602	-1222
1013.674	-1367
1013.746	-1707
1013.819	-1691
1013.891	-719
1013.963	-1493
1014.035	-1212
1014.107	-948
1014.179	-1845
1014.251	-1703
1014.323	-698
1014.395	-2157
1014.467	-1393
1014.539	-808
1014.611	-1617
1014.683	-631
1014.754	-1466
1014.826	-1721
1014.898	-1539
1014.970	-1868
1015.042	-1102
1015.113	-1465
1015.185	-1513
1015.257	-1783
1015.328	-760
1015.400	-1343
1015.471	-1265
1015.543	-2132
1015.615	-896
1015.686	-1375
1015.757	-1039
1015.829	-1011
1015.901	-1465
1015.972	-1006
1016.043	-1523
1016.115	-1358
1016.186	-1467
1016.257	-1916
1016.328	-1585
1016.400	-610
1016.471	-1621
1016.542	-1274
1016.613	-1388
1016.685	-1672
1016.756	-578
1016.827	-1679
1016.898	-1094
1016.969	-1116
1017.040	-1235
1017.111	-1984
1017.182	-1128
1017.253	-1272
1017.324	-1650
1017.395	-1497
1017.466	-1337
1017.537	-1779
1017.608	-1433
1017.678	-1593
1017.749	-928
1017.820	-2423
1017.891	-1846
1017.961	-1621
1018.032	-1104
1018.103	-1227
1018.173	-1149
1018.244	-2143
1018.315	-1601
1018.385	-1833
1018.456	-1823
1018.526	-2548
1018.597	-2359
1018.667	-1950
1018.738	-2167
1018.808	-1335
1018.878	-1291
1018.949	-1293
1019.019	-868
1019.089	-725
1019.160	-1977
1019.230	-2254
1019.300	-1186
1019.371	-1998
1019.441	-896
1019.511	-919
1019.581	-1618
1019.651	-1481
1019.721	-1613
1019.791	-1635
1019.861	-1373
1019.931	-1288
1020.001	-2119
1020.071	-1793
1020.141	-1161
1020.211	-2237
1020.281	-2404
1020.351	-2282
1020.421	-634
1020.491	-1160
1020.560	-1404
1020.630	-1248
1020.700	-1325
1020.770	-1858
1020.839	-1864
1020.909	-2257
1020.979	-1691
1021.048	-1855
1021.118	-1269
1021.187	-1911
1021.257	-1383
1021.326	-1427
1021.396	-1585
1021.465	-2041
1021.535	-1567
1021.604	-2478
1021.674	-1844
1021.743	-2064
1021.812	-1668
1021.882	-1003
1021.951	-1476
1022.020	-1494
1022.089	-1245
1022.159	-1886
1022.228	-1482
1022.297	-1526
1022.366	-1259
1022.435	-1700
1022.504	-1026
1022.573	-2467
1022.642	-1013
1022.711	-2190
1022.781	-1807
1022.849	-1444
1022.918	-1485
1022.987	-834
1023.056	-1763
1023.125	-2181
1023.194	-1208
1023.263	-1445
1023.331	-1191
1023.400	-1905
1023.469	-819
1023.538	-1626
1023.606	-1347
1023.675	-1554
1023.744	-1277
1023.812	-1927
1023.881	-800
1023.949	-1848
1024.018	-2143
1024.086	-2030
1024.155	-1174
1024.223	-1932
1024.292	-1425
1024.360	-1455
1024.429	-1648
1024.497	-2785
1024.565	-1188
1024.634	-2142
1024.702	-2161
1024.770	-1396
1024.838	-1289
1024.907	-1639
1024.975	-1789
1025.043	-2317
1025.111	-1857
1025.179	-2149
1025.247	-1004
1025.315	-1972
1025.383	-1721
1025.451	-2467
1025.519	-1493
1025.587	-1320
1025.655	-1377
1025.723	-1607
1025.791	-2080
1025.859	-2747
1025.927	-1287
1025.995	-1842
1026.062	-2350
1026.130	-1946
1026.198	-1891
1026.266	-2096
1026.333	-2054
1026.401	-2218
1026.469	-1612
1026.536	-1262
1026.604	-2169
1026.671	-1282
1026.739	-1280
1026.806	-1349
1026.874	-1991
1026.941	-1645
1027.009	-2008
1027.076	-1821
1027.144	-1331
1027.211	-1876
1027.278	-2317
1027.345	-1334
1027.413	-1723
1027.480	-2220
1027.547	-1380
1027.614	-2379
1027.682	-1698
1027.749	-1666
1027.816	-1775
1027.883	-2031
1027.950	-1075
1028.017	-2708
1028.084	-858
1028.151	-2320
1028.218	-1421
1028.285	-1520
1028.352	-2392
1028.419	-2209
1028.486	-2110
1028.553	-1762
1028.619	-2367
1028.686	-1458
1028.753	-2305
1028.820	-3429
1028.886	-1594
1028.953	-1851
1029.020	-2715
1029.086	-2344
1029.153	-1855
1029.220	-2666
1029.286	-1683
1029.353	-1799
1029.419	-1502
1029.486	-2761
1029.552	-2180
1029.619	-2343
1029.685	-2028
1029.751	-2228
1029.818	-1029
1029.884	-2230
1029.951	-1683
1030.017	-2710
1030.083	-1805
1030.149	-1742
1030.216	-1732
1030.282	-1416
1030.348	-1513
1030.414	-2162
1030.480	-1433
1030.546	-2216
1030.612	-1583
1030.678	-2085
1030.744	-2266
1030.810	-1706
1030.876	-1865
1030.942	-2684
1031.008	-2262
1031.074	-1831
1031.140	-2048
1031.206	-1436
1031.272	-1839
1031.337	-1976
1031.403	-1776
1031.469	-2221
1031.534	-2040
1031.600	-1551
1031.666	-2067
1031.731	-2205
1031.797	-1964
1031.863	-2272
1031.928	-2272
1031.994	-2391
1032.059	-2486
1032.125	-2218
1032.190	-2207
1032.256	-3429
1032.321	-2221
1032.386	-2590
1032.452	-1423
1032.517	-1910
1032.582	-2049
1032.647	-1490
1032.713	-2249
1032.778	-1948
1032.843	-2567
1032.908	-2672
1032.974	-2161
1033.039	-2585
1033.104	-1597
1033.169	-2973
1033.234	-1760
1033.299	-1375
1033.364	-1480
1033.429	-1459
1033.494	-1661
1033.559	-1904
1033.624	-2021
1033.688	-1319
1033.753	-2236
1033.818	-2515
1033.883	-1951
1033.948	-1627
1034.013	-1932
1034.077	-1643
1034.142	-1170
1034.207	-1789
1034.271	500
1034.336	193
1034.400	-700
1034.465	-1008
1034.530	-1442
1034.594	-1970
1034.658	-2268
1034.723	-2550
1034.787	-2136
1034.852	-1657
1034.916	-2553
1034.981	-2012
1035.045	-2139
1035.109	-2032
1035.173	-1749
1035.238	-2674
1035.302	-949
1035.366	-2175
1035.430	-1280
1035.495	-2580
1035.559	-1540
1035.623	-2937
1035.687	-2248
1035.751	-2451
1035.815	-2322
1035.879	-3090
1035.943	-2252
1036.007	-2894
1036.071	-2159
1036.135	-2236
1036.198	-2175
1036.262	-2061
1036.326	-1876
1036.390	-1296
1036.454	-1085
1036.517	-1979
1036.581	-1252
1036.645	-449
1036.709	-1118
1036.772	-1000
1036.836	-2211
1036.900	-2443
1036.963	-2142
1037.026	-2783
1037.090	-2101
1037.154	-2627
1037.217	-1860
1037.280	-2688
1037.344	-2472
1037.407	-2896
1037.471	-1898
1037.534	-2514
1037.597	-1586
1037.661	-1892
1037.724	-1037
1037.787	-2401
1037.850	-2293
1037.913	-2583
1037.977	-1591
1038.040	-2002
1038.103	-1998
1038.166	-2638
1038.229	-1639
1038.292	-2789
1038.355	-1909
1038.418	-1730
1038.481	-1369
1038.544	-2107
1038.607	-2172
1038.670	-1553
1038.732	-1996
1038.795	-2818
1038.858	-1965
1038.921	-2060
1038.984	-1887
1039.046	-2068
1039.109	-1850
1039.172	-2665
1039.234	-2606
1039.297	-2574
1039.360	-2263
1039.422	-2439
1039.485	-1318
1039.547	-2391
1039.610	-1298
1039.672	-2173
1039.734	-1730
1039.797	-2805
1039.859	-1993
1039.922	-2340
1039.984	-2025
1040.046	-2286
1040.109	-1414
1040.171	-2684
1040.233	-1315
1040.295	-2480
1040.358	-2148
1040.420	-1877
1040.482	-1885
1040.544	-2394
1040.606	-1961
1040.668	-2016
1040.730	-987
1040.792	-2745
1040.854	-2429
1040.916	-2750
1040.978	-2234
1041.040	-1871
1041.102	-1834
1041.164	-3085
1041.225	-1451
1041.287	-2266
1041.349	-2629
1041.411	-2023
1041.472	-1873
1041.534	-2613
1041.596	-1792
1041.657	-2558
1041.719	-2463
1041.781	-2174
1041.842	-2556
1041.904	-2674
1041.965	-1757
1042.027	-1667
1042.088	-2174
1042.150	-2008
1042.211	-1424
1042.272	-1383
1042.334	-1712
1042.395	-1842
1042.456	-1797
1042.518	-1729
1042.579	-1959
1042.640	-2362
1042.701	-1331
1042.763	-2060
1042.824	-1918
1042.885	-2676
1042.946	-1700
1043.007	-1721
1043.068	-1791
1043.129	-2572
1043.190	-2351
1043.251	-1799
1043.312	-2060
1043.373	-1045
1043.434	-1913
1043.495	-2085
1043.556	-1322
1043.616	-2649
1043.677	-1115
1043.738	-2336
1043.799	-1857
1043.859	-1903
1043.920	-1912
1043.981	-2963
1044.041	-1019
1044.102	-2193
1044.162	-1603
1044.223	-2281
1044.284	-1285
1044.344	-2287
1044.405	-1602
1044.465	-2244
1044.525	-1843
1044.586	-2548
1044.646	-1781
1044.707	-1892
1044.767	-1309
1044.827	-1731
1044.887	-1408
1044.948	-1996
1045.008	-1653
1045.068	-2422
1045.128	-1191
1045.188	-1960
1045.249	-1307
1045.309	-2216
1045.369	-927
1045.429	-1451
1045.489	-1411
1045.549	-1716
1045.609	-2397
1045.669	-2102
1045.729	-1672
1045.789	-1767
1045.848	-1297
1045.908	-2102
1045.968	-766
1046.028	-965
1046.088	-1564
1046.147	-1428
1046.207	-1701
1046.267	-1991
1046.326	-1249
1046.386	-686
1046.446	-298
1046.505	-459
1046.565	-120
1046.624	-613
1046.684	-828
1046.743	-1086
1046.803	-966
1046.862	-3
1046.922	0
