'Start Wavelength	183.907
'End Wavelength	1046.922
'Gate Delay	5.000
'Gate Width (ms)	1.050
'Laser Output Level	0.000
'X Position	0.000
'Y Position	0.000
'Z Position	0.000
'Grid Point Number	1.000
'Shot Number	100.000
183.907	744.000
183.977	-164.000
184.047	506
184.116	70
184.186	383
184.256	173
184.325	215
184.395	-756
184.465	699
184.534	505
184.604	292
184.674	655
184.743	-537
184.813	496
184.883	581
184.952	833
185.022	-6
185.092	1380
185.161	-167
185.231	705
185.301	96
185.370	1233
185.440	-292
185.509	-434
185.579	48
185.649	438
185.718	167
185.788	1033
185.857	-87
185.927	395
185.996	310
186.066	126
186.136	-74
186.205	-246
186.275	1002
186.344	760
186.414	-258
186.483	-434
186.553	1258
186.622	1793
186.692	426
186.761	395
186.831	464
186.900	-278
186.970	-119
187.039	1296
187.109	1383
187.178	1040
187.248	187
187.317	1181
187.387	609
187.456	492
187.526	521
187.595	583
187.664	451
187.734	388
187.803	1556
187.873	598
187.942	1692
188.012	806
188.081	336
188.150	439
188.220	1384
188.289	1121
188.358	245
188.428	870
188.497	224
188.567	598
188.636	301
188.705	105
188.775	197
188.844	346
188.913	1435
188.983	633
189.052	226
189.121	620
189.191	1697
189.260	1895
189.329	1811
189.399	627
189.468	90
189.537	74
189.606	1674
189.676	465
189.745	384
189.814	703
189.883	1064
189.953	882
190.022	1933
190.091	5555
190.161	6337
190.230	2769
190.299	899
190.368	685
190.437	166
190.507	462
190.576	1432
190.645	567
190.714	332
190.783	-221
190.853	1221
190.922	736
190.991	591
191.060	1467
191.129	-591
191.198	659
191.268	-102
191.337	911
191.406	709
191.475	830
191.544	406
191.613	1879
191.682	-187
191.752	904
191.821	324
191.890	912
191.959	737
192.028	829
192.097	857
192.166	857
192.235	306
192.304	981
192.373	780
192.442	478
192.511	842
192.580	586
192.650	1097
192.719	1340
192.788	797
192.857	1606
192.926	1134
192.995	988
193.064	1415
193.133	2802
193.202	3869
193.271	3680
193.340	3139
193.409	2541
193.478	3349
193.547	4803
193.615	6695
193.684	6248
193.753	3273
193.822	2988
193.891	1025
193.960	1376
194.029	1243
194.098	1166
194.167	1179
194.236	1948
194.305	899
194.374	1365
194.443	1126
194.512	1025
194.580	1773
194.649	1642
194.718	1279
194.787	347
194.856	965
194.925	1226
194.994	1105
195.062	880
195.131	1088
195.200	1823
195.269	1528
195.338	1055
195.407	1639
195.475	1919
195.544	1817
195.613	977
195.682	973
195.751	1097
195.819	1171
195.888	1794
195.957	2148
196.026	1708
196.094	1164
196.163	1396
196.232	814
196.301	914
196.369	1575
196.438	1461
196.507	1084
196.576	1837
196.644	1024
196.713	592
196.782	1158
196.850	1877
196.919	1896
196.988	1323
197.056	1318
197.125	1332
197.194	1484
197.262	852
197.331	1390
197.400	1155
197.468	1613
197.537	1511
197.606	1584
197.674	3312
197.743	7868
197.812	2976
197.880	6295
197.949	4917
198.017	6516
198.086	4508
198.155	2263
198.223	2758
198.292	8827
198.360	4201
198.429	2642
198.497	2689
198.566	4679
198.635	9094
198.703	3513
198.772	3232
198.840	8910
198.909	9535
198.977	3571
199.046	3053
199.114	3203
199.183	2761
199.251	1787
199.320	2272
199.388	1243
199.457	1751
199.525	1198
199.594	2373
199.662	1744
199.731	1366
199.799	1577
199.867	2068
199.936	1376
200.004	1872
200.073	2102
200.141	1482
200.210	448
200.278	1635
200.346	1840
200.415	1932
200.483	2893
200.552	2365
200.620	1104
200.688	1540
200.757	2004
200.825	1991
200.893	1630
200.962	1630
201.030	2166
201.098	1430
201.167	2095
201.235	2798
201.303	2300
201.372	2550
201.440	2536
201.508	1981
201.577	1900
201.645	1966
201.713	1372
201.781	1425
201.850	3084
201.918	2308
201.986	1326
202.055	2719
202.123	1712
202.191	2391
202.259	1725
202.327	1915
202.396	2268
202.464	2274
202.532	2363
202.600	5962
202.669	2739
202.737	2162
202.805	1592
202.873	2107
202.941	2404
203.009	2269
203.078	1872
203.146	2056
203.214	2815
203.282	1381
203.350	3132
203.418	2426
203.487	2555
203.555	2263
203.623	1968
203.691	2369
203.759	1852
203.827	2201
203.895	3019
203.963	1869
204.031	2736
204.099	2766
204.168	1493
204.236	2289
204.304	3218
204.372	2292
204.440	2656
204.508	2637
204.576	1947
204.644	2104
204.712	1764
204.780	2639
204.848	2522
204.916	2613
204.984	2342
205.052	2341
205.120	2272
205.188	3236
205.256	2497
205.324	2407
205.392	2678
205.460	3569
205.528	3125
205.596	3381
205.664	2318
205.732	3093
205.799	8948
205.867	16445
205.935	4921
206.003	3821
206.071	2949
206.139	3572
206.207	3381
206.275	3538
206.343	3208
206.411	2533
206.478	2479
206.546	3737
206.614	3427
206.682	2988
206.750	2942
206.818	3651
206.885	3936
206.953	2352
207.021	3624
207.089	3729
207.157	2513
207.225	3138
207.292	2923
207.360	3391
207.428	3640
207.496	2665
207.563	3442
207.631	3423
207.699	2600
207.767	2415
207.834	2930
207.902	3768
207.970	3593
208.038	3661
208.105	3646
208.173	3313
208.241	5963
208.309	5502
208.376	4500
208.444	6342
208.512	5507
208.579	3263
208.647	4373
208.715	5132
208.782	3038
208.850	3700
208.918	3302
208.985	3310
209.053	3435
209.120	3545
209.188	2991
209.256	3539
209.323	2959
209.391	3722
209.459	4332
209.526	3827
209.594	3822
209.661	3988
209.729	3870
209.796	3482
209.864	3929
209.932	3041
209.999	4835
210.067	4321
210.134	4011
210.202	4011
210.269	4617
210.337	5181
210.404	3348
210.472	4206
210.539	4249
210.607	4109
210.674	4303
210.742	4364
210.809	3988
210.877	5051
210.944	4983
211.012	3528
211.079	5260
211.146	4044
211.214	4599
211.281	5068
211.349	5081
211.416	5217
211.484	5123
211.551	4704
211.618	4290
211.686	5336
211.753	3682
211.821	5330
211.888	4255
211.955	4713
212.023	4968
212.090	5135
212.157	5709
212.225	5151
212.292	10691
212.359	19258
212.427	47647
212.494	25100
212.561	9703
212.629	7767
212.696	6091
212.763	6544
212.831	5037
212.898	5820
212.965	4751
213.032	5347
213.100	4817
213.167	4851
213.234	5462
213.301	5536
213.369	4841
213.436	4759
213.503	3966
213.570	5824
213.638	3690
213.705	4521
213.772	3930
213.839	4115
213.906	5994
213.973	5187
214.041	4415
214.108	5590
214.175	4777
214.242	5353
214.309	4984
214.376	5809
214.444	4837
214.511	5516
214.578	5715
214.645	5886
214.712	6527
214.779	6303
214.846	5384
214.913	7385
214.980	6292
215.048	6907
215.115	7183
215.182	6303
215.249	6044
215.316	4741
215.383	4951
215.450	5011
215.517	4558
215.584	4484
215.651	5036
215.718	4244
215.785	4402
215.852	4934
215.919	4992
215.986	5530
216.053	5204
216.120	4459
216.187	4625
216.254	4932
216.321	4432
216.388	4840
216.455	5497
216.522	5061
216.589	6100
216.656	8873
216.722	9739
216.789	7852
216.856	8754
216.923	7467
216.990	7553
217.057	7801
217.124	7617
217.191	8014
217.258	9370
217.324	11464
217.391	12122
217.458	10290
217.525	8134
217.592	7935
217.659	5203
217.725	7318
217.792	7313
217.859	7345
217.926	5151
217.993	5625
218.059	5270
218.126	4278
218.193	5190
218.260	4406
218.327	4253
218.393	4362
218.460	4375
218.527	4113
218.594	4868
218.660	7089
218.727	6989
218.794	4303
218.860	4974
218.927	3786
218.994	3730
219.061	2765
219.127	4407
219.194	6086
219.261	4956
219.327	2906
219.394	4557
219.461	3214
219.527	3595
219.594	4117
219.661	4079
219.727	3372
219.794	5115
219.860	4796
219.927	4457
219.994	6670
220.060	8440
220.127	8714
220.193	7618
220.260	9267
220.326	11843
220.393	17399
220.460	19607
220.526	14775
220.593	10983
220.659	12768
220.726	11715
220.792	25831
220.859	25613
220.925	27696
220.992	31339
221.058	33298
221.125	34193
221.191	27091
221.258	12300
221.324	9853
221.391	6721
221.457	5877
221.524	7428
221.590	9279
221.657	29718
221.723	23071
221.789	19167
221.856	18131
221.922	9518
221.989	6310
222.055	5016
222.121	4597
222.188	7088
222.254	5516
222.321	4237
222.387	4669
222.453	3960
222.520	3301
222.586	2857
222.652	4396
222.719	3098
222.785	4750
222.851	3650
222.918	3297
222.984	3765
223.050	2744
223.116	2371
223.183	4559
223.249	3398
223.315	3201
223.382	3237
223.448	2843
223.514	2759
223.580	3331
223.647	2398
223.713	2856
223.779	3598
223.845	3629
223.911	3078
223.978	3100
224.044	3344
224.110	2878
224.176	3723
224.242	3407
224.309	2408
224.375	3721
224.441	2619
224.507	3746
224.573	1878
224.639	2914
224.705	2950
224.772	3148
224.838	2380
224.904	3689
224.970	2650
225.036	3336
225.102	2649
225.168	3019
225.234	3331
225.300	3121
225.366	3616
225.432	3598
225.499	3717
225.565	3224
225.631	3915
225.697	4503
225.763	5582
225.829	6698
225.895	7912
225.961	8896
226.027	8543
226.093	7901
226.159	12228
226.225	18422
226.291	37824
226.357	54245
226.423	30906
226.489	16882
226.554	12240
226.620	11591
226.686	12801
226.752	19956
226.818	37925
226.884	70333
226.950	61946
227.016	30290
227.082	17375
227.148	11034
227.214	8454
227.279	7191
227.345	5947
227.411	6624
227.477	6163
227.543	11461
227.609	11156
227.674	6725
227.740	4597
227.806	6103
227.872	5240
227.938	4716
228.003	5733
228.069	3797
228.135	3831
228.201	4096
228.267	4244
228.332	3998
228.398	3954
228.464	4197
228.530	3014
228.595	3996
228.661	3022
228.727	5216
228.792	5371
228.858	3162
228.924	2444
228.990	7064
229.055	2888
229.121	5438
229.187	3596
229.252	3271
229.318	2085
229.384	2589
229.449	3318
229.515	1099
229.581	2435
229.646	3997
229.712	3595
229.777	5687
229.843	6104
229.909	5005
229.974	5974
230.040	5680
230.105	5397
230.171	5052
230.236	8683
230.302	12050
230.368	8668
230.433	6769
230.499	6632
230.564	5832
230.630	3638
230.695	5285
230.761	6237
230.826	2707
230.892	5947
230.957	3944
231.023	3690
231.088	4009
231.154	3460
231.219	4946
231.284	4965
231.350	6016
231.415	2713
231.481	4356
231.546	4168
231.612	3898
231.677	3013
231.742	3485
231.808	4770
231.873	2724
231.939	2100
232.004	4962
232.069	4801
232.135	3819
232.200	4301
232.265	3525
232.331	2232
232.396	3049
232.461	2909
232.527	2518
232.592	2160
232.657	3422
232.723	3524
232.788	2782
232.853	2917
232.918	3049
232.984	1668
233.049	2935
233.114	2469
233.179	3817
233.245	4942
233.310	5951
233.375	2317
233.440	3338
233.506	4049
233.571	4001
233.636	3491
233.701	2632
233.766	3089
233.832	4138
233.897	2914
233.962	2440
234.027	3299
234.092	2833
234.157	2424
234.222	2966
234.288	3843
234.353	10905
234.418	9024
234.483	6278
234.548	6168
234.613	4801
234.678	5349
234.743	5274
234.808	10966
234.873	7846
234.938	6120
235.004	5460
235.069	4945
235.134	4473
235.199	5412
235.264	4407
235.329	3268
235.394	4845
235.459	5747
235.524	4303
235.589	5184
235.654	4497
235.719	3216
235.784	5371
235.849	4656
235.913	6905
235.978	7011
236.043	7297
236.108	5145
236.173	4618
236.238	5633
236.303	5403
236.368	5578
236.433	8056
236.498	10381
236.563	12899
236.627	28650
236.692	89828
236.757	86547
236.822	34399
236.887	19264
236.952	16459
237.017	13379
237.081	15882
237.146	18921
237.211	44589
237.276	92079
237.341	142169
237.405	77364
237.470	29797
237.535	17940
237.600	12253
237.664	10308
237.729	8938
237.794	12170
237.859	26387
237.923	16446
237.988	8729
238.053	8418
238.118	7017
238.182	16728
238.247	17171
238.312	7086
238.376	6550
238.441	4028
238.506	5838
238.570	3096
238.635	6044
238.700	4747
238.764	4070
238.829	6581
238.893	8366
238.958	6055
239.023	5579
239.087	4769
239.152	4298
239.216	3943
239.281	3965
239.346	4162
239.410	4031
239.475	4431
239.539	14033
239.604	13023
239.668	6079
239.733	3915
239.797	7012
239.862	17077
239.926	14958
239.991	7062
240.055	4114
240.120	3741
240.184	3592
240.249	2249
240.313	3951
240.378	3351
240.442	6492
240.507	13073
240.571	4417
240.635	4970
240.700	7732
240.764	3020
240.829	2824
240.893	1988
240.957	3955
241.022	6484
241.086	10306
241.151	4564
241.215	2755
241.279	4704
241.344	5711
241.408	6040
241.472	5245
241.537	6321
241.601	5890
241.665	5059
241.730	5478
241.794	5491
241.858	4873
241.922	5328
241.987	5202
242.051	4420
242.115	4139
242.179	4451
242.244	4794
242.308	5360
242.372	5421
242.436	4046
242.501	5678
242.565	3425
242.629	3993
242.693	4682
242.757	3839
242.822	4275
242.886	5561
242.950	5090
243.014	3698
243.078	5372
243.142	6037
243.206	4763
243.271	6524
243.335	6668
243.399	12941
243.463	50821
243.527	134233
243.591	46475
243.655	14556
243.719	7917
243.783	8400
243.847	13732
243.911	20326
243.975	11872
244.040	7005
244.104	6942
244.168	5636
244.232	5638
244.296	10533
244.360	16233
244.424	7415
244.488	5377
244.552	5155
244.615	3209
244.679	4554
244.743	3829
244.807	4550
244.871	4155
244.935	4175
244.999	2348
245.063	3859
245.127	4630
245.191	11165
245.255	12886
245.319	5997
245.383	3220
245.446	5549
245.510	2642
245.574	2522
245.638	3737
245.702	2667
245.766	7789
245.829	6041
245.893	3990
245.957	4336
246.021	5456
246.085	3847
246.149	4938
246.212	10561
246.276	20457
246.340	8440
246.404	5204
246.467	6920
246.531	6527
246.595	6483
246.659	5181
246.722	2987
246.786	5111
246.850	5359
246.913	6525
246.977	3742
247.041	4124
247.104	3931
247.168	4901
247.232	8884
247.295	27267
247.359	12787
247.423	5105
247.486	8057
247.550	5620
247.614	4131
247.677	5162
247.741	4196
247.804	3481
247.868	5327
247.932	9145
247.995	25299
248.059	8527
248.122	5202
248.186	6644
248.249	7968
248.313	41512
248.376	42949
248.440	26821
248.503	10026
248.567	7533
248.630	7960
248.694	11160
248.757	15680
248.821	48389
248.884	25366
248.948	21855
249.011	31320
249.075	54115
249.138	45648
249.202	16460
249.265	11117
249.328	12663
249.392	8650
249.455	9222
249.519	7827
249.582	9423
249.645	12065
249.709	9288
249.772	8057
249.835	8395
249.899	8622
249.962	9156
250.025	8051
250.089	17604
250.152	23847
250.215	11283
250.279	10506
250.342	10707
250.405	10893
250.468	10503
250.532	14923
250.595	25796
250.658	118814
250.721	211945
250.785	72030
250.848	30003
250.911	17160
250.974	16069
251.038	18901
251.101	34165
251.164	19750
251.227	18678
251.290	20012
251.354	37943
251.417	169070
251.480	181628
251.543	122177
251.606	303678
251.669	250318
251.732	92140
251.795	62772
251.859	70599
251.922	191908
251.985	118259
252.048	39457
252.111	24004
252.174	19294
252.237	27131
252.300	65155
252.363	89381
252.426	235236
252.489	102409
252.552	36465
252.615	22479
252.678	23487
252.741	50837
252.804	95694
252.867	250176
252.930	126884
252.993	45956
253.056	25018
253.119	16609
253.182	15548
253.245	36739
253.308	25260
253.371	13685
253.434	11158
253.497	10562
253.559	20643
253.622	13770
253.685	11615
253.748	11081
253.811	7449
253.874	8166
253.937	7538
254.000	6335
254.062	13292
254.125	23318
254.188	13149
254.251	10751
254.314	6787
254.376	8722
254.439	10282
254.502	7911
254.565	13010
254.628	25997
254.690	10777
254.753	5519
254.816	4939
254.878	4762
254.941	15374
255.004	17676
255.067	6519
255.129	5582
255.192	3995
255.255	2471
255.317	4143
255.380	4074
255.443	3680
255.505	3374
255.568	2764
255.631	3103
255.693	4115
255.756	2485
255.819	4915
255.881	2892
255.944	4050
256.006	3289
256.069	4148
256.132	3107
256.194	3870
256.257	8067
256.319	7687
256.382	7237
256.444	7579
256.507	7098
256.569	6733
256.632	7506
256.694	12301
256.757	44679
256.819	150327
256.882	68991
256.944	23548
257.007	13639
257.069	10493
257.132	8079
257.194	9090
257.257	7765
257.319	8785
257.381	12160
257.444	33102
257.506	161229
257.569	183769
257.631	59475
257.693	26710
257.756	15619
257.818	11038
257.880	8429
257.943	7268
258.005	5097
258.067	4985
258.130	5504
258.192	5139
258.254	7522
258.317	6593
258.379	5964
258.441	11198
258.503	10599
258.566	11795
258.628	16546
258.690	5742
258.753	6416
258.815	7893
258.877	5862
258.939	5233
259.001	5375
259.064	5243
259.126	5544
259.188	5973
259.250	5829
259.312	5951
259.375	7867
259.437	7312
259.499	5200
259.561	4288
259.623	4861
259.685	4893
259.747	4019
259.809	10490
259.872	20402
259.934	35895
259.996	28868
260.058	8227
260.120	4347
260.182	4445
260.244	4528
260.306	2743
260.368	4064
260.430	2769
260.492	4223
260.554	5742
260.616	4876
260.678	14331
260.740	19630
260.802	6803
260.864	4655
260.926	2803
260.988	4589
261.050	3953
261.112	4217
261.174	16225
261.236	17461
261.298	6040
261.359	8320
261.421	12659
261.483	4302
261.545	4969
261.607	1833
261.669	3868
261.731	5429
261.793	11909
261.854	4692
261.916	4476
261.978	3629
262.040	3616
262.102	3260
262.164	4701
262.225	4884
262.287	3723
262.349	5908
262.411	5858
262.472	3716
262.534	4592
262.596	9994
262.658	5279
262.719	3133
262.781	4660
262.843	9494
262.904	6715
262.966	6088
263.028	8460
263.090	49900
263.151	156160
263.213	48524
263.275	13975
263.336	7022
263.398	6032
263.459	3852
263.521	4222
263.583	6768
263.644	6211
263.706	3545
263.767	2354
263.829	2903
263.891	1596
263.952	1746
264.014	1881
264.075	1751
264.137	2112
264.198	3459
264.260	1562
264.321	1790
264.383	3196
264.444	4565
264.506	2408
264.567	2760
264.629	3999
264.690	1474
264.752	3412
264.813	2981
264.875	2582
264.936	3836
264.998	3199
265.059	3661
265.120	5174
265.182	9084
265.243	71157
265.305	84642
265.366	20556
265.427	9039
265.489	6950
265.550	4196
265.611	3977
265.673	3214
265.734	3783
265.795	4381
265.857	4192
265.918	5742
265.979	18062
266.040	120428
266.102	116176
266.163	28250
266.224	12260
266.286	6212
266.347	5322
266.408	4123
266.469	4086
266.530	3105
266.592	2240
266.653	3842
266.714	6074
266.775	2606
266.836	2290
266.898	2236
266.959	3574
267.020	2718
267.081	3669
267.142	3182
267.203	2136
267.264	2535
267.326	3887
267.387	1806
267.448	2768
267.509	3312
267.570	3042
267.631	2216
267.692	2946
267.753	2855
267.814	2266
267.875	5099
267.936	10285
267.997	6728
268.058	6675
268.119	4398
268.180	3888
268.241	1996
268.302	3104
268.363	2020
268.424	2831
268.485	2968
268.546	2208
268.607	2002
268.668	2277
268.729	1484
268.790	2503
268.851	2505
268.912	4488
268.972	5884
269.033	3458
269.094	1897
269.155	3474
269.216	1753
269.277	2540
269.338	2734
269.398	2990
269.459	1591
269.520	4040
269.581	3869
269.642	4322
269.702	3238
269.763	3761
269.824	2632
269.885	3612
269.945	4013
270.006	3011
270.067	2416
270.128	1989
270.188	1812
270.249	2604
270.310	1705
270.370	2453
270.431	2479
270.492	2532
270.553	2341
270.613	4309
270.674	7118
270.734	3135
270.795	3133
270.856	3828
270.916	2451
270.977	2229
271.038	2862
271.098	2932
271.159	4286
271.219	3954
271.280	2800
271.340	2579
271.401	1920
271.462	5218
271.522	3881
271.583	2450
271.643	3108
271.704	3361
271.764	2547
271.825	6071
271.885	31094
271.946	53198
272.006	13456
272.066	20210
272.127	43142
272.187	11974
272.248	5692
272.308	6106
272.369	24862
272.429	13993
272.489	6135
272.550	5378
272.610	5476
272.671	4415
272.731	3938
272.791	6312
272.852	3380
272.912	4066
272.972	2352
273.033	2082
273.093	4393
273.153	3383
273.214	2743
273.274	3493
273.334	10399
273.394	28838
273.455	8280
273.515	7388
273.575	18836
273.635	7128
273.696	10418
273.756	33835
273.816	11693
273.876	5176
273.936	9913
273.997	17960
274.057	4548
274.117	3596
274.177	5847
274.237	32914
274.297	30812
274.358	14596
274.418	21175
274.478	14383
274.538	4443
274.598	3490
274.658	12326
274.718	17309
274.778	6109
274.838	3277
274.898	6528
274.958	23122
275.018	33810
275.078	21731
275.138	6551
275.198	4074
275.258	2712
275.318	3225
275.378	4906
275.438	4779
275.498	3725
275.558	11286
275.618	24928
275.678	17211
275.738	7759
275.798	5251
275.858	3055
275.918	2387
275.978	2509
276.038	2738
276.098	1873
276.157	4557
276.217	11705
276.277	6207
276.337	4025
276.397	2309
276.457	2991
276.517	2818
276.576	1985
276.636	1528
276.696	2874
276.756	6431
276.815	5160
276.875	3120
276.935	3095
276.995	2950
277.055	2413
277.114	3241
277.174	2842
277.234	10828
277.293	4882
277.353	3127
277.413	2000
277.472	2306
277.532	1737
277.592	2878
277.651	7982
277.711	17452
277.771	4948
277.830	18997
277.890	15148
277.950	12769
278.009	49600
278.069	16604
278.128	12954
278.188	16516
278.248	7236
278.307	18070
278.367	12007
278.426	5218
278.486	3558
278.545	2293
278.605	3445
278.664	3267
278.724	2962
278.783	11362
278.843	33678
278.902	9462
278.962	4578
279.021	4819
279.081	6706
279.140	6655
279.199	6288
279.259	6673
279.318	7059
279.378	8622
279.437	11871
279.496	44068
279.556	179860
279.615	148764
279.675	33927
279.734	17134
279.793	18830
279.853	34218
279.912	13099
279.971	7559
280.031	5487
280.090	11319
280.149	19015
280.208	14946
280.268	109662
280.327	127141
280.386	24654
280.445	14577
280.505	9995
280.564	5467
280.623	3320
280.682	6198
280.742	8732
280.801	4463
280.860	3030
280.919	2555
280.978	2487
281.037	2254
281.097	2038
281.156	2631
281.215	1645
281.274	3395
281.333	15071
281.392	12798
281.451	2938
281.510	2931
281.569	1463
281.628	2942
281.688	2744
281.747	2627
281.806	2222
281.865	2277
281.924	1517
281.983	1187
282.042	1533
282.101	1913
282.160	1522
282.219	1585
282.278	1632
282.337	7122
282.396	4291
282.454	1958
282.513	2179
282.572	8965
282.631	4404
282.690	1989
282.749	1123
282.808	1910
282.867	1247
282.926	2606
282.985	2077
283.043	1078
283.102	1166
283.161	2439
283.220	4978
283.279	13051
283.338	3920
283.396	2584
283.455	2519
283.514	2536
283.573	2707
283.631	2500
283.690	1836
283.749	1866
283.808	3681
283.866	4728
283.925	1828
283.984	3380
284.043	2328
284.101	2794
284.160	2256
284.219	3313
284.277	2285
284.336	4237
284.395	13004
284.453	12682
284.512	4320
284.570	5527
284.629	4117
284.688	4042
284.746	4264
284.805	4718
284.863	6075
284.922	7301
284.981	8856
285.039	12435
285.098	20641
285.156	66666
285.215	289314
285.273	292803
285.332	107150
285.390	46676
285.449	23986
285.507	15821
285.566	10755
285.624	7705
285.683	6721
285.741	5337
285.799	5131
285.858	4815
285.916	3727
285.975	3984
286.033	2467
286.091	4001
286.150	2085
286.208	3023
286.267	2734
286.325	2776
286.383	4288
286.442	3598
286.500	2227
286.558	3238
286.616	2618
286.675	3670
286.733	3379
286.791	2605
286.850	3189
286.908	4035
286.966	5954
287.024	3740
287.083	3062
287.141	3562
287.199	3274
287.257	4191
287.315	3114
287.374	3804
287.432	7873
287.490	5974
287.548	4083
287.606	4775
287.664	4221
287.723	5338
287.781	6595
287.839	7226
287.897	9914
287.955	13563
288.013	22151
288.071	50871
288.129	224359
288.187	599676
288.245	302247
288.303	102067
288.361	53345
288.419	31594
288.477	19874
288.535	15171
288.593	10804
288.651	8106
288.709	7094
288.767	5316
288.825	4649
288.883	4428
288.941	3517
288.999	3909
289.057	3464
289.115	3899
289.173	2644
289.231	3434
289.289	2733
289.346	1473
289.404	2470
289.462	3471
289.520	4060
289.578	2954
289.636	2001
289.694	2471
289.751	1629
289.809	2190
289.867	2662
289.925	3206
289.983	2295
290.040	3226
290.098	1847
290.156	2536
290.214	2107
290.271	1404
290.329	2376
290.387	2528
290.444	1467
290.502	1402
290.560	1064
290.617	1929
290.675	1652
290.733	1674
290.790	1863
290.848	1318
290.906	718
290.963	919
291.021	995
291.078	1493
291.136	557
291.194	3895
291.251	8279
291.309	2428
291.366	1199
291.424	467
291.481	1027
291.539	869
291.596	1188
291.654	651
291.711	1309
291.769	1246
291.826	2528
291.884	1936
291.941	582
291.999	1028
292.056	366
292.114	1240
292.171	386
292.228	1456
292.286	1971
292.343	2031
292.401	2078
292.458	1468
292.515	672
292.573	2123
292.630	1734
292.687	2334
292.745	1549
292.802	1878
292.859	3361
292.917	10654
292.974	5964
293.031	2822
293.089	1323
293.146	1469
293.203	272
293.260	1238
293.318	1292
293.375	1118
293.432	1012
293.489	1358
293.546	1121
293.604	2239
293.661	11006
293.718	34169
293.775	11769
293.832	4771
293.889	3686
293.947	2396
294.004	1256
294.061	2398
294.118	3377
294.175	6153
294.232	2992
294.289	1513
294.346	2553
294.403	3401
294.460	3082
294.517	1553
294.574	1007
294.631	1706
294.688	1766
294.745	6024
294.802	31227
294.859	18547
294.916	5126
294.973	3516
295.030	2250
295.087	2369
295.144	1705
295.201	2665
295.258	1021
295.315	2666
295.372	10287
295.429	24349
295.486	7558
295.542	2874
295.599	1460
295.656	3221
295.713	6781
295.770	16864
295.827	5410
295.883	3104
295.940	2501
295.997	3341
296.054	2707
296.111	2215
296.167	1532
296.224	1829
296.281	1265
296.338	1263
296.394	1573
296.451	1309
296.508	6350
296.564	12577
296.621	7380
296.678	32980
296.734	48786
296.791	13477
296.848	6005
296.904	5381
296.961	9413
297.018	22644
297.074	16289
297.131	5361
297.187	4153
297.244	5785
297.301	29471
297.357	59848
297.414	17155
297.470	7166
297.527	3814
297.583	2895
297.640	2246
297.696	1890
297.753	883
297.809	1538
297.866	1145
297.922	1782
297.979	1387
298.035	1587
298.092	2771
298.148	12047
298.204	9456
298.261	4497
298.317	12230
298.374	42054
298.430	21787
298.486	7252
298.543	4356
298.599	4437
298.656	3624
298.712	11755
298.768	56774
298.824	48018
298.881	11828
298.937	5558
298.993	4378
299.050	3500
299.106	3191
299.162	3225
299.218	3317
299.275	2624
299.331	2195
299.387	7250
299.443	36167
299.500	37954
299.556	13261
299.612	6010
299.668	5132
299.724	9294
299.780	9036
299.837	4198
299.893	4662
299.949	18475
300.005	20905
300.061	22144
300.117	48065
300.173	20584
300.229	6662
300.285	6106
300.341	6007
300.397	2651
300.453	2565
300.510	1791
300.566	1220
300.622	3603
300.678	18121
300.734	27397
300.790	21369
300.845	30709
300.901	16698
300.957	20623
301.013	12320
301.069	4376
301.125	2744
301.181	2513
301.237	1433
301.293	1580
301.349	1722
301.405	919
301.461	1038
301.516	1557
301.572	1191
301.628	2551
301.684	2855
301.740	4952
301.796	8479
301.851	5124
301.907	9378
301.963	10097
302.019	28882
302.074	107716
302.130	100301
302.186	37650
302.242	13809
302.297	8960
302.353	6801
302.409	11403
302.464	8993
302.520	7650
302.576	24003
302.631	27438
302.687	11014
302.743	5345
302.798	3466
302.854	3163
302.910	2906
302.965	2721
303.021	5068
303.076	4565
303.132	5504
303.187	6456
303.243	4204
303.299	3148
303.354	2644
303.410	2692
303.465	1915
303.521	1705
303.576	1067
303.632	2440
303.687	8285
303.743	30667
303.798	24002
303.853	7679
303.909	4434
303.964	3020
304.020	3750
304.075	5573
304.130	4491
304.186	7427
304.241	8227
304.297	7071
304.352	3765
304.358	3606
304.407	2316
304.449	2414
304.463	2450
304.518	2029
304.539	1861
304.573	1586
304.629	2224
304.630	2278
304.684	4994
304.720	17482
304.739	23722
304.794	35589
304.811	29413
304.850	14670
304.902	6514
304.905	6014
304.960	6308
304.992	7024
305.015	7419
305.071	5686
305.083	4978
305.126	2548
305.173	2399
305.181	2377
305.236	1892
305.264	1676
305.292	1433
305.347	2231
305.354	2293
305.402	2993
305.445	5419
305.457	6012
305.512	6758
305.535	5688
305.567	4337
305.622	3500
305.626	3823
305.678	10711
305.716	25614
305.733	31015
305.788	26963
305.807	22833
305.843	16792
305.897	30576
305.898	30727
305.953	30147
305.988	18377
306.008	12039
306.063	6211
306.078	5312
306.118	3551
306.168	3495
306.173	3483
306.228	2159
306.259	2146
306.283	2251
306.338	2787
306.349	2989
306.393	4037
306.440	6656
306.448	6975
306.503	5141
306.530	4436
306.558	4400
306.613	7703
306.620	8072
306.668	10888
306.711	16349
306.723	17151
306.778	12717
306.801	9817
306.833	6621
306.888	4147
306.892	4059
306.943	3698
306.982	3145
306.997	2848
307.052	2807
307.072	2946
307.107	3515
307.162	4249
307.163	4251
307.217	3974
307.253	3546
307.272	3409
307.327	3196
307.343	3332
307.381	3739
307.434	4420
307.436	4516
307.491	6374
307.524	9242
307.546	10579
307.600	13326
307.614	12507
307.655	9014
307.704	6820
307.710	6736
307.765	7401
307.795	7841
307.819	8570
307.874	10843
307.885	11301
307.929	14344
307.975	18469
307.984	20378
308.038	36432
308.065	47500
308.093	85473
308.148	196921
308.156	222716
308.202	347544
308.246	406086
308.257	394019
308.312	207093
308.336	136163
308.366	93831
308.421	50991
308.426	48059
308.475	32872
308.517	24792
308.530	22742
308.585	17560
308.607	16066
308.639	14616
308.694	13332
308.697	13328
308.748	13719
308.787	14244
308.803	14456
308.857	15383
308.877	15915
308.912	18129
308.967	22344
308.967	22415
309.021	32724
309.058	42127
309.076	56006
309.130	104110
309.148	127327
309.185	243832
309.238	457987
309.239	459345
309.293	487276
309.328	435879
309.348	375016
309.402	179412
309.418	132808
309.457	89720
309.508	51194
309.511	49766
309.566	36133
309.598	29800
309.620	27464
309.674	24716
309.688	24298
309.729	21757
309.778	18458
309.783	18092
309.837	14379
309.868	12492
309.892	13091
309.946	16673
309.959	17823
310.001	21381
310.049	23858
310.055	23062
310.109	14141
310.139	9024
310.163	7102
310.218	4857
310.229	4426
310.272	4551
310.319	5014
310.326	4872
310.381	3901
310.409	3276
310.435	3119
310.489	3288
310.499	3292
310.543	3127
310.589	3085
310.598	3069
310.652	2910
310.679	2872
310.706	2991
310.760	2875
310.769	2926
310.814	2834
310.859	2487
310.868	2442
310.923	2384
310.948	2344
310.977	2507
311.031	2777
311.038	2830
311.085	2692
311.128	2382
311.139	2361
311.193	2347
311.218	2322
311.247	2583
311.301	3146
311.308	3213
311.356	2909
311.398	2498
311.410	2450
311.464	2326
311.488	2270
311.518	2276
311.572	2239
311.578	2245
311.626	2751
311.668	3058
311.680	3040
311.734	2993
311.758	2963
311.788	2929
311.842	2861
311.847	2855
311.896	2547
311.937	2228
311.950	2305
312.004	2663
312.027	2824
312.058	2701
312.112	2483
312.117	2461
312.165	2462
312.207	2467
312.297	1546
312.386	2626
312.476	1936
312.566	4246
312.656	2667
312.745	2652
312.835	2041
312.925	3133
313.015	2458
313.104	2098
313.194	3031
313.284	2813
313.374	2966
313.463	3956
313.553	2441
313.643	2356
313.732	2150
313.822	2068
313.912	2435
314.001	2336
314.091	2460
314.180	2272
314.270	2822
314.360	3526
314.449	2629
314.539	1962
314.628	2357
314.718	2072
314.808	1857
314.897	3426
314.987	2848
315.076	2791
315.166	2252
315.255	2749
315.345	4250
315.434	2525
315.524	2786
315.613	2932
315.703	5258
315.792	10917
315.881	32739
315.971	10478
316.060	5030
316.150	4127
316.239	2668
316.328	2498
316.418	2593
316.507	2484
316.597	3727
316.686	3099
316.775	2283
316.865	3477
316.954	2468
317.043	2442
317.133	2074
317.222	1611
317.311	2471
317.400	1799
317.490	3649
317.579	3092
317.668	3419
317.757	6213
317.847	19117
317.936	57454
318.025	16789
318.114	10220
318.203	4912
318.293	3288
318.382	2660
318.471	4120
318.560	2043
318.649	2688
318.738	2243
318.828	2512
318.917	2451
319.006	2253
319.095	1815
319.184	4207
319.273	5717
319.362	4519
319.451	2474
319.540	1893
319.629	4144
319.718	6914
319.807	2129
319.896	2905
319.985	4916
320.074	3685
320.163	1252
320.252	2623
320.341	1364
320.430	1432
320.519	3453
320.608	1484
320.697	1903
320.786	2331
320.875	3189
320.964	3084
321.053	4959
321.142	6844
321.230	6360
321.319	5000
321.408	9481
321.497	4624
321.586	4781
321.675	3612
321.764	4398
321.852	3887
321.941	6548
322.030	4894
322.119	4755
322.207	10335
322.296	4393
322.385	4166
322.474	6334
322.562	14526
322.651	6425
322.740	6232
322.829	5759
322.917	3697
323.006	4240
323.095	3615
323.183	1206
323.272	3229
323.361	4363
323.449	4680
323.538	2287
323.626	3877
323.715	2068
323.804	1312
323.892	4006
323.981	3804
324.069	2292
324.158	1511
324.246	2281
324.335	3009
324.424	4417
324.512	3003
324.601	2255
324.689	2532
324.778	2799
324.866	2412
324.954	1782
325.043	1930
325.131	2529
325.220	2773
325.308	2512
325.397	3070
325.485	1978
325.574	1268
325.662	1788
325.750	1671
325.839	2147
325.927	2048
326.015	1714
326.104	1563
326.192	1605
326.280	1375
326.369	856
326.457	3152
326.545	4164
326.634	2897
326.722	1186
326.810	1823
326.898	2322
326.987	1951
327.075	2795
327.163	2387
327.251	1500
327.340	1687
327.428	1735
327.516	2228
327.604	2068
327.692	1953
327.781	1325
327.869	1274
327.957	729
328.045	2016
328.133	2233
328.221	2193
328.309	2127
328.397	2401
328.485	2711
328.574	3665
328.662	8522
328.750	3969
328.838	2089
328.926	1961
329.014	1666
329.102	2601
329.190	3439
329.278	3468
329.366	2300
329.454	2318
329.542	2421
329.630	2108
329.718	3611
329.806	3630
329.893	5982
329.981	8491
330.069	23975
330.157	134796
330.245	371009
330.333	173464
330.421	23574
330.509	9738
330.597	12375
330.684	7112
330.772	3342
330.860	2485
330.948	2617
331.036	2530
331.123	1438
331.211	2146
331.299	1609
331.387	2011
331.475	2379
331.562	1886
331.650	1629
331.738	1055
331.825	1304
331.913	1030
332.001	1265
332.089	1352
332.176	1646
332.264	1893
332.352	2186
332.439	1805
332.527	1221
332.614	1338
332.702	1240
332.790	1222
332.877	2427
332.965	2324
333.052	1829
333.140	2487
333.228	4539
333.315	1739
333.403	1441
333.490	2019
333.578	2200
333.665	5800
333.753	2246
333.840	1251
333.928	2202
334.015	1456
334.103	2892
334.190	4220
334.278	3468
334.365	3769
334.452	3444
334.540	2942
334.627	2501
334.715	3209
334.802	4235
334.889	7448
334.977	8673
335.064	6314
335.151	4141
335.239	3264
335.326	1662
335.413	2652
335.501	3233
335.588	3335
335.675	2955
335.762	2873
335.850	3986
335.937	5136
336.024	8407
336.111	12914
336.199	11122
336.286	5901
336.373	3340
336.460	2422
336.547	2914
336.635	2497
336.722	2033
336.809	1697
336.896	2644
336.983	3357
337.070	2523
337.157	3449
337.245	2018
337.332	2225
337.419	2213
337.506	1221
337.593	1373
337.680	1140
337.767	1599
337.854	1873
337.941	1966
338.028	2858
338.115	926
338.202	2108
338.289	1380
338.376	2334
338.463	2303
338.550	1121
338.637	1665
338.724	1303
338.811	1257
338.898	974
338.984	742
339.071	1319
339.158	1645
339.245	4304
339.332	1622
339.419	1837
339.506	1340
339.593	483
339.679	1562
339.766	1178
339.853	1614
339.940	4215
340.027	1531
340.113	1364
340.200	734
340.287	1980
340.374	1399
340.460	2981
340.547	911
340.634	3738
340.720	9254
340.807	5001
340.894	1521
340.980	1340
341.067	757
341.154	1894
341.240	1891
341.327	4336
341.414	1872
341.500	881
341.587	1203
341.674	2080
341.760	3201
341.847	3835
341.933	801
342.020	484
342.106	1437
342.193	2037
342.279	2439
342.366	1785
342.452	3157
342.539	1629
342.625	3457
342.712	10780
342.798	4565
342.885	1742
342.971	1182
343.058	1389
343.144	457
343.230	1001
343.317	1372
343.403	612
343.490	1391
343.576	846
343.662	1414
343.749	1492
343.835	1263
343.921	5783
344.008	51384
344.094	109664
344.180	17285
344.267	4434
344.353	16752
344.439	14798
344.525	4598
344.612	5057
344.698	5300
344.784	2585
344.870	1500
344.957	992
345.043	2799
345.129	873
345.215	2191
345.301	1943
345.387	1134
345.474	1538
345.560	1148
345.646	469
345.732	951
345.818	993
345.904	1674
345.990	2321
346.076	890
346.162	972
346.249	2080
346.335	1723
346.421	2724
346.507	9651
346.593	28964
346.679	4681
346.765	1867
346.851	2014
346.937	714
347.023	2347
347.108	2389
347.194	2062
347.280	681
347.366	2325
347.452	9673
347.538	41019
347.624	23359
347.710	13987
347.796	1489
347.882	404
347.967	509
348.053	1654
348.139	875
348.225	627
348.311	278
348.397	1277
348.482	3043
348.568	1923
348.654	1524
348.740	3096
348.825	2611
348.911	5100
348.997	17397
349.083	35406
349.168	4358
349.254	1314
349.340	971
349.425	1052
349.511	1126
349.597	1368
349.682	3004
349.768	14717
349.854	5944
349.939	1795
350.025	1823
350.110	5406
350.196	1966
350.282	-100
350.367	1262
350.453	1295
350.538	509
350.624	1277
350.709	2042
350.795	612
350.880	971
350.966	1825
351.051	1918
351.137	1339
351.222	907
351.308	3604
351.393	10788
351.479	2303
351.564	646
351.649	2047
351.735	1410
351.820	1415
351.906	1212
351.991	1528
352.076	6781
352.162	10721
352.247	2306
352.332	1235
352.418	1395
352.503	2965
352.588	14825
352.673	10703
352.759	2578
352.844	1349
352.929	420
353.014	1390
353.100	1756
353.185	2654
353.270	3139
353.355	3322
353.441	1744
353.526	1637
353.611	3035
353.696	2709
353.781	2665
353.866	742
353.952	2012
354.037	2611
354.122	5926
354.207	5764
354.292	2250
354.377	1363
354.462	2252
354.547	2104
354.632	1747
354.717	2096
354.802	1791
354.887	592
354.972	683
355.057	646
355.142	709
355.227	1790
355.312	2278
355.397	3972
355.482	9795
355.567	4363
355.652	3928
355.737	4193
355.822	17559
355.907	12520
355.991	2890
356.076	1286
356.161	1865
356.246	833
356.331	2084
356.416	4896
356.501	42022
356.585	40526
356.670	3625
356.755	4071
356.840	3543
356.924	27315
357.009	107693
357.094	34821
357.179	3602
357.263	2249
357.348	3257
357.433	2293
357.517	2542
357.602	1844
357.687	1774
357.771	2560
357.856	1763
357.941	4193
358.025	27431
358.110	133357
358.195	53774
358.279	4467
358.364	3853
358.448	9064
358.533	27375
358.617	18789
358.702	20019
358.787	6552
358.871	3748
358.956	2984
359.040	2055
359.125	1212
359.209	834
359.294	899
359.378	2231
359.462	2897
359.547	1591
359.631	1088
359.716	405
359.800	1447
359.885	2231
359.969	194
360.053	843
360.138	1484
360.222	2368
360.306	3154
360.391	1794
360.475	3144
360.559	5687
360.644	8985
360.728	6369
360.812	21711
360.896	61989
360.981	17230
361.065	4438
361.149	2520
361.233	2187
361.318	399
361.402	1852
361.486	3083
361.570	1106
361.654	2912
361.739	5647
361.823	40439
361.907	66358
361.991	8299
362.075	4018
362.159	6843
362.243	7820
362.327	9476
362.411	15259
362.495	6095
362.580	3205
362.664	2386
362.748	2556
362.832	4249
362.916	8987
363.000	29443
363.084	65931
363.168	83893
363.252	15824
363.336	4768
363.420	4173
363.503	3726
363.587	3722
363.671	2289
363.755	2176
363.839	4274
363.923	2189
364.007	5061
364.091	5361
364.175	5218
364.258	14100
364.342	31173
364.426	58263
364.510	28289
364.594	10905
364.677	12674
364.761	54707
364.845	39223
364.929	6854
365.013	5206
365.096	4285
365.180	4049
365.264	1942
365.347	3598
365.431	1772
365.515	780
365.598	1338
365.682	2206
365.766	-260
365.849	819
365.933	2121
366.017	2815
366.100	243
366.184	276
366.267	1325
366.351	1541
366.435	356
366.518	681
366.602	1190
366.685	914
366.769	1368
366.852	1291
366.936	2948
367.019	2269
367.103	422
367.186	3077
367.270	917
367.353	564
367.436	1560
367.520	558
367.603	1742
367.687	1097
367.770	3091
367.853	2931
367.937	12248
368.020	20045
368.104	2898
368.187	3670
368.270	3986
368.353	3472
368.437	2429
368.520	2532
368.603	3803
368.687	11203
368.770	21264
368.853	4915
368.936	2931
369.020	1937
369.103	1212
369.186	574
369.269	489
369.352	3475
369.436	2984
369.519	1845
369.602	533
369.685	3027
369.768	965
369.851	2060
369.934	623
370.018	1248
370.101	2031
370.184	3910
370.267	1599
370.350	2722
370.433	4329
370.516	24256
370.599	36822
370.682	8710
370.765	9548
370.848	13859
370.931	29151
371.014	10271
371.097	400
371.180	2151
371.263	2214
371.346	-352
371.429	1514
371.511	765
371.594	1550
371.677	3333
371.760	3204
371.843	6149
371.926	48619
372.009	118573
372.091	32239
372.174	12035
372.257	34899
372.340	13111
372.423	2912
372.505	3829
372.588	1762
372.671	8795
372.754	27421
372.836	13983
372.919	3043
373.002	3210
373.085	2241
373.167	4056
373.250	10433
373.332	33493
373.415	62910
373.498	140879
373.580	48115
373.663	72959
373.746	104566
373.828	16331
373.911	4656
373.993	1996
374.076	2914
374.159	2550
374.241	6383
374.324	20934
374.406	16269
374.489	36579
374.571	103366
374.654	36831
374.736	16112
374.819	57763
374.901	90768
374.983	96585
375.066	13363
375.148	3446
375.231	1980
375.313	3906
375.395	2928
375.478	2231
375.560	2843
375.643	3756
375.725	15911
375.807	70984
375.890	45611
375.972	3836
376.054	3359
376.136	2494
376.219	2119
376.301	18326
376.383	54142
376.465	19004
376.548	6467
376.630	11685
376.712	40495
376.794	18663
376.877	1686
376.959	820
377.041	1897
377.123	931
377.205	1396
377.287	871
377.369	1351
377.452	1016
377.534	164
377.616	691
377.698	669
377.780	831
377.862	1673
377.944	2107
378.026	595
378.108	1293
378.190	788
378.272	1879
378.354	199
378.436	539
378.518	535
378.600	2348
378.682	4813
378.764	13055
378.846	11298
378.928	2057
379.010	2020
379.091	2596
379.173	1126
379.255	424
379.337	1337
379.419	6736
379.501	21259
379.583	8517
379.664	1762
379.746	3760
379.828	13038
379.910	17766
379.991	17693
380.073	2248
380.155	1632
380.237	1627
380.318	584
380.400	1043
380.482	3422
380.564	3794
380.645	3144
380.727	3090
380.809	2197
380.890	996
380.972	361
381.053	1572
381.135	2375
381.217	4086
381.298	13679
381.380	6236
381.461	7286
381.543	38791
381.624	50269
381.706	8262
381.787	2899
381.869	4612
381.951	25416
382.032	101572
382.113	59816
382.195	5451
382.276	5461
382.358	12132
382.439	38757
382.521	52042
382.602	85543
382.684	32656
382.765	40923
382.846	37145
382.928	36999
383.009	20287
383.090	17515
383.172	61267
383.253	86860
383.334	36774
383.416	56311
383.497	29696
383.578	8060
383.659	15477
383.741	60316
383.822	142589
383.903	71796
383.984	30375
384.066	58027
384.147	33560
384.228	5860
384.309	4723
384.390	3351
384.471	2335
384.553	2551
384.634	3288
384.715	4165
384.796	2008
384.877	2356
384.958	13138
385.039	14945
385.120	4595
385.201	3520
385.282	2528
385.363	2762
385.444	2224
385.525	7630
385.606	30823
385.687	28389
385.768	5077
385.849	7238
385.930	48866
386.011	91767
386.092	21398
386.173	3285
386.254	1991
386.335	2362
386.416	2855
386.496	7098
386.577	13825
386.658	3494
386.739	1669
386.820	2571
386.901	1147
386.981	2292
387.062	2347
387.143	3463
387.224	13156
387.304	12930
387.385	5073
387.466	1351
387.547	3283
387.627	2579
387.708	7669
387.789	29554
387.869	39312
387.950	12537
388.031	2390
388.111	342
388.192	2546
388.273	3343
388.353	2771
388.434	1975
388.514	8669
388.595	43006
388.676	50119
388.756	15765
388.837	12340
388.917	8092
388.998	842
389.078	2669
389.159	2660
389.239	729
389.320	5401
389.400	822
389.480	6378
389.561	15131
389.641	9029
389.722	3314
389.802	3320
389.883	7610
389.963	23131
390.043	12973
390.124	2421
390.204	4971
390.284	15682
390.365	11555
390.445	26258
390.525	125284
390.605	122462
390.686	19983
390.766	4927
390.846	3957
390.927	1950
391.007	1309
391.087	4078
391.167	1384
391.247	1333
391.328	3416
391.408	3301
391.488	2362
391.568	1043
391.648	2649
391.728	4423
391.808	4747
391.888	4197
391.969	9358
392.049	14601
392.129	7758
392.209	8771
392.289	23312
392.369	12717
392.449	5963
392.529	5449
392.609	6945
392.689	10523
392.769	24742
392.849	22829
392.929	17272
393.009	33992
393.089	37156
393.169	52573
393.248	195093
393.328	679819
393.408	709852
393.488	179931
393.568	45208
393.648	22936
393.728	15273
393.807	11076
393.887	12199
393.967	12731
394.047	14101
394.127	18801
394.206	39746
394.286	159921
394.366	582484
394.446	632640
394.525	166067
394.605	39982
394.685	20999
394.764	14974
394.844	12209
394.924	12311
395.003	9863
395.083	7773
395.163	8381
395.242	7732
395.322	7945
395.402	6996
395.481	9264
395.561	9806
395.640	17187
395.720	25046
395.799	22173
395.879	29702
395.958	62461
396.038	240902
396.117	761407
396.197	826288
396.276	260046
396.356	71396
396.435	35467
396.515	26655
396.594	27157
396.673	53156
396.753	211901
396.832	608960
396.912	411922
396.991	77663
397.070	22508
397.150	11449
397.229	10666
397.308	14181
397.388	22027
397.467	12782
397.546	5899
397.625	3121
397.705	5299
397.784	4335
397.863	3101
397.942	3079
398.022	2338
398.101	1901
398.180	2993
398.259	2553
398.338	2495
398.417	2629
398.497	1728
398.576	2979
398.655	580
398.734	2682
398.813	1430
398.892	1729
398.971	1839
399.050	1217
399.129	680
399.208	1256
399.287	2224
399.366	1510
399.445	1997
399.524	1126
399.603	-34
399.682	1992
399.761	2335
399.840	3472
399.919	2342
399.998	755
400.077	86
400.156	-14
400.235	3691
400.313	568
400.392	447
400.471	6070
400.550	10077
400.629	2243
400.708	2203
400.786	427
400.865	-21
400.944	379
401.023	2621
401.102	406
401.180	333
401.259	1032
401.338	-6
401.416	1533
401.495	39
401.574	1940
401.652	484
401.731	2044
401.810	140
401.888	670
401.967	202
402.046	594
402.124	1007
402.203	-331
402.281	1025
402.360	436
402.438	1475
402.517	-84
402.596	798
402.674	682
402.753	898
402.831	1101
402.910	1876
402.988	3183
403.066	11608
403.145	8860
403.223	5529
403.302	11110
403.380	8153
403.459	7321
403.537	2376
403.615	1414
403.694	-344
403.772	1924
403.850	939
403.929	1043
404.007	11
404.085	1751
404.164	1762
404.242	2261
404.320	10658
404.398	41571
404.477	41564
404.555	60251
404.633	55272
404.711	27945
404.789	17379
404.868	3458
404.946	894
405.024	884
405.102	1029
405.180	342
405.258	102
405.336	1677
405.415	249
405.493	1384
405.571	1683
405.649	549
405.727	-501
405.805	1662
405.883	1101
405.961	1872
406.039	365
406.117	-557
406.195	2093
406.273	9067
406.351	36933
406.429	22935
406.507	1916
406.585	-262
406.663	839
406.740	981
406.818	747
406.896	-324
406.974	1930
407.052	2394
407.130	19571
407.208	27982
407.285	6032
407.363	488
407.441	1247
407.519	1569
407.596	4288
407.674	27187
407.752	106651
407.830	78644
407.907	9359
407.985	1446
408.063	1204
408.141	128
408.218	1347
408.296	-75
408.373	358
408.451	1373
408.529	791
408.606	735
408.684	577
408.762	573
408.839	-649
408.917	848
408.994	416
409.072	235
409.149	865
409.227	1905
409.304	1760
409.382	2830
409.459	2742
409.537	4882
409.614	4014
409.692	2907
409.769	2730
409.846	4599
409.924	5211
410.001	1711
410.079	2480
410.156	3192
410.233	2238
410.311	3043
410.388	1158
410.465	1806
410.543	302
410.620	1785
410.697	1533
410.775	954
410.852	-223
410.929	1365
411.006	1403
411.083	305
411.161	165
411.238	1156
411.315	930
411.392	407
411.469	1214
411.547	817
411.624	-644
411.701	443
411.778	1059
411.855	1837
411.932	725
412.009	81
412.086	392
412.163	968
412.240	249
412.317	785
412.394	-543
412.471	586
412.548	-378
412.625	12
412.702	123
412.779	854
412.856	922
412.933	13
413.010	1477
413.087	2658
413.164	4582
413.241	8271
413.318	639
413.395	1369
413.471	1336
413.548	809
413.625	966
413.702	-56
413.779	409
413.855	265
413.932	-690
414.009	-1257
414.086	37
414.162	-265
414.239	991
414.316	5319
414.393	12365
414.469	3406
414.546	-128
414.623	-246
414.699	37
414.776	-78
414.853	103
414.929	790
415.006	-289
415.082	217
415.159	401
415.236	750
415.312	227
415.389	1362
415.465	872
415.542	301
415.618	-126
415.695	1526
415.771	-120
415.848	295
415.924	826
416.000	166
416.077	1130
416.153	-435
416.230	-811
416.306	895
416.383	-225
416.459	1098
416.535	-395
416.612	-111
416.688	19
416.764	202
416.841	-1113
416.917	-617
416.993	452
417.069	559
417.146	1608
417.222	3964
417.298	1466
417.374	476
417.451	677
417.527	107
417.603	14
417.679	46
417.755	55
417.831	11
417.908	229
417.984	41
418.060	-842
418.136	1587
418.212	1272
418.288	336
418.364	-167
418.440	147
418.516	804
418.592	328
418.668	1392
418.744	2676
418.820	1451
418.896	800
418.972	-673
419.048	114
419.124	2147
419.200	253
419.276	562
419.352	99
419.428	512
419.504	205
419.579	269
419.655	-144
419.731	-157
419.807	2028
419.883	3005
419.959	2852
420.034	878
420.110	1879
420.186	7046
420.262	7063
420.337	719
420.413	1470
420.489	303
420.565	1898
420.640	455
420.716	1013
420.792	-399
420.867	2220
420.943	84
421.019	1744
421.094	1171
421.170	1499
421.245	1044
421.321	2350
421.397	3294
421.472	22253
421.548	62693
421.623	34245
421.699	4626
421.774	3232
421.850	2656
421.925	4347
422.001	4048
422.076	4780
422.152	5140
422.227	7685
422.302	11251
422.378	17072
422.453	34525
422.529	99973
422.604	333473
422.679	586777
422.755	337821
422.830	95289
422.905	33984
422.981	17951
423.056	10727
423.131	8361
423.207	5957
423.282	5043
423.357	5757
423.432	3681
423.508	3811
423.583	4447
423.658	3522
423.733	2304
423.808	1845
423.883	2401
423.959	2075
424.034	2202
424.109	2518
424.184	1914
424.259	1377
424.334	1022
424.409	538
424.484	684
424.559	861
424.634	644
424.709	718
424.784	1023
424.859	1312
424.934	644
425.009	4808
425.084	8512
425.159	2636
425.234	1560
425.309	253
425.384	293
425.459	-494
425.534	1397
425.609	-1415
425.683	457
425.758	-303
425.833	473
425.908	681
425.983	2876
426.058	8496
426.132	3069
426.207	-31
426.282	1066
426.357	-1030
426.431	-76
426.506	280
426.581	380
426.655	423
426.730	168
426.805	224
426.879	448
426.954	-61
427.029	923
427.103	9586
427.178	27716
427.253	11734
427.327	1009
427.402	-262
427.476	240
427.551	-250
427.625	-485
427.700	403
427.774	-566
427.849	457
427.923	-386
427.998	151
428.072	383
428.147	3390
428.221	23384
428.296	76635
428.370	42574
428.444	3150
428.519	1185
428.593	-27
428.667	581
428.742	1054
428.816	6951
428.890	40755
428.965	66507
429.039	13122
429.113	1590
429.188	165
429.262	741
429.336	1097
429.410	3274
429.485	2622
429.559	561
429.633	893
429.707	360
429.781	5168
429.855	35553
429.930	55246
430.004	12830
430.078	4456
430.152	26666
430.226	122503
430.300	124083
430.374	16475
430.448	2598
430.522	1140
430.596	2781
430.670	12039
430.744	66613
430.818	84532
430.892	13087
430.966	1201
431.040	765
431.114	-531
431.188	6
431.262	-337
431.336	-810
431.410	415
431.484	642
431.557	1546
431.631	356
431.705	2101
431.779	17396
431.853	71429
431.927	48987
432.000	4365
432.074	1057
432.148	-699
432.222	-638
432.295	523
432.369	895
432.443	885
432.516	11490
432.590	29248
432.664	10249
432.737	94
432.811	-205
432.885	-344
432.958	-133
433.032	-827
433.106	391
433.179	12
433.253	77
433.326	-697
433.400	2
433.473	-551
433.547	-284
433.620	-211
433.694	220
433.767	10
433.841	-327
433.914	-216
433.988	-362
434.061	-397
434.134	-349
434.208	-283
434.281	-536
434.355	-860
434.428	155
434.501	-867
434.575	-707
434.648	-546
434.721	-531
434.795	-19
434.868	-858
434.941	-710
435.014	-666
435.088	-164
435.161	-373
435.234	593
435.307	619
435.381	766
435.454	286
435.527	1590
435.600	1358
435.673	664
435.746	335
435.819	909
435.892	955
435.966	383
436.039	-514
436.112	-87
436.185	-379
436.258	-783
436.331	-1214
436.404	-286
436.477	-68
436.550	-1395
436.623	289
436.696	-96
436.769	-545
436.842	-827
436.915	165
436.987	45
437.060	-265
437.133	-1241
437.206	-882
437.279	-188
437.352	-867
437.425	-337
437.498	-347
437.570	-238
437.643	-147
437.716	-556
437.789	298
437.861	-695
437.934	-89
438.007	-405
438.080	-537
438.152	-71
438.225	2859
438.298	19054
438.370	51118
438.443	17294
438.516	1281
438.588	-150
438.661	-396
438.734	-118
438.806	87
438.879	377
438.951	-560
439.024	-23
439.096	-815
439.169	177
439.241	-216
439.314	-829
439.386	-680
439.459	152
439.531	-651
439.604	-47
439.676	502
439.749	-456
439.821	-234
439.893	-891
439.966	-443
440.038	-551
440.110	285
440.183	-232
440.255	-228
440.327	657
440.400	4941
440.472	22445
440.544	12874
440.617	242
440.689	348
440.761	-683
440.833	131
440.905	142
440.978	-469
441.050	-826
441.122	364
441.194	-683
441.266	-60
441.338	-635
441.411	577
441.483	4463
441.555	7185
441.627	731
441.699	-186
441.771	-609
441.843	-371
441.915	-34
441.987	-949
442.059	223
442.131	-115
442.203	465
442.275	457
442.347	2179
442.419	5325
442.491	29952
442.563	66412
442.635	21135
442.706	2592
442.778	1350
442.850	-156
442.922	-397
442.994	-122
443.066	153
443.137	808
443.209	1478
443.281	2583
443.353	7256
443.425	40600
443.496	139122
443.568	116878
443.640	34756
443.711	5623
443.783	1198
443.855	1064
443.926	122
443.998	-682
444.070	-521
444.141	-897
444.213	-336
444.285	548
444.356	-58
444.428	-119
444.499	-405
444.571	-20
444.642	237
444.714	9
444.785	186
444.857	514
444.928	-72
445.000	86
445.071	-741
445.143	1662
445.214	2314
445.285	5121
445.357	17858
445.428	98770
445.500	213311
445.571	104532
445.642	46181
445.714	9711
445.785	2430
445.856	735
445.928	615
445.999	-367
446.070	-671
446.141	652
446.213	-442
446.284	-496
446.355	-326
446.426	-155
446.497	-215
446.569	-284
446.640	-363
446.711	180
446.782	-1152
446.853	-754
446.924	-370
446.995	-230
447.066	-454
447.138	-428
447.209	145
447.280	-914
447.351	-1312
447.422	-1114
447.493	-652
447.564	-265
447.635	-1176
447.706	-571
447.777	-617
447.847	-403
447.918	-1754
447.989	-615
448.060	-121
448.131	78
448.202	-66
448.273	111
448.344	-1204
448.414	-357
448.485	-282
448.556	-470
448.627	-666
448.698	340
448.768	-49
448.839	-618
448.910	-428
448.981	-137
449.051	-436
449.122	611
449.193	-504
449.263	-251
449.334	-706
449.405	671
449.475	1163
449.546	336
449.616	370
449.687	36
449.758	-95
449.828	-242
449.899	336
449.969	-99
450.040	1
450.110	-158
450.181	193
450.251	-316
450.322	-507
450.392	-234
450.463	-58
450.533	96
450.604	-512
450.674	-641
450.744	97
450.815	-771
450.885	-439
450.955	517
451.026	596
451.096	-482
451.166	-1185
451.237	-885
451.307	-607
451.377	396
451.447	-1586
451.518	-716
451.588	-829
451.658	-664
451.728	-768
451.799	-491
451.869	-561
451.939	-543
452.009	-670
452.079	-517
452.149	-336
452.219	-103
452.289	-269
452.360	177
452.430	-520
452.500	794
452.570	341
452.640	1457
452.710	2474
452.780	3049
452.850	2451
452.920	1205
452.990	615
453.060	325
453.129	-349
453.199	-972
453.269	-366
453.339	-462
453.409	-567
453.479	-579
453.549	-145
453.619	304
453.688	-475
453.758	-579
453.828	-472
453.898	-139
453.968	-665
454.037	-775
454.087	-103
454.107	166
454.168	-577
454.177	-693
454.247	-519
454.249	-526
454.316	-947
454.330	-938
454.386	-936
454.411	-973
454.456	-1116
454.492	-761
454.525	-423
454.574	-55
454.595	89
454.655	160
454.665	159
454.734	292
454.736	287
454.804	-341
454.817	-253
454.873	136
454.898	-315
454.943	-1186
454.979	-448
455.013	254
455.060	112
455.082	93
455.141	1019
455.152	1369
455.221	3806
455.222	3956
455.291	10209
455.303	15279
455.360	34986
455.384	55057
455.430	88002
455.465	59434
455.499	34251
455.546	12977
455.569	3211
455.627	839
455.638	416
455.707	77
455.708	87
455.777	-396
455.789	-379
455.846	-264
455.869	-96
455.916	102
455.950	18
455.985	-5
456.031	-70
456.054	-123
456.112	381
456.124	506
456.193	-115
456.193	-127
456.262	-1076
456.274	-919
456.332	127
456.355	250
456.401	306
456.436	-36
456.470	-360
456.516	-479
456.540	-612
456.597	-711
456.609	-730
456.678	258
456.678	257
456.747	-921
456.759	-858
456.817	-441
456.840	-171
456.886	239
456.920	344
456.955	461
457.001	-0
457.024	-286
457.082	-89
457.093	-26
457.162	-406
457.163	-395
457.232	-350
457.243	-361
457.301	-68
457.324	101
457.370	211
457.405	203
457.439	249
457.485	329
457.508	327
457.566	133
457.577	182
457.646	1633
457.647	1646
457.715	2397
457.727	2671
457.784	4042
457.808	5381
457.853	7453
457.889	8893
457.922	9267
457.969	6691
457.991	6240
458.050	6909
458.060	7158
458.129	12574
458.130	12712
458.198	12803
458.211	11437
458.267	5863
458.292	4096
458.336	2897
458.372	2931
458.405	3909
458.453	5912
458.474	6985
458.533	11756
458.543	12159
458.611	20371
458.614	20401
458.680	12546
458.694	9923
458.749	3773
458.775	2628
458.818	1400
458.855	1244
458.887	1330
458.936	725
458.955	372
459.016	529
459.024	652
459.093	1105
459.097	1145
459.162	1060
459.177	915
459.230	512
459.257	698
459.299	1133
459.338	1267
459.368	1176
459.418	1160
459.437	1129
459.499	582
459.505	578
459.574	959
459.579	997
459.643	604
459.659	352
459.711	108
459.740	270
459.780	333
459.820	487
459.849	825
459.900	1230
459.917	1220
459.981	956
459.986	902
460.054	528
460.061	480
460.123	706
460.141	737
460.191	885
460.222	1436
460.260	1872
460.302	1427
460.328	1325
460.382	1887
460.397	2343
460.462	4425
460.465	4793
460.534	13418
460.543	14567
460.602	36978
460.623	46281
460.671	68588
460.703	94794
460.739	90204
460.783	63480
460.808	52703
460.864	9801
460.876	4869
460.944	1917
460.945	1895
461.013	1730
461.024	1804
461.081	1431
461.104	1263
461.150	1340
461.184	1473
461.218	1501
461.264	1408
461.286	1300
461.345	1055
461.355	1083
461.423	820
461.425	823
461.491	340
461.505	322
461.559	610
461.585	650
461.628	640
461.665	769
461.696	934
461.745	1166
461.764	1282
461.825	1090
461.832	1067
461.901	1313
461.905	1336
461.969	665
461.985	442
462.037	1254
462.065	1656
462.105	1038
462.145	1001
462.173	1536
462.225	1567
462.241	1432
462.305	1309
462.310	1327
462.378	1277
462.385	1332
462.446	1292
462.465	1207
462.514	1370
462.545	1551
462.582	1632
462.625	1934
462.650	2050
462.705	1642
462.718	1558
462.785	1548
462.786	1547
462.854	1374
462.865	1274
462.922	1121
462.945	1238
462.990	1291
463.025	1266
463.058	1559
463.104	2007
463.126	1938
463.184	1535
463.194	1518
463.262	1279
463.264	1292
463.330	1783
463.344	1795
463.398	2115
463.424	2135
463.466	1409
463.504	997
463.533	1133
463.583	1268
463.601	1239
463.663	1124
463.669	1156
463.737	1508
463.743	1545
463.805	1746
463.823	1815
463.873	1954
463.903	1943
463.940	1494
463.982	976
464.008	1080
464.062	1522
464.076	1568
464.142	1415
464.144	1432
464.211	2317
464.221	2392
464.279	1873
464.301	1722
464.347	1930
464.381	2052
464.414	1839
464.461	1677
464.482	1848
464.540	1949
464.550	1981
464.617	2560
464.620	2572
464.685	3997
464.699	4298
464.753	4811
464.779	5069
464.820	6075
464.859	7146
464.888	6435
464.938	4891
464.956	5118
465.018	5848
465.023	5786
465.091	4927
465.098	4840
465.158	4968
465.177	5014
465.226	5097
465.257	5056
465.293	5001
465.336	5116
465.361	5236
465.416	5360
465.428	5479
465.495	5850
465.496	5854
465.563	4988
465.575	4835
465.631	5318
465.654	5534
465.698	5622
465.734	5593
465.765	5773
465.813	6042
465.833	5909
465.893	5539
465.900	5592
465.968	6048
465.972	6055
466.035	6167
466.052	6226
466.102	6529
466.131	6644
466.170	6720
466.210	6836
466.237	7500
466.290	8717
466.304	8463
466.369	7228
466.372	7295
466.439	8906
466.449	9134
466.506	8918
466.528	8782
466.573	9136
466.607	9399
466.641	9691
466.687	10067
466.708	10464
466.766	11468
466.775	11426
466.842	10980
466.845	10938
466.909	11512
466.925	11632
466.977	11393
467.004	11237
467.044	11591
467.083	11885
467.111	12601
467.163	13920
467.178	13941
467.242	13894
467.245	13800
467.312	11388
467.321	11050
467.379	10778
467.400	10654
467.446	10689
467.480	10682
467.559	10231
467.638	9072
467.717	8908
467.796	8231
467.875	9161
467.955	8510
468.034	8294
468.113	7678
468.192	8675
468.271	7846
468.350	8584
468.429	9288
468.508	9171
468.588	6953
468.667	7049
468.746	6060
468.825	6187
468.904	6780
468.983	6470
469.062	5952
469.141	6572
469.220	6144
469.299	6273
469.378	6008
469.456	10216
469.535	9167
469.614	7447
469.693	6715
469.772	6963
469.851	7104
469.930	7255
470.009	6591
470.088	7072
470.166	6708
470.245	7625
470.324	7016
470.403	7733
470.482	6780
470.560	6426
470.639	5084
470.718	7030
470.797	5764
470.875	6400
470.954	5787
471.033	5933
471.111	6129
471.190	6188
471.269	4811
471.347	4651
471.426	5010
471.505	6440
471.583	7568
471.662	7540
471.740	5297
471.819	6980
471.898	6074
471.976	7202
472.055	6357
472.133	7623
472.212	8450
472.290	5728
472.369	4874
472.447	5350
472.526	5685
472.604	6480
472.683	4834
472.761	5749
472.839	5214
472.918	5525
472.996	5069
473.075	5108
473.153	4383
473.231	4759
473.310	4472
473.388	5390
473.466	5280
473.545	6790
473.623	7201
473.701	6245
473.780	5348
473.858	4521
473.936	6839
474.014	5907
474.093	6346
474.171	7378
474.249	5858
474.327	5246
474.405	4433
474.484	4834
474.562	4571
474.640	5765
474.718	5891
474.796	7612
474.874	7015
474.952	6372
475.030	5553
475.108	7209
475.187	9098
475.265	8996
475.343	8422
475.421	7121
475.499	5731
475.577	6406
475.655	5553
475.733	5721
475.811	5526
475.889	4543
475.966	4600
476.044	4482
476.122	5022
476.200	4966
476.278	4054
476.356	3940
476.434	3932
476.512	4515
476.590	4057
476.667	4929
476.745	3094
476.823	4528
476.901	3505
476.979	3765
477.056	4400
477.134	3763
477.212	4350
477.290	4280
477.367	3985
477.445	4024
477.523	3099
477.601	3108
477.678	4110
477.756	3962
477.834	3892
477.911	2478
477.989	3097
478.066	3172
478.144	3605
478.222	4023
478.299	4048
478.377	5797
478.454	4708
478.532	2931
478.609	2813
478.687	4273
478.764	3159
478.842	3742
478.919	3066
478.997	4084
479.074	2625
479.152	3206
479.229	3578
479.307	3009
479.384	3317
479.461	3895
479.539	2221
479.616	3350
479.694	2824
479.771	2416
479.848	2896
479.926	1714
480.003	3911
480.080	3268
480.157	2632
480.235	2765
480.312	2783
480.389	2515
480.467	2607
480.544	2911
480.621	2246
480.698	3165
480.775	2660
480.853	2254
480.930	3715
481.007	2944
481.084	7590
481.161	11767
481.238	7079
481.315	2461
481.392	2546
481.470	1819
481.547	2419
481.624	3620
481.701	2498
481.778	2900
481.855	2507
481.932	2796
482.009	2336
482.086	1441
482.163	2391
482.240	3962
482.317	4332
482.393	4208
482.470	2200
482.547	2842
482.624	3009
482.701	2492
482.778	2007
482.855	1906
482.932	2820
483.009	3023
483.085	5712
483.162	7632
483.239	6573
483.316	3092
483.393	2662
483.469	4083
483.546	2944
483.623	3308
483.699	2417
483.776	2682
483.853	2154
483.930	2638
484.006	4184
484.083	8293
484.160	19763
484.236	36470
484.313	26202
484.389	17786
484.466	17456
484.543	16137
484.619	15805
484.696	17632
484.772	14827
484.849	15378
484.925	14993
485.002	14526
485.078	14279
485.155	13970
485.231	13697
485.308	13672
485.384	13425
485.461	15030
485.537	14269
485.614	13867
485.690	12545
485.766	13023
485.843	12574
485.919	13468
485.995	13592
486.072	12643
486.148	11785
486.224	11933
486.301	11406
486.377	12784
486.453	11487
486.530	14879
486.606	21112
486.682	21073
486.758	18106
486.835	17631
486.911	15984
486.987	17613
487.063	20330
487.139	25091
487.215	23878
487.292	18712
487.368	15904
487.444	15666
487.520	18048
487.596	23181
487.672	34066
487.748	62911
487.824	86676
487.900	40461
487.976	17850
488.052	13607
488.128	14499
488.204	11809
488.280	12303
488.356	13352
488.432	11780
488.508	12685
488.584	11266
488.660	9723
488.736	12254
488.812	10945
488.888	13070
488.964	15710
489.039	19740
489.115	25500
489.191	19241
489.267	12063
489.343	10435
489.418	10493
489.494	9608
489.570	8219
489.646	10638
489.722	10393
489.797	9685
489.873	10513
489.949	11645
490.024	11665
490.100	8636
490.176	9664
490.251	9399
490.327	11477
490.403	8126
490.478	9537
490.554	7608
490.629	8416
490.705	7416
490.781	9554
490.856	8230
490.932	9215
491.007	8060
491.083	9090
491.158	8334
491.234	8800
491.309	8070
491.385	7939
491.460	7769
491.536	8363
491.611	7893
491.686	9016
491.762	9732
491.837	11609
491.913	16581
491.988	18847
492.063	22659
492.139	8874
492.214	7254
492.289	7266
492.365	6136
492.440	7396
492.515	5687
492.590	6949
492.666	5189
492.741	6894
492.816	7292
492.891	6332
492.967	8215
493.042	8455
493.117	10748
493.192	16837
493.267	49653
493.342	154259
493.418	204364
493.493	22376
493.568	7306
493.643	6137
493.718	6331
493.793	5459
493.868	7916
493.943	6391
494.018	6217
494.093	5208
494.168	5314
494.243	5281
494.318	4900
494.393	5077
494.468	5684
494.543	5403
494.618	5600
494.693	5561
494.768	4541
494.842	5748
494.917	4885
494.992	5555
495.067	4474
495.142	5575
495.217	4706
495.292	5579
495.366	6056
495.441	5431
495.516	7114
495.591	8986
495.665	19185
495.740	36650
495.815	16502
495.890	5732
495.964	4373
496.039	8203
496.114	9848
496.188	15537
496.263	12766
496.338	6715
496.412	6525
496.487	7558
496.561	7411
496.636	9246
496.710	9091
496.785	10576
496.860	9684
496.934	9349
497.009	9578
497.083	11187
497.158	11524
497.232	12412
497.307	14517
497.381	16192
497.455	16857
497.530	19241
497.604	19680
497.679	20759
497.753	27285
497.827	34148
497.902	37210
497.976	37911
498.050	37009
498.125	39476
498.199	44611
498.273	51105
498.348	49112
498.422	44519
498.496	39383
498.570	34292
498.645	29355
498.719	24903
498.793	21512
498.867	20570
498.941	17907
499.016	17038
499.090	16278
499.164	15034
499.238	11729
499.312	10882
499.386	11013
499.460	10440
499.534	8574
499.609	9038
499.683	6902
499.757	7844
499.831	6343
499.905	8806
499.979	6581
500.053	5796
500.127	7235
500.201	6978
500.275	5429
500.349	5150
500.422	5201
500.496	6577
500.570	8221
500.644	8914
500.718	5231
500.792	5599
500.866	5114
500.940	4308
501.013	3806
501.087	3699
501.161	4565
501.235	4773
501.309	5181
501.382	4782
501.456	6144
501.530	2830
501.603	1954
501.677	3473
501.751	1832
501.825	5205
501.898	3686
501.972	3129
502.046	3400
502.119	2146
502.193	3798
502.266	3173
502.340	3557
502.413	2962
502.487	3585
502.561	2077
502.634	2604
502.708	4463
502.781	2446
502.855	3977
502.928	1563
503.002	2585
503.075	1484
503.149	3007
503.222	1809
503.295	1879
503.369	2193
503.442	2409
503.516	3224
503.589	3111
503.662	2532
503.736	3294
503.809	4642
503.882	3709
503.956	6884
504.029	12380
504.102	31145
504.175	42812
504.249	17397
504.322	7890
504.395	5120
504.468	3661
504.542	2893
504.615	1743
504.688	3816
504.761	204
504.834	3077
504.907	3099
504.980	3953
505.053	2660
505.127	1102
505.200	6172
505.273	1544
505.346	1790
505.419	928
505.492	2671
505.565	1189
505.638	2536
505.711	815
505.784	1116
505.857	1034
505.930	3021
506.003	-23
506.076	3020
506.149	450
506.221	239
506.294	3346
506.367	947
506.440	1951
506.513	3921
506.586	1750
506.659	767
506.731	1930
506.804	2177
506.877	1523
506.950	2190
507.022	2555
507.095	-99
507.168	1632
507.241	2894
507.313	1611
507.386	1659
507.459	2635
507.531	2134
507.604	1490
507.677	2684
507.749	532
507.822	4160
507.894	8535
507.967	13951
508.040	7179
508.112	5983
508.185	5710
508.257	3924
508.330	6932
508.402	4985
508.475	4759
508.547	4676
508.620	4727
508.692	4962
508.765	5509
508.837	4311
508.909	4671
508.982	4581
509.054	5192
509.127	4433
509.199	3570
509.271	2995
509.344	3673
509.416	4192
509.488	3720
509.560	4805
509.633	3890
509.705	4260
509.777	3940
509.849	5669
509.922	3596
509.994	4373
510.066	6084
510.138	6250
510.210	15821
510.283	13273
510.355	10480
510.427	9110
510.499	7530
510.571	6934
510.643	6738
510.715	9678
510.787	6028
510.859	8065
510.931	6647
511.003	7560
511.076	7698
511.148	5180
511.219	6629
511.291	7034
511.363	5788
511.435	5735
511.507	4777
511.579	6571
511.651	6528
511.723	5560
511.795	5043
511.867	5935
511.939	5793
512.010	5317
512.082	5376
512.154	5216
512.226	6269
512.298	11918
512.369	14375
512.441	11393
512.513	9292
512.585	8070
512.656	8904
512.728	7167
512.800	7320
512.871	7318
512.943	7141
513.015	5822
513.086	7672
513.158	7481
513.230	5892
513.301	7105
513.373	8599
513.444	6729
513.516	6652
513.588	6492
513.659	7056
513.731	7745
513.802	5321
513.874	10142
513.945	11014
514.016	6718
514.088	5445
514.159	5667
514.231	8554
514.302	12981
514.374	11565
514.445	7104
514.516	9721
514.588	7204
514.659	7121
514.730	8848
514.802	12617
514.873	17431
514.944	20571
515.016	14215
515.087	11206
515.158	10481
515.229	14380
515.301	20807
515.372	32142
515.443	21922
515.514	14374
515.585	10567
515.656	10796
515.728	9351
515.799	6295
515.870	7516
515.941	6983
516.012	6948
516.083	11465
516.154	10143
516.225	10122
516.296	9801
516.367	7716
516.438	6558
516.509	8016
516.580	11736
516.651	28116
516.722	66230
516.793	33476
516.864	9361
516.935	8738
517.006	10388
517.077	12508
517.148	27993
517.219	88029
517.289	121553
517.360	17739
517.431	8872
517.502	6055
517.573	7161
517.643	6110
517.714	9118
517.785	8995
517.856	7408
517.926	10248
517.997	9364
518.068	9352
518.138	14808
518.209	21099
518.280	74712
518.350	211711
518.421	83589
518.492	12297
518.562	9942
518.633	11318
518.703	14093
518.774	30498
518.845	62609
518.915	56803
518.986	19435
519.056	12745
519.127	13396
519.197	13349
519.268	10339
519.338	7973
519.408	6028
519.479	6935
519.549	5131
519.620	5957
519.690	4416
519.760	4988
519.831	4192
519.901	4478
519.971	4678
520.042	4260
520.112	4451
520.182	4842
520.253	5232
520.323	4041
520.393	3781
520.463	6601
520.534	1065
520.604	5883
520.674	3959
520.744	2205
520.814	3110
520.885	4924
520.955	3905
521.025	4345
521.095	3944
521.165	4954
521.235	3383
521.305	3398
521.375	4159
521.445	5395
521.515	3820
521.585	5509
521.655	3591
521.725	4711
521.795	5714
521.865	1033
521.935	6133
522.005	2302
522.075	3826
522.145	4607
522.215	2912
522.285	4147
522.355	3289
522.424	4914
522.494	4458
522.564	5712
522.634	8922
522.704	20490
522.774	8432
522.843	3547
522.913	3725
522.983	3713
523.053	3378
523.122	4157
523.192	5282
523.262	10426
523.331	9191
523.401	4195
523.471	4100
523.540	3765
523.610	2153
523.680	2929
523.749	3432
523.819	5278
523.888	4686
523.958	3275
524.027	2797
524.097	2852
524.166	2472
524.236	2117
524.305	5238
524.375	1774
524.444	2015
524.514	5406
524.583	2685
524.653	2215
524.722	2739
524.791	1987
524.861	5040
524.930	1654
524.999	2742
525.069	3799
525.138	2496
525.207	2250
525.277	3891
525.346	2670
525.415	3175
525.484	3064
525.554	4191
525.623	5385
525.692	8817
525.761	6209
525.830	5922
525.900	6961
525.969	12966
526.038	23675
526.107	53801
526.176	145419
526.245	113765
526.314	34961
526.383	76029
526.452	107186
526.522	176825
526.591	160846
526.660	25608
526.729	13935
526.797	19168
526.867	39763
526.935	141405
527.004	355434
527.073	210563
527.142	16491
527.211	6263
527.280	6247
527.349	4329
527.418	2789
527.487	4043
527.555	1088
527.624	3160
527.693	786
527.762	4042
527.831	609
527.899	2440
527.968	2038
528.037	288
528.106	2884
528.174	3804
528.243	2531
528.312	2216
528.380	4524
528.449	796
528.518	2801
528.586	226
528.655	2685
528.723	1959
528.792	531
528.861	562
528.929	-595
528.998	2838
529.066	1308
529.135	1649
529.203	242
529.272	-274
529.340	1622
529.409	2818
529.477	-437
529.545	611
529.614	2617
529.682	-986
529.751	590
529.819	3316
529.887	837
529.956	409
530.024	1656
530.092	380
530.161	2792
530.229	2122
530.297	556
530.365	1731
530.434	357
530.502	529
530.570	1875
530.638	-202
530.707	1931
530.775	2828
530.843	80
530.911	978
530.979	1044
531.047	571
531.115	1156
531.183	451
531.252	1008
531.320	599
531.388	-180
531.456	1683
531.524	-303
531.592	1855
531.660	3408
531.728	258
531.796	361
531.864	1755
531.932	1642
532.000	907
532.067	669
532.135	1761
532.203	3525
532.271	1833
532.339	3447
532.407	7901
532.475	4087
532.542	3415
532.610	3283
532.678	3877
532.746	18592
532.814	38271
532.881	7624
532.949	2301
533.017	1583
533.084	2115
533.152	294
533.220	1389
533.287	1185
533.355	1385
533.423	2031
533.490	834
533.558	1419
533.625	1823
533.693	2123
533.761	2490
533.828	2463
533.896	922
533.963	4885
534.031	5862
534.098	6985
534.166	3468
534.233	2542
534.300	4098
534.368	3422
534.435	2749
534.503	2769
534.570	2927
534.637	2644
534.705	5132
534.772	6835
534.840	16977
534.907	74327
534.974	85395
535.041	7943
535.109	2434
535.176	1708
535.243	2411
535.310	2363
535.378	2125
535.445	1758
535.512	2561
535.579	2224
535.646	1639
535.714	2673
535.781	5367
535.848	4813
535.915	4133
535.982	3116
536.049	4213
536.116	4118
536.183	2703
536.250	2347
536.317	2663
536.384	3484
536.451	4708
536.518	4145
536.585	1607
536.652	5314
536.719	5304
536.786	2196
536.853	2583
536.920	5636
536.987	5268
537.053	5044
537.120	22461
537.187	17025
537.254	2897
537.321	1907
537.388	3014
537.454	1562
537.521	1574
537.588	1632
537.654	4227
537.721	4161
537.788	4953
537.855	2004
537.921	3665
537.988	2325
538.055	3783
538.121	2341
538.188	3263
538.254	4028
538.321	5865
538.388	4263
538.454	2828
538.521	3470
538.587	2469
538.654	2678
538.720	2685
538.787	2675
538.853	2637
538.920	2542
538.986	3187
539.053	2419
539.119	3443
539.185	2574
539.252	4735
539.318	4118
539.385	5768
539.451	4361
539.517	5429
539.583	5199
539.650	7016
539.716	14820
539.782	5454
539.849	2491
539.915	4016
539.981	2528
540.047	3226
540.114	3473
540.180	3927
540.246	2751
540.312	4993
540.378	6534
540.444	7700
540.510	8201
540.576	17529
540.643	5520
540.709	2260
540.775	2610
540.841	2594
540.907	3705
540.973	7147
541.039	5962
541.105	5883
541.171	3992
541.237	2811
541.303	4608
541.369	6746
541.435	5185
541.500	6803
541.566	3014
541.632	4117
541.698	2430
541.764	3796
541.830	2784
541.896	2571
541.961	3645
542.027	2849
542.093	3525
542.159	4447
542.224	4128
542.290	7434
542.356	6712
542.421	8067
542.487	6847
542.553	3996
542.618	4478
542.684	3225
542.750	3430
542.815	4612
542.881	5225
542.947	15643
543.012	10793
543.078	3594
543.143	2792
543.209	4208
543.274	3210
543.340	4999
543.405	8164
543.471	10001
543.536	4883
543.602	3840
543.667	1552
543.732	4517
543.798	3074
543.863	4955
543.928	3382
543.994	2338
544.059	4250
544.124	4562
544.190	2911
544.255	4066
544.320	3939
544.386	3311
544.451	4732
544.516	4961
544.581	5630
544.646	12399
544.712	15729
544.777	5637
544.842	4373
544.907	3737
544.972	3461
545.037	5074
545.102	5606
545.168	4334
545.233	4683
545.298	5067
545.363	4796
545.428	6518
545.493	9120
545.558	12106
545.623	6748
545.688	4148
545.753	5100
545.818	4036
545.883	5429
545.947	4118
546.012	4918
546.077	4043
546.142	6035
546.207	4959
546.272	5815
546.337	5990
546.401	6241
546.466	6909
546.531	4702
546.596	6065
546.661	4380
546.725	6837
546.790	5025
546.855	6421
546.919	5408
546.984	8054
547.049	6751
547.113	8460
547.178	7013
547.243	9998
547.307	10672
547.372	11358
547.436	11103
547.501	11574
547.565	12146
547.630	12569
547.695	12485
547.759	11883
547.823	10561
547.888	11940
547.952	12659
548.017	15684
548.081	20866
548.146	16139
548.210	13419
548.274	13489
548.339	13704
548.403	12949
548.468	10913
548.532	10648
548.596	12870
548.660	11733
548.725	12527
548.789	14245
548.853	14180
548.917	13072
548.982	11551
549.046	12178
549.110	9286
549.174	11343
549.238	11923
549.303	13295
549.367	15053
549.431	12431
549.495	13009
549.559	12472
549.623	15054
549.687	15751
549.751	17106
549.815	18044
549.879	18387
549.943	16454
550.007	18722
550.071	17306
550.135	17088
550.199	15225
550.263	14756
550.327	16003
550.391	18173
550.455	19598
550.519	17575
550.582	19318
550.646	21202
550.710	21331
550.774	21315
550.838	21518
550.901	22195
550.965	24823
551.029	25336
551.093	29824
551.156	34065
551.220	40230
551.284	42875
551.347	31806
551.411	24479
551.475	22235
551.538	22469
551.602	20523
551.666	19763
551.729	17265
551.793	19705
551.856	18770
551.920	20249
551.983	19991
552.047	18177
552.110	18328
552.174	19676
552.237	18836
552.301	16581
552.364	15740
552.428	15789
552.491	16479
552.554	16359
552.618	16656
552.681	17804
552.745	15847
552.808	18810
552.871	21074
552.934	18542
552.998	16206
553.061	17669
553.124	17508
553.187	18407
553.251	19975
553.314	23577
553.377	30052
553.440	53126
553.503	166791
553.567	242546
553.630	40207
553.693	18972
553.756	17720
553.819	16036
553.882	15646
553.945	16676
554.008	16601
554.071	15078
554.134	16008
554.197	14453
554.260	14698
554.323	15520
554.386	14798
554.449	13670
554.512	15392
554.575	13196
554.638	14390
554.701	13396
554.764	14807
554.827	13596
554.889	11810
554.952	11699
555.015	11699
555.078	11804
555.141	12744
555.203	12506
555.266	12060
555.329	11569
555.391	11515
555.454	10497
555.517	11782
555.580	11327
555.642	9734
555.705	10413
555.768	11121
555.830	10645
555.893	9524
555.955	9935
556.018	9500
556.080	8639
556.143	9571
556.206	8367
556.268	9720
556.330	8949
556.393	9299
556.455	8791
556.518	8393
556.580	9078
556.643	8162
556.705	7858
556.767	7595
556.830	7842
556.892	8651
556.955	8375
557.017	9131
557.079	7272
557.142	7756
557.204	7338
557.266	11309
557.328	9303
557.391	6499
557.453	6744
557.515	7098
557.577	6676
557.639	8215
557.701	7161
557.764	7260
557.826	8090
557.888	9312
557.950	10706
558.012	12661
558.074	19970
558.136	50613
558.198	117391
558.260	35607
558.322	10229
558.384	11665
558.446	13176
558.508	15587
558.570	21490
558.632	31591
558.694	51492
558.756	91977
558.818	293000
558.880	635681
558.942	176898
559.003	123251
559.065	53430
559.127	18440
559.189	20046
559.251	27695
559.312	50289
559.374	127875
559.436	394557
559.498	166891
559.559	22855
559.621	19821
559.683	28429
559.744	52406
559.806	179938
559.868	247924
559.929	38438
559.991	21391
560.052	39944
560.114	115577
560.176	68662
560.237	65937
560.299	100322
560.360	17553
560.422	5606
560.483	5050
560.545	4352
560.606	4159
560.667	3160
560.729	4259
560.790	3597
560.852	3462
560.913	3087
560.974	3286
561.036	3043
561.097	3601
561.158	3852
561.220	4259
561.281	2509
561.342	3573
561.403	4795
561.465	4767
561.526	9084
561.587	10677
561.648	3818
561.709	3437
561.771	3434
561.832	3978
561.893	2982
561.954	3905
562.015	2371
562.076	3521
562.137	3185
562.198	2938
562.259	4259
562.320	2225
562.381	2948
562.442	5230
562.503	3891
562.564	3774
562.625	3037
562.686	3139
562.747	2643
562.808	3576
562.869	3506
562.930	3656
562.991	2128
563.051	2877
563.112	3198
563.173	2582
563.234	2864
563.294	3233
563.355	3122
563.416	3793
563.477	2489
563.537	3591
563.598	3825
563.659	3174
563.720	3193
563.780	3267
563.841	2817
563.901	4750
563.962	2804
564.023	3140
564.083	2710
564.144	3629
564.204	3386
564.265	3297
564.325	3765
564.386	3783
564.446	3781
564.507	3640
564.567	4374
564.628	3427
564.688	3683
564.749	2881
564.809	3871
564.869	4427
564.930	3555
564.990	5933
565.050	3717
565.111	5536
565.171	4988
565.231	4481
565.292	5752
565.352	3865
565.412	4845
565.472	4833
565.532	5917
565.593	5911
565.653	5637
565.713	6265
565.773	6675
565.833	6933
565.893	8388
565.953	6040
566.013	6858
566.074	8011
566.134	8009
566.194	8672
566.254	10521
566.314	9540
566.374	9539
566.434	10773
566.494	12664
566.554	13252
566.614	13185
566.673	14769
566.733	15353
566.793	17853
566.853	17601
566.913	19308
566.973	19543
567.033	19228
567.092	17783
567.152	19308
567.212	19098
567.272	20393
567.331	22270
567.391	24757
567.451	26524
567.511	27066
567.570	24997
567.630	21259
567.690	21520
567.749	22988
567.809	24161
567.868	29741
567.928	33283
567.988	40891
568.047	51298
568.107	68536
568.166	98705
568.226	150497
568.285	198441
568.345	183573
568.404	153052
568.464	131993
568.523	123627
568.582	122552
568.642	140305
568.701	172159
568.761	242754
568.820	345068
568.879	345909
568.939	277047
568.998	215775
569.057	165551
569.116	130723
569.176	104531
569.235	86736
569.294	71812
569.353	59514
569.413	51463
569.472	43151
569.531	38477
569.590	33488
569.649	30804
569.708	26462
569.767	25012
569.827	21801
569.886	19666
569.945	18039
570.004	17764
570.063	16023
570.122	15345
570.181	13727
570.240	12495
570.299	11782
570.358	11154
570.417	10227
570.475	10296
570.534	9572
570.593	10365
570.652	8142
570.711	8187
570.770	7926
570.829	9437
570.887	8260
570.946	8063
571.005	6966
571.064	6342
571.122	6328
571.181	5832
571.240	5428
571.299	5655
571.357	6012
571.416	5756
571.475	5108
571.533	4594
571.592	5422
571.650	5051
571.709	5135
571.768	5528
571.826	4915
571.885	4722
571.943	3721
572.002	3923
572.060	4306
572.119	3801
572.177	4404
572.236	4359
572.294	3626
572.352	4756
572.411	4026
572.469	4382
572.528	3181
572.586	3251
572.644	3993
572.703	4366
572.761	2468
572.819	3526
572.877	3733
572.936	4387
572.994	3724
573.052	3420
573.110	3299
573.169	4781
573.227	4068
573.285	3378
573.343	3435
573.401	3736
573.459	4082
573.517	3443
573.576	2850
573.634	3530
573.692	3302
573.750	3636
573.808	3136
573.866	3423
573.924	2824
573.982	3417
574.040	2744
574.098	3651
574.155	3966
574.213	3579
574.271	4337
574.329	3193
574.387	2961
574.445	2661
574.503	3457
574.560	2125
574.618	3099
574.676	2758
574.734	2915
574.792	3204
574.849	2919
574.907	2530
574.965	3056
575.022	2290
575.080	2623
575.138	2643
575.195	2441
575.253	2749
575.311	2996
575.368	3337
575.426	2290
575.483	3275
575.541	2833
575.598	2937
575.656	3169
575.713	2590
575.771	3829
575.828	2672
575.886	3025
575.943	3217
576.001	2723
576.058	2965
576.115	2186
576.173	2369
576.230	2787
576.287	3177
576.345	2910
576.402	2999
576.459	3194
576.517	2174
576.574	3084
576.631	2732
576.688	2656
576.746	2125
576.803	2357
576.860	2505
576.917	2653
576.974	2713
577.031	2335
577.089	3173
577.146	3822
577.203	3226
577.260	2784
577.317	2774
577.374	3230
577.431	3172
577.488	2689
577.545	3651
577.602	4478
577.659	4828
577.716	6686
577.773	8212
577.830	5176
577.886	4046
577.943	2671
578.000	3993
578.057	4048
578.114	4923
578.171	5229
578.227	5836
578.284	5391
578.341	5368
578.398	3744
578.454	4739
578.511	3106
578.568	3498
578.625	3381
578.681	3168
578.738	3064
578.794	2581
578.851	2753
578.908	3503
578.964	3412
579.021	4738
579.077	3119
579.134	3458
579.190	3624
579.247	3933
579.303	3181
579.360	2666
579.416	3535
579.473	3122
579.529	2845
579.586	3303
579.642	3585
579.698	4020
579.755	3915
579.811	3822
579.867	4829
579.924	4622
579.980	4627
580.036	5516
580.093	6382
580.149	9375
580.205	8964
580.261	7905
580.317	5905
580.374	5174
580.430	5693
580.486	4698
580.542	5220
580.598	5242
580.619	4953
580.654	4454
580.692	4225
580.710	4118
580.765	3976
580.767	3973
580.823	4351
580.838	4217
580.879	3864
580.911	4223
580.935	4502
580.984	4606
580.991	4626
581.047	4848
581.057	4904
581.103	5182
581.130	5268
581.159	5344
581.203	5577
581.215	5652
581.270	4905
581.276	4846
581.326	4270
581.349	4622
581.382	5136
581.422	5060
581.438	5032
581.494	4759
581.494	4752
581.550	4360
581.567	4445
581.606	4578
581.640	4648
581.661	4711
581.713	5226
581.717	5272
581.773	4918
581.786	4858
581.829	4591
581.859	4838
581.885	5090
581.932	4838
581.940	4778
581.996	5802
582.004	5669
582.052	4973
582.077	4665
582.107	4356
582.150	5522
582.163	5850
582.219	4924
582.223	4946
582.274	5278
582.296	4832
582.330	4108
582.368	5117
582.386	5627
582.441	6272
582.441	6273
582.497	5407
582.514	5889
582.552	7249
582.587	8165
582.608	8584
582.659	7646
582.663	7582
582.719	6059
582.732	5993
582.774	5679
582.805	5719
582.830	5975
582.877	5949
582.885	5872
582.941	5708
582.950	5784
582.996	6313
583.023	6534
583.052	6921
583.095	7363
583.107	7433
583.162	8401
583.168	8405
583.218	8420
583.240	8285
583.273	7977
583.313	7340
583.328	7207
583.384	7316
583.385	7332
583.439	7407
583.458	7257
583.494	7051
583.531	7164
583.549	7289
583.603	7417
583.605	7417
583.660	7298
583.676	7374
583.715	7640
583.748	7639
583.770	7611
583.820	7332
583.825	7301
583.881	7596
583.893	7425
583.936	6873
583.965	7262
583.991	7593
584.038	7764
584.046	7794
584.101	8032
584.110	7994
584.156	7728
584.183	8069
584.211	8529
584.255	8717
584.266	8796
584.321	9439
584.328	9438
584.376	9234
584.400	9522
584.431	9985
584.472	9739
584.486	9568
584.541	10018
584.545	10003
584.596	9983
584.617	10070
584.651	10345
584.689	10940
584.706	11057
584.761	10463
584.762	10461
584.816	10614
584.834	10831
584.871	11262
584.906	11506
584.926	11671
584.978	12066
584.980	12084
585.035	13528
585.051	13534
585.090	13185
585.123	13604
585.145	14232
585.195	15303
585.200	15434
585.254	17792
585.267	18712
585.309	22330
585.340	24794
585.364	25758
585.412	23087
585.419	22603
585.473	23594
585.484	23736
585.528	26445
585.556	30718
585.583	36924
585.628	51034
585.637	55703
585.692	104972
585.700	113082
585.747	144561
585.772	118928
585.801	76038
585.845	36554
585.856	30695
585.910	22990
585.917	22346
585.965	20891
585.989	20787
586.019	20869
586.061	20655
586.074	20664
586.128	20870
586.133	20924
586.183	21785
586.205	21938
586.237	21844
586.277	22256
586.292	22565
586.346	23228
586.349	23259
586.401	24030
586.421	24533
586.455	25080
586.493	25129
586.509	25300
586.564	26178
586.565	26198
586.618	27543
586.637	28005
586.672	28858
586.709	29965
586.727	30495
586.781	32159
586.781	32173
586.835	33093
586.853	33478
586.889	33988
586.925	34324
586.944	34780
586.996	37121
586.998	37193
587.052	38614
587.068	39101
587.106	40562
587.140	41634
587.161	42198
587.212	43729
587.215	43853
587.269	46622
587.284	47401
587.323	49659
587.356	51803
587.377	53432
587.427	56513
587.431	56747
587.485	59733
587.499	60851
587.539	64251
587.571	66520
587.593	68761
587.643	73906
587.648	74460
587.702	80636
587.715	82364
587.755	88349
587.786	92526
587.810	95994
587.858	103595
587.864	104693
587.917	115627
587.930	118321
587.971	128391
588.001	135651
588.025	142908
588.073	158744
588.079	161041
588.133	181232
588.145	186132
588.187	205822
588.217	219848
588.241	234196
588.288	264179
588.295	268945
588.348	310537
588.360	319944
588.402	363534
588.431	396080
588.456	428223
588.503	495759
588.510	508094
588.564	614442
588.575	638794
588.617	757535
588.646	847088
588.671	952834
588.718	1173035
588.725	1219324
588.778	1595107
588.789	1674044
588.832	2013820
588.861	2225935
588.886	2277878
588.932	2241541
588.939	2221712
588.993	2058466
589.004	2052941
589.047	2213187
589.075	2248445
589.100	2071397
589.147	1674647
589.154	1628784
589.207	1292801
589.218	1230747
589.261	1140417
589.290	1097330
589.314	1129398
589.361	1216592
589.368	1251835
589.421	1568755
589.433	1640660
589.475	1959634
589.504	2154875
589.528	2167577
589.576	2087856
589.582	2079613
589.635	2062499
589.647	2034574
589.689	1618716
589.718	1307165
589.742	1117534
589.790	768302
589.795	745803
589.849	555274
589.861	513360
589.902	432632
589.932	376980
589.955	348571
590.004	291698
590.009	287753
590.062	245820
590.075	235833
590.115	213450
590.146	196171
590.168	187286
590.218	168126
590.222	166904
590.275	150217
590.289	145767
590.328	135707
590.360	127889
590.381	123704
590.431	113215
590.435	112780
590.488	104042
590.503	101692
590.541	96867
590.574	92307
590.594	89676
590.645	83339
590.647	83241
590.700	77945
590.716	76524
590.753	74128
590.787	71569
590.806	69994
590.859	65518
590.859	65551
590.912	62967
590.930	62042
590.965	60506
591.001	59023
591.018	58079
591.071	54713
591.072	54606
591.124	52446
591.143	51539
591.177	50180
591.214	48576
591.230	48297
591.283	47473
591.285	47357
591.336	44658
591.356	43616
591.389	43324
591.427	42778
591.442	42227
591.495	40069
591.498	39835
591.547	38569
591.569	38043
591.600	37778
591.640	37054
591.653	36740
591.706	35495
591.711	35276
591.759	34670
591.782	34356
591.811	33729
591.853	32685
591.864	32672
591.917	32234
591.924	32120
591.969	31286
591.995	30756
592.022	30135
592.066	28909
592.075	28955
592.127	28998
592.137	28952
592.180	28746
592.208	28545
592.233	27736
592.279	26007
592.285	26144
592.338	27014
592.350	27153
592.390	26487
592.421	25923
592.443	26085
592.491	26299
592.495	26280
592.548	25406
592.562	25124
592.600	25114
592.633	25032
592.653	24402
592.704	22522
592.705	22665
592.775	23409
592.846	22825
592.916	22358
592.987	22713
593.058	22407
593.128	20432
593.199	21220
593.270	19817
593.341	19038
593.411	18982
593.482	19807
593.553	19440
593.623	18353
593.694	18115
593.764	18846
593.835	18392
593.906	17985
593.976	18289
594.047	17839
594.117	18835
594.188	17651
594.258	17579
594.329	17290
594.399	17061
594.470	16549
594.540	18207
594.611	17198
594.681	16671
594.751	16151
594.822	17403
594.892	17964
594.963	16939
595.033	16900
595.103	16595
595.174	16881
595.244	16251
595.314	16146
595.384	16024
595.455	16546
595.525	16582
595.595	17023
595.665	16839
595.736	16814
595.806	16121
595.876	16177
595.946	16357
596.016	15904
596.087	16214
596.157	17115
596.227	15973
596.297	18010
596.367	17156
596.437	18645
596.507	18033
596.577	17337
596.647	18314
596.717	18500
596.787	18626
596.857	19115
596.927	19218
596.997	19971
597.067	20009
597.137	23545
597.207	20614
597.277	19106
597.347	18587
597.417	17572
597.487	18646
597.557	17289
597.626	18396
597.696	18326
597.766	18228
597.836	16970
597.906	16558
597.975	16376
598.045	16474
598.115	17529
598.185	18016
598.254	20439
598.324	20856
598.394	21027
598.464	19803
598.533	19673
598.603	19025
598.672	17843
598.742	18052
598.812	18615
598.881	19167
598.951	19160
599.020	18693
599.090	20112
599.159	19955
599.229	19372
599.299	18776
599.368	18322
599.437	18541
599.507	17992
599.576	17651
599.646	19483
599.715	19939
599.785	16215
599.854	15778
599.924	16225
599.993	15259
600.062	16349
600.132	15437
600.201	16402
600.270	19440
600.340	19410
600.409	18975
600.478	19462
600.547	18775
600.617	18575
600.686	14514
600.755	14075
600.824	13537
600.894	13535
600.963	13754
601.032	12236
601.101	12534
601.170	11920
601.239	10924
601.308	11970
601.378	11702
601.447	11754
601.516	11783
601.585	11747
601.654	12253
601.723	12135
601.792	11996
601.861	14527
601.930	17044
601.999	13514
602.068	12356
602.137	12456
602.206	13065
602.275	13638
602.343	12725
602.412	12341
602.481	13400
602.550	12753
602.619	13666
602.688	13530
602.756	12943
602.825	14270
602.894	14025
602.963	13352
603.032	14568
603.100	13629
603.169	15004
603.238	14018
603.307	14668
603.375	15066
603.444	14862
603.513	14102
603.581	14244
603.650	14190
603.719	14534
603.787	15068
603.856	15622
603.924	16042
603.993	16013
604.061	16352
604.130	17188
604.198	17550
604.267	17943
604.335	17746
604.404	18344
604.472	17487
604.541	17951
604.609	18680
604.678	18689
604.746	18788
604.815	19130
604.883	19478
604.951	20501
605.020	19066
605.088	19655
605.156	21254
605.225	20905
605.293	20768
605.361	20875
605.429	21954
605.498	21866
605.566	22390
605.634	23405
605.702	24309
605.771	24196
605.839	24506
605.907	24911
605.975	23048
606.043	23348
606.111	24192
606.180	24565
606.248	28101
606.316	29611
606.384	22209
606.452	23056
606.520	23238
606.588	23274
606.656	23561
606.724	22790
606.792	22137
606.860	20200
606.928	18515
606.996	17935
607.064	17053
607.132	17408
607.200	18679
607.267	19009
607.335	19359
607.403	21123
607.471	18858
607.539	18929
607.607	19185
607.674	16482
607.742	17315
607.810	16726
607.878	16692
607.946	17024
608.013	17823
608.081	18024
608.149	17975
608.216	18771
608.284	20217
608.352	19852
608.419	18213
608.487	19587
608.555	17941
608.622	20344
608.690	20414
608.757	22237
608.825	22941
608.893	21189
608.960	20539
609.028	20005
609.095	21040
609.163	19435
609.230	17738
609.298	16894
609.365	17880
609.432	19280
609.500	20181
609.567	23497
609.635	27071
609.702	27149
609.769	25853
609.837	21402
609.904	19372
609.971	20295
610.039	25929
610.106	34804
610.173	65157
610.241	146531
610.308	80525
610.375	28330
610.442	19766
610.509	18935
610.577	19991
610.644	19211
610.711	19739
610.778	21155
610.845	21701
610.912	23383
610.980	27587
611.047	36224
611.114	27853
611.181	22275
611.248	21214
611.315	24506
611.382	22631
611.449	25307
611.516	24795
611.583	23999
611.650	24482
611.717	25925
611.784	26601
611.851	28826
611.918	34369
611.984	43139
612.051	69377
612.118	140334
612.185	345406
612.252	198153
612.319	45576
612.386	34861
612.452	30558
612.519	28286
612.586	27568
612.653	28663
612.719	28026
612.786	26514
612.853	24774
612.919	23640
612.986	25221
613.053	23077
613.120	21955
613.186	20315
613.253	23020
613.319	20935
613.386	21488
613.453	21099
613.519	22351
613.586	22020
613.652	24419
613.719	22967
613.785	23484
613.852	23636
613.918	24225
613.985	30549
614.051	44761
614.118	87084
614.184	77170
614.250	26975
614.317	22653
614.383	23875
614.449	23077
614.516	24410
614.582	23717
614.648	21987
614.715	22343
614.781	21519
614.847	22033
614.914	21638
614.980	21898
615.046	23065
615.112	24150
615.179	25119
615.245	28874
615.311	38204
615.377	60782
615.443	67208
615.509	40071
615.575	31590
615.642	27993
615.708	30493
615.774	34065
615.840	40608
615.906	54134
615.972	87486
616.038	166642
616.104	257707
616.170	475369
616.236	358455
616.302	78290
616.368	49134
616.434	34639
616.500	31773
616.565	34752
616.631	42320
616.697	34707
616.763	36425
616.829	53573
616.895	91299
616.961	84165
617.026	37539
617.092	26021
617.158	24207
617.224	22123
617.289	20952
617.355	20279
617.421	18412
617.487	19932
617.552	18504
617.618	18297
617.684	17696
617.749	19819
617.815	19386
617.880	17094
617.946	18100
618.012	17142
618.077	17392
618.143	17506
618.208	16926
618.274	17669
618.339	17819
618.405	14676
618.470	16183
618.536	15724
618.601	14503
618.667	13446
618.732	13948
618.798	13634
618.863	13794
618.928	12612
618.994	13602
619.059	15083
619.124	14565
619.190	13721
619.255	13270
619.320	12928
619.386	13270
619.451	12886
619.516	13119
619.581	13432
619.647	12631
619.712	13461
619.777	12602
619.842	13314
619.907	12931
619.972	12993
620.038	13114
620.103	12887
620.168	12025
620.233	13239
620.298	11713
620.363	12614
620.428	13313
620.493	13583
620.558	14296
620.623	13775
620.688	13776
620.753	13155
620.818	13356
620.883	13362
620.948	13726
621.013	13850
621.078	12958
621.143	12712
621.207	16067
621.272	13945
621.337	13603
621.402	13269
621.467	14137
621.532	13418
621.596	12623
621.661	13043
621.726	13663
621.791	12591
621.855	12881
621.920	12880
621.985	12287
622.049	13264
622.114	12784
622.179	13923
622.243	12330
622.308	14062
622.373	15542
622.437	15204
622.502	13103
622.566	13250
622.631	12428
622.695	14261
622.760	13080
622.824	13648
622.889	13035
622.953	12851
623.018	15661
623.082	14788
623.147	13494
623.211	14074
623.276	14129
623.340	12535
623.404	12883
623.469	13013
623.533	13477
623.597	11704
623.662	12181
623.726	11062
623.790	11536
623.854	10382
623.919	11554
623.983	11348
624.047	11167
624.111	11570
624.176	11395
624.240	10156
624.304	13013
624.368	11811
624.432	12184
624.496	12111
624.560	12186
624.625	11477
624.689	12980
624.753	12675
624.817	12804
624.881	11786
624.945	11163
625.009	11135
625.073	11283
625.137	10077
625.201	11737
625.265	13025
625.329	12115
625.393	11634
625.456	11444
625.520	11302
625.584	11938
625.648	12027
625.712	12010
625.776	12118
625.839	11695
625.903	9144
625.967	8702
626.031	11165
626.095	11398
626.158	11255
626.222	7220
626.286	9326
626.349	7361
626.413	7151
626.477	9294
626.540	6996
626.604	7219
626.668	7856
626.731	6393
626.795	7491
626.858	6262
626.922	6221
626.986	8101
627.049	5071
627.113	8559
627.176	7870
627.240	6825
627.303	6892
627.366	6845
627.430	7896
627.493	7095
627.557	5247
627.620	8222
627.684	7082
627.747	7821
627.810	5169
627.874	5145
627.937	4773
628.000	7857
628.064	6032
628.127	4272
628.190	5872
628.253	5417
628.317	4162
628.380	5677
628.443	4497
628.506	4111
628.569	5163
628.632	4023
628.696	4515
628.759	3078
628.822	3995
628.885	3798
628.948	4210
629.011	3873
629.074	3325
629.137	2781
629.200	2539
629.263	4804
629.326	2604
629.389	3403
629.452	3707
629.515	4088
629.578	3233
629.641	3494
629.704	3268
629.767	2568
629.830	4006
629.892	2962
629.955	2748
630.018	5049
630.081	3082
630.144	4458
630.207	2058
630.269	4606
630.332	2668
630.395	3771
630.458	3785
630.520	1914
630.583	4426
630.646	3826
630.708	3187
630.771	2805
630.834	3937
630.896	2599
630.959	3972
631.021	2804
631.084	2120
631.146	3222
631.209	3754
631.272	2943
631.334	3344
631.397	2938
631.459	2972
631.522	4037
631.584	3433
631.646	4373
631.709	4596
631.771	3786
631.834	4537
631.896	3891
631.958	3201
632.021	4600
632.083	2063
632.145	4108
632.208	2777
632.270	3753
632.332	2573
632.395	1706
632.457	4013
632.519	2863
632.581	4446
632.643	2218
632.706	3196
632.768	2331
632.830	4059
632.892	2814
632.954	2831
633.016	3238
633.078	2721
633.141	2228
633.203	3264
633.265	3250
633.327	3551
633.389	2468
633.451	3250
633.513	2850
633.575	3725
633.637	3105
633.698	2537
633.760	4206
633.822	3520
633.884	3607
633.946	3946
634.008	4120
634.070	4923
634.132	7238
634.193	5859
634.255	4699
634.317	4508
634.379	5162
634.441	4033
634.502	3212
634.564	4216
634.626	3698
634.687	4331
634.749	3149
634.811	3702
634.873	3036
634.934	3055
634.996	4792
635.057	2839
635.119	2064
635.181	2891
635.242	3839
635.304	1626
635.365	5719
635.427	2948
635.488	3199
635.550	2083
635.611	3347
635.673	528
635.734	3516
635.796	2706
635.857	4421
635.918	3304
635.980	4786
636.041	3563
636.102	5566
636.164	4866
636.225	5366
636.286	2704
636.348	3979
636.409	2863
636.470	2632
636.531	3519
636.593	2433
636.654	3438
636.715	3253
636.776	3007
636.838	1982
636.899	3314
636.960	1788
637.021	2701
637.082	2642
637.143	2887
637.204	1298
637.265	2134
637.326	2763
637.387	2302
637.448	779
637.509	3048
637.570	2086
637.631	3374
637.692	1554
637.753	803
637.814	2401
637.875	1556
637.936	3289
637.997	1886
638.058	2325
638.119	2822
638.179	2815
638.240	787
638.301	3030
638.362	911
638.423	1085
638.483	3013
638.544	626
638.605	2892
638.666	1175
638.726	2710
638.787	2814
638.848	1559
638.908	2057
638.969	2363
639.030	1919
639.090	607
639.151	878
639.211	2898
639.272	2833
639.332	2985
639.393	2226
639.453	1015
639.514	2242
639.574	2422
639.635	1133
639.695	2454
639.756	1417
639.816	3125
639.877	2438
639.937	2491
639.997	2729
640.058	312
640.118	1287
640.178	2706
640.239	1132
640.299	929
640.359	2281
640.420	2720
640.480	2800
640.540	1741
640.600	2057
640.661	3349
640.721	2615
640.781	5782
640.841	4954
640.901	3396
640.961	2435
641.021	2020
641.082	506
641.142	2282
641.202	2999
641.262	116
641.322	3039
641.382	644
641.442	1857
641.502	963
641.562	2419
641.622	1142
641.682	1736
641.742	2150
641.802	1872
641.861	1928
641.921	1976
641.981	2441
642.041	1815
642.101	2019
642.161	82
642.221	499
642.280	1402
642.340	1382
642.400	439
642.460	2485
642.519	916
642.579	1318
642.639	2482
642.698	-803
642.758	4194
642.818	1758
642.877	200
642.937	1627
642.997	2322
643.056	2365
643.116	233
643.175	3558
643.235	1291
643.294	2561
643.354	2982
643.414	3635
643.473	4844
643.532	6598
643.592	10732
643.651	18184
643.711	31433
643.770	59353
643.830	134679
643.889	276109
643.948	67454
644.008	9687
644.067	4403
644.126	3536
644.186	2644
644.245	3323
644.304	263
644.363	3565
644.423	1555
644.482	2108
644.541	3027
644.600	1488
644.659	3807
644.719	4256
644.778	6780
644.837	12036
644.896	23952
644.955	53526
645.014	19320
645.073	5189
645.132	1846
645.191	2622
645.250	2776
645.309	3306
645.368	2227
645.427	3896
645.486	5050
645.545	9728
645.604	2540
645.663	2831
645.722	1807
645.781	4059
645.840	4787
645.898	5799
645.957	10160
646.016	14109
646.075	26561
646.134	50599
646.192	131149
646.251	186254
646.310	28077
646.369	6117
646.427	4651
646.486	2830
646.545	2310
646.603	2542
646.662	2444
646.721	2680
646.779	1609
646.838	1343
646.896	3995
646.955	3755
647.014	6380
647.072	11885
647.131	33311
647.189	16256
647.248	2104
647.306	2022
647.365	2289
647.423	-983
647.481	2399
647.540	-71
647.598	1065
647.657	678
647.715	1204
647.773	-89
647.832	1844
647.890	5
647.948	477
648.007	2486
648.065	166
648.123	857
648.181	3822
648.240	4738
648.298	2506
648.356	1260
648.414	1119
648.472	854
648.531	1738
648.589	835
648.647	1100
648.705	963
648.763	22
648.821	956
648.879	649
648.937	1859
648.995	3098
649.053	3452
649.111	6647
649.169	10765
649.227	18165
649.285	36612
649.343	102020
649.401	52548
649.459	9573
649.516	9222
649.574	10920
649.632	29558
649.690	35596
649.748	10598
649.806	12115
649.863	22280
649.921	24759
649.979	15543
650.037	3492
650.094	-644
650.152	1551
650.210	809
650.268	1267
650.325	2023
650.383	3459
650.440	81
650.498	1016
650.556	585
650.613	-128
650.671	845
650.728	218
650.786	828
650.843	1539
650.901	-1491
650.958	319
651.016	-194
651.073	176
651.131	154
651.188	-950
651.246	528
651.303	-1327
651.360	263
651.418	-361
651.475	631
651.532	-716
651.590	682
651.647	-5
651.704	1008
651.762	296
651.819	484
651.876	864
651.933	-153
651.990	750
652.048	-464
652.105	-93
652.162	1329
652.219	-486
652.276	655
652.333	358
652.390	-163
652.448	175
652.505	912
652.562	954
652.619	2579
652.676	5254
652.733	6006
652.790	616
652.847	-1069
652.904	1039
652.961	-1198
653.017	-225
653.074	757
653.131	-239
653.188	-595
653.245	-243
653.302	-776
653.359	-161
653.415	-331
653.472	-979
653.529	334
653.586	-710
653.642	-325
653.699	411
653.756	-496
653.813	-682
653.869	-88
653.926	-715
653.983	-1190
654.039	-216
654.096	-441
654.152	828
654.209	-838
654.266	-203
654.322	-750
654.379	234
654.435	746
654.492	93
654.548	-225
654.605	-343
654.661	1274
654.717	482
654.774	431
654.830	123
654.887	-178
654.943	-186
655.000	1188
655.056	624
655.112	-235
655.168	-1334
655.225	748
655.281	233
655.337	252
655.394	-1077
655.450	158
655.506	415
655.562	-342
655.618	241
655.675	-387
655.731	-10
655.787	-71
655.843	458
655.899	-641
655.955	166
656.011	626
656.067	195
656.123	1932
656.179	938
656.235	2284
656.291	-489
656.347	789
656.403	-319
656.459	-84
656.515	-731
656.571	264
656.627	206
656.683	-861
656.739	892
656.795	585
656.850	-266
656.906	-378
656.962	931
657.018	-828
657.074	260
657.129	-589
657.185	728
657.241	2232
657.297	591
657.352	-114
657.408	89
657.464	629
657.519	-214
657.575	-177
657.630	-690
657.686	-371
657.742	-1135
657.797	-311
657.853	-425
657.908	336
657.964	-351
658.019	-603
658.075	-288
658.130	792
658.186	-1055
658.241	48
658.297	-1351
658.352	-844
658.407	133
658.463	-1208
658.518	-443
658.573	180
658.629	-1506
658.684	-574
658.739	407
658.795	-1188
658.850	0
658.905	-759
658.960	-673
659.016	-703
659.071	-457
659.126	-407
659.181	9
659.236	808
659.291	1747
659.346	367
659.401	1503
659.457	3050
659.512	4442
659.567	1489
659.622	-418
659.677	-207
659.732	-1056
659.787	-365
659.842	-1031
659.897	-221
659.952	-144
660.007	-384
660.061	199
660.116	-1172
660.171	-1322
660.226	-1053
660.281	191
660.336	-1426
660.391	175
660.445	-1011
660.500	595
660.555	130
660.610	-722
660.664	89
660.719	-1276
660.774	920
660.828	-481
660.883	-497
660.938	520
660.992	-1329
661.047	-449
661.101	-621
661.156	-636
661.211	-151
661.265	163
661.320	-1104
661.374	-259
661.429	-546
661.483	486
661.538	-588
661.592	113
661.647	232
661.701	842
661.755	-305
661.810	226
661.864	-684
661.919	-831
661.973	-734
662.027	-1193
662.081	-1087
662.136	-775
662.190	332
662.244	49
662.299	-679
662.353	-528
662.407	-880
662.461	-357
662.515	-876
662.569	-429
662.624	149
662.678	-1529
662.732	-513
662.786	-980
662.840	-672
662.894	-531
662.948	-1398
663.002	-695
663.056	-752
663.110	-781
663.164	352
663.218	-1024
663.272	-262
663.326	26
663.380	-1239
663.434	-467
663.488	-1258
663.542	-309
663.595	-69
663.649	-1553
663.703	-474
663.757	-1328
663.811	-1234
663.864	-942
663.918	106
663.972	-892
664.026	-1129
664.079	-621
664.133	-868
664.187	-524
664.240	-539
664.294	-972
664.348	489
664.401	-945
664.455	-1057
664.508	-893
664.562	585
664.615	-632
664.669	-348
664.722	-471
664.776	-790
664.829	-682
664.883	-137
664.936	-736
664.990	-1435
665.043	-857
665.097	-868
665.150	-43
665.203	-781
665.257	-1170
665.310	-744
665.363	-324
665.417	-856
665.470	-275
665.523	-367
665.576	-803
665.630	-519
665.683	-569
665.736	-746
665.789	-928
665.842	-709
665.895	-529
665.949	-948
666.002	-261
666.055	-1372
666.108	-373
666.161	-995
666.214	51
666.267	-1636
666.320	-467
666.373	-474
666.426	-1195
666.479	-255
666.532	-664
666.585	-964
666.638	-908
666.691	-499
666.744	110
666.796	-1154
666.849	305
666.902	-125
666.955	-348
667.008	-398
667.060	-162
667.113	-720
667.166	61
667.219	-855
667.271	-756
667.324	-1074
667.377	14
667.430	-551
667.482	1131
667.535	827
667.587	190
667.640	-956
667.693	-675
667.745	-877
667.798	-362
667.850	-909
667.903	-639
667.955	-396
668.008	-673
668.060	-225
668.113	-383
668.165	-355
668.218	-530
668.270	-248
668.322	-40
668.375	-583
668.427	-95
668.479	-1225
668.532	-782
668.584	-1019
668.636	-586
668.689	185
668.741	-656
668.793	-573
668.845	-757
668.898	-437
668.950	-321
669.002	-666
669.054	-547
669.106	-1038
669.158	19
669.211	-548
669.263	-762
669.315	868
669.367	1684
669.419	435
669.471	448
669.523	1297
669.575	1130
669.627	853
669.679	236
669.731	-476
669.783	-338
669.835	1125
669.886	-902
669.938	-475
669.990	-385
670.042	-867
670.094	-277
670.146	-663
670.197	185
670.249	565
670.301	238
670.353	1729
670.404	2901
670.456	4647
670.508	6887
670.560	11939
670.611	18381
670.663	28951
670.715	70656
670.766	114309
670.818	37722
670.869	4572
670.921	1272
670.972	1515
671.024	957
671.075	-227
671.127	461
671.178	-433
671.230	-757
671.281	30
671.333	-177
671.384	-844
671.436	-288
671.487	600
671.538	1323
671.590	2023
671.641	2963
671.692	6508
671.744	12389
671.795	10976
671.846	3214
671.897	58
671.949	952
672.000	-52
672.051	-390
672.102	-339
672.153	-990
672.204	-481
672.256	-587
672.307	-8
672.358	-599
672.409	-1411
672.460	-1121
672.511	-405
672.562	-1785
672.613	-1471
672.664	-1028
672.715	-1151
672.766	-452
672.817	-549
672.868	-623
672.919	-1043
672.970	-1167
673.021	-481
673.071	-1385
673.122	-362
673.173	-943
673.224	-471
673.275	-1701
673.326	-653
673.376	-367
673.427	-954
673.478	-667
673.528	-668
673.579	-616
673.630	-1234
673.680	-285
673.731	-1878
673.782	-730
673.832	-1052
673.883	-1006
673.934	-1717
673.984	-1045
674.035	-1063
674.085	-881
674.136	-620
674.186	-903
674.237	-971
674.287	-733
674.338	-1090
674.388	-960
674.438	-878
674.489	-1009
674.539	-969
674.589	-1283
674.640	-1329
674.690	-1035
674.740	-1111
674.791	-1196
674.841	-664
674.891	-1163
674.942	-1001
674.992	-931
675.042	-1461
675.092	-656
675.142	-2089
675.193	-1085
675.243	-823
675.293	-1245
675.343	-390
675.393	-1770
675.443	-401
675.493	166
675.543	-901
675.593	-1332
675.643	-1087
675.693	-872
675.743	-1060
675.793	-441
675.843	-770
675.893	-1318
675.943	-911
675.993	-1111
676.043	-1509
676.093	-864
676.142	-1194
676.192	-1220
676.242	-1542
676.292	-1607
676.341	-1677
676.391	-1537
676.441	-1467
676.491	-1300
676.540	-1288
676.590	-743
676.640	-1311
676.689	-762
676.739	-1685
676.789	-1082
676.838	-636
676.888	-1073
676.937	-1784
676.987	-935
677.037	-1028
677.086	-1538
677.136	-883
677.185	-766
677.235	-1171
677.284	-1576
677.333	-680
677.383	-1504
677.432	-1161
677.482	-772
677.531	-580
677.580	-1370
677.630	-1071
677.679	-995
677.728	-1433
677.778	-437
677.827	-546
677.876	-846
677.925	-822
677.975	-1237
678.024	-844
678.073	-616
678.122	-1281
678.171	-1175
678.220	-1062
678.269	-973
678.319	-867
678.368	-1420
678.417	-1206
678.466	-982
678.515	-1439
678.564	-1173
678.613	-1404
678.662	-1024
678.711	-601
678.760	-1072
678.809	-929
678.857	-1195
678.906	-303
678.955	-1598
679.004	-679
679.053	-794
679.102	-490
679.151	-1547
679.199	-1288
679.248	-718
679.297	-1642
679.346	-1147
679.394	-1542
679.443	-939
679.492	-917
679.540	-1366
679.589	-1113
679.638	-1564
679.686	-578
679.735	-440
679.784	-1056
679.832	-1163
679.881	-1157
679.929	-271
679.978	-1379
680.026	-1382
680.075	-1186
680.123	-818
680.172	-912
680.220	-925
680.268	-866
680.317	-1169
680.365	-1515
680.414	-1448
680.462	-1226
680.510	-264
680.559	-1508
680.607	-1161
680.655	-886
680.703	-1550
680.752	-1452
680.800	-1414
680.848	-584
680.896	-1680
680.945	-1327
680.993	-1564
681.041	-1354
681.089	-982
681.137	-877
681.185	-1258
681.233	-1468
681.258	-1662
681.281	-1852
681.329	-1415
681.377	-1683
681.380	-1695
681.425	-1991
681.473	-704
681.502	-1317
681.521	-1756
681.569	-828
681.617	-1315
681.624	-1415
681.665	-2075
681.713	-649
681.745	-679
681.761	-709
681.809	-1600
681.857	-679
681.867	-625
681.904	-433
681.952	-444
681.989	-761
682.000	-864
682.048	-752
682.096	-685
682.111	-816
682.143	-1100
682.191	-1444
682.233	-629
682.239	-516
682.286	-1539
682.334	-1620
682.354	-1621
682.382	-1601
682.430	-810
682.476	-703
682.477	-706
682.525	-784
682.572	-719
682.598	-1494
682.620	-2149
682.667	-872
682.715	-1489
682.720	-1397
682.763	-626
682.810	-876
682.841	-1128
682.857	-1236
682.905	-906
682.952	-1102
682.963	-1074
683.000	-1063
683.047	-903
683.085	-848
683.095	-826
683.142	-930
683.190	-289
683.206	-723
683.237	-1526
683.284	-1225
683.328	-1255
683.332	-1263
683.379	-551
683.426	-348
683.449	-706
683.473	-1039
683.521	-336
683.568	-848
683.571	-862
683.615	-1142
683.662	-357
683.693	-518
683.709	-631
683.757	-955
683.804	-477
683.814	-595
683.851	-936
683.898	-361
683.936	-543
683.945	-616
683.992	-99
684.039	8
684.057	-371
684.086	-891
684.133	-306
684.179	-776
684.180	-798
684.227	-564
684.274	105
684.300	195
684.321	289
684.368	-695
684.415	-283
684.422	-391
684.462	-1054
684.509	-986
684.543	-1111
684.556	-1134
684.603	-1107
684.649	-771
684.665	-661
684.696	-502
684.743	-472
684.786	-430
684.790	-425
684.837	-193
684.883	-574
684.908	-404
684.930	-302
684.977	-529
685.023	-672
685.029	-667
685.070	-502
685.117	-359
685.150	-466
685.164	-554
685.210	-88
685.257	-163
685.272	-250
685.303	-428
685.350	-76
685.393	-339
685.396	-354
685.443	-528
685.490	-396
685.514	-462
685.536	-552
685.583	-577
685.629	-232
685.636	-250
685.675	-383
685.722	-620
685.757	-431
685.768	-341
685.815	-493
685.861	136
685.878	-97
685.908	-600
685.954	-661
686.000	217
686.000	233
686.047	-314
686.093	-660
686.121	-143
686.139	123
686.185	-368
686.232	-585
686.242	-493
686.278	-74
686.324	604
686.363	60
686.370	-53
686.416	-379
686.463	218
686.484	-91
686.509	-307
686.555	186
686.601	-145
686.606	-92
686.647	78
686.693	160
686.727	55
686.739	76
686.785	-67
686.831	173
686.848	-73
686.877	-635
686.923	-568
686.969	368
686.969	374
687.015	-513
687.061	-316
687.090	62
687.107	186
687.153	562
687.199	187
687.211	-10
687.245	-343
687.291	101
687.332	188
687.336	189
687.382	-74
687.428	152
687.453	160
687.474	146
687.520	503
687.565	390
687.574	361
687.611	311
687.657	267
687.695	722
687.702	852
687.748	1334
687.794	2457
687.816	2285
687.839	1748
687.885	1479
687.931	567
687.937	537
687.976	664
688.022	64
688.058	819
688.067	982
688.113	883
688.158	110
688.179	245
688.204	502
688.249	182
688.295	657
688.300	684
688.340	569
688.386	-123
688.421	-323
688.431	-238
688.477	82
688.522	878
688.542	970
688.567	788
688.613	776
688.658	327
688.663	311
688.703	324
688.749	8
688.784	-183
688.794	-221
688.839	498
688.884	334
688.905	254
688.930	139
688.975	616
689.020	98
689.026	110
689.065	205
689.110	-143
689.146	451
689.155	622
689.201	524
689.246	900
689.267	915
689.291	841
689.336	552
689.381	128
689.388	152
689.426	375
689.471	437
689.509	801
689.516	872
689.561	644
689.606	434
689.630	505
689.651	516
689.696	217
689.741	411
689.750	400
689.785	568
689.830	473
689.871	843
689.875	852
689.920	445
689.965	452
689.992	247
690.010	213
690.054	514
690.099	557
690.112	554
690.144	621
690.189	883
690.233	924
690.233	925
690.278	852
690.323	897
690.354	353
690.367	202
690.412	909
690.457	468
690.474	765
690.501	1119
690.546	762
690.590	657
690.595	629
690.635	754
690.680	1548
690.716	1747
690.724	1761
690.769	1791
690.813	2128
690.836	2181
690.857	2507
690.902	3008
690.946	3968
690.957	4176
690.991	5614
691.035	8218
691.077	10104
691.080	10111
691.124	8990
691.168	8217
691.198	7568
691.213	6833
691.257	4834
691.301	2812
691.318	2241
691.346	2345
691.390	2004
691.434	1857
691.439	1855
691.478	1753
691.522	1539
691.559	1124
691.567	1110
691.611	1606
691.655	1503
691.680	1351
691.699	1073
691.743	920
691.787	433
691.800	300
691.831	390
691.875	774
691.919	1421
691.921	1413
691.964	717
692.008	496
692.041	397
692.052	539
692.096	807
692.139	1401
692.162	1388
692.183	1088
692.227	1016
692.271	857
692.282	832
692.315	1009
692.359	961
692.402	1239
692.403	1244
692.447	1058
692.490	851
692.523	1019
692.534	1206
692.578	1275
692.622	1630
692.643	1802
692.666	1648
692.709	1428
692.753	1106
692.763	995
692.797	1038
692.840	1060
692.884	1339
692.884	1345
692.928	1240
692.971	969
693.004	951
693.015	1049
693.059	950
693.102	1513
693.124	1706
693.146	1787
693.189	1780
693.233	1768
693.245	1719
693.276	1565
693.320	1762
693.363	1286
693.365	1282
693.407	1826
693.450	2581
693.485	2719
693.493	2762
693.537	3403
693.580	3537
693.605	3928
693.624	4801
693.667	6761
693.710	8770
693.725	9354
693.753	12536
693.797	18401
693.840	24287
693.845	24785
693.883	22269
693.926	19037
693.966	16594
693.970	16246
694.013	12585
694.056	8803
694.086	6302
694.099	5941
694.142	4597
694.185	3392
694.206	2808
694.229	2812
694.272	2821
694.315	2652
694.326	2599
694.358	2409
694.401	2167
694.444	2396
694.446	2374
694.487	2312
694.530	2298
694.566	2450
694.573	2433
694.616	2275
694.659	2032
694.686	1910
694.702	1945
694.745	1788
694.787	1840
694.806	1814
694.830	1682
694.873	1538
694.916	1509
694.926	1442
694.959	1451
695.002	1334
695.044	1220
695.046	1229
695.087	1703
695.130	1805
695.166	1878
695.172	1854
695.215	1704
695.258	1509
695.286	1350
695.301	1319
695.343	1183
695.386	1145
695.406	1180
695.428	1364
695.471	1587
695.514	1664
695.526	1711
695.556	1761
695.599	1945
695.641	1884
695.646	1883
695.684	1771
695.726	1694
695.766	1535
695.769	1523
695.811	1243
695.854	933
695.886	839
695.896	984
695.938	1386
695.981	1827
696.005	2061
696.023	1994
696.065	1743
696.108	1656
696.125	1572
696.150	1714
696.192	1932
696.235	2245
696.245	2289
696.277	2050
696.319	1880
696.361	1569
696.365	1535
696.404	1631
696.446	1870
696.485	1864
696.488	1865
696.530	1933
696.572	1926
696.604	1932
696.614	1921
696.656	1943
696.698	1897
696.724	1888
696.740	1907
696.783	1839
696.825	1835
696.844	1775
696.867	1814
696.909	2045
696.951	2078
696.964	2157
696.992	2112
697.034	1863
697.076	1543
697.083	1512
697.118	1844
697.160	2110
697.202	2423
697.203	2422
697.244	2282
697.286	2198
697.323	1995
697.327	2018
697.369	2151
697.411	2390
697.442	2539
697.453	2507
697.494	2297
697.536	2082
697.562	1967
697.578	2113
697.620	2470
697.661	2766
697.682	2932
697.703	2767
697.744	2443
697.786	2085
697.801	1936
697.828	1963
697.869	2053
697.911	2073
697.921	2074
697.952	2061
697.994	2054
698.035	1989
698.040	1978
698.077	2341
698.118	2779
698.160	3148
698.160	3138
698.201	2629
698.243	2027
698.279	1545
698.284	1597
698.325	1979
698.367	2399
698.399	2665
698.408	2569
698.449	2146
698.491	1688
698.518	1380
698.532	1510
698.573	1883
698.614	2265
698.638	2472
698.656	2495
698.697	2531
698.738	2555
698.757	2561
698.779	2530
698.820	2453
698.862	2378
698.877	2348
698.903	2556
698.944	2851
698.985	3160
698.996	3236
699.026	2983
699.067	2621
699.116	2182
699.235	1884
699.354	2824
699.474	1332
699.593	2539
699.713	2632
699.832	3238
699.951	2257
700.070	3519
700.190	1665
700.309	3112
700.428	1958
700.547	3302
700.667	2272
700.786	2829
700.905	2534
701.024	3085
701.143	2280
701.262	2628
701.381	1275
701.500	2139
701.619	2413
701.738	3030
701.857	2598
701.976	2674
702.095	1233
702.214	3046
702.333	2395
702.452	3009
702.571	1385
702.690	2210
702.809	1856
702.928	2498
703.047	2940
703.165	2876
703.284	1679
703.403	2450
703.522	2469
703.640	2924
703.759	2624
703.878	1635
703.997	1993
704.115	2810
704.234	2648
704.353	2372
704.471	1742
704.590	1680
704.708	2540
704.827	3057
704.946	1650
705.064	2035
705.183	1546
705.301	3038
705.420	2040
705.538	3368
705.656	2087
705.775	4521
705.893	13838
706.012	15363
706.130	2658
706.249	2528
706.367	2163
706.485	2511
706.604	1904
706.722	3025
706.840	3592
706.958	7314
707.077	3021
707.195	2343
707.313	2025
707.431	2216
707.549	1489
707.668	2456
707.786	1538
707.904	2093
708.022	1798
708.140	1879
708.258	1064
708.376	2414
708.494	1407
708.612	2161
708.730	2334
708.848	1977
708.966	1833
709.084	2382
709.202	1911
709.320	2041
709.438	1492
709.556	1753
709.674	1357
709.791	1764
709.909	1812
710.027	3456
710.145	1765
710.263	2326
710.380	1595
710.498	2075
710.616	1695
710.733	2518
710.851	2438
710.969	2103
711.086	1717
711.204	1362
711.322	1565
711.439	2585
711.557	1579
711.674	2641
711.792	1417
711.909	3933
712.027	3761
712.144	2585
712.262	2013
712.379	2061
712.497	1658
712.614	2122
712.732	2070
712.849	2055
712.966	2008
713.084	3039
713.201	960
713.318	1920
713.436	1360
713.553	1843
713.670	2066
713.787	1873
713.905	1399
714.022	1781
714.139	1160
714.256	3423
714.373	3313
714.490	7859
714.608	21895
714.725	98503
714.842	71655
714.959	4729
715.076	2476
715.193	2900
715.310	2304
715.427	1922
715.544	1747
715.661	3584
715.778	2044
715.895	1685
716.011	1380
716.128	2766
716.245	1543
716.362	2088
716.479	1489
716.596	2570
716.713	1466
716.829	2273
716.946	1323
717.063	2122
717.180	2081
717.296	1077
717.413	1379
717.530	1687
717.646	906
717.763	1610
717.880	848
717.996	2105
718.113	1906
718.229	1481
718.346	583
718.462	1963
718.579	989
718.695	2647
718.812	1855
718.928	1819
719.045	1694
719.161	1354
719.277	935
719.394	2865
719.510	2418
719.626	2047
719.743	1725
719.859	2923
719.975	6070
720.092	26051
720.208	42988
720.324	4240
720.440	1528
720.557	1942
720.673	1479
720.789	1666
720.905	383
721.021	1656
721.137	1455
721.253	1087
721.369	1043
721.486	1601
721.602	1136
721.718	1910
721.834	651
721.950	1266
722.066	397
722.181	1289
722.297	1527
722.413	2766
722.529	1678
722.645	1757
722.761	1246
722.877	1875
722.993	1574
723.108	2697
723.224	1004
723.340	2689
723.456	1772
723.571	1996
723.687	1100
723.803	1253
723.918	1098
724.034	1051
724.150	1730
724.265	1792
724.381	1573
724.497	1577
724.612	756
724.728	1191
724.843	908
724.959	1944
725.074	858
725.190	1079
725.305	1441
725.421	2068
725.536	686
725.651	2002
725.767	394
725.882	2086
725.997	734
726.113	1499
726.228	1734
726.343	1802
726.459	723
726.574	950
726.689	236
726.804	1211
726.920	953
727.035	876
727.150	437
727.265	1693
727.380	1070
727.495	2055
727.610	1374
727.725	2896
727.841	3490
727.956	10627
728.071	4866
728.186	1828
728.301	587
728.416	1541
728.531	1107
728.645	1424
728.760	783
728.875	2627
728.990	1575
729.105	2027
729.220	1009
729.335	2021
729.449	1860
729.564	1203
729.679	567
729.794	1627
729.908	1
730.023	2317
730.138	990
730.253	1637
730.367	1542
730.482	2020
730.596	1425
730.711	1697
730.826	2439
730.940	3246
731.055	496
731.169	1322
731.284	1243
731.398	2401
731.513	636
731.627	1513
731.742	1655
731.856	1969
731.970	1278
732.085	1533
732.199	1517
732.313	3966
732.428	10547
732.542	28979
732.656	11892
732.771	2845
732.885	1386
732.999	1831
733.113	511
733.227	1814
733.342	1274
733.456	2302
733.570	818
733.684	724
733.798	532
733.912	1438
734.026	1157
734.140	1657
734.254	415
734.368	1702
734.482	2218
734.596	1875
734.710	943
734.824	1909
734.938	1233
735.052	1535
735.166	1035
735.280	2739
735.393	1480
735.507	2044
735.621	649
735.735	1319
735.849	1260
735.962	1736
736.076	1013
736.190	1475
736.303	589
736.417	1983
736.531	636
736.644	1420
736.758	1248
736.872	1420
736.985	1362
737.099	1215
737.212	616
737.326	1914
737.439	1733
737.553	1405
737.666	937
737.780	1489
737.893	616
738.007	1390
738.120	743
738.233	1230
738.347	789
738.460	1952
738.573	1281
738.687	1382
738.800	612
738.913	1633
739.026	1450
739.140	1456
739.253	1314
739.366	1205
739.479	599
739.592	642
739.705	309
739.818	1417
739.932	1179
740.045	2360
740.158	1540
740.271	1777
740.384	6
740.497	1874
740.610	2033
740.723	1799
740.836	1600
740.949	2174
741.062	1216
741.174	1806
741.287	-9
741.400	1419
741.513	1495
741.626	1831
741.739	1114
741.851	1332
741.964	1308
742.077	2139
742.189	1883
742.302	5251
742.415	3506
742.527	1938
742.640	574
742.753	697
742.865	603
742.978	521
743.090	983
743.203	1164
743.316	943
743.428	838
743.541	600
743.653	1339
743.766	986
743.878	1576
743.990	686
744.103	3131
744.215	6056
744.327	2544
744.440	1948
744.552	2128
744.664	954
744.777	1826
744.889	924
745.001	1202
745.113	1144
745.226	806
745.338	830
745.450	1286
745.562	1063
745.674	1126
745.786	447
745.898	482
746.010	601
746.122	359
746.234	1245
746.347	1295
746.459	1706
746.570	1244
746.682	3223
746.794	9751
746.906	4508
747.018	727
747.130	1015
747.242	1237
747.354	555
747.466	1467
747.577	705
747.689	1615
747.801	867
747.913	1067
748.024	160
748.136	1343
748.248	-424
748.359	2140
748.471	854
748.583	2205
748.694	1092
748.806	2451
748.918	696
749.029	1980
749.141	1007
749.252	1890
749.364	255
749.475	179
749.587	657
749.698	328
749.809	857
749.921	1251
750.032	561
750.144	219
750.255	69
750.366	1001
750.478	490
750.589	1087
750.700	-148
750.811	1203
750.923	1118
751.034	1710
751.145	1207
751.256	1538
751.367	378
751.479	831
751.590	467
751.701	515
751.812	422
751.923	663
752.034	748
752.145	576
752.256	-469
752.367	1057
752.478	382
752.589	651
752.700	411
752.811	1235
752.922	542
753.032	419
753.143	1404
753.254	572
753.365	1360
753.476	1669
753.586	421
753.697	1565
753.808	861
753.919	977
754.029	732
754.140	910
754.251	664
754.361	921
754.472	492
754.582	309
754.693	541
754.804	1098
754.914	383
755.025	807
755.135	587
755.246	1346
755.356	6
755.466	1229
755.577	470
755.687	863
755.798	630
755.908	282
756.018	662
756.129	1604
756.239	595
756.349	955
756.460	376
756.570	1070
756.680	416
756.790	848
756.900	113
757.011	1054
757.121	1011
757.231	1377
757.341	1167
757.451	1053
757.561	202
757.671	786
757.781	218
757.891	997
758.001	571
758.111	1376
758.221	562
758.331	1489
758.441	578
758.551	767
758.661	590
758.771	1266
758.880	519
758.990	1074
759.100	54
759.210	1589
759.320	1236
759.429	1449
759.539	378
759.649	1025
759.758	838
759.868	1649
759.978	426
760.087	1074
760.197	1158
760.307	2104
760.416	232
760.526	493
760.635	914
760.745	2305
760.854	2025
760.964	2682
761.073	1526
761.182	1809
761.292	1021
761.401	1329
761.511	1181
761.620	1349
761.729	1257
761.839	1122
761.948	1398
762.057	1632
762.166	1578
762.276	1408
762.385	2128
762.494	1675
762.603	1280
762.712	2875
762.822	565
762.931	2902
763.040	1359
763.149	1762
763.258	1919
763.367	3681
763.476	2376
763.585	2823
763.694	2644
763.803	3208
763.912	2911
764.021	3685
764.130	3277
764.238	4884
764.347	3466
764.456	4474
764.565	4045
764.674	5651
764.783	4587
764.891	6400
765.000	7525
765.109	8530
765.217	8523
765.326	11171
765.435	13229
765.543	17860
765.652	20190
765.761	29149
765.869	42377
765.978	69527
766.086	121828
766.195	239609
766.303	511029
766.412	818760
766.520	728400
766.629	295404
766.737	130738
766.846	75996
766.954	49380
767.062	37068
767.171	28074
767.279	21540
767.387	15613
767.496	13352
767.604	11886
767.712	10379
767.820	9180
767.928	8724
768.037	7658
768.145	7573
768.253	6960
768.361	6756
768.469	6892
768.577	6633
768.685	8021
768.793	8213
768.901	9546
769.009	11670
769.117	13075
769.225	18785
769.333	27817
769.441	47809
769.549	90875
769.657	207055
769.765	505868
769.873	693589
769.981	308243
770.088	96951
770.196	48663
770.304	31473
770.412	22696
770.519	15886
770.627	12485
770.735	10319
770.842	8234
770.950	7642
771.058	5254
771.165	5932
771.273	4528
771.380	4902
771.488	3781
771.595	4102
771.703	3042
771.810	3727
771.918	2741
772.025	3917
772.133	2796
772.240	2893
772.348	2569
772.455	3696
772.562	2183
772.670	2345
772.777	2238
772.884	2936
772.991	1599
773.099	2218
773.206	537
773.313	1956
773.420	1960
773.528	1517
773.635	985
773.742	1573
773.849	1888
773.956	1509
774.063	1435
774.170	1107
774.277	646
774.384	1964
774.491	974
774.598	1611
774.705	737
774.812	753
774.919	1551
775.026	949
775.133	951
775.239	1384
775.346	787
775.453	1731
775.560	448
775.667	590
775.773	-61
775.880	2377
775.987	-282
776.093	1866
776.200	748
776.307	1431
776.413	1177
776.520	1154
776.627	1386
776.733	1516
776.840	-268
776.946	3504
777.053	5814
777.159	17276
777.266	8845
777.372	14567
777.478	11879
777.585	6218
777.691	635
777.798	1129
777.904	2067
778.010	2778
778.117	847
778.223	1338
778.329	89
778.435	544
778.542	896
778.648	136
778.754	-286
778.860	1209
778.966	236
779.072	64
779.178	159
779.284	1085
779.391	85
779.497	-105
779.603	2048
779.708	184
779.815	3056
779.920	7764
780.026	8297
780.132	919
780.238	-256
780.344	1392
780.450	1115
780.556	476
780.661	-16
780.767	696
780.873	-413
780.979	1520
781.085	-499
781.190	388
781.296	-177
781.402	887
781.507	13
781.613	492
781.719	-1026
781.824	1499
781.930	672
782.035	856
782.141	296
782.246	-155
782.352	-158
782.457	596
782.563	-813
782.668	618
782.773	-607
782.879	-85
782.984	493
783.090	354
783.195	800
783.300	705
783.405	-656
783.511	570
783.616	-20
783.721	971
783.826	-192
783.932	954
784.037	234
784.142	-451
784.247	-603
784.352	123
784.457	-586
784.562	12
784.667	-277
784.772	835
784.877	129
784.982	271
785.087	-624
785.192	611
785.297	-512
785.402	132
785.507	-624
785.611	485
785.716	465
785.821	-5
785.926	-102
786.031	392
786.135	-269
786.240	1351
786.345	-1426
786.450	452
786.554	-724
786.659	-8
786.763	-1284
786.868	782
786.973	777
787.077	206
787.182	-762
787.286	571
787.391	-896
787.495	-701
787.600	-668
787.704	-411
787.809	-598
787.913	-212
788.017	38
788.122	232
788.226	-108
788.330	218
788.435	-565
788.539	132
788.643	-951
788.747	46
788.852	150
788.956	-1163
789.060	351
789.164	215
789.268	-1234
789.372	439
789.476	-75
789.580	421
789.684	-579
789.788	810
789.892	42
789.996	1162
790.100	-378
790.204	-211
790.308	-580
790.412	57
790.516	1343
790.620	-635
790.724	668
790.828	-529
790.931	-1276
791.035	2034
791.139	-319
791.242	-1285
791.346	112
791.450	-186
791.554	-372
791.657	-781
791.761	759
791.864	38
791.968	-31
792.072	494
792.175	-690
792.279	-486
792.382	-393
792.486	100
792.589	-757
792.693	1028
792.796	-1925
792.899	234
793.003	-278
793.106	-1041
793.209	-532
793.313	1179
793.416	-1185
793.519	840
793.623	367
793.726	632
793.829	-632
793.932	536
794.035	-1396
794.138	933
794.242	913
794.345	174
794.448	-355
794.551	98
794.654	3666
794.757	4243
794.860	6
794.963	680
795.066	-794
795.169	1616
795.272	-665
795.375	409
795.477	-939
795.580	524
795.683	-1125
795.786	437
795.889	-803
795.991	1534
796.094	-45
796.197	-1254
796.300	245
796.402	-818
796.505	-796
796.608	-63
796.710	-537
796.813	-752
796.915	-967
797.018	515
797.120	-249
797.223	-1571
797.326	-62
797.428	-551
797.530	-1224
797.633	294
797.735	-12
797.838	-682
797.940	-243
798.042	-645
798.145	-600
798.247	636
798.349	-1667
798.452	176
798.554	-1102
798.656	-1540
798.758	599
798.860	-785
798.962	-1098
799.065	-755
799.167	-945
799.269	1943
799.371	100
799.473	89
799.575	-1760
799.677	-235
799.779	370
799.881	-1449
799.983	-532
800.085	769
800.187	-1386
800.289	-990
800.390	-1029
800.492	286
800.594	969
800.696	-879
800.798	-195
800.899	-118
801.001	-702
801.103	-282
801.205	-423
801.306	-305
801.408	-1077
801.509	104
801.611	-262
801.713	-333
801.814	-1354
801.916	-760
802.017	-1098
802.119	-886
802.220	-444
802.322	-1592
802.423	286
802.525	-1021
802.626	-1241
802.727	-529
802.829	-198
802.930	-1891
803.031	-294
803.133	-798
803.234	-938
803.335	-502
803.436	-1906
803.538	292
803.639	-2088
803.740	814
803.841	-1052
803.942	-389
804.043	-431
804.144	-823
804.245	-1788
804.346	-855
804.447	-1113
804.548	-571
804.649	295
804.750	-602
804.851	-1482
804.952	6
805.053	-850
805.154	-1647
805.255	-88
805.355	-599
805.456	-1222
805.557	-1021
805.658	-1777
805.758	679
805.859	-693
805.960	-639
806.061	-1671
806.161	-348
806.262	-274
806.362	-890
806.463	-1654
806.564	59
806.664	-943
806.765	-818
806.865	-993
806.966	-356
807.066	-1758
807.166	58
807.267	-853
807.367	-1284
807.468	-729
807.568	-1816
807.668	584
807.769	302
807.869	-861
807.969	-606
808.069	-717
808.170	-499
808.270	-1343
808.370	432
808.470	-720
808.570	-1288
808.670	-1545
808.770	12
808.870	-1324
808.970	107
809.070	-1365
809.170	-1358
809.271	-653
809.370	-910
809.470	-184
809.570	-375
809.670	-574
809.770	28
809.870	-913
809.970	366
810.070	-668
810.169	287
810.269	-2192
810.369	287
810.469	-742
810.568	-630
810.668	-676
810.768	-766
810.867	-1492
810.967	-1057
811.066	-1145
811.166	-461
811.265	118
811.365	-867
811.464	-1499
811.564	390
811.663	-535
811.763	-913
811.862	-1067
811.962	399
812.061	-1265
812.160	-859
812.260	-1177
812.359	-687
812.458	-859
812.557	224
812.657	-626
812.756	-125
812.855	-936
812.954	-715
813.053	-385
813.153	-336
813.252	-1474
813.351	-590
813.450	-944
813.549	-545
813.648	-561
813.747	-159
813.846	-349
813.945	-779
814.044	-874
814.143	-185
814.242	-151
814.341	421
814.439	-549
814.538	397
814.637	-831
814.736	-78
814.835	-410
814.933	-237
815.032	-365
815.131	310
815.229	-927
815.328	17
815.427	-620
815.525	1100
815.624	-443
815.722	-1138
815.821	202
815.919	-18
816.018	-821
816.116	2107
816.215	-362
816.313	-265
816.412	3
816.510	468
816.609	1479
816.707	1325
816.805	537
816.904	822
817.002	818
817.100	1809
817.198	1490
817.296	2197
817.395	2605
817.493	4747
817.591	4183
817.689	7948
817.787	9957
817.885	18223
817.983	34995
818.081	77124
818.179	178084
818.277	365488
818.375	241377
818.473	73441
818.571	30961
818.669	22479
818.767	20715
818.865	20755
818.963	25054
819.061	37944
819.158	66064
819.256	141361
819.354	305585
819.452	518862
819.549	283683
819.647	93338
819.745	42501
819.842	25796
819.940	16413
820.038	12207
820.135	8994
820.233	8126
820.330	4474
820.428	4086
820.525	4484
820.623	3832
820.720	1946
820.818	2605
820.915	2165
821.012	3225
821.110	1346
821.207	2026
821.304	352
821.402	2044
821.499	3502
821.596	6915
821.693	3149
821.791	2200
821.888	494
821.985	834
822.082	-408
822.179	2723
822.276	2445
822.373	1516
822.470	-148
822.567	857
822.664	-1093
822.761	493
822.858	-1089
822.955	518
823.052	760
823.149	-348
823.246	-298
823.343	312
823.440	-272
823.536	-411
823.633	-563
823.730	-122
823.827	-518
823.923	-193
824.020	954
824.117	358
824.213	191
824.310	1620
824.407	-672
824.503	-71
824.600	-600
824.696	-169
824.793	-586
824.889	-708
824.986	-515
825.082	-126
825.179	-890
825.275	-492
825.371	-1321
825.468	133
825.564	-935
825.660	-112
825.757	-38
825.853	49
825.949	-1400
826.045	-121
826.142	-1105
826.238	-23
826.334	-701
826.430	-1241
826.526	-629
826.622	-971
826.718	-971
826.814	-1402
826.910	-328
827.006	-425
827.102	-815
827.198	-585
827.294	-2091
827.390	-930
827.486	-296
827.582	-1268
827.678	-2124
827.774	342
827.869	-1530
827.965	651
828.061	-1369
828.157	-1098
828.252	-1211
828.348	-1816
828.444	-599
828.539	-1281
828.635	-1113
828.731	-607
828.826	-2117
828.922	-386
829.017	-1098
829.113	31
829.208	-1958
829.304	-558
829.399	-229
829.495	-1612
829.590	-368
829.685	-1738
829.781	-771
829.876	-947
829.971	-1795
830.066	-1280
830.162	-1590
830.257	-907
830.352	-1351
830.447	-28
830.543	-1636
830.638	-2163
830.733	-340
830.828	-705
830.923	-1235
831.018	-1400
831.113	-1562
831.208	-1537
831.303	-1581
831.398	-345
831.493	-1521
831.588	-519
831.683	-2083
831.778	-464
831.873	-1076
831.967	132
832.062	-2112
832.157	-1274
832.252	-466
832.346	-531
832.441	-796
832.536	-625
832.631	-268
832.725	-255
832.820	-883
832.914	-1146
833.009	-1801
833.104	-671
833.198	-694
833.293	-1801
833.387	-1084
833.482	30
833.576	-783
833.670	-293
833.765	-2011
833.859	-700
833.954	-1204
834.048	-1052
834.142	-975
834.237	-1105
834.331	-1859
834.425	-754
834.519	-1485
834.613	-274
834.708	-1518
834.802	-358
834.896	-1867
834.990	-1101
835.084	-1479
835.178	-1167
835.272	-1735
835.366	-1811
835.460	-652
835.554	-699
835.648	-1129
835.742	-862
835.836	-762
835.930	-1736
836.024	-1096
836.117	504
836.211	-2428
836.305	-848
836.399	-1258
836.493	-1782
836.586	-493
836.680	-932
836.774	-1453
836.867	-80
836.961	-1096
837.055	-1430
837.148	-1636
837.242	-271
837.335	-1127
837.429	-367
837.522	-1804
837.616	-327
837.709	-1697
837.803	-1113
837.896	-1818
837.989	-1508
838.083	-1377
838.176	-553
838.269	-2089
838.363	-243
838.456	-1917
838.549	-611
838.642	-1706
838.735	799
838.829	-614
838.922	-1602
839.015	-1577
839.108	-1044
839.201	-1535
839.294	80
839.387	-1586
839.480	-898
839.573	-1936
839.666	-1039
839.759	-1261
839.852	-1356
839.945	-1188
840.038	-1584
840.131	-795
840.223	-1112
840.316	-1144
840.409	-569
840.502	-2245
840.594	317
840.687	-2092
840.780	-767
840.873	-1214
840.965	-1261
841.058	-1135
841.150	-1185
841.243	-1824
841.336	-448
841.428	-1427
841.521	-1614
841.613	-1965
841.706	164
841.798	-1766
841.890	179
841.983	-2456
842.075	128
842.167	-1298
842.260	-821
842.352	-1033
842.444	-1249
842.537	-1496
842.629	-686
842.721	-1184
842.813	-409
842.905	-2214
842.997	-1612
843.090	-1377
843.182	-608
843.274	-2534
843.366	-610
843.458	-1151
843.550	-957
843.642	-1824
843.734	-278
843.826	-2125
843.918	-747
844.009	-739
844.101	-1149
844.193	-1044
844.285	-736
844.377	-692
844.469	1768
844.560	2526
844.652	3104
844.744	296
844.835	-526
844.927	-1557
845.019	-759
845.110	-2005
845.202	-723
845.293	-755
845.385	-1448
845.476	-1156
845.568	4
845.659	-1621
845.751	-490
845.842	-2189
845.934	-1646
846.025	-1200
846.116	-1143
846.208	-1298
846.299	-914
846.390	-1128
846.482	-1023
846.573	-1347
846.664	-519
846.755	-2125
846.846	-945
846.937	-2018
847.029	-998
847.120	-1488
847.211	-1753
847.302	-77
847.393	-1706
847.484	-608
847.575	-1308
847.666	-1270
847.757	-1011
847.847	-1532
847.938	-954
848.029	-2393
848.120	-527
848.211	-1295
848.302	-1431
848.392	-1420
848.483	-1208
848.574	-2554
848.664	-1968
848.755	-1329
848.846	-843
848.936	-1910
849.027	-356
849.118	-1442
849.208	-954
849.299	-1572
849.389	-215
849.480	64
849.570	2166
849.661	4243
849.751	6262
849.841	683
849.932	-1411
850.022	-2195
850.112	-600
850.203	-1858
850.293	-689
850.383	-2052
850.474	-1708
850.564	-1544
850.654	-1247
850.744	-1860
850.834	-1060
850.924	-1967
851.014	-1380
851.104	-1636
851.194	-1205
851.284	-1263
851.374	-498
851.464	-2037
851.554	-1629
851.644	-2161
851.734	-267
851.824	-1942
851.914	-1383
852.004	-1346
852.094	-878
852.183	-1800
852.273	-577
852.363	-1923
852.452	-603
852.542	-1964
852.632	-1266
852.721	-1031
852.811	-1417
852.901	-1081
852.990	-293
853.080	-933
853.169	-519
853.259	-1478
853.348	-1175
853.438	-1485
853.527	-39
853.617	-1238
853.706	1595
853.795	3194
853.885	11007
853.974	20158
854.063	37829
854.152	58952
854.242	17206
854.331	1084
854.420	-818
854.509	-1448
854.598	-228
854.687	-2311
854.777	-128
854.866	-1194
854.955	-429
855.044	-1541
855.133	-807
855.222	-1134
855.311	-1727
855.400	-1229
855.488	-1452
855.577	-2308
855.666	-683
855.755	-1118
855.844	186
855.933	-952
856.021	-1480
856.110	-686
856.199	-1901
856.288	-872
856.376	-1325
856.465	-1713
856.554	-963
856.642	-1124
856.731	-657
856.819	-1131
856.908	-1835
856.996	-1278
857.085	-1494
857.173	-2130
857.262	-881
857.350	-1413
857.438	-1349
857.527	-1622
857.615	-1257
857.703	-1001
857.792	-791
857.880	-1892
857.968	-1287
858.056	-1205
858.145	-716
858.233	-1379
858.321	-1686
858.409	-1243
858.497	-1016
858.585	-1458
858.673	-507
858.761	-2053
858.849	-1240
858.937	-1586
859.025	-704
859.113	-1660
859.201	-1758
859.289	-110
859.377	-522
859.465	-724
859.552	-1285
859.640	-2063
859.728	-1530
859.816	-1458
859.903	-495
859.991	-1679
860.079	-1431
860.166	-1123
860.254	-2174
860.342	-1868
860.429	-1922
860.517	-2109
860.604	-961
860.692	-1858
860.779	-1809
860.867	-1432
860.954	-1664
861.042	-1107
861.129	-1397
861.216	-1823
861.304	-909
861.391	-1315
861.478	-1424
861.565	-1610
861.653	-777
861.740	-1556
861.827	-977
861.914	-2196
862.001	-1038
862.089	-1713
862.176	-1642
862.263	-2100
862.350	-982
862.437	-1844
862.524	-1100
862.611	-751
862.698	-155
862.785	-2
862.871	833
862.958	-775
863.045	-790
863.132	-1638
863.219	-695
863.306	-2747
863.392	-892
863.479	-1668
863.566	-1409
863.652	-1895
863.739	-1186
863.826	-1246
863.912	-1049
863.999	-1533
864.086	-2129
864.172	-1759
864.259	-1182
864.345	-1781
864.432	-689
864.518	-950
864.604	-1078
864.691	-1029
864.777	-415
864.863	-581
864.950	275
865.036	-2198
865.122	-893
865.209	-806
865.295	-663
865.381	-1428
865.467	-675
865.553	-956
865.639	-453
865.726	496
865.812	3457
865.898	7636
865.984	11426
866.070	24895
866.156	25400
866.242	5045
866.328	-79
866.414	-1739
866.499	-794
866.585	-1405
866.671	-318
866.757	-1130
866.843	-421
866.928	-1026
867.014	-1225
867.100	-794
867.186	-990
867.271	-1088
867.357	-1076
867.442	-1514
867.528	-906
867.614	-1460
867.699	708
867.785	1190
867.870	3091
867.956	3531
868.041	2393
868.127	-58
868.212	1617
868.297	2006
868.383	-44
868.468	-405
868.553	796
868.639	-869
868.724	-155
868.809	-1517
868.894	-770
868.979	-1634
869.065	-1131
869.150	-2724
869.235	-1229
869.320	-2181
869.405	-1567
869.490	-1773
869.575	-1163
869.660	-1913
869.745	-1110
869.830	-1402
869.915	-890
870.000	-766
870.085	219
870.169	-1152
870.254	-445
870.339	-1391
870.424	-1415
870.509	-1154
870.593	-1215
870.678	-1656
870.763	-1098
870.847	-1004
870.932	-415
871.016	-2571
871.101	-488
871.186	-1775
871.270	-1878
871.355	-1229
871.439	-941
871.523	-1245
871.608	-486
871.692	-1050
871.777	130
871.861	-1125
871.945	-960
872.030	-1657
872.114	-976
872.198	-1895
872.282	-1004
872.367	-1876
872.451	-1359
872.535	-2052
872.619	-1147
872.703	-1702
872.787	-568
872.871	-2004
872.955	-1905
873.039	-1831
873.123	-1248
873.207	-1210
873.291	-915
873.375	-1950
873.459	-1358
873.543	-1930
873.627	-1236
873.711	-2182
873.794	-419
873.878	-2382
873.962	-2002
874.045	-1374
874.129	-518
874.137	-623
874.213	-1679
874.245	-1633
874.296	-1556
874.352	-1997
874.380	-2212
874.460	-896
874.464	-844
874.547	-1710
874.568	-1318
874.631	-168
874.676	-1008
874.714	-1700
874.784	-864
874.798	-704
874.881	-163
874.892	-245
874.965	-765
874.999	-1008
875.048	-1385
875.107	-1095
875.131	-967
875.215	-2308
875.215	-2306
875.298	-567
875.323	-969
875.381	-1873
875.430	-1178
875.465	-701
875.538	-1669
875.548	-1802
875.631	-833
875.646	-1017
875.714	-1939
875.753	-1608
875.798	-1185
875.861	-1395
875.881	-1472
875.964	-749
875.968	-795
876.047	-1615
876.076	-1562
876.130	-1424
876.183	-1444
876.213	-1476
876.291	-727
876.296	-681
876.379	-1175
876.398	-1117
876.462	-790
876.506	-1148
876.545	-1538
876.613	-1167
876.628	-1072
876.711	-1313
876.721	-1235
876.794	-615
876.828	-1052
876.877	-1712
876.935	-898
876.960	-528
877.043	-1048
877.043	-1047
877.125	-647
877.150	-769
877.208	-1041
877.258	-1046
877.291	-939
877.365	-1226
877.374	-1283
877.456	-570
877.472	-699
877.539	-1195
877.579	-904
877.622	-605
877.687	-558
877.704	-534
877.787	-547
877.794	-586
877.869	-1124
877.901	-627
877.952	320
878.008	-744
878.034	-1263
878.115	-344
878.117	-327
878.199	-1394
878.222	-1186
878.282	-400
878.329	-514
878.364	-739
878.437	-341
878.447	-274
878.529	-2010
878.544	-1769
878.611	-676
878.651	-795
878.694	-752
878.758	-401
878.776	-371
878.858	-885
878.865	-819
878.941	74
878.972	-358
879.023	-1071
879.078	-720
879.105	-547
879.185	-951
879.187	-957
879.269	-380
879.292	-560
879.351	-1077
879.399	-902
879.433	-716
879.506	-586
879.516	-585
879.598	-685
879.613	-814
879.680	-1303
879.720	-1009
879.762	-707
879.827	-958
879.844	-975
879.926	-80
879.933	-95
880.007	-665
880.040	-882
880.089	-1054
880.147	-790
880.171	-618
880.253	-414
880.254	-416
880.335	-698
880.360	-688
880.417	-419
880.467	-412
880.499	-310
880.574	502
880.580	519
880.662	-135
880.680	-277
880.744	-664
880.787	-763
880.825	-836
880.893	-823
880.907	-772
880.989	-1166
881.000	-1038
881.070	-103
881.106	-110
881.152	-492
881.213	-641
881.233	-588
881.315	-1137
881.319	-1123
881.396	-641
881.426	-602
881.478	-692
881.532	-670
881.559	-525
881.639	-576
881.641	-592
881.722	-490
881.745	-803
881.803	-957
881.852	-535
881.885	-511
881.958	-807
881.966	-787
882.047	-619
882.064	-671
882.129	-925
882.171	-497
882.210	-143
882.277	-310
882.291	-398
882.372	-692
882.383	-743
882.454	-665
882.489	-520
882.535	-416
882.596	-590
882.616	-601
882.697	-257
882.702	-262
882.778	-342
882.808	-87
882.859	118
882.914	-549
882.940	-762
883.020	-611
883.021	-606
883.102	-646
883.127	-544
883.183	-286
883.233	-405
883.264	-564
883.339	-369
883.345	-363
883.426	-779
883.445	-878
883.507	-524
883.551	-394
883.587	-572
883.657	-328
883.668	-272
883.749	-331
883.763	-311
883.830	-419
883.869	-718
883.910	-669
883.975	-239
883.991	-204
884.072	-159
884.081	-145
884.152	-47
884.187	-362
884.233	-710
884.292	28
884.314	225
884.394	-758
884.398	-760
884.475	-368
884.504	-208
884.555	11
884.610	-101
884.636	-300
884.716	-761
884.716	-752
884.797	297
884.821	502
884.877	-123
884.927	-248
884.958	19
885.033	157
885.038	126
885.118	-281
885.139	-454
885.199	-440
885.244	-237
885.279	-142
885.350	-173
885.359	-177
885.439	83
885.456	-26
885.520	-479
885.561	-372
885.600	-128
885.667	25
885.680	-45
885.760	-441
885.773	-531
885.840	-306
885.878	-39
885.920	-84
885.984	-661
886.000	-604
886.080	173
886.089	238
886.160	-407
886.195	-593
886.240	-204
886.300	-166
886.320	-316
886.400	-498
886.406	-530
886.480	-138
886.511	210
886.560	198
886.616	-317
886.640	-226
886.720	497
886.722	502
886.800	-535
886.827	-815
886.879	-532
886.932	-368
886.959	-237
887.038	291
887.039	295
887.119	-25
887.143	-72
887.198	-384
887.248	-713
887.278	-434
887.354	358
887.358	357
887.437	-5
887.459	-23
887.517	516
887.564	757
887.596	512
887.669	199
887.676	199
887.755	-44
887.774	-60
887.835	-482
887.880	-901
887.914	-622
887.985	-40
887.994	-57
888.073	-168
888.090	-213
888.153	208
888.195	482
888.232	317
888.300	45
888.311	119
888.391	603
888.405	667
888.470	138
888.510	-164
888.549	30
888.615	419
888.628	377
888.708	-16
888.720	-75
888.787	551
888.825	866
888.866	418
888.930	-220
888.945	-123
889.024	282
889.035	347
889.103	539
889.140	573
889.182	301
889.245	-39
889.261	-51
889.340	-195
889.349	-205
889.419	153
889.454	290
889.498	-40
889.559	-464
889.577	-275
889.656	535
889.664	614
889.735	96
889.768	-155
889.814	126
889.873	501
889.978	493
890.083	1192
890.187	233
890.292	908
890.397	403
890.501	388
890.606	714
890.710	523
890.815	834
890.919	270
891.024	292
891.128	1267
891.233	-581
891.337	6
891.442	-118
891.546	40
891.650	915
891.755	330
891.859	1248
891.963	451
892.068	254
892.172	598
892.276	-142
892.380	-36
892.484	296
892.589	1200
892.693	63
892.797	348
892.901	-100
893.005	267
893.109	76
893.213	1005
893.317	-119
893.421	-426
893.525	35
893.629	999
893.733	-443
893.837	932
893.941	169
894.045	1507
894.148	-374
894.252	137
894.356	194
894.460	373
894.564	-251
894.667	435
894.771	-178
894.875	5
894.978	435
895.082	269
895.186	-134
895.289	705
895.393	140
895.496	430
895.600	-128
895.703	225
895.807	36
895.910	-239
896.014	-115
896.117	64
896.221	326
896.324	-145
896.427	302
896.531	-285
896.634	683
896.737	708
896.840	-310
896.944	722
897.047	205
897.150	233
897.253	-298
897.356	162
897.460	-1285
897.563	-285
897.666	1191
897.769	353
897.872	-281
897.975	-2
898.078	4
898.181	1030
898.284	306
898.387	343
898.490	-603
898.593	405
898.695	-68
898.798	-202
898.901	158
899.004	137
899.107	505
899.209	1218
899.312	-237
899.415	706
899.518	98
899.620	-794
899.723	-328
899.826	772
899.928	-197
900.031	453
900.133	-382
900.236	802
900.338	-741
900.441	520
900.543	152
900.646	-46
900.748	229
900.851	62
900.953	403
901.055	-384
901.158	-599
901.260	462
901.362	377
901.465	-465
901.567	-706
901.669	1030
901.771	-500
901.873	888
901.976	-10
902.078	-155
902.180	-249
902.282	182
902.384	-720
902.486	186
902.588	140
902.690	-487
902.792	264
902.894	564
902.996	291
903.098	-51
903.200	-569
903.302	466
903.404	389
903.505	208
903.607	-35
903.709	67
903.811	-100
903.913	172
904.014	-213
904.116	-113
904.218	12
904.319	38
904.421	-127
904.523	1083
904.624	747
904.726	386
904.827	316
904.929	626
905.030	580
905.132	913
905.233	-68
905.335	168
905.436	-59
905.537	226
905.639	582
905.740	-420
905.841	-509
905.943	347
906.044	162
906.145	1222
906.247	146
906.348	-424
906.449	330
906.550	-350
906.651	-612
906.752	822
906.854	-431
906.955	-478
907.056	-353
907.157	-418
907.258	-740
907.359	150
907.460	214
907.561	19
907.662	32
907.762	63
907.863	-238
907.964	208
908.065	511
908.166	130
908.267	-518
908.367	-242
908.468	-811
908.569	71
908.670	274
908.770	-63
908.871	-486
908.971	675
909.072	-227
909.173	733
909.273	-71
909.374	-198
909.474	-670
909.575	-308
909.675	-70
909.776	-308
909.876	-14
909.977	-44
910.077	-317
910.177	-417
910.278	-458
910.378	7
910.478	-290
910.579	344
910.679	635
910.779	-458
910.879	-108
910.980	49
911.080	1
911.180	-272
911.280	-88
911.380	-366
911.480	-510
911.580	394
911.680	-601
911.780	-1042
911.880	-470
911.980	757
912.080	80
912.180	-223
912.280	539
912.380	456
912.480	-294
912.580	-107
912.679	-953
912.779	93
912.879	-650
912.979	43
913.078	-842
913.178	227
913.278	-337
913.377	-155
913.477	-589
913.577	30
913.676	140
913.776	-163
913.875	-317
913.975	109
914.074	264
914.174	-65
914.273	-774
914.373	694
914.472	-156
914.572	-853
914.671	-1111
914.770	-855
914.870	-407
914.969	-594
915.068	-677
915.167	597
915.267	-1327
915.366	-254
915.465	-642
915.564	-264
915.663	-432
915.763	138
915.862	173
915.961	-51
916.060	-387
916.159	-404
916.258	-1063
916.357	-295
916.456	-143
916.555	-233
916.654	-755
916.752	-622
916.851	-325
916.950	-468
917.049	-256
917.148	-486
917.247	306
917.345	279
917.444	-629
917.543	-92
917.642	425
917.740	34
917.839	-846
917.937	-749
918.036	295
918.135	62
918.233	85
918.332	-96
918.430	134
918.529	-19
918.627	-1111
918.726	223
918.824	726
918.923	-694
919.021	-326
919.119	-262
919.218	-500
919.316	706
919.414	-86
919.512	-252
919.611	-1081
919.709	581
919.807	-696
919.905	-688
920.003	-496
920.102	-343
920.200	-839
920.298	-439
920.396	-18
920.494	-160
920.592	-678
920.690	439
920.788	-411
920.886	-226
920.984	-767
921.082	-664
921.180	679
921.277	93
921.375	294
921.473	-127
921.571	-258
921.669	-209
921.766	-665
921.864	-168
921.962	198
922.060	-452
922.157	-305
922.255	760
922.352	-175
922.450	364
922.548	415
922.645	426
922.743	25
922.840	984
922.938	1165
923.035	-23
923.133	310
923.230	110
923.327	351
923.425	537
923.522	198
923.619	125
923.717	271
923.814	766
923.911	378
924.008	1757
924.106	361
924.203	666
924.300	603
924.397	257
924.494	1419
924.591	558
924.688	-347
924.786	302
924.883	-137
924.979	960
925.077	119
925.173	669
925.270	218
925.367	802
925.464	130
925.561	1280
925.658	556
925.755	393
925.852	2
925.948	231
926.045	1343
926.142	703
926.239	1489
926.335	1617
926.432	798
926.529	1739
926.625	1093
926.722	1190
926.818	1638
926.915	768
927.011	-1
927.108	680
927.204	-469
927.301	-17
927.397	-538
927.494	738
927.590	545
927.687	-129
927.783	352
927.879	96
927.976	-660
928.072	284
928.168	484
928.264	644
928.361	772
928.457	877
928.553	787
928.649	21
928.745	-76
928.841	-665
928.937	-249
929.033	248
929.129	521
929.225	85
929.321	477
929.417	229
929.513	-96
929.609	220
929.705	-104
929.801	488
929.897	-648
929.993	522
930.089	-19
930.184	407
930.280	756
930.376	1199
930.471	158
930.567	108
930.663	289
930.758	206
930.854	-327
930.950	-473
931.045	-448
931.141	363
931.236	366
931.332	149
931.427	-379
931.523	-313
931.618	-75
931.714	-294
931.809	-173
931.905	221
932.000	-74
932.095	-463
932.191	599
932.286	410
932.381	220
932.476	113
932.572	-413
932.667	83
932.762	-4
932.857	389
932.952	93
933.047	281
933.142	416
933.237	-11
933.332	173
933.427	-38
933.522	-34
933.617	20
933.712	308
933.807	106
933.902	-200
933.997	-85
934.092	8
934.187	-21
934.282	-708
934.376	-287
934.471	163
934.566	263
934.661	-179
934.755	292
934.850	75
934.945	-99
935.039	-578
935.134	32
935.228	-405
935.323	185
935.417	-188
935.512	203
935.606	-1601
935.701	196
935.795	-668
935.890	221
935.984	578
936.079	-82
936.173	-404
936.267	586
936.362	67
936.456	320
936.550	158
936.644	210
936.738	-300
936.833	236
936.927	30
937.021	721
937.115	-348
937.209	-726
937.303	318
937.397	-862
937.491	-1050
937.585	119
937.679	-610
937.773	-109
937.867	-241
937.961	253
938.055	-156
938.149	543
938.243	-1099
938.337	137
938.430	-555
938.524	527
938.618	1352
938.712	2518
938.805	68
938.899	661
938.993	-128
939.086	1126
939.180	922
939.274	2733
939.367	775
939.461	201
939.554	-496
939.648	-32
939.741	-234
939.835	68
939.928	-156
940.022	-44
940.115	175
940.208	667
940.302	-26
940.395	-386
940.488	-1618
940.582	31
940.675	-1363
940.768	-592
940.861	-245
940.954	310
941.048	-762
941.141	59
941.234	-825
941.327	764
941.420	1135
941.513	1022
941.606	-697
941.699	600
941.792	-637
941.885	-1089
941.978	-788
942.071	-193
942.164	-469
942.257	-4
942.349	-638
942.442	-350
942.535	-855
942.628	190
942.721	31
942.813	-1433
942.906	280
942.999	-100
943.091	-432
943.184	277
943.277	-1209
943.369	827
943.462	-990
943.554	126
943.647	-989
943.739	148
943.832	-287
943.924	-1137
944.017	-212
944.109	-129
944.201	-408
944.294	-343
944.386	-649
944.478	94
944.571	-593
944.663	251
944.755	-303
944.847	-19
944.940	-618
945.032	-922
945.124	-481
945.216	794
945.308	-653
945.400	-278
945.492	-547
945.584	-518
945.676	-892
945.768	-549
945.860	41
945.952	-203
946.044	102
946.136	-419
946.228	-269
946.320	-40
946.412	120
946.503	-929
946.595	-42
946.687	-685
946.779	-935
946.870	171
946.962	-441
947.054	-150
947.145	-790
947.237	-505
947.329	-755
947.420	-542
947.512	-309
947.603	130
947.695	148
947.786	-1535
947.878	19
947.969	178
948.061	-915
948.152	-1021
948.243	26
948.335	-53
948.426	-585
948.517	-705
948.609	-212
948.700	-440
948.791	-770
948.882	552
948.973	-996
949.065	-864
949.156	-601
949.247	-1485
949.338	-1189
949.429	-575
949.520	-384
949.611	-1520
949.702	-524
949.793	-637
949.884	-341
949.975	-287
950.066	-1418
950.157	-1335
950.247	-44
950.338	-681
950.429	-122
950.520	534
950.611	-929
950.701	-582
950.792	-575
950.883	-555
950.973	-90
951.064	-357
951.155	-1187
951.245	-108
951.336	-321
951.427	-1497
951.517	73
951.608	-808
951.698	-1213
951.788	-378
951.879	-1075
951.969	-712
952.060	-1527
952.150	-919
952.240	-43
952.331	-1442
952.421	-245
952.511	-243
952.602	-830
952.692	-127
952.782	-439
952.872	-1019
952.962	-806
953.052	-1049
953.143	-846
953.233	-695
953.323	18
953.413	-485
953.503	-889
953.593	134
953.683	-508
953.773	-1530
953.863	-1133
953.953	-504
954.042	-381
954.132	-1059
954.222	-215
954.312	-624
954.402	-648
954.492	-1003
954.581	-1436
954.671	-483
954.761	-752
954.850	530
954.940	-703
955.030	-359
955.119	-1265
955.209	-188
955.298	-1315
955.388	138
955.477	510
955.567	-715
955.656	-449
955.746	-496
955.835	-999
955.925	-321
956.014	39
956.103	-47
956.193	-809
956.282	-770
956.371	-387
956.461	-723
956.550	-1164
956.639	-518
956.728	-1821
956.817	201
956.906	-1024
956.995	-148
957.085	-1073
957.174	-64
957.263	-60
957.352	-344
957.441	-722
957.530	-157
957.619	-329
957.708	-1115
957.796	-1202
957.885	-585
957.974	-1085
958.063	-311
958.152	-1860
958.241	270
958.329	-984
958.418	-413
958.507	-978
958.596	742
958.684	-796
958.773	170
958.861	-904
958.950	-408
959.039	-362
959.127	-335
959.216	68
959.304	-376
959.393	-1134
959.481	-754
959.570	-109
959.658	-476
959.746	-1825
959.835	129
959.923	-952
960.011	-898
960.100	-197
960.188	-256
960.276	-417
960.365	-174
960.453	-924
960.541	-723
960.629	-1077
960.717	-323
960.805	-1050
960.893	-425
960.981	-1432
961.069	588
961.158	-516
961.245	-173
961.333	-859
961.421	-913
961.509	-665
961.597	-885
961.685	-525
961.773	-603
961.861	-1396
961.949	-218
962.036	-1564
962.124	-205
962.212	-1047
962.299	-8
962.387	-578
962.475	-655
962.562	-1659
962.650	418
962.738	-635
962.825	-927
962.913	-793
963.000	-1123
963.088	-311
963.175	-460
963.263	-929
963.350	-1000
963.438	-924
963.525	-189
963.612	-332
963.700	-61
963.787	-299
963.874	-824
963.962	-425
964.049	-684
964.136	-1509
964.223	-1803
964.310	-731
964.398	-465
964.485	-1413
964.572	-185
964.659	170
964.746	-629
964.833	-773
964.920	-1087
965.007	-1284
965.094	-58
965.181	-1468
965.268	-690
965.355	-284
965.441	-857
965.528	-1346
965.615	284
965.702	-1258
965.789	-357
965.875	-1356
965.962	-704
966.049	-1141
966.136	69
966.222	-949
966.309	-391
966.395	-1028
966.482	135
966.569	-1351
966.655	-9
966.742	-1724
966.828	-524
966.915	-717
967.001	-858
967.087	-1363
967.174	-393
967.260	-364
967.347	26
967.433	-1020
967.519	-427
967.605	-945
967.692	-824
967.778	-1174
967.864	-891
967.950	-594
968.036	-600
968.123	-325
968.209	-803
968.295	-971
968.381	317
968.467	-164
968.553	-2092
968.639	-425
968.725	-968
968.811	-402
968.897	-427
968.983	-1403
969.069	-713
969.154	-598
969.240	-484
969.326	-1405
969.412	-430
969.497	-769
969.583	-477
969.669	681
969.755	-437
969.840	-990
969.926	-229
970.012	-312
970.097	182
970.183	-993
970.268	-345
970.354	-185
970.439	-1500
970.525	-480
970.610	-1795
970.696	-670
970.781	-335
970.866	-1649
970.952	-532
971.037	-1555
971.122	-602
971.208	-790
971.293	-503
971.378	-1923
971.463	-633
971.549	-1009
971.634	191
971.719	-1543
971.804	-1647
971.889	479
971.974	-1159
972.059	-1776
972.144	200
972.229	-593
972.314	-700
972.399	-709
972.484	-811
972.569	-648
972.654	-1742
972.739	-434
972.824	-1783
972.908	-730
972.993	-1360
973.078	-530
973.163	-685
973.247	-525
973.332	-2296
973.417	52
973.501	-1349
973.586	-614
973.671	-419
973.755	-1758
973.840	-575
973.924	-133
974.009	116
974.093	-1604
974.178	-1125
974.262	-1035
974.346	-1493
974.431	-802
974.515	-566
974.600	-511
974.684	-1292
974.768	-1276
974.852	713
974.937	-2195
975.021	-334
975.105	-1029
975.189	-799
975.273	-1021
975.358	-889
975.442	-924
975.526	808
975.610	-1545
975.694	-2052
975.778	-588
975.862	-651
975.946	-2051
976.030	557
976.114	-1595
976.198	148
976.281	-1533
976.365	-684
976.449	-982
976.533	183
976.617	-1376
976.700	-1139
976.784	-705
976.868	-1859
976.951	-728
977.035	-1205
977.119	-525
977.202	-1277
977.286	-161
977.369	-978
977.453	-1034
977.536	-651
977.620	-1496
977.703	-665
977.787	-2627
977.870	-556
977.953	230
978.037	-1794
978.120	-730
978.203	-1130
978.287	-1970
978.370	-1113
978.453	-956
978.536	-1060
978.620	-162
978.703	-54
978.786	-1991
978.869	-497
978.952	-1838
979.035	676
979.118	-818
979.201	-886
979.284	-1323
979.367	-1207
979.450	-582
979.533	-1040
979.616	-1388
979.699	-1287
979.782	-1089
979.865	-686
979.948	-1088
980.030	-1117
980.113	-1296
980.196	-2038
980.279	-756
980.361	-1337
980.444	-1795
980.526	-233
980.609	-953
980.692	-1266
980.774	-1128
980.857	-1316
980.939	-795
981.022	-1079
981.104	-1349
981.187	-738
981.269	-614
981.352	-308
981.434	-1397
981.516	-1638
981.599	-651
981.681	-847
981.763	-915
981.846	-717
981.928	-1924
982.010	-1139
982.092	-2335
982.174	138
982.256	-1085
982.339	-928
982.421	-1150
982.503	-364
982.585	-1903
982.667	-1196
982.749	-1691
982.831	-618
982.913	-2537
982.995	-40
983.077	-2063
983.158	-108
983.240	-2301
983.322	-659
983.404	-381
983.486	-1629
983.568	-721
983.649	-1053
983.731	-1559
983.813	-1091
983.894	-1448
983.976	-1393
984.058	-1070
984.139	-628
984.221	-1606
984.302	-480
984.384	-1057
984.465	-1713
984.547	-1863
984.628	-2028
984.710	-437
984.791	-1586
984.872	-1649
984.954	-1358
985.035	-1117
985.116	-1905
985.198	-1943
985.279	5
985.360	-1948
985.441	-1143
985.522	-832
985.604	-1231
985.685	-2791
985.766	-463
985.847	203
985.928	-1735
986.009	-997
986.090	-1443
986.171	-1289
986.252	-958
986.333	-1027
986.414	-1134
986.495	-1092
986.576	-1420
986.656	-1307
986.737	-716
986.818	-1153
986.899	-1965
986.980	-1019
987.060	-429
987.141	-2329
987.222	-847
987.302	-1241
987.383	-1088
987.464	-2730
987.544	-696
987.625	-1348
987.705	23
987.786	-216
987.866	-567
987.947	-878
988.027	-920
988.108	-2146
988.188	-160
988.268	-714
988.349	-832
988.429	-1637
988.509	-847
988.589	-1587
988.670	-2587
988.750	-243
988.830	-899
988.910	-852
988.990	-1505
989.070	-1536
989.151	-1154
989.231	-2091
989.311	-430
989.391	-1292
989.471	-692
989.551	-1952
989.631	-1090
989.711	-1465
989.791	-1347
989.870	-2591
989.950	-831
990.030	-1794
990.110	-635
990.190	-1567
990.269	-1368
990.349	-1279
990.429	-1119
990.509	-1434
990.588	-1017
990.668	-1045
990.747	-831
990.827	-979
990.907	-1049
990.986	-1910
991.066	-1407
991.145	-1920
991.225	-596
991.304	-648
991.383	-805
991.463	-1411
991.542	-1174
991.622	-1721
991.701	-1603
991.780	-2193
991.859	-1921
991.939	-1970
992.018	-1383
992.097	-1668
992.176	265
992.256	-1650
992.335	-1119
992.414	410
992.493	-1712
992.572	-1140
992.651	-1003
992.730	-1061
992.809	-1469
992.888	-1855
992.967	-2183
993.046	-1023
993.125	-2058
993.203	-1499
993.282	-829
993.361	-1414
993.440	-1383
993.519	-2101
993.597	-1255
993.676	-1879
993.755	-701
993.834	-1389
993.912	-2240
993.991	-507
994.069	-1624
994.148	-1643
994.226	-1161
994.305	-1123
994.384	-1884
994.462	-1023
994.540	-1948
994.619	-1874
994.697	-991
994.776	-1606
994.854	-600
994.932	-2080
995.011	-507
995.089	-1886
995.167	-1795
995.245	-982
995.324	-1996
995.402	-1322
995.480	-1181
995.558	-1462
995.636	-1992
995.714	-1866
995.792	-764
995.870	-1923
995.948	-945
996.026	-843
996.104	-2130
996.182	-1104
996.260	-1484
996.338	-1978
996.416	-2053
996.494	-1750
996.572	-99
996.649	-1139
996.727	-1556
996.805	-1442
996.883	-1422
996.960	-1411
997.038	-475
997.116	-691
997.193	-862
997.271	-1040
997.348	-1419
997.426	-1329
997.504	-1349
997.581	-1039
997.658	366
997.736	-2069
997.813	-2142
997.891	-1091
997.968	-1116
998.046	-1420
998.123	-1136
998.200	-1804
998.277	-1972
998.355	-854
998.432	-1973
998.509	-1769
998.586	-368
998.663	-1191
998.741	-948
998.818	-1485
998.895	-1710
998.972	-445
999.049	-1159
999.126	-2341
999.203	-744
999.280	-1032
999.357	-718
999.434	-1558
999.511	-1116
999.587	-1047
999.664	-2032
999.741	-1734
999.818	-460
999.895	-2276
999.971	-1911
1000.048	-2022
1000.125	-836
1000.202	-2291
1000.278	-845
1000.355	-884
1000.431	-1860
1000.508	-2509
1000.584	-992
1000.661	-297
1000.738	-1459
1000.814	-1193
1000.890	-1238
1000.967	-2419
1001.043	-1042
1001.120	-2544
1001.196	-835
1001.272	-2031
1001.349	-521
1001.425	-954
1001.501	-1916
1001.577	-2604
1001.654	-1252
1001.730	-1466
1001.806	-1741
1001.882	-2720
1001.958	-600
1002.034	-1164
1002.110	-434
1002.186	-1892
1002.262	-1771
1002.338	-1449
1002.414	-1237
1002.490	-1495
1002.566	-1382
1002.642	-1618
1002.718	-202
1002.794	-1786
1002.870	-2163
1002.945	-1633
1003.021	-1732
1003.097	-1569
1003.173	-404
1003.248	-1935
1003.324	-441
1003.400	-1094
1003.475	-1560
1003.551	-1768
1003.626	-2115
1003.702	-1819
1003.777	-1677
1003.853	-1270
1003.928	-1866
1004.004	-1779
1004.079	-1824
1004.155	-1588
1004.230	-1680
1004.305	-665
1004.381	-2346
1004.456	-1886
1004.531	-1454
1004.607	-1531
1004.682	-1495
1004.757	-1014
1004.832	-1708
1004.907	-1713
1004.982	-1053
1005.057	-1252
1005.133	-1578
1005.208	-1829
1005.283	-1544
1005.358	-1021
1005.433	-1706
1005.508	-1763
1005.583	-2244
1005.657	-1236
1005.732	-1447
1005.807	-2048
1005.882	-1982
1005.957	-981
1006.032	-1091
1006.106	-1648
1006.181	-1328
1006.256	-1247
1006.331	-1816
1006.405	-2096
1006.480	-1398
1006.554	-1910
1006.629	-1214
1006.704	-2054
1006.778	-2422
1006.853	-1154
1006.927	-2095
1007.002	-1989
1007.076	-600
1007.150	-2189
1007.225	-1208
1007.299	-1238
1007.373	-1781
1007.448	-1184
1007.522	-1279
1007.596	-1032
1007.671	-1596
1007.745	-1592
1007.819	-2082
1007.893	-2070
1007.967	-595
1008.041	-3222
1008.115	-1212
1008.190	-2312
1008.264	-1057
1008.338	-1938
1008.412	-1467
1008.486	-1780
1008.560	-1094
1008.633	-2181
1008.707	-1055
1008.781	-1414
1008.855	-1464
1008.929	-1040
1009.003	-2235
1009.076	-1938
1009.150	-1426
1009.224	-1877
1009.298	-413
1009.371	-1667
1009.445	-1019
1009.519	-1734
1009.592	-1768
1009.666	-1604
1009.739	-1617
1009.813	-3009
1009.886	-1738
1009.960	-1920
1010.033	-884
1010.107	-1769
1010.180	-1915
1010.253	-2010
1010.327	-1590
1010.400	-2034
1010.473	-1674
1010.547	-301
1010.620	-1062
1010.693	-1574
1010.766	-1061
1010.840	-1634
1010.913	-646
1010.986	-2155
1011.059	-1789
1011.132	-1377
1011.205	-484
1011.278	-1965
1011.351	-1062
1011.424	-613
1011.497	-1339
1011.570	-1061
1011.643	-1450
1011.716	-1873
1011.789	-1784
1011.862	-1542
1011.934	-1068
1012.007	-2735
1012.080	-815
1012.153	-935
1012.225	-755
1012.298	-2354
1012.371	-2219
1012.443	-1750
1012.516	-2045
1012.588	-1242
1012.661	-522
1012.733	-1933
1012.806	-932
1012.879	-2292
1012.951	-1366
1013.023	-1721
1013.096	-1463
1013.168	-1787
1013.241	-1074
1013.313	-1550
1013.385	-2328
1013.458	-2036
1013.530	-1394
1013.602	-1775
1013.674	-1458
1013.746	-1485
1013.819	-1725
1013.891	-1025
1013.963	-2327
1014.035	-1677
1014.107	-1342
1014.179	-1815
1014.251	-1187
1014.323	-2008
1014.395	-1841
1014.467	-1586
1014.539	-1154
1014.611	-2451
1014.683	-1394
1014.754	-1341
1014.826	-1300
1014.898	-1783
1014.970	-2632
1015.042	-1178
1015.113	-1685
1015.185	-1983
1015.257	-2673
1015.328	-1619
1015.400	-1359
1015.471	-1583
1015.543	-2471
1015.615	-2250
1015.686	-1920
1015.757	-1798
1015.829	-1531
1015.901	-2076
1015.972	-1387
1016.043	-1375
1016.115	-1943
1016.186	-2326
1016.257	-2199
1016.328	-923
1016.400	-840
1016.471	-2193
1016.542	-1476
1016.613	-2024
1016.685	-1259
1016.756	-2023
1016.827	-1646
1016.898	-2294
1016.969	-763
1017.040	-1844
1017.111	-2015
1017.182	-2665
1017.253	-996
1017.324	-1917
1017.395	-1878
1017.466	-1674
1017.537	-1606
1017.608	-1554
1017.678	-890
1017.749	-1655
1017.820	-1229
1017.891	-1918
1017.961	-2349
1018.032	-2142
1018.103	-1770
1018.173	-1174
1018.244	-2281
1018.315	-1909
1018.385	-893
1018.456	-2169
1018.526	-1957
1018.597	-1612
1018.667	-930
1018.738	-2144
1018.808	-1551
1018.878	-1624
1018.949	-1678
1019.019	-1660
1019.089	-1946
1019.160	-2054
1019.230	-1571
1019.300	-1595
1019.371	-1690
1019.441	-2490
1019.511	-1397
1019.581	-1667
1019.651	-1737
1019.721	-1545
1019.791	-1292
1019.861	-2043
1019.931	-1824
1020.001	-2344
1020.071	-939
1020.141	-1665
1020.211	-1254
1020.281	-2323
1020.351	-2004
1020.421	-1708
1020.491	-1533
1020.560	-2339
1020.630	-1265
1020.700	-1176
1020.770	-1700
1020.839	-2563
1020.909	-2057
1020.979	-2151
1021.048	-2263
1021.118	-1455
1021.187	-1622
1021.257	-1768
1021.326	-1524
1021.396	-2398
1021.465	-1254
1021.535	-2176
1021.604	-1383
1021.674	-1717
1021.743	-1489
1021.812	-2404
1021.882	-1614
1021.951	-1648
1022.020	-2017
1022.089	-1711
1022.159	-2374
1022.228	-2397
1022.297	-1830
1022.366	-2088
1022.435	-1256
1022.504	-2441
1022.573	-1751
1022.642	-2200
1022.711	-2144
1022.781	-2241
1022.849	-1956
1022.918	-2272
1022.987	-1841
1023.056	-1736
1023.125	-1266
1023.194	-1027
1023.263	-1368
1023.331	-1035
1023.400	-1988
1023.469	-1797
1023.538	-1352
1023.606	-2427
1023.675	-1545
1023.744	-2002
1023.812	-2244
1023.881	-1696
1023.949	-1118
1024.018	-1955
1024.086	-1346
1024.155	-1632
1024.223	-1916
1024.292	-2206
1024.360	-835
1024.429	-2014
1024.497	-2513
1024.565	-1628
1024.634	-1531
1024.702	-1316
1024.770	-1171
1024.838	-2455
1024.907	-2452
1024.975	-2457
1025.043	-2094
1025.111	-1605
1025.179	-1413
1025.247	-2420
1025.315	-1578
1025.383	-2091
1025.451	-1561
1025.519	-2783
1025.587	-1319
1025.655	-2124
1025.723	-954
1025.791	-1976
1025.859	-1332
1025.927	-2192
1025.995	-1590
1026.062	-2305
1026.130	-1644
1026.198	-1733
1026.266	-1344
1026.333	-1260
1026.401	-1091
1026.469	-1878
1026.536	-2182
1026.604	-1929
1026.671	-2033
1026.739	-1470
1026.806	-1572
1026.874	-2240
1026.941	-1828
1027.009	-2235
1027.076	-1285
1027.144	-1305
1027.211	-1826
1027.278	-1287
1027.345	-1583
1027.413	-1462
1027.480	-1179
1027.547	-2539
1027.614	-1657
1027.682	-1277
1027.749	-2322
1027.816	-1770
1027.883	-1271
1027.950	-804
1028.017	-1393
1028.084	-1448
1028.151	-2644
1028.218	-906
1028.285	-1716
1028.352	-2035
1028.419	-2079
1028.486	-2217
1028.553	-1880
1028.619	-1811
1028.686	-1374
1028.753	-2582
1028.820	-1445
1028.886	-2482
1028.953	-1255
1029.020	-1824
1029.086	-984
1029.153	-2122
1029.220	-2114
1029.286	-1953
1029.353	-1701
1029.419	-1606
1029.486	-1278
1029.552	-1847
1029.619	-1483
1029.685	-1589
1029.751	-2507
1029.818	-1833
1029.884	-1490
1029.951	-769
1030.017	-1822
1030.083	-1544
1030.149	-1838
1030.216	-2990
1030.282	-1279
1030.348	-1820
1030.414	-2030
1030.480	-2319
1030.546	-1903
1030.612	-929
1030.678	-2191
1030.744	-1373
1030.810	-1694
1030.876	-2262
1030.942	-854
1031.008	-1996
1031.074	-2014
1031.140	-1733
1031.206	-1409
1031.272	-2700
1031.337	-1852
1031.403	-1302
1031.469	-1934
1031.534	-1924
1031.600	-1344
1031.666	-1776
1031.731	-1930
1031.797	-2360
1031.863	-1517
1031.928	-1960
1031.994	-1354
1032.059	-1889
1032.125	-1715
1032.190	-1900
1032.256	-1478
1032.321	-2117
1032.386	-2358
1032.452	-1846
1032.517	-2511
1032.582	-2141
1032.647	-702
1032.713	-2956
1032.778	-1380
1032.843	-2355
1032.908	-1553
1032.974	-2004
1033.039	-1997
1033.104	-1262
1033.169	-1851
1033.234	-2098
1033.299	-894
1033.364	-1912
1033.429	-1629
1033.494	-2350
1033.559	-2314
1033.624	-1424
1033.688	-1556
1033.753	-1982
1033.818	-1903
1033.883	-2224
1033.948	-1693
1034.013	-1663
1034.077	-1975
1034.142	-1983
1034.207	-1946
1034.271	-993
1034.336	-1174
1034.400	-1896
1034.465	-1597
1034.530	-1999
1034.594	-1442
1034.658	-2379
1034.723	-1793
1034.787	-2019
1034.852	-1228
1034.916	-2046
1034.981	-1155
1035.045	-2131
1035.109	-1469
1035.173	-2016
1035.238	-2164
1035.302	-2072
1035.366	-2176
1035.430	-2050
1035.495	-1610
1035.559	-1396
1035.623	-1450
1035.687	-2386
1035.751	-1954
1035.815	-2486
1035.879	-2077
1035.943	-1603
1036.007	-1257
1036.071	-1588
1036.135	-2575
1036.198	-1983
1036.262	-2050
1036.326	-1653
1036.390	-1701
1036.454	-2373
1036.517	-1896
1036.581	-1865
1036.645	-2080
1036.709	-1671
1036.772	-2469
1036.836	-2118
1036.900	-1703
1036.963	-2392
1037.026	-2319
1037.090	-2382
1037.154	-2077
1037.217	-2228
1037.280	-2900
1037.344	-2441
1037.407	-2472
1037.471	-2267
1037.534	-2257
1037.597	-2660
1037.661	-1235
1037.724	-2430
1037.787	-1971
1037.850	-2055
1037.913	-2240
1037.977	-1382
1038.040	-1558
1038.103	-2301
1038.166	-1729
1038.229	-2232
1038.292	-2305
1038.355	-2523
1038.418	-1092
1038.481	-2415
1038.544	-1940
1038.607	-2279
1038.670	-1671
1038.732	-2328
1038.795	-2107
1038.858	-2283
1038.921	-1613
1038.984	-1654
1039.046	-1599
1039.109	-2703
1039.172	-1336
1039.234	-2904
1039.297	-1853
1039.360	-1619
1039.422	-2070
1039.485	-2291
1039.547	-2112
1039.610	-1448
1039.672	-2571
1039.734	-1932
1039.797	-2307
1039.859	-2312
1039.922	-1588
1039.984	-2735
1040.046	-2469
1040.109	-2122
1040.171	-2175
1040.233	-2434
1040.295	-2758
1040.358	-2957
1040.420	-2125
1040.482	-2488
1040.544	-2091
1040.606	-2407
1040.668	-1697
1040.730	-2301
1040.792	-2447
1040.854	-2006
1040.916	-1614
1040.978	-2636
1041.040	-1391
1041.102	-2336
1041.164	-1994
1041.225	-2187
1041.287	-2071
1041.349	-2752
1041.411	-2302
1041.472	-3204
1041.534	-1907
1041.596	-3351
1041.657	-2161
1041.719	-2194
1041.781	-2848
1041.842	-2882
1041.904	-2091
1041.965	-2800
1042.027	-1882
1042.088	-2532
1042.150	-2613
1042.211	-2543
1042.272	-1494
1042.334	-2049
1042.395	-1506
1042.456	-3242
1042.518	-2071
1042.579	-1668
1042.640	-2544
1042.701	-2728
1042.763	-1804
1042.824	-3377
1042.885	-2682
1042.946	-2441
1043.007	-2514
1043.068	-2421
1043.129	-2410
1043.190	-2119
1043.251	-1670
1043.312	-2096
1043.373	-1901
1043.434	-2763
1043.495	-2982
1043.556	-2513
1043.616	-1349
1043.677	-2420
1043.738	-2336
1043.799	-2656
1043.859	-1689
1043.920	-2024
1043.981	-2499
1044.041	-2139
1044.102	-2169
1044.162	-1705
1044.223	-2299
1044.284	-2069
1044.344	-1224
1044.405	-2053
1044.465	-2186
1044.525	-2401
1044.586	-2390
1044.646	-2364
1044.707	-1647
1044.767	-2607
1044.827	-1811
1044.887	-2214
1044.948	-2025
1045.008	-1898
1045.068	-1192
1045.128	-2301
1045.188	-2058
1045.249	-1130
1045.309	-1122
1045.369	-2782
1045.429	-2154
1045.489	-2100
1045.549	-1405
1045.609	-2572
1045.669	-2194
1045.729	-2742
1045.789	-1598
1045.848	-1771
1045.908	-1718
1045.968	-1580
1046.028	-1349
1046.088	-1945
1046.147	-1562
1046.207	-1825
1046.267	-1983
1046.326	-1987
1046.386	-1581
1046.446	-1802
1046.505	-2011
1046.565	-1134
1046.624	-640
1046.684	-1550
1046.743	-835
1046.803	-1062
1046.862	-866
1046.922	0
