'Start Wavelength	183.907
'End Wavelength	1046.922
'Gate Delay	5.000
'Gate Width (ms)	1.050
'Laser Output Level	0.000
'X Position	0.000
'Y Position	0.000
'Z Position	0.000
'Grid Point Number	1.000
'Shot Number	100.000
183.907	-91.000
183.977	-397.000
184.047	-270
184.116	502
184.186	-81
184.256	-152
184.325	-548
184.395	-857
184.465	802
184.534	-884
184.604	-799
184.674	-426
184.743	-465
184.813	-55
184.883	-672
184.952	642
185.022	-223
185.092	1056
185.161	-15
185.231	-75
185.301	-449
185.370	239
185.440	-584
185.509	-403
185.579	-742
185.649	120
185.718	-71
185.788	65
185.857	-1055
185.927	691
185.996	511
186.066	-27
186.136	485
186.205	-79
186.275	232
186.344	223
186.414	-587
186.483	-906
186.553	1033
186.622	407
186.692	56
186.761	203
186.831	-332
186.900	-235
186.970	-308
187.039	-81
187.109	-170
187.178	463
187.248	-305
187.317	-106
187.387	-66
187.456	379
187.526	-127
187.595	361
187.664	-407
187.734	785
187.803	-880
187.873	-269
187.942	437
188.012	117
188.081	-773
188.150	117
188.220	73
188.289	205
188.358	336
188.428	372
188.497	-254
188.567	382
188.636	516
188.705	64
188.775	137
188.844	-177
188.913	938
188.983	-375
189.052	-470
189.121	422
189.191	-679
189.260	-135
189.329	958
189.399	529
189.468	-323
189.537	-886
189.606	-117
189.676	259
189.745	99
189.814	215
189.883	-316
189.953	776
190.022	-172
190.091	671
190.161	533
190.230	761
190.299	-548
190.368	358
190.437	-113
190.507	-697
190.576	-522
190.645	-209
190.714	-655
190.783	-268
190.853	493
190.922	659
190.991	-177
191.060	-347
191.129	-941
191.198	553
191.268	-158
191.337	477
191.406	-266
191.475	-12
191.544	-280
191.613	244
191.682	280
191.752	296
191.821	-1020
191.890	412
191.959	209
192.028	386
192.097	381
192.166	-613
192.235	-909
192.304	105
192.373	-543
192.442	419
192.511	-266
192.580	-53
192.650	463
192.719	91
192.788	-390
192.857	651
192.926	-674
192.995	-253
193.064	-304
193.133	429
193.202	-941
193.271	-33
193.340	87
193.409	909
193.478	-338
193.547	-175
193.615	-410
193.684	487
193.753	-778
193.822	61
193.891	-701
193.960	151
194.029	-262
194.098	-271
194.167	-1139
194.236	-298
194.305	60
194.374	-195
194.443	-196
194.512	12
194.580	220
194.649	306
194.718	-637
194.787	1260
194.856	69
194.925	-195
194.994	-52
195.062	231
195.131	214
195.200	236
195.269	72
195.338	470
195.407	425
195.475	294
195.544	1166
195.613	721
195.682	521
195.751	901
195.819	-376
195.888	587
195.957	275
196.026	785
196.094	426
196.163	787
196.232	446
196.301	1109
196.369	492
196.438	137
196.507	521
196.576	-47
196.644	-402
196.713	937
196.782	146
196.850	303
196.919	242
196.988	-151
197.056	-761
197.125	545
197.194	310
197.262	1174
197.331	-122
197.400	147
197.468	-449
197.537	-662
197.606	328
197.674	469
197.743	428
197.812	392
197.880	568
197.949	1004
198.017	837
198.086	1242
198.155	-62
198.223	99
198.292	596
198.360	828
198.429	-444
198.497	-286
198.566	-67
198.635	1344
198.703	94
198.772	388
198.840	660
198.909	1592
198.977	364
199.046	549
199.114	-92
199.183	887
199.251	-615
199.320	-81
199.388	-138
199.457	281
199.525	-630
199.594	371
199.662	-283
199.731	281
199.799	63
199.867	643
199.936	-286
200.004	495
200.073	964
200.141	103
200.210	5
200.278	776
200.346	173
200.415	865
200.483	249
200.552	612
200.620	-55
200.688	170
200.757	-585
200.825	178
200.893	-398
200.962	95
201.030	-92
201.098	318
201.167	445
201.235	-110
201.303	-573
201.372	1167
201.440	76
201.508	685
201.577	222
201.645	962
201.713	-643
201.781	229
201.850	673
201.918	201
201.986	-154
202.055	30
202.123	79
202.191	276
202.259	-50
202.327	260
202.396	-135
202.464	399
202.532	-267
202.600	2025
202.669	999
202.737	145
202.805	-114
202.873	425
202.941	-29
203.009	-95
203.078	-270
203.146	481
203.214	-935
203.282	64
203.350	366
203.418	425
203.487	-974
203.555	-398
203.623	-139
203.691	653
203.759	463
203.827	-242
203.895	-636
203.963	446
204.031	-560
204.099	279
204.168	-377
204.236	139
204.304	-630
204.372	155
204.440	-743
204.508	26
204.576	-506
204.644	187
204.712	-461
204.780	391
204.848	-44
204.916	-35
204.984	-585
205.052	389
205.120	-217
205.188	418
205.256	-82
205.324	294
205.392	-524
205.460	10
205.528	-1041
205.596	170
205.664	-424
205.732	118
205.799	1430
205.867	2383
205.935	-129
206.003	469
206.071	78
206.139	279
206.207	830
206.275	494
206.343	-810
206.411	515
206.478	173
206.546	660
206.614	-383
206.682	-86
206.750	168
206.818	300
206.885	-119
206.953	-433
207.021	-28
207.089	929
207.157	-655
207.225	164
207.292	-211
207.360	618
207.428	434
207.496	-542
207.563	-488
207.631	1045
207.699	-118
207.767	207
207.834	-542
207.902	280
207.970	-386
208.038	371
208.105	-371
208.173	-42
208.241	971
208.309	218
208.376	558
208.444	1516
208.512	237
208.579	93
208.647	-147
208.715	1365
208.782	49
208.850	344
208.918	197
208.985	-622
209.053	369
209.120	88
209.188	-601
209.256	604
209.323	-332
209.391	1107
209.459	1420
209.526	420
209.594	132
209.661	725
209.729	729
209.796	-244
209.864	-249
209.932	-680
209.999	1618
210.067	570
210.134	498
210.202	603
210.269	769
210.337	784
210.404	-303
210.472	-654
210.539	-54
210.607	230
210.674	920
210.742	532
210.809	-149
210.877	1165
210.944	1007
211.012	1007
211.079	1472
211.146	406
211.214	78
211.281	675
211.349	435
211.416	686
211.484	685
211.551	432
211.618	27
211.686	662
211.753	222
211.821	283
211.888	531
211.955	-56
212.023	-643
212.090	382
212.157	633
212.225	235
212.292	1778
212.359	2768
212.427	6644
212.494	3595
212.561	772
212.629	804
212.696	520
212.763	886
212.831	162
212.898	865
212.965	-1
213.032	1168
213.100	610
213.167	694
213.234	925
213.301	289
213.369	1090
213.436	-55
213.503	-37
213.570	1854
213.638	996
213.705	433
213.772	-553
213.839	620
213.906	1190
213.973	1356
214.041	233
214.108	1343
214.175	978
214.242	299
214.309	339
214.376	936
214.444	594
214.511	1087
214.578	324
214.645	986
214.712	1154
214.779	1102
214.846	-81
214.913	1371
214.980	515
215.048	1359
215.115	1828
215.182	2319
215.249	1264
215.316	415
215.383	682
215.450	956
215.517	52
215.584	914
215.651	695
215.718	1033
215.785	1585
215.852	1993
215.919	2484
215.986	1879
216.053	839
216.120	995
216.187	1210
216.254	1617
216.321	596
216.388	2338
216.455	2506
216.522	1743
216.589	2110
216.656	3483
216.722	2974
216.789	2026
216.856	1032
216.923	657
216.990	460
217.057	453
217.124	1596
217.191	296
217.258	1566
217.324	1143
217.391	714
217.458	611
217.525	909
217.592	1428
217.659	532
217.725	1535
217.792	1772
217.859	2243
217.926	58
217.993	16
218.059	1949
218.126	628
218.193	530
218.260	505
218.327	466
218.393	1508
218.460	905
218.527	748
218.594	600
218.660	2447
218.727	2458
218.794	894
218.860	1327
218.927	316
218.994	371
219.061	1263
219.127	1280
219.194	1879
219.261	839
219.327	268
219.394	1500
219.461	323
219.527	1233
219.594	1575
219.661	367
219.727	291
219.794	905
219.860	747
219.927	687
219.994	1553
220.060	2405
220.127	2283
220.193	775
220.260	499
220.326	1297
220.393	1165
220.460	832
220.526	663
220.593	-177
220.659	1791
220.726	795
220.792	3319
220.859	2068
220.925	1697
220.992	1888
221.058	3546
221.125	4345
221.191	3921
221.258	705
221.324	1079
221.391	1513
221.457	673
221.524	1493
221.590	1841
221.657	4937
221.723	2687
221.789	2493
221.856	3767
221.922	1066
221.989	2071
222.055	775
222.121	256
222.188	2547
222.254	1479
222.321	1062
222.387	635
222.453	406
222.520	725
222.586	505
222.652	1616
222.719	160
222.785	1045
222.851	925
222.918	1095
222.984	209
223.050	445
223.116	-193
223.183	2135
223.249	-17
223.315	815
223.382	814
223.448	47
223.514	-261
223.580	1209
223.647	429
223.713	1327
223.779	1253
223.845	887
223.911	720
223.978	462
224.044	809
224.110	1227
224.176	214
224.242	1519
224.309	478
224.375	1082
224.441	387
224.507	859
224.573	491
224.639	1473
224.705	359
224.772	805
224.838	200
224.904	2237
224.970	693
225.036	746
225.102	881
225.168	2289
225.234	915
225.300	161
225.366	1070
225.432	1142
225.499	-269
225.565	766
225.631	773
225.697	973
225.763	1516
225.829	1081
225.895	1105
225.961	2982
226.027	2032
226.093	1433
226.159	1967
226.225	1853
226.291	684
226.357	2885
226.423	3049
226.489	3599
226.554	1805
226.620	2011
226.686	2712
226.752	4937
226.818	2834
226.884	4402
226.950	3491
227.016	1873
227.082	2156
227.148	2167
227.214	2633
227.279	2313
227.345	1313
227.411	1997
227.477	1342
227.543	1993
227.609	2976
227.674	2986
227.740	2704
227.806	1749
227.872	231
227.938	1204
228.003	3353
228.069	1213
228.135	804
228.201	657
228.267	760
228.332	2289
228.398	1947
228.464	1936
228.530	557
228.595	1017
228.661	-87
228.727	1956
228.792	4075
228.858	1579
228.924	740
228.990	2689
229.055	1564
229.121	2923
229.187	1326
229.252	916
229.318	792
229.384	2183
229.449	2021
229.515	219
229.581	-1115
229.646	2097
229.712	1712
229.777	3220
229.843	3797
229.909	3677
229.974	3601
230.040	3515
230.105	2082
230.171	2340
230.236	3247
230.302	4503
230.368	3983
230.433	2231
230.499	1646
230.564	3450
230.630	2344
230.695	1503
230.761	1450
230.826	180
230.892	3780
230.957	1666
231.023	803
231.088	1867
231.154	658
231.219	1688
231.284	489
231.350	3558
231.415	542
231.481	2191
231.546	458
231.612	506
231.677	411
231.742	534
231.808	2274
231.873	161
231.939	-696
232.004	2558
232.069	2922
232.135	1182
232.200	149
232.265	2173
232.331	664
232.396	1219
232.461	764
232.527	1174
232.592	659
232.657	1648
232.723	2909
232.788	1993
232.853	1993
232.918	1709
232.984	1061
233.049	1315
233.114	1133
233.179	2855
233.245	3141
233.310	3651
233.375	379
233.440	2091
233.506	508
233.571	773
233.636	798
233.701	1322
233.766	2115
233.832	4137
233.897	1772
233.962	2447
234.027	4559
234.092	3191
234.157	1226
234.222	1869
234.288	2060
234.353	8191
234.418	8721
234.483	6087
234.548	4173
234.613	2983
234.678	4041
234.743	3807
234.808	9901
234.873	6823
234.938	4384
235.004	3115
235.069	2388
235.134	2665
235.199	2145
235.264	2158
235.329	465
235.394	2117
235.459	2911
235.524	2326
235.589	1876
235.654	2147
235.719	1100
235.784	2094
235.849	1693
235.913	4408
235.978	4389
236.043	6073
236.108	2273
236.173	2241
236.238	3219
236.303	2315
236.368	1550
236.433	3557
236.498	4402
236.563	2300
236.627	2769
236.692	6583
236.757	4857
236.822	4345
236.887	4468
236.952	3662
237.017	1550
237.081	4451
237.146	2891
237.211	4043
237.276	5557
237.341	13317
237.405	7638
237.470	5261
237.535	4936
237.600	2837
237.664	1297
237.729	1443
237.794	1734
237.859	3313
237.923	3840
237.988	2727
238.053	3869
238.118	4574
238.182	8822
238.247	9949
238.312	4724
238.376	5618
238.441	2582
238.506	4698
238.570	-264
238.635	2992
238.700	2039
238.764	1613
238.829	5312
238.893	5891
238.958	4552
239.023	2978
239.087	1843
239.152	3356
239.216	1638
239.281	2419
239.346	1602
239.410	1948
239.475	1615
239.539	9701
239.604	7374
239.668	3425
239.733	1157
239.797	1863
239.862	2580
239.926	8039
239.991	2977
240.055	1497
240.120	1982
240.184	2816
240.249	1273
240.313	1881
240.378	1864
240.442	7149
240.507	8679
240.571	4139
240.635	4155
240.700	6315
240.764	3153
240.829	2961
240.893	341
240.957	2122
241.022	4483
241.086	10785
241.151	4291
241.215	1888
241.279	3844
241.344	5877
241.408	3601
241.472	2590
241.537	4032
241.601	3376
241.665	2055
241.730	2860
241.794	3251
241.858	1973
241.922	3047
241.987	3664
242.051	2133
242.115	2223
242.179	1977
242.244	1529
242.308	2719
242.372	3288
242.436	2425
242.501	3947
242.565	1618
242.629	2312
242.693	2470
242.757	2435
242.822	1716
242.886	3001
242.950	2428
243.014	2302
243.078	3572
243.142	4315
243.206	2566
243.271	4037
243.335	1944
243.399	4136
243.463	8969
243.527	26311
243.591	10682
243.655	6491
243.719	2217
243.783	4418
243.847	6009
243.911	7349
243.975	10435
244.040	8856
244.104	5772
244.168	3026
244.232	6113
244.296	8652
244.360	6850
244.424	4801
244.488	3968
244.552	4202
244.615	591
244.679	3152
244.743	2970
244.807	3677
244.871	2137
244.935	3146
244.999	661
245.063	2841
245.127	3721
245.191	6249
245.255	4985
245.319	5377
245.383	4384
245.446	5182
245.510	2512
245.574	4444
245.638	5010
245.702	2613
245.766	7145
245.829	6359
245.893	2831
245.957	3015
246.021	4303
246.085	4365
246.149	5699
246.212	11193
246.276	14044
246.340	8681
246.404	6421
246.467	5471
246.531	6302
246.595	6421
246.659	6355
246.722	5073
246.786	7998
246.850	6902
246.913	7588
246.977	3457
247.041	3643
247.104	5212
247.168	4298
247.232	10554
247.295	20171
247.359	12067
247.423	4391
247.486	9157
247.550	6193
247.614	5113
247.677	9252
247.741	5389
247.804	3695
247.868	5178
247.932	9476
247.995	20891
248.059	9331
248.122	3950
248.186	5920
248.249	10588
248.313	27700
248.376	31940
248.440	22430
248.503	10237
248.567	9188
248.630	10848
248.694	15628
248.757	20558
248.821	31594
248.884	25673
248.948	20289
249.011	28429
249.075	36686
249.138	35451
249.202	17293
249.265	11251
249.328	10746
249.392	8717
249.455	8116
249.519	5683
249.582	7812
249.645	13018
249.709	8949
249.772	5079
249.835	5619
249.899	6464
249.962	5917
250.025	5053
250.089	12834
250.152	21965
250.215	11707
250.279	7274
250.342	7756
250.405	7586
250.468	6228
250.532	8247
250.595	12185
250.658	27418
250.721	44592
250.785	20061
250.848	11678
250.911	6830
250.974	6646
251.038	9317
251.101	19737
251.164	11580
251.227	12232
251.290	10818
251.354	12863
251.417	37885
251.480	40007
251.543	25669
251.606	64957
251.669	54277
251.732	24174
251.795	25590
251.859	23713
251.922	42614
251.985	30316
252.048	12961
252.111	10664
252.174	10779
252.237	21035
252.300	38639
252.363	38612
252.426	60328
252.489	31380
252.552	18103
252.615	11266
252.678	12850
252.741	27740
252.804	31726
252.867	58300
252.930	45863
252.993	27249
253.056	17083
253.119	14038
253.182	10412
253.245	14779
253.308	14251
253.371	14777
253.434	15795
253.497	14019
253.559	22712
253.622	16363
253.685	24606
253.748	28812
253.811	12812
253.874	13548
253.937	13398
254.000	9505
254.062	16171
254.125	23080
254.188	22085
254.251	19505
254.314	10762
254.376	17330
254.439	22732
254.502	22524
254.565	16580
254.628	29187
254.690	24830
254.753	13488
254.816	11131
254.878	10087
254.941	14932
255.004	15569
255.067	9622
255.129	10877
255.192	6532
255.255	5267
255.317	7861
255.380	5164
255.443	3304
255.505	3881
255.568	3433
255.631	3405
255.693	5207
255.756	2308
255.819	4566
255.881	2603
255.944	3193
256.006	2086
256.069	2797
256.132	3269
256.194	4573
256.257	11282
256.319	8669
256.382	8321
256.444	5870
256.507	4054
256.569	3390
256.632	2392
256.694	5411
256.757	5697
256.819	10244
256.882	7007
256.944	6542
257.007	6300
257.069	7723
257.132	5570
257.194	5598
257.257	3579
257.319	4056
257.381	2191
257.444	5103
257.506	11029
257.569	21600
257.631	26838
257.693	15067
257.756	6091
257.818	6371
257.880	4016
257.943	4516
258.005	4545
258.067	4026
258.130	4224
258.192	5999
258.254	14485
258.317	8058
258.379	4537
258.441	12765
258.503	10875
258.566	11639
258.628	15411
258.690	4967
258.753	5774
258.815	15283
258.877	7554
258.939	5586
259.001	4550
259.064	3687
259.126	4544
259.188	7738
259.250	5458
259.312	7414
259.375	20849
259.437	14195
259.499	4877
259.561	4887
259.623	5680
259.685	5501
259.747	5227
259.809	11207
259.872	21092
259.934	30347
259.996	31589
260.058	11215
260.120	3812
260.182	3771
260.244	2824
260.306	2937
260.368	4632
260.430	3584
260.492	8821
260.554	19441
260.616	15814
260.678	17965
260.740	23338
260.802	7498
260.864	7590
260.926	6471
260.988	5952
261.050	4785
261.112	11553
261.174	25100
261.236	19188
261.298	7533
261.359	10351
261.421	16192
261.483	5958
261.545	5543
261.607	2744
261.669	4218
261.731	6722
261.793	19801
261.854	10707
261.916	8240
261.978	4581
262.040	5705
262.102	4686
262.164	7745
262.225	7208
262.287	4926
262.349	11729
262.411	10628
262.472	4903
262.534	6247
262.596	16056
262.658	6933
262.719	3478
262.781	4829
262.843	14174
262.904	8095
262.966	5273
263.028	4897
263.090	20014
263.151	54806
263.213	21742
263.275	16615
263.336	6553
263.398	5427
263.459	2271
263.521	4185
263.583	11158
263.644	9955
263.706	4079
263.767	2135
263.829	3012
263.891	2111
263.952	1553
264.014	1957
264.075	4318
264.137	12584
264.198	7994
264.260	2626
264.321	1153
264.383	7362
264.444	20690
264.506	6680
264.567	3386
264.629	6940
264.690	14902
264.752	7472
264.813	4143
264.875	2813
264.936	3068
264.998	2117
265.059	939
265.120	2822
265.182	2634
265.243	4033
265.305	3011
265.366	1724
265.427	2384
265.489	2230
265.550	62
265.611	4023
265.673	4236
265.734	3073
265.795	1847
265.857	860
265.918	997
265.979	2787
266.040	5951
266.102	6077
266.163	5118
266.224	8004
266.286	4405
266.347	2581
266.408	3659
266.469	3651
266.530	2256
266.592	1825
266.653	8062
266.714	15405
266.775	5268
266.836	3456
266.898	2523
266.959	6652
267.020	3731
267.081	3278
267.142	2415
267.203	1919
267.264	2003
267.326	4015
267.387	2654
267.448	2693
267.509	2488
267.570	3252
267.631	1873
267.692	1824
267.753	2314
267.814	2001
267.875	5736
267.936	14673
267.997	7356
268.058	6656
268.119	3270
268.180	5485
268.241	3441
268.302	3005
268.363	2074
268.424	4374
268.485	4030
268.546	2363
268.607	2068
268.668	1885
268.729	2012
268.790	3281
268.851	2940
268.912	9719
268.972	15133
269.033	9041
269.094	2999
269.155	2771
269.216	2473
269.277	3390
269.338	2628
269.398	2635
269.459	4964
269.520	8018
269.581	10942
269.642	15416
269.702	7938
269.763	5012
269.824	3494
269.885	4688
269.945	9423
270.006	5074
270.067	2874
270.128	1924
270.188	2162
270.249	3028
270.310	1665
270.370	2530
270.431	2537
270.492	1939
270.553	2961
270.613	9908
270.674	17422
270.734	7703
270.795	4025
270.856	7091
270.916	6136
270.977	4067
271.038	4929
271.098	5923
271.159	8963
271.219	10421
271.280	3274
271.340	3657
271.401	3915
271.462	11836
271.522	8293
271.583	4943
271.643	3876
271.704	4235
271.764	4622
271.825	12191
271.885	34130
271.946	45944
272.006	19208
272.066	21197
272.127	33972
272.187	12066
272.248	5946
272.308	6681
272.369	20665
272.429	14476
272.489	14033
272.550	15463
272.610	15182
272.671	12789
272.731	8439
272.791	15083
272.852	9933
272.912	8579
272.972	4653
273.033	3993
273.093	7370
273.153	9046
273.214	4822
273.274	5057
273.334	15584
273.394	35058
273.455	18781
273.515	16579
273.575	31014
273.635	14300
273.696	18864
273.756	33365
273.816	16213
273.876	8511
273.936	14129
273.997	27349
274.057	7509
274.117	6610
274.177	9193
274.237	41345
274.297	36573
274.358	27843
274.418	26040
274.478	23614
274.538	8902
274.598	7268
274.658	21819
274.718	30653
274.778	13991
274.838	6666
274.898	11369
274.958	40012
275.018	33058
275.078	24916
275.138	12780
275.198	5372
275.258	4305
275.318	6775
275.378	15231
275.438	18060
275.498	9917
275.558	16499
275.618	34774
275.678	24153
275.738	17844
275.798	15292
275.858	6656
275.918	4007
275.978	6158
276.038	6448
276.098	3570
276.157	9016
276.217	29923
276.277	14336
276.337	13047
276.397	6422
276.457	8711
276.517	5801
276.576	3492
276.636	3488
276.696	7886
276.756	17612
276.815	13299
276.875	6451
276.935	7993
276.995	8181
277.055	3472
277.114	3603
277.174	5308
277.234	22188
277.293	11013
277.353	7411
277.413	4402
277.472	5071
277.532	5430
277.592	4617
277.651	15292
277.711	28994
277.771	9718
277.830	36171
277.890	30127
277.950	16760
278.009	45532
278.069	17645
278.128	19488
278.188	31774
278.248	13476
278.307	29847
278.367	19398
278.426	7345
278.486	5260
278.545	3771
278.605	3045
278.664	2306
278.724	3625
278.783	11255
278.843	30074
278.902	10390
278.962	7190
279.021	8579
279.081	6610
279.140	6564
279.199	8172
279.259	7043
279.318	5802
279.378	7367
279.437	13197
279.496	48685
279.556	109734
279.615	91052
279.675	28083
279.734	16802
279.793	26264
279.853	41100
279.912	16673
279.971	10501
280.031	9645
280.090	16033
280.149	26975
280.208	17986
280.268	72230
280.327	79074
280.386	23049
280.445	20053
280.505	19498
280.564	8280
280.623	6749
280.682	10750
280.742	18603
280.801	7018
280.860	5032
280.919	4038
280.978	3687
281.037	4765
281.097	2449
281.156	3572
281.215	2628
281.274	4538
281.333	19184
281.392	15993
281.451	4575
281.510	3478
281.569	3100
281.628	2268
281.688	2182
281.747	3756
281.806	3969
281.865	3034
281.924	3631
281.983	4055
282.042	2286
282.101	2704
282.160	2759
282.219	2510
282.278	2942
282.337	15224
282.396	10392
282.454	3710
282.513	4798
282.572	23310
282.631	14863
282.690	5344
282.749	2940
282.808	6193
282.867	5444
282.926	5348
282.985	2845
283.043	2735
283.102	2130
283.161	3091
283.220	7992
283.279	22515
283.338	7515
283.396	4790
283.455	4025
283.514	5375
283.573	10879
283.631	7752
283.690	4211
283.749	5017
283.808	10491
283.866	14035
283.925	4048
283.984	4291
284.043	6413
284.101	8139
284.160	4473
284.219	6325
284.277	5373
284.336	8392
284.395	30875
284.453	25255
284.512	8750
284.570	14964
284.629	11781
284.688	10011
284.746	11401
284.805	12077
284.863	16900
284.922	21334
284.981	21509
285.039	26413
285.098	45132
285.156	97419
285.215	117524
285.273	120053
285.332	108699
285.390	62550
285.449	37739
285.507	25697
285.566	17197
285.624	13356
285.683	10979
285.741	8791
285.799	8023
285.858	8370
285.916	9113
285.975	6498
286.033	4432
286.091	4381
286.150	3228
286.208	4206
286.267	5561
286.325	5810
286.383	13211
286.442	9937
286.500	3806
286.558	2458
286.616	2755
286.675	6205
286.733	5977
286.791	4701
286.850	5016
286.908	7688
286.966	14645
287.024	5263
287.083	3480
287.141	2192
287.199	3197
287.257	8038
287.315	5049
287.374	5247
287.432	13085
287.490	9209
287.548	5163
287.606	3935
287.664	3586
287.723	6385
287.781	9563
287.839	4680
287.897	4237
287.955	5066
288.013	5492
288.071	11183
288.129	50660
288.187	150638
288.245	68581
288.303	22572
288.361	12285
288.419	9846
288.477	5863
288.535	4639
288.593	2652
288.651	3581
288.709	2144
288.767	2889
288.825	3255
288.883	2667
288.941	2340
288.999	2749
289.057	2489
289.115	2745
289.173	2815
289.231	3940
289.289	3543
289.346	2077
289.404	4311
289.462	9779
289.520	10835
289.578	5249
289.636	1920
289.694	1004
289.751	1904
289.809	1939
289.867	1709
289.925	3781
289.983	5660
290.040	2268
290.098	1353
290.156	4122
290.214	6270
290.271	3447
290.329	813
290.387	1612
290.444	1813
290.502	1218
290.560	1651
290.617	1799
290.675	1834
290.733	2251
290.790	3527
290.848	1685
290.906	2940
290.963	3194
291.021	2212
291.078	1980
291.136	2148
291.194	9616
291.251	24886
291.309	6882
291.366	2667
291.424	3493
291.481	3323
291.539	2567
291.596	2736
291.654	869
291.711	1989
291.769	2944
291.826	10352
291.884	7913
291.941	3209
291.999	3317
292.056	3817
292.114	5740
292.171	3008
292.228	2614
292.286	4898
292.343	12935
292.401	14499
292.458	7783
292.515	5141
292.573	8107
292.630	7672
292.687	6734
292.745	3450
292.802	4467
292.859	13242
292.917	27749
292.974	17589
293.031	6125
293.089	3714
293.146	2635
293.203	1976
293.260	1986
293.318	5827
293.375	7504
293.432	3900
293.489	3080
293.546	1435
293.604	3812
293.661	13190
293.718	35366
293.775	21847
293.832	13929
293.889	9338
293.947	11956
294.004	7162
294.061	7382
294.118	13927
294.175	24486
294.232	28659
294.289	11720
294.346	5372
294.403	4459
294.460	3892
294.517	5851
294.574	3129
294.631	3183
294.688	3209
294.745	10526
294.802	39574
294.859	47359
294.916	21985
294.973	15648
295.030	13648
295.087	11048
295.144	5069
295.201	4518
295.258	3554
295.315	4399
295.372	16596
295.429	29313
295.486	13512
295.542	7426
295.599	16443
295.656	30983
295.713	22121
295.770	28758
295.827	10983
295.883	5184
295.940	6635
295.997	14924
296.054	12972
296.111	6835
296.167	3564
296.224	2625
296.281	2636
296.338	3012
296.394	2394
296.451	3577
296.508	12321
296.564	24681
296.621	17527
296.678	34480
296.734	49002
296.791	19585
296.848	10575
296.904	11010
296.961	28422
297.018	35972
297.074	24063
297.131	9764
297.187	5372
297.244	8320
297.301	26681
297.357	49465
297.414	18737
297.470	7854
297.527	5176
297.583	5117
297.640	5802
297.696	4670
297.753	3112
297.809	2766
297.866	2205
297.922	2342
297.979	2190
298.035	2931
298.092	6470
298.148	17971
298.204	19016
298.261	8790
298.317	15636
298.374	39903
298.430	23973
298.486	13782
298.543	9660
298.599	8216
298.656	7060
298.712	15746
298.768	35062
298.824	21265
298.881	7365
298.937	5081
298.993	3932
299.050	8557
299.106	6124
299.162	5621
299.218	6365
299.275	4091
299.331	3253
299.387	8106
299.443	35028
299.500	33877
299.556	11736
299.612	7810
299.668	6404
299.724	4551
299.780	4070
299.837	3974
299.893	6591
299.949	28865
300.005	33511
300.061	31356
300.117	48176
300.173	23310
300.229	10424
300.285	16063
300.341	21218
300.397	9608
300.453	5877
300.510	4780
300.566	5159
300.622	4896
300.678	8570
300.734	25643
300.790	29065
300.845	32721
300.901	20436
300.957	31042
301.013	25381
301.069	10301
301.125	8553
301.181	11480
301.237	7782
301.293	4794
301.349	3980
301.405	2772
301.461	4237
301.516	3688
301.572	4923
301.628	15107
301.684	11913
301.740	14467
301.796	22174
301.851	15772
301.907	27679
301.963	25359
302.019	34428
302.074	89010
302.130	91870
302.186	43830
302.242	18581
302.297	11780
302.353	10096
302.409	20034
302.464	16696
302.520	14922
302.576	39833
302.631	47835
302.687	29882
302.743	12657
302.798	7150
302.854	5415
302.910	5210
302.965	9205
303.021	17478
303.076	16740
303.132	22233
303.187	27748
303.243	12515
303.299	6426
303.354	4418
303.410	4265
303.465	3594
303.521	3657
303.576	3209
303.632	4336
303.687	9257
303.743	30621
303.798	26612
303.853	11332
303.909	6493
303.964	5315
304.020	10272
304.075	19866
304.130	16490
304.186	35042
304.241	35888
304.297	27883
304.352	14245
304.358	13589
304.407	8277
304.449	8586
304.463	8691
304.518	10158
304.539	8936
304.573	6985
304.629	6575
304.630	6624
304.684	9165
304.720	20245
304.739	25765
304.794	36514
304.811	31686
304.850	20020
304.902	9494
304.905	8825
304.960	6224
304.992	5154
305.015	4411
305.071	3941
305.083	3689
305.126	2747
305.173	2501
305.181	2487
305.236	2801
305.264	3770
305.292	4733
305.347	6361
305.354	6392
305.402	6503
305.445	6386
305.457	6385
305.512	9344
305.535	9572
305.567	9731
305.622	8817
305.626	8915
305.678	12608
305.716	25904
305.733	30688
305.788	35810
305.807	31521
305.843	24416
305.897	32500
305.898	32578
305.953	31532
305.988	21695
306.008	16470
306.063	11521
306.078	10492
306.118	7925
306.168	5630
306.173	5461
306.228	4543
306.259	4280
306.283	4119
306.338	3408
306.349	3577
306.393	4116
306.440	3661
306.448	3673
306.503	3771
306.530	4835
306.558	8147
306.613	21531
306.620	23313
306.668	31637
306.711	39650
306.723	40520
306.778	29934
306.801	23432
306.833	16358
306.888	9015
306.892	8711
306.943	6794
306.982	5902
306.997	5537
307.052	5317
307.072	5216
307.107	6192
307.162	9180
307.163	9223
307.217	14962
307.253	18871
307.272	19504
307.327	19351
307.343	17902
307.381	14611
307.434	10429
307.436	10698
307.491	23984
307.524	36199
307.546	38714
307.600	34694
307.614	30411
307.655	18151
307.704	8965
307.710	8707
307.765	10340
307.795	13914
307.819	17430
307.874	28685
307.885	28787
307.929	20576
307.975	10598
307.984	9804
308.038	8068
308.065	7561
308.093	10024
308.148	18449
308.156	21047
308.202	35510
308.246	42919
308.257	42546
308.312	27644
308.336	25798
308.366	25412
308.421	20976
308.426	20132
308.475	12349
308.517	8357
308.530	7730
308.585	6522
308.607	6328
308.639	6879
308.694	8289
308.697	8497
308.748	20962
308.787	34016
308.803	33724
308.857	23354
308.877	18297
308.912	14265
308.967	11078
308.967	11056
309.021	14564
309.058	17831
309.076	21316
309.130	36035
309.148	40168
309.185	52734
309.238	74051
309.239	74270
309.293	88814
309.328	84748
309.348	73672
309.402	35813
309.418	26685
309.457	19939
309.508	15237
309.511	15244
309.566	17612
309.598	20702
309.620	28555
309.674	53838
309.688	59969
309.729	54974
309.778	38210
309.783	37092
309.837	24669
309.868	19385
309.892	24917
309.946	42386
309.959	48040
310.001	63623
310.049	75576
310.055	72886
310.109	41052
310.139	22898
310.163	17741
310.218	11162
310.229	10077
310.272	8505
310.319	7617
310.326	7554
310.381	7279
310.409	7283
310.435	7377
310.489	7041
310.499	7110
310.543	8156
310.589	9109
310.598	9232
310.652	9980
310.679	10069
310.706	8871
310.760	6488
310.769	6119
310.814	5289
310.859	4508
310.868	4661
310.923	5419
310.948	5940
310.977	7019
311.031	9002
311.038	9253
311.085	8918
311.128	8262
311.139	8201
311.193	8164
311.218	7967
311.247	7444
311.301	6545
311.308	6430
311.356	7085
311.398	7673
311.410	7619
311.464	7162
311.488	6972
311.518	6877
311.572	6556
311.578	6538
311.626	10158
311.668	13300
311.680	13234
311.734	12482
311.758	12218
311.788	12548
311.842	12991
311.847	13012
311.896	16203
311.937	18963
311.950	18836
312.004	18057
312.027	17637
312.058	14923
312.112	10031
312.117	9529
312.165	9013
312.207	8553
312.297	13760
312.386	11325
312.476	10564
312.566	22826
312.656	10296
312.745	7342
312.835	8937
312.925	12525
313.015	9791
313.104	11400
313.194	9141
313.284	8472
313.374	11768
313.463	9390
313.553	6693
313.643	7557
313.732	6308
313.822	7164
313.912	9327
314.001	10502
314.091	9672
314.180	15844
314.270	13202
314.360	15378
314.449	11480
314.539	7268
314.628	7368
314.718	10214
314.808	12388
314.897	7287
314.987	7066
315.076	9485
315.166	14063
315.255	13093
315.345	12631
315.434	12163
315.524	11012
315.613	13519
315.703	14779
315.792	14919
315.881	11273
315.971	10560
316.060	24337
316.150	37923
316.239	36259
316.328	12524
316.418	7389
316.507	9460
316.597	14737
316.686	9864
316.775	16919
316.865	35931
316.954	7701
317.043	6359
317.133	7619
317.222	7727
317.311	7125
317.400	6592
317.490	11460
317.579	12380
317.668	6961
317.757	10953
317.847	13625
317.936	20135
318.025	26783
318.114	13624
318.203	12960
318.293	22399
318.382	39403
318.471	30999
318.560	38700
318.649	66813
318.738	14490
318.828	12790
318.917	12704
319.006	15478
319.095	44755
319.184	90206
319.273	53411
319.362	29733
319.451	9960
319.540	10829
319.629	27242
319.718	40915
319.807	15038
319.896	35538
319.985	106679
320.074	39449
320.163	12642
320.252	23296
320.341	21934
320.430	19505
320.519	24414
320.608	13514
320.697	11602
320.786	10982
320.875	13570
320.964	18252
321.053	28100
321.142	44510
321.230	43556
321.319	33296
321.408	79411
321.497	30268
321.586	30496
321.675	38885
321.764	33566
321.852	22394
321.941	46653
322.030	25053
322.119	29719
322.207	75693
322.296	52336
322.385	23303
322.474	26863
322.562	81922
322.651	41114
322.740	34920
322.829	53939
322.917	53686
323.006	29055
323.095	27034
323.183	18553
323.272	23452
323.361	43644
323.449	105382
323.538	35365
323.626	86362
323.715	44885
323.804	22136
323.892	81281
323.981	44845
324.069	14780
324.158	46548
324.246	37380
324.335	18420
324.424	29983
324.512	10136
324.601	14776
324.689	15425
324.778	23014
324.866	38014
324.954	10794
325.043	12695
325.131	24350
325.220	42315
325.308	46201
325.397	36191
325.485	20338
325.574	8944
325.662	8336
325.750	9677
325.839	8516
325.927	7600
326.015	12323
326.104	17909
326.192	23676
326.280	7718
326.369	8290
326.457	15288
326.545	26133
326.634	9218
326.722	6257
326.810	8044
326.898	7650
326.987	9375
327.075	22891
327.163	25235
327.251	16667
327.340	14145
327.428	8434
327.516	4917
327.604	6902
327.692	8259
327.781	10485
327.869	23162
327.957	17785
328.045	10939
328.133	6379
328.221	10549
328.309	8148
328.397	7670
328.485	12090
328.574	12756
328.662	45714
328.750	24781
328.838	11529
328.926	7214
329.014	5630
329.102	10587
329.190	32835
329.278	20306
329.366	5470
329.454	6086
329.542	6312
329.630	5209
329.718	6715
329.806	8978
329.893	9033
329.981	6612
330.069	4244
330.157	6192
330.245	9272
330.333	6709
330.421	5488
330.509	15058
330.597	59971
330.684	37229
330.772	14004
330.860	23242
330.948	29512
331.036	11506
331.123	4488
331.211	5522
331.299	9062
331.387	24025
331.475	43639
331.562	12165
331.650	6514
331.738	9782
331.825	14191
331.913	6301
332.001	4861
332.089	9347
332.176	20843
332.264	48847
332.352	36365
332.439	12418
332.527	9927
332.614	7967
332.702	12081
332.790	6929
332.877	23122
332.965	46304
333.052	10313
333.140	12834
333.228	25261
333.315	7499
333.403	9374
333.490	31671
333.578	24540
333.665	25397
333.753	12479
333.840	6805
333.928	9532
334.015	31542
334.103	37309
334.190	105712
334.278	25775
334.365	13461
334.452	9239
334.540	6088
334.627	9936
334.715	13102
334.802	20600
334.889	122801
334.977	100137
335.064	11882
335.151	6908
335.239	9418
335.326	12359
335.413	52768
335.501	68730
335.588	12133
335.675	8911
335.762	13013
335.850	22746
335.937	8617
336.024	26435
336.111	126500
336.199	46970
336.286	8478
336.373	5996
336.460	3743
336.547	5662
336.635	9129
336.722	7579
336.809	7771
336.896	10574
336.983	36802
337.070	87930
337.157	106203
337.245	81146
337.332	53568
337.419	8925
337.506	7068
337.593	8210
337.680	30157
337.767	93042
337.854	27314
337.941	36187
338.028	42998
338.115	11430
338.202	16357
338.289	27023
338.376	88675
338.463	27439
338.550	54425
338.637	51347
338.724	23255
338.811	39566
338.898	9223
338.984	7078
339.071	10837
339.158	21749
339.245	41194
339.332	18103
339.419	26972
339.506	24083
339.593	5558
339.679	7805
339.766	6302
339.853	10787
339.940	22788
340.027	8477
340.113	9796
340.200	12348
340.287	8497
340.374	11855
340.460	21288
340.547	8131
340.634	14116
340.720	48692
340.807	26118
340.894	6630
340.980	9245
341.067	8109
341.154	8608
341.240	12103
341.327	27491
341.414	7570
341.500	5279
341.587	7798
341.674	6009
341.760	20122
341.847	23765
341.933	7672
342.020	2739
342.106	4863
342.193	7724
342.279	15692
342.366	10430
342.452	19453
342.539	10707
342.625	25121
342.712	54865
342.798	23249
342.885	10265
342.971	4692
343.058	7146
343.144	4979
343.230	4976
343.317	5161
343.403	4122
343.490	4072
343.576	3829
343.662	6230
343.749	11143
343.835	21030
343.921	14387
344.008	65243
344.094	138664
344.180	32618
344.267	15707
344.353	45040
344.439	55979
344.525	28040
344.612	9022
344.698	11327
344.784	9110
344.870	4822
344.957	6047
345.043	11375
345.129	8786
345.215	20748
345.301	9627
345.387	5609
345.474	3958
345.560	5705
345.646	8225
345.732	7132
345.818	6977
345.904	5435
345.990	8922
346.076	9278
346.162	18110
346.249	7901
346.335	5575
346.421	5270
346.507	17154
346.593	58359
346.679	15478
346.765	7151
346.851	5908
346.937	6212
347.023	5802
347.108	9790
347.194	6384
347.280	4018
347.366	6742
347.452	16895
347.538	66532
347.624	55225
347.710	52424
347.796	10775
347.882	9908
347.967	9716
348.053	12997
348.139	11018
348.225	6537
348.311	7363
348.397	6027
348.482	7779
348.568	9100
348.654	3202
348.740	3555
348.825	3377
348.911	9695
348.997	33115
349.083	64912
349.168	12747
349.254	5466
349.340	5234
349.425	4800
349.511	10298
349.597	19005
349.682	23746
349.768	50327
349.854	22569
349.939	8184
350.025	5005
350.110	5551
350.196	5055
350.282	2693
350.367	4713
350.453	11999
350.538	14466
350.624	11572
350.709	9864
350.795	5995
350.880	8731
350.966	11837
351.051	10815
351.137	8929
351.222	6639
351.308	17769
351.393	48453
351.479	11161
351.564	3631
351.649	6071
351.735	5241
351.820	5582
351.906	9463
351.991	16684
352.076	31356
352.162	48030
352.247	11007
352.332	7848
352.418	12088
352.503	14771
352.588	76878
352.673	66711
352.759	15306
352.844	8377
352.929	9327
353.014	14376
353.100	10021
353.185	21802
353.270	28325
353.355	25500
353.441	7573
353.526	8856
353.611	19885
353.696	25125
353.781	13619
353.866	5909
353.952	7543
354.037	20073
354.122	45886
354.207	41860
354.292	15827
354.377	6766
354.462	5389
354.547	10297
354.632	9760
354.717	21133
354.802	34539
354.887	10600
354.972	7149
355.057	7357
355.142	6798
355.227	10811
355.312	12646
355.397	28545
355.482	67304
355.567	32438
355.652	27962
355.737	25048
355.822	52547
355.907	42990
355.991	9182
356.076	5969
356.161	5629
356.246	4738
356.331	5876
356.416	11876
356.501	73543
356.585	83688
356.670	16563
356.755	11802
356.840	15867
356.924	69010
357.009	204289
357.094	81222
357.179	24508
357.263	23581
357.348	17314
357.433	17782
357.517	16822
357.602	17704
357.687	13046
357.771	15974
357.856	13493
357.941	11272
358.025	42514
358.110	172130
358.195	88682
358.279	17319
358.364	13104
358.448	45884
358.533	115634
358.617	91799
358.702	81418
358.787	33807
358.871	24370
358.956	19159
359.040	5741
359.125	5064
359.209	5537
359.294	5982
359.378	7896
359.462	16036
359.547	11939
359.631	8350
359.716	5378
359.800	7202
359.885	13495
359.969	8213
360.053	9893
360.138	19749
360.222	13005
360.306	22034
360.391	15086
360.475	16963
360.559	39215
360.644	44921
360.728	34390
360.812	42937
360.896	109711
360.981	61866
361.065	40451
361.149	11367
361.233	12523
361.318	10757
361.402	11456
361.486	11704
361.570	6795
361.654	9327
361.739	22712
361.823	76467
361.907	109962
361.991	20376
362.075	15417
362.159	38871
362.243	25630
362.327	19932
362.411	21210
362.495	13809
362.580	8264
362.664	5590
362.748	4109
362.832	4888
362.916	4321
363.000	16838
363.084	70638
363.168	125396
363.252	35398
363.336	15075
363.420	24273
363.503	73263
363.587	86515
363.671	17064
363.755	13004
363.839	21332
363.923	8587
364.007	19515
364.091	22087
364.175	24751
364.258	101132
364.342	54899
364.426	25835
364.510	18440
364.594	20299
364.677	25676
364.761	91430
364.845	70033
364.929	35387
365.013	30911
365.096	23291
365.180	27929
365.264	29440
365.347	109825
365.431	54357
365.515	19213
365.598	9390
365.682	8693
365.766	17990
365.849	24971
365.933	11310
366.017	17140
366.100	14362
366.184	6154
366.267	7991
366.351	11530
366.435	8729
366.518	4653
366.602	4351
366.685	6228
366.769	8160
366.852	16985
366.936	29703
367.019	16074
367.103	13108
367.186	27758
367.270	8143
367.353	4137
367.436	7286
367.520	6208
367.603	8164
367.687	12301
367.770	24068
367.853	13140
367.937	30496
368.020	52926
368.104	15958
368.187	19126
368.270	29770
368.353	25082
368.437	29894
368.520	66805
368.603	43778
368.687	41970
368.770	75778
368.853	22170
368.936	26396
369.020	28949
369.103	8914
369.186	6147
369.269	7499
369.352	16797
369.436	26446
369.519	14675
369.602	7057
369.685	9122
369.768	10446
369.851	9138
369.934	5565
370.018	9396
370.101	21387
370.184	18492
370.267	13353
370.350	20307
370.433	31809
370.516	52332
370.599	58090
370.682	24406
370.765	57701
370.848	59509
370.931	85051
371.014	39927
371.097	9941
371.180	8007
371.263	4920
371.346	3690
371.429	6223
371.511	6562
371.594	14334
371.677	24921
371.760	28470
371.843	18962
371.926	67390
372.009	148809
372.091	58704
372.174	40266
372.257	74498
372.340	33371
372.423	37286
372.505	46037
372.588	18478
372.671	31661
372.754	85360
372.836	46398
372.919	37095
373.002	76850
373.085	26542
373.167	20197
373.250	43465
373.332	75510
373.415	97501
373.498	195596
373.580	82613
373.663	82922
373.746	118610
373.828	35987
373.911	19197
373.993	19246
374.076	67660
374.159	69015
374.241	28779
374.324	76653
374.406	54744
374.489	56409
374.571	152178
374.654	69926
374.736	34239
374.819	94554
374.901	138111
374.983	140692
375.066	29456
375.148	13924
375.231	51607
375.313	107715
375.395	48132
375.478	10369
375.560	6745
375.643	10604
375.725	31752
375.807	116946
375.890	113034
375.972	62948
376.054	35202
376.136	55677
376.219	24530
376.301	34868
376.383	101028
376.465	45584
376.548	33681
376.630	37514
376.712	89134
376.794	45085
376.877	6165
376.959	4291
377.041	8370
377.123	19293
377.205	25415
377.287	5190
377.369	4277
377.452	5618
377.534	5034
377.616	5929
377.698	5707
377.780	5128
377.862	6281
377.944	7035
378.026	5681
378.108	6690
378.190	4486
378.272	4734
378.354	2846
378.436	3212
378.518	11647
378.600	42558
378.682	34594
378.764	55477
378.846	46646
378.928	17836
379.010	26725
379.091	16236
379.173	8671
379.255	4977
379.337	8417
379.419	27660
379.501	73572
379.583	33196
379.664	10199
379.746	22990
379.828	60242
379.910	77437
379.991	63330
380.073	13061
380.155	9461
380.237	7358
380.318	4046
380.400	6416
380.482	15193
380.564	25612
380.645	27201
380.727	27212
380.809	14885
380.890	10544
380.972	7474
381.053	6840
381.135	8676
381.217	20749
381.298	63036
381.380	34575
381.461	24672
381.543	85756
381.624	108255
381.706	25314
381.787	14873
381.869	15573
381.951	40443
382.032	141194
382.113	105826
382.195	29651
382.276	20692
382.358	37994
382.439	81736
382.521	90017
382.602	133412
382.684	66409
382.765	113127
382.846	123065
382.928	160907
383.009	91015
383.090	46827
383.172	178463
383.253	296914
383.334	114986
383.416	120487
383.497	66082
383.578	31510
383.659	50264
383.741	143640
383.822	380381
383.903	217528
383.984	85194
384.066	152825
384.147	103906
384.228	21958
384.309	19887
384.390	14045
384.471	10043
384.553	11911
384.634	19217
384.715	21077
384.796	9402
384.877	11981
384.958	50124
385.039	68720
385.120	27507
385.201	12481
385.282	17026
385.363	18547
385.444	12459
385.525	20141
385.606	61823
385.687	55437
385.768	17442
385.849	23649
385.930	75034
386.011	121015
386.092	38102
386.173	10752
386.254	10479
386.335	14823
386.416	20214
386.496	38985
386.577	62965
386.658	29087
386.739	17015
386.820	16645
386.901	13728
386.981	11150
387.062	6096
387.143	13143
387.224	53040
387.304	55408
387.385	22310
387.466	13639
387.547	20595
387.627	11113
387.708	19897
387.789	87616
387.869	106415
387.950	31029
388.031	5716
388.111	5850
388.192	27382
388.273	44269
388.353	25094
388.434	10272
388.514	21698
388.595	74113
388.676	104467
388.756	62558
388.837	58855
388.917	39008
388.998	12352
389.078	15597
389.159	10825
389.239	7306
389.320	12523
389.400	10362
389.480	22544
389.561	54604
389.641	28758
389.722	12899
389.802	24624
389.883	26048
389.963	57919
390.043	46712
390.124	19584
390.204	22681
390.284	65829
390.365	45820
390.445	46269
390.525	76795
390.605	62050
390.686	34676
390.766	12968
390.846	6429
390.927	3419
391.007	5023
391.087	7880
391.167	8422
391.247	6708
391.328	13822
391.408	23904
391.488	16522
391.568	4186
391.648	9023
391.728	16168
391.808	13445
391.888	13304
391.969	28735
392.049	50261
392.129	26923
392.209	25382
392.289	55283
392.369	34824
392.449	36176
392.529	22621
392.609	13818
392.689	15621
392.769	48658
392.849	45539
392.929	34626
393.009	80669
393.089	48243
393.169	15306
393.248	36581
393.328	170208
393.408	199346
393.488	43834
393.568	12204
393.648	7435
393.728	4522
393.807	3178
393.887	3596
393.967	2821
394.047	5395
394.127	7127
394.206	7363
394.286	15202
394.366	70459
394.446	82255
394.525	14870
394.605	5007
394.685	12494
394.764	45365
394.844	79047
394.924	52760
395.003	13873
395.083	8081
395.163	6933
395.242	6241
395.322	6479
395.402	2083
395.481	6623
395.561	27240
395.640	83222
395.720	56749
395.799	74434
395.879	60579
395.958	9687
396.038	17257
396.117	92733
396.197	113018
396.276	43737
396.356	26770
396.435	26350
396.515	14673
396.594	14893
396.673	23560
396.753	52227
396.832	171750
396.912	169984
396.991	56670
397.070	11735
397.150	6598
397.229	4805
397.308	4801
397.388	7020
397.467	4152
397.546	2909
397.625	2213
397.705	8233
397.784	10343
397.863	5041
397.942	2821
398.022	3851
398.101	25593
398.180	79699
398.259	48842
398.338	12628
398.417	7484
398.497	5787
398.576	7105
398.655	3643
398.734	3409
398.813	4058
398.892	22590
398.971	80332
399.050	44908
399.129	5493
399.208	3307
399.287	3997
399.366	3079
399.445	3124
399.524	3954
399.603	2535
399.682	10850
399.761	28985
399.840	84132
399.919	70281
399.998	10895
400.077	2912
400.156	2267
400.235	7342
400.313	4757
400.392	7324
400.471	33310
400.550	55898
400.629	16837
400.708	8248
400.786	9188
400.865	25804
400.944	30383
401.023	14122
401.102	2368
401.180	2662
401.259	4423
401.338	6193
401.416	9062
401.495	7696
401.574	7675
401.652	5116
401.731	10236
401.810	10931
401.888	5152
401.967	1752
402.046	3363
402.124	7896
402.203	12442
402.281	5766
402.360	10177
402.438	32577
402.517	25702
402.596	8242
402.674	8859
402.753	5829
402.831	4170
402.910	6598
402.988	26285
403.066	80086
403.145	49916
403.223	26706
403.302	68238
403.380	57447
403.459	59654
403.537	27951
403.615	11576
403.694	1399
403.772	1934
403.850	1425
403.929	1334
404.007	3692
404.085	14293
404.164	18894
404.242	5956
404.320	4910
404.398	9202
404.477	24870
404.555	104930
404.633	98848
404.711	15752
404.789	4687
404.868	7392
404.946	4802
405.024	2072
405.102	2136
405.180	1708
405.258	1300
405.336	2883
405.415	3726
405.493	15203
405.571	16216
405.649	4201
405.727	3233
405.805	7584
405.883	8361
405.961	8328
406.039	10328
406.117	5084
406.195	7359
406.273	29078
406.351	99473
406.429	71380
406.507	16556
406.585	5566
406.663	4829
406.740	7549
406.818	6801
406.896	3664
406.974	5233
407.052	9297
407.130	58849
407.208	89365
407.285	23666
407.363	4781
407.441	4499
407.519	4066
407.596	4551
407.674	9127
407.752	8727
407.830	22203
407.907	20568
407.985	8696
408.063	6270
408.141	9023
408.218	10759
408.296	12005
408.373	9182
408.451	7313
408.529	5694
408.606	2565
408.684	941
408.762	818
408.839	-14
408.917	1206
408.994	1470
409.072	1548
409.149	1581
409.227	3482
409.304	3699
409.382	1718
409.459	836
409.537	3910
409.614	2884
409.692	1489
409.769	1766
409.846	3643
409.924	6516
410.001	4193
410.079	3400
410.156	3036
410.233	1668
410.311	2221
410.388	1027
410.465	3990
410.543	3702
410.620	2541
410.697	3873
410.775	5962
410.852	1490
410.929	4306
411.006	6630
411.083	3939
411.161	10885
411.238	14407
411.315	7935
411.392	3109
411.469	6205
411.547	6443
411.624	1992
411.701	2467
411.778	4790
411.855	11496
411.932	5882
412.009	3461
412.086	3068
412.163	5534
412.240	6294
412.317	7966
412.394	6914
412.471	2622
412.548	674
412.625	3303
412.702	4905
412.779	10863
412.856	6552
412.933	1333
413.010	1577
413.087	5506
413.164	32427
413.241	50914
413.318	12720
413.395	7360
413.471	11954
413.548	5956
413.625	3024
413.702	5053
413.779	4749
413.855	500
413.932	1340
414.009	828
414.086	2013
414.162	1532
414.239	5987
414.316	32843
414.393	70104
414.469	25781
414.546	2512
414.623	1894
414.699	2335
414.776	5022
414.853	3073
414.929	4985
415.006	3633
415.082	6165
415.159	4123
415.236	2858
415.312	3099
415.389	9489
415.465	12168
415.542	6710
415.618	2938
415.695	8471
415.771	5526
415.848	4336
415.924	4242
416.000	4542
416.077	2593
416.153	496
416.230	-566
416.306	950
416.383	1611
416.459	1968
416.535	714
416.612	1862
416.688	2102
416.764	1364
416.841	2073
416.917	1659
416.993	2311
417.069	3322
417.146	5265
417.222	5525
417.298	4608
417.374	2233
417.451	4069
417.527	5732
417.603	5624
417.679	4714
417.755	3420
417.831	1650
417.908	785
417.984	1105
418.060	1200
418.136	9126
418.212	13771
418.288	5767
418.364	2649
418.440	2932
418.516	6006
418.592	10929
418.668	20314
418.744	30303
418.820	21469
418.896	4690
418.972	1155
419.048	2922
419.124	11929
419.200	9930
419.276	1874
419.352	639
419.428	2201
419.504	3640
419.579	5122
419.655	4211
419.731	3311
419.807	16237
419.883	31743
419.959	19721
420.034	5270
420.110	11679
420.186	43440
420.262	35838
420.337	6883
420.413	4753
420.489	1319
420.565	1406
420.640	1439
420.716	3119
420.792	388
420.867	2667
420.943	2095
421.019	7728
421.094	5134
421.170	2010
421.245	602
421.321	1600
421.397	2162
421.472	2371
421.548	3363
421.623	7652
421.699	4870
421.774	4420
421.850	2846
421.925	7218
422.001	5385
422.076	3089
422.152	2904
422.227	7709
422.302	5389
422.378	6420
422.453	10207
422.529	20792
422.604	78941
422.679	177384
422.755	115232
422.830	30327
422.905	8297
422.981	3722
423.056	2083
423.131	2767
423.207	2152
423.282	4152
423.357	14450
423.432	10381
423.508	10723
423.583	25952
423.658	19772
423.733	5407
423.808	7047
423.883	9814
423.959	10369
424.034	5632
424.109	5237
424.184	5737
424.259	2314
424.334	1981
424.409	1521
424.484	1140
424.559	2798
424.634	2680
424.709	4499
424.784	6304
424.859	4001
424.934	8881
425.009	35060
425.084	55733
425.159	21322
425.234	3202
425.309	854
425.384	1100
425.459	706
425.534	2276
425.609	3005
425.683	2183
425.758	1810
425.833	2842
425.908	5455
425.983	19634
426.058	58409
426.132	26994
426.207	5886
426.282	9333
426.357	9716
426.431	2128
426.506	3166
426.581	3870
426.655	2963
426.730	2038
426.805	2974
426.879	3340
426.954	2752
427.029	9924
427.103	45531
427.178	97330
427.253	44260
427.327	5815
427.402	7249
427.476	13855
427.551	5283
427.625	3842
427.700	4958
427.774	2295
427.849	4197
427.923	2542
427.998	1529
428.072	3092
428.147	8912
428.221	23288
428.296	36346
428.370	13356
428.444	4783
428.519	11507
428.593	24129
428.667	21668
428.742	25020
428.816	19150
428.890	32621
428.965	37136
429.039	20320
429.113	30127
429.188	11807
429.262	3121
429.336	9070
429.410	30416
429.485	22588
429.559	21626
429.633	16209
429.707	3581
429.781	9747
429.855	49343
429.930	73377
430.004	59324
430.078	94096
430.152	69179
430.226	36074
430.300	34547
430.374	6010
430.448	4973
430.522	26000
430.596	79130
430.670	46165
430.744	55494
430.818	96006
430.892	25999
430.966	4838
431.040	2639
431.114	64
431.188	1640
431.262	1896
431.336	2199
431.410	11420
431.484	35006
431.557	23563
431.631	2855
431.705	790
431.779	4234
431.853	19779
431.927	15425
432.000	2114
432.074	2403
432.148	4902
432.222	4438
432.295	905
432.369	2098
432.443	6291
432.516	38922
432.590	93665
432.664	39977
432.737	5002
432.811	1110
432.885	856
432.958	1717
433.032	1189
433.106	340
433.179	183
433.253	737
433.326	979
433.400	283
433.473	831
433.547	-17
433.620	1873
433.694	8740
433.767	7868
433.841	2558
433.914	1055
433.988	814
434.061	1640
434.134	2843
434.208	830
434.281	436
434.355	1175
434.428	1695
434.501	1054
434.575	1043
434.648	2694
434.721	1810
434.795	3055
434.868	1554
434.941	14
435.014	978
435.088	-69
435.161	2508
435.234	5743
435.307	8511
435.381	2626
435.454	1703
435.527	1060
435.600	646
435.673	481
435.746	506
435.819	279
435.892	1418
435.966	1277
436.039	1405
436.112	2227
436.185	268
436.258	208
436.331	-796
436.404	-411
436.477	144
436.550	51
436.623	1355
436.696	1108
436.769	1706
436.842	2048
436.915	2542
436.987	5261
437.060	2558
437.133	1046
437.206	144
437.279	1327
437.352	990
437.425	1336
437.498	2419
437.570	9518
437.643	11194
437.716	2406
437.789	901
437.861	5090
437.934	18119
438.007	7878
438.080	1540
438.152	2306
438.225	7134
438.298	44787
438.370	120839
438.443	59158
438.516	16486
438.588	3274
438.661	1072
438.734	1163
438.806	2759
438.879	3832
438.951	4314
439.024	9305
439.096	3642
439.169	1557
439.241	400
439.314	836
439.386	4511
439.459	8277
439.531	14609
439.604	5214
439.676	1540
439.749	-372
439.821	840
439.893	808
439.966	1553
440.038	3853
440.110	3941
440.183	1318
440.255	1262
440.327	3082
440.400	23097
440.472	87583
440.544	61119
440.617	8899
440.689	6276
440.761	10328
440.833	16615
440.905	11035
440.978	1540
441.050	954
441.122	1295
441.194	430
441.266	611
441.338	850
441.411	5780
441.483	33821
441.555	55153
441.627	12534
441.699	7579
441.771	8128
441.843	2511
441.915	512
441.987	715
442.059	1656
442.131	2889
442.203	5947
442.275	7715
442.347	6308
442.419	1480
442.491	6328
442.563	17678
442.635	16750
442.706	30468
442.778	29415
442.850	3833
442.922	1298
442.994	3548
443.066	7443
443.137	4981
443.209	2087
443.281	3236
443.353	6980
443.425	15511
443.496	31088
443.568	26919
443.640	11288
443.711	4641
443.783	2051
443.855	2207
443.926	1390
443.998	2469
444.070	5606
444.141	4550
444.213	7843
444.285	11604
444.356	9610
444.428	7901
444.499	2281
444.571	935
444.642	767
444.714	3039
444.785	7412
444.857	9705
444.928	23338
445.000	13264
445.071	14553
445.143	19279
445.214	8290
445.285	11205
445.357	33421
445.428	37669
445.500	64412
445.571	52718
445.642	20104
445.714	22464
445.785	36871
445.856	11950
445.928	11139
445.999	9734
446.070	6040
446.141	8191
446.213	13949
446.284	6554
446.355	4978
446.426	3980
446.497	4518
446.569	8740
446.640	14111
446.711	10851
446.782	3321
446.853	6252
446.924	7339
446.995	4633
447.066	5166
447.138	9929
447.209	4594
447.280	732
447.351	750
447.422	612
447.493	4080
447.564	6331
447.635	9511
447.706	4430
447.777	950
447.847	-442
447.918	1110
447.989	5159
448.060	6523
448.131	18190
448.202	18182
448.273	13649
448.344	5584
448.414	2859
448.485	2101
448.556	1706
448.627	1047
448.698	1218
448.768	818
448.839	2400
448.910	8304
448.981	8834
449.051	3781
449.122	1177
449.193	586
449.263	1986
449.334	1514
449.405	3531
449.475	13065
449.546	10263
449.616	9364
449.687	8724
449.758	2940
449.828	1354
449.899	1439
449.969	999
450.040	975
450.110	3870
450.181	4787
450.251	2621
450.322	1347
450.392	2483
450.463	1805
450.533	954
450.604	2110
450.674	2037
450.744	2361
450.815	1151
450.885	1204
450.955	1177
451.026	114
451.096	1557
451.166	2854
451.237	10967
451.307	29230
451.377	11246
451.447	926
451.518	2153
451.588	932
451.658	1381
451.728	5155
451.799	28218
451.869	33696
451.939	6786
452.009	1391
452.079	707
452.149	2432
452.219	7308
452.289	32256
452.360	26563
452.430	3634
452.500	3614
452.570	4684
452.640	5147
452.710	16632
452.780	31257
452.850	22618
452.920	25964
452.990	7562
453.060	3237
453.129	6989
453.199	9239
453.269	26983
453.339	59741
453.409	92550
453.479	92821
453.549	144046
453.619	166327
453.688	65337
453.758	8005
453.828	1986
453.898	2125
453.968	1591
454.037	1374
454.087	1638
454.107	1743
454.168	1577
454.177	1546
454.247	2543
454.249	2496
454.316	1176
454.330	1522
454.386	2747
454.411	7895
454.456	16567
454.492	20974
454.525	25059
454.574	12645
454.595	7250
454.655	2484
454.665	1721
454.734	3162
454.736	3311
454.804	7923
454.817	11995
454.873	29029
454.898	31217
454.943	35428
454.979	24010
455.013	13662
455.060	7333
455.082	4522
455.141	4940
455.152	4915
455.221	18481
455.222	18692
455.291	36789
455.303	32371
455.360	13001
455.384	9843
455.430	4055
455.465	6864
455.499	9311
455.546	21747
455.569	27436
455.627	19292
455.638	17887
455.707	3632
455.708	3626
455.777	2028
455.789	2039
455.846	2204
455.869	2055
455.916	1644
455.950	1915
455.985	2234
456.031	2148
456.054	2053
456.112	1862
456.124	1875
456.193	1784
456.193	1776
456.262	2149
456.274	2590
456.332	4400
456.355	4803
456.401	5491
456.436	4193
456.470	2928
456.516	2182
456.540	1890
456.597	1538
456.609	1465
456.678	2063
456.678	2058
456.747	894
456.759	724
456.817	389
456.840	495
456.886	480
456.920	793
456.955	1247
457.001	1346
457.024	1405
457.082	2236
457.093	2375
457.162	4788
457.163	4801
457.232	6699
457.243	6133
457.301	3803
457.324	3012
457.370	1612
457.405	1246
457.439	947
457.485	1363
457.508	1481
457.566	2400
457.577	2611
457.646	1961
457.647	1973
457.715	2833
457.727	2751
457.784	2562
457.808	2646
457.853	2433
457.889	2824
457.922	3239
457.969	2628
457.991	2421
458.050	3412
458.060	3615
458.129	4936
458.130	4965
458.198	4233
458.211	3763
458.267	2251
458.292	1869
458.336	1623
458.372	1797
458.405	2282
458.453	3083
458.474	3397
458.533	4703
458.543	4806
458.611	7346
458.614	7394
458.680	6064
458.694	5039
458.749	3092
458.775	2861
458.818	2114
458.855	1739
458.887	1480
458.936	1524
458.955	1584
459.016	2290
459.024	2423
459.093	2988
459.097	2987
459.162	2719
459.177	3013
459.230	4298
459.257	4935
459.299	5038
459.338	4537
459.368	4424
459.418	4425
459.437	4252
459.499	3159
459.505	3154
459.574	2582
459.579	2637
459.643	2815
459.659	2693
459.711	2646
459.740	2900
459.780	2931
459.820	3379
459.849	3737
459.900	3081
459.917	2785
459.981	2847
459.986	2894
460.054	2713
460.061	2751
460.123	3573
460.141	3753
460.191	4861
460.222	6112
460.260	6569
460.302	7230
460.328	6930
460.382	4849
460.397	4679
460.462	2478
460.465	2394
460.534	2863
460.543	2865
460.602	2887
460.623	3017
460.671	3813
460.703	4545
460.739	4455
460.783	3895
460.808	3583
460.864	2752
460.876	2717
460.944	2541
460.945	2548
461.013	3540
461.024	3692
461.081	4083
461.104	4416
461.150	3788
461.184	3175
461.218	3410
461.264	3073
461.286	2946
461.345	3083
461.355	3025
461.423	3252
461.425	3238
461.491	3288
461.505	3407
461.559	6483
461.585	8075
461.628	11323
461.665	15690
461.696	17134
461.745	24702
461.764	25402
461.825	12183
461.832	11484
461.901	4656
461.905	4694
461.969	3515
461.985	3103
462.037	3996
462.065	4236
462.105	3978
462.145	4223
462.173	5683
462.225	8428
462.241	9056
462.305	15381
462.310	15288
462.378	12093
462.385	10827
462.446	5601
462.465	5264
462.514	4012
462.545	3630
462.582	3485
462.625	3325
462.650	3315
462.705	3195
462.718	3376
462.785	4461
462.786	4472
462.854	5253
462.865	5542
462.922	7638
462.945	8654
462.990	8360
463.025	6127
463.058	4641
463.104	3534
463.126	3397
463.184	3457
463.194	3604
463.262	4541
463.264	4598
463.330	4978
463.344	4974
463.398	5120
463.424	5243
463.466	5353
463.504	5259
463.533	5295
463.583	5351
463.601	5535
463.663	6071
463.669	6211
463.737	8017
463.743	8261
463.805	12317
463.823	13359
463.873	17468
463.903	20709
463.940	20924
463.982	22949
464.008	21320
464.062	11246
464.076	10216
464.142	4332
464.144	4236
464.211	4476
464.221	4570
464.279	4477
464.301	4589
464.347	4938
464.381	5187
464.414	5586
464.461	6208
464.482	6397
464.540	7153
464.550	7158
464.617	6143
464.620	6101
464.685	6793
464.699	7102
464.753	6553
464.779	6256
464.820	5896
464.859	5329
464.888	4984
464.938	4464
464.956	4760
465.018	6445
465.023	6358
465.091	4481
465.098	4267
465.158	4139
465.177	4141
465.226	4444
465.257	4774
465.293	5316
465.336	5839
465.361	7024
465.416	9892
465.428	10397
465.495	13058
465.496	13101
465.563	17499
465.575	18413
465.631	21538
465.654	23328
465.698	15820
465.734	7083
465.765	5653
465.813	4169
465.833	3904
465.893	4308
465.900	4303
465.968	4402
465.972	4397
466.035	3778
466.052	3630
466.102	3800
466.131	3906
466.170	3746
466.210	3496
466.237	3801
466.290	4453
466.304	4264
466.369	3305
466.372	3333
466.439	4116
466.449	4215
466.506	5624
466.528	6202
466.573	11388
466.607	15220
466.641	21173
466.687	29522
466.708	31235
466.766	36692
466.775	33954
466.842	12566
466.845	11526
466.909	7411
466.925	6684
466.977	5590
467.004	5123
467.044	5288
467.083	5466
467.111	5612
467.163	5887
467.178	6075
467.242	6822
467.245	6862
467.312	7557
467.321	7641
467.379	7072
467.400	6847
467.446	7589
467.480	8110
467.559	6300
467.638	4519
467.717	7436
467.796	9120
467.875	11853
467.955	8202
468.034	15626
468.113	29906
468.192	40034
468.271	8474
468.350	5200
468.429	5466
468.508	5585
468.588	6795
468.667	8231
468.746	9524
468.825	9023
468.904	6346
468.983	8901
469.062	12732
469.141	15266
469.220	4776
469.299	6116
469.378	5253
469.456	6035
469.535	4973
469.614	5471
469.693	6433
469.772	9141
469.851	12386
469.930	9049
470.009	6241
470.088	7483
470.166	10717
470.245	19298
470.324	19848
470.403	8380
470.482	6504
470.560	6523
470.639	8726
470.718	12002
470.797	7134
470.875	11661
470.954	15234
471.033	14159
471.111	4840
471.190	4542
471.269	5128
471.347	5035
471.426	5055
471.505	5139
471.583	5108
471.662	5361
471.740	4479
471.819	5638
471.898	5007
471.976	5824
472.055	4508
472.133	6702
472.212	8655
472.290	8324
472.369	5847
472.447	4447
472.526	3970
472.604	6824
472.683	7723
472.761	8810
472.839	6980
472.918	6105
472.996	5396
473.075	6962
473.153	6128
473.231	6694
473.310	7746
473.388	8089
473.466	7165
473.545	9393
473.623	14675
473.701	12500
473.780	6061
473.858	7478
473.936	10570
474.014	7061
474.093	7498
474.171	11497
474.249	14389
474.327	8488
474.405	4945
474.484	5723
474.562	5119
474.640	5401
474.718	6103
474.796	5251
474.874	5506
474.952	4787
475.030	5339
475.108	5394
475.187	5820
475.265	12188
475.343	23363
475.421	21578
475.499	4541
475.577	6428
475.655	9609
475.733	17653
475.811	28829
475.889	26130
475.966	14405
476.044	8987
476.122	17293
476.200	23549
476.278	13074
476.356	7521
476.434	8337
476.512	14789
476.590	21458
476.667	12375
476.745	6755
476.823	7469
476.901	6322
476.979	6698
477.056	6498
477.134	7411
477.212	8564
477.290	7926
477.367	5210
477.445	6037
477.523	5262
477.601	6296
477.678	6147
477.756	7303
477.834	7974
477.911	6745
477.989	5790
478.066	7355
478.144	9575
478.222	19318
478.299	34838
478.377	20837
478.454	6799
478.532	6070
478.609	7104
478.687	9006
478.764	6710
478.842	7926
478.919	9117
478.997	7289
479.074	5678
479.152	7348
479.229	8429
479.307	6081
479.384	4777
479.461	5984
479.539	6351
479.616	7867
479.694	6094
479.771	6734
479.848	6901
479.926	9105
480.003	10394
480.080	6957
480.157	6504
480.235	5449
480.312	6166
480.389	6898
480.467	11913
480.544	13861
480.621	7050
480.698	7236
480.775	9069
480.853	9496
480.930	6319
481.007	7838
481.084	7492
481.161	7352
481.238	7655
481.315	7793
481.392	6511
481.470	8184
481.547	8211
481.624	6882
481.701	5623
481.778	7199
481.855	7632
481.932	12844
482.009	18214
482.086	11409
482.163	10053
482.240	23946
482.317	47075
482.393	22102
482.470	6079
482.547	7847
482.624	6464
482.701	8320
482.778	6757
482.855	5776
482.932	5644
483.009	6214
483.085	6492
483.162	8338
483.239	7751
483.316	4662
483.393	5734
483.469	6523
483.546	7253
483.623	7816
483.699	5918
483.776	7674
483.853	8812
483.930	13499
484.006	28969
484.083	41580
484.160	10970
484.236	10651
484.313	8947
484.389	8718
484.466	8311
484.543	6545
484.619	6777
484.696	8932
484.772	9207
484.849	10501
484.925	7708
485.002	8093
485.078	8561
485.155	10203
485.231	7424
485.308	7973
485.384	8184
485.461	13598
485.537	23841
485.614	26028
485.690	8762
485.766	9269
485.843	13796
485.919	26639
485.995	23236
486.072	7997
486.148	6513
486.224	7249
486.301	9966
486.377	11528
486.453	10635
486.530	8409
486.606	9359
486.682	12003
486.758	18025
486.835	21864
486.911	18508
486.987	41001
487.063	63942
487.139	81739
487.215	44013
487.292	10747
487.368	7463
487.444	9575
487.520	13401
487.596	9600
487.672	14072
487.748	28902
487.824	32417
487.900	9888
487.976	8870
488.052	11826
488.128	15887
488.204	11716
488.280	8896
488.356	14121
488.432	31183
488.508	42930
488.584	13094
488.660	10103
488.736	10603
488.812	12960
488.888	18997
488.964	38250
489.039	101851
489.115	135309
489.191	49453
489.267	11016
489.343	8264
489.418	7078
489.494	6962
489.570	5815
489.646	7887
489.722	7160
489.797	8406
489.873	17159
489.949	33993
490.024	24149
490.100	7754
490.176	9551
490.251	17016
490.327	22507
490.403	7732
490.478	6665
490.554	5715
490.629	6558
490.705	6882
490.781	8211
490.856	8226
490.932	11516
491.007	12820
491.083	8614
491.158	8597
491.234	14070
491.309	28258
491.385	24907
491.460	8228
491.536	10285
491.611	9304
491.686	13162
491.762	25770
491.837	66317
491.913	98522
491.988	145596
492.063	139050
492.139	22192
492.214	12733
492.289	8667
492.365	8698
492.440	11093
492.515	10187
492.590	9049
492.666	8374
492.741	12773
492.816	16124
492.891	7795
492.967	6935
493.042	7521
493.117	5037
493.192	7890
493.267	9114
493.342	12171
493.418	9810
493.493	6804
493.568	7037
493.643	7635
493.718	11636
493.793	21291
493.868	24694
493.943	15332
494.018	8811
494.093	7705
494.168	7475
494.243	6540
494.318	6526
494.393	7035
494.468	7110
494.543	7794
494.618	11739
494.693	7690
494.768	6731
494.842	7440
494.917	7576
494.992	8381
495.067	7293
495.142	7309
495.217	6989
495.292	8886
495.366	10475
495.441	14941
495.516	20858
495.591	46417
495.665	164123
495.740	297280
495.815	68556
495.890	13320
495.964	10006
496.039	12627
496.114	10519
496.188	10949
496.263	10263
496.338	11157
496.412	11320
496.487	14846
496.561	19467
496.636	16341
496.710	11698
496.785	13250
496.860	13297
496.934	11722
497.009	11301
497.083	10457
497.158	10085
497.232	14531
497.307	15957
497.381	11779
497.455	14910
497.530	16978
497.604	10703
497.679	11716
497.753	19016
497.827	22346
497.902	16731
497.976	25321
498.050	76986
498.125	235360
498.199	194339
498.273	35658
498.348	26655
498.422	19674
498.496	22803
498.570	19537
498.645	11186
498.719	11413
498.793	17030
498.867	27587
498.941	40247
499.016	113149
499.090	234112
499.164	63728
499.238	11197
499.312	14309
499.386	19381
499.460	14394
499.534	12678
499.609	17712
499.683	21617
499.757	23350
499.831	57427
499.905	170179
499.979	129368
500.053	27292
500.127	33950
500.201	26737
500.275	14799
500.349	14581
500.422	17568
500.496	33638
500.570	74337
500.644	119944
500.718	162048
500.792	31630
500.866	12731
500.940	15978
501.013	15316
501.087	18436
501.161	37100
501.235	39706
501.309	71878
501.382	161057
501.456	122750
501.530	36259
501.603	51373
501.677	19178
501.751	10002
501.825	15410
501.898	28284
501.972	64422
502.046	35960
502.119	16556
502.193	38415
502.266	71249
502.340	33091
502.413	37204
502.487	60724
502.561	33105
502.634	13257
502.708	15086
502.781	11151
502.855	9803
502.928	7567
503.002	8294
503.075	7371
503.149	8166
503.222	8535
503.295	8863
503.369	10662
503.442	18658
503.516	55649
503.589	116029
503.662	65825
503.736	25703
503.809	56944
503.882	45776
503.956	68678
504.029	57070
504.102	33376
504.175	29025
504.249	8494
504.322	11091
504.395	10935
504.468	8263
504.542	8712
504.615	7070
504.688	7459
504.761	7008
504.834	12100
504.907	19029
504.980	26785
505.053	13546
505.127	18947
505.200	18124
505.273	11540
505.346	8623
505.419	5986
505.492	7020
505.565	5662
505.638	6379
505.711	5243
505.784	5818
505.857	5785
505.930	8686
506.003	5429
506.076	8670
506.149	8252
506.221	10540
506.294	14435
506.367	35037
506.440	91885
506.513	44883
506.586	12128
506.659	8361
506.731	8603
506.804	12922
506.877	16427
506.950	8705
507.022	7679
507.095	8989
507.168	11438
507.241	8170
507.313	6746
507.386	10481
507.459	15453
507.531	8462
507.604	5628
507.677	7038
507.749	4827
507.822	12828
507.894	19330
507.967	15128
508.040	5890
508.112	6569
508.185	7640
508.257	9261
508.330	16315
508.402	7027
508.475	6161
508.547	7113
508.620	7364
508.692	11665
508.765	7068
508.837	5702
508.909	6456
508.982	6532
509.054	8404
509.127	5623
509.199	4814
509.271	5278
509.344	4458
509.416	5011
509.488	5539
509.560	7276
509.633	7335
509.705	9830
509.777	9615
509.849	16286
509.922	6711
509.994	5544
510.066	5241
510.138	3243
510.210	7494
510.283	5805
510.355	6358
510.427	6097
510.499	6074
510.571	6475
510.643	8509
510.715	20632
510.787	12355
510.859	8927
510.931	11136
511.003	20574
511.076	13810
511.148	4823
511.219	5845
511.291	11038
511.363	11710
511.435	5890
511.507	3890
511.579	5812
511.651	5996
511.723	5491
511.795	5107
511.867	5369
511.939	7634
512.010	16354
512.082	12544
512.154	6200
512.226	6487
512.298	9945
512.369	12235
512.441	11433
512.513	13009
512.585	6484
512.656	9714
512.728	10538
512.800	5820
512.871	6573
512.943	5704
513.015	4500
513.086	7117
513.158	8693
513.230	8673
513.301	20054
513.373	21550
513.444	7746
513.516	6238
513.588	6850
513.659	9586
513.731	13619
513.802	12514
513.874	40172
513.945	53946
514.016	10341
514.088	7165
514.159	9080
514.231	14810
514.302	12282
514.374	6623
514.445	7436
514.516	19495
514.588	11545
514.659	9909
514.730	17512
514.802	14666
514.873	5198
514.944	8180
515.016	9672
515.087	12605
515.158	15707
515.229	16757
515.301	4656
515.372	6657
515.443	4561
515.514	5400
515.585	4804
515.656	6426
515.728	7035
515.799	5716
515.870	7934
515.941	8270
516.012	6687
516.083	9772
516.154	13483
516.225	23016
516.296	15766
516.367	12846
516.438	16424
516.509	24621
516.580	49771
516.651	170492
516.722	433622
516.793	119712
516.864	29700
516.935	26091
517.006	32957
517.077	61961
517.148	166816
517.219	486610
517.289	465624
517.360	110729
517.431	35891
517.502	13582
517.573	14518
517.643	12849
517.714	12714
517.785	13920
517.856	13919
517.926	18198
517.997	21635
518.068	26334
518.138	42500
518.209	88019
518.280	349366
518.350	834612
518.421	181143
518.492	23208
518.562	15706
518.633	14808
518.703	10594
518.774	16234
518.845	22206
518.915	20062
518.986	16226
519.056	22971
519.127	51828
519.197	72425
519.268	110677
519.338	55977
519.408	21101
519.479	32931
519.549	19434
519.620	13266
519.690	9029
519.760	9215
519.831	12651
519.901	10477
519.971	8285
520.042	9323
520.112	11457
520.182	17282
520.253	16345
520.323	7585
520.393	9175
520.463	12407
520.534	7847
520.604	13760
520.674	10059
520.744	11372
520.814	17799
520.885	21478
520.955	39963
521.025	111363
521.095	36240
521.165	9500
521.235	9083
521.305	7196
521.375	8824
521.445	12967
521.515	17465
521.585	22151
521.655	17097
521.725	14258
521.795	10765
521.865	6907
521.935	14694
522.005	9461
522.075	7919
522.145	9168
522.215	9579
522.285	13968
522.355	20994
522.424	35190
522.494	28820
522.564	23767
522.634	66721
522.704	149030
522.774	33829
522.843	10661
522.913	12603
522.983	15269
523.053	10174
523.122	13504
523.192	27015
523.262	94224
523.331	52933
523.401	9469
523.471	7585
523.540	8579
523.610	6755
523.680	7439
523.749	6321
523.819	9474
523.888	8027
523.958	6062
524.027	7705
524.097	9622
524.166	8696
524.236	9911
524.305	10609
524.375	7791
524.444	6510
524.514	8803
524.583	7650
524.653	8516
524.722	11531
524.791	6121
524.861	8338
524.930	6923
524.999	9972
525.069	13313
525.138	9949
525.207	10885
525.277	8975
525.346	8328
525.415	8563
525.484	8776
525.554	9734
525.623	8064
525.692	7085
525.761	7081
525.830	6930
525.900	7778
525.969	10268
526.038	11707
526.107	14124
526.176	28103
526.245	20259
526.314	22166
526.383	25273
526.452	20345
526.522	43854
526.591	57362
526.660	57083
526.729	23032
526.797	34915
526.867	102706
526.935	343511
527.004	214962
527.073	63603
527.142	9594
527.211	10008
527.280	14708
527.349	12855
527.418	6494
527.487	8542
527.555	6256
527.624	6521
527.693	6070
527.762	8277
527.831	5367
527.899	7603
527.968	7755
528.037	8161
528.106	13346
528.174	23749
528.243	16351
528.312	28838
528.380	28926
528.449	8294
528.518	8640
528.586	5788
528.655	7148
528.723	7017
528.792	6488
528.861	6812
528.929	5147
528.998	6949
529.066	5734
529.135	5798
529.203	5703
529.272	5748
529.340	6615
529.409	8400
529.477	6015
529.545	7979
529.614	10262
529.682	8427
529.751	9747
529.819	12019
529.887	7070
529.956	6946
530.024	7517
530.092	7385
530.161	11189
530.229	17872
530.297	6437
530.365	7021
530.434	5997
530.502	5572
530.570	6169
530.638	5030
530.707	8425
530.775	9627
530.843	5626
530.911	6736
530.979	6556
531.047	6389
531.115	7169
531.183	6859
531.252	6873
531.320	7358
531.388	5684
531.456	7770
531.524	4681
531.592	7628
531.660	9266
531.728	6340
531.796	6623
531.864	6705
531.932	6468
532.000	7106
532.067	7647
532.135	8972
532.203	11130
532.271	13031
532.339	27611
532.407	65466
532.475	22354
532.542	13720
532.610	18230
532.678	34762
532.746	148567
532.814	246422
532.881	45458
532.949	9570
533.017	8286
533.084	7867
533.152	7303
533.220	8650
533.287	9416
533.355	7124
533.423	8207
533.490	6558
533.558	6723
533.625	7835
533.693	6759
533.761	8039
533.828	8646
533.896	9835
533.963	23142
534.031	27090
534.098	38219
534.166	12573
534.233	6662
534.300	8601
534.368	7401
534.435	7412
534.503	6759
534.570	6586
534.637	5426
534.705	6771
534.772	7190
534.840	7560
534.907	16564
534.974	15605
535.041	7638
535.109	9129
535.176	6006
535.243	8343
535.310	7916
535.378	6863
535.445	6686
535.512	7009
535.579	6617
535.646	5994
535.714	6583
535.781	7599
535.848	6683
535.915	7863
535.982	6129
536.049	6868
536.116	8531
536.183	7653
536.250	8119
536.317	8997
536.384	12152
536.451	20532
536.518	17503
536.585	10534
536.652	15216
536.719	26934
536.786	16630
536.853	13950
536.920	25286
536.987	42040
537.053	46135
537.120	166725
537.187	88769
537.254	10941
537.321	8432
537.388	9535
537.454	7097
537.521	7588
537.588	6519
537.654	9207
537.721	8476
537.788	8317
537.855	7284
537.921	7898
537.988	8737
538.055	8811
538.121	8439
538.188	10784
538.254	19803
538.321	41415
538.388	18495
538.454	8383
538.521	9064
538.587	8038
538.654	7218
538.720	7695
538.787	7332
538.853	9883
538.920	12237
538.986	10787
539.053	9371
539.119	10987
539.185	10309
539.252	14969
539.318	20698
539.385	13403
539.451	10107
539.517	12378
539.583	19270
539.650	56740
539.716	104271
539.782	21447
539.849	9604
539.915	11209
539.981	10446
540.047	13994
540.114	10182
540.180	12344
540.246	10897
540.312	18588
540.378	41825
540.444	38708
540.510	57297
540.576	120983
540.643	24919
540.709	10039
540.775	9268
540.841	10823
540.907	11709
540.973	15235
541.039	19176
541.105	19034
541.171	9726
541.237	9276
541.303	9885
541.369	13857
541.435	17402
541.500	36095
541.566	15712
541.632	9041
541.698	7018
541.764	8771
541.830	8638
541.896	7854
541.961	9918
542.027	10727
542.093	9786
542.159	10513
542.224	10936
542.290	17685
542.356	35673
542.421	38328
542.487	13418
542.553	9932
542.618	11208
542.684	11371
542.750	11630
542.815	17652
542.881	36629
542.947	120779
543.012	57494
543.078	9512
543.143	9114
543.209	11970
543.274	12330
543.340	18025
543.405	51494
543.471	57290
543.536	11249
543.602	9568
543.667	7854
543.732	9282
543.798	7949
543.863	8527
543.928	7950
543.994	8316
544.059	8515
544.124	9076
544.190	8357
544.255	9323
544.320	10257
544.386	10490
544.451	16855
544.516	21036
544.581	25204
544.646	83919
544.712	88283
544.777	14554
544.842	12647
544.907	13585
544.972	11163
545.037	11609
545.102	12687
545.168	11924
545.233	13618
545.298	15322
545.363	15563
545.428	21642
545.493	49649
545.558	91127
545.623	25616
545.688	12245
545.753	12166
545.818	12114
545.883	12101
545.947	11064
546.012	13519
546.077	13389
546.142	13190
546.207	13791
546.272	20535
546.337	19257
546.401	12208
546.466	12543
546.531	11649
546.596	14354
546.661	12992
546.725	12612
546.790	10208
546.855	12207
546.919	10452
546.984	12709
547.049	13527
547.113	15095
547.178	12986
547.243	15115
547.307	16485
547.372	19329
547.436	18722
547.501	14565
547.565	16925
547.630	22677
547.695	18699
547.759	19932
547.823	16418
547.888	14629
547.952	14397
548.017	15745
548.081	18862
548.146	22108
548.210	17741
548.274	15194
548.339	14669
548.403	15210
548.468	13215
548.532	13314
548.596	14400
548.660	14227
548.725	17745
548.789	20026
548.853	18576
548.917	16199
548.982	20609
549.046	18588
549.110	14123
549.174	14298
549.238	13800
549.303	14259
549.367	15762
549.431	14644
549.495	14490
549.559	14826
549.623	17069
549.687	22623
549.751	28848
549.815	18532
549.879	17764
549.943	16748
550.007	19073
550.071	20809
550.135	26156
550.199	19379
550.263	17038
550.327	20323
550.391	21864
550.455	17455
550.519	19153
550.582	21622
550.646	31897
550.710	27725
550.774	19617
550.838	18643
550.901	17922
550.965	20403
551.029	20352
551.093	23332
551.156	27803
551.220	45450
551.284	42406
551.347	29253
551.411	53764
551.475	48718
551.538	19445
551.602	17261
551.666	18358
551.729	15930
551.793	17056
551.856	16606
551.920	16565
551.983	16235
552.047	17125
552.110	16739
552.174	16548
552.237	17815
552.301	16124
552.364	17325
552.428	15998
552.491	17727
552.554	17633
552.618	18079
552.681	20493
552.745	22577
552.808	38337
552.871	38301
552.934	19063
552.998	17538
553.061	17797
553.124	18098
553.187	16528
553.251	18053
553.314	17688
553.377	16664
553.440	17942
553.503	19209
553.567	18094
553.630	16629
553.693	17062
553.756	17996
553.819	16484
553.882	16410
553.945	16977
554.008	16422
554.071	15565
554.134	15857
554.197	16321
554.260	16141
554.323	17917
554.386	18750
554.449	16825
554.512	16618
554.575	16097
554.638	18063
554.701	16493
554.764	16491
554.827	16806
554.889	15052
554.952	14321
555.015	14480
555.078	15376
555.141	15323
555.203	15030
555.266	15989
555.329	16174
555.391	15691
555.454	17172
555.517	16729
555.580	15268
555.642	14417
555.705	13575
555.768	15034
555.830	14967
555.893	13598
555.955	16000
556.018	15185
556.080	15000
556.143	15059
556.206	14624
556.268	16592
556.330	16883
556.393	16385
556.455	15713
556.518	24151
556.580	21999
556.643	14806
556.705	14756
556.767	15510
556.830	16800
556.892	20466
556.955	30136
557.017	18394
557.079	14679
557.142	17035
557.204	22295
557.266	43154
557.328	25101
557.391	13845
557.453	13289
557.515	14988
557.577	20620
557.639	18331
557.701	13255
557.764	12888
557.826	13172
557.888	13735
557.950	13459
558.012	13546
558.074	15536
558.136	20148
558.198	24925
558.260	16907
558.322	14355
558.384	15887
558.446	17222
558.508	20792
558.570	27166
558.632	52510
558.694	55673
558.756	30409
558.818	60402
558.880	97136
558.942	29154
559.003	27551
559.065	16262
559.127	13741
559.189	15864
559.251	16929
559.312	19642
559.374	32183
559.436	65932
559.498	28992
559.559	14796
559.621	15756
559.683	18794
559.744	29103
559.806	50338
559.868	47842
559.929	20954
559.991	20199
560.052	22152
560.114	30382
560.176	23529
560.237	29306
560.299	32654
560.360	17560
560.422	17251
560.483	17502
560.545	17290
560.606	16602
560.667	16082
560.729	16718
560.790	15984
560.852	16919
560.913	17180
560.974	16455
561.036	15681
561.097	16090
561.158	17095
561.220	19003
561.281	18230
561.342	20236
561.403	24333
561.465	34799
561.526	73891
561.587	67297
561.648	20045
561.709	18712
561.771	18646
561.832	18753
561.893	18745
561.954	18498
562.015	17989
562.076	17951
562.137	18729
562.198	18536
562.259	18759
562.320	20382
562.381	22563
562.442	28403
562.503	21889
562.564	17841
562.625	17237
562.686	17860
562.747	19711
562.808	19056
562.869	19642
562.930	23923
562.991	23377
563.051	21002
563.112	18558
563.173	19451
563.234	18584
563.294	19147
563.355	19159
563.416	20571
563.477	18462
563.537	19018
563.598	20045
563.659	19632
563.720	20722
563.780	20911
563.841	21082
563.901	19607
563.962	19271
564.023	19428
564.083	19277
564.144	19928
564.204	20529
564.265	21105
564.325	24696
564.386	39755
564.446	31044
564.507	18887
564.567	18389
564.628	20398
564.688	19463
564.749	20640
564.809	23030
564.869	25550
564.930	19347
564.990	20167
565.050	18973
565.111	20145
565.171	18757
565.231	18968
565.292	18287
565.352	18957
565.412	20105
565.472	20538
565.532	20534
565.593	19759
565.653	18763
565.713	20399
565.773	22256
565.833	26904
565.893	28813
565.953	20169
566.013	20393
566.074	22832
566.134	29259
566.194	41316
566.254	36914
566.314	25050
566.374	20304
566.434	20481
566.494	20467
566.554	19642
566.614	20197
566.673	19557
566.733	20256
566.793	21106
566.853	21158
566.913	21795
566.973	20768
567.033	21968
567.092	21220
567.152	21358
567.212	20921
567.272	21250
567.331	22296
567.391	22032
567.451	22537
567.511	30996
567.570	26853
567.630	19878
567.690	19527
567.749	19024
567.809	19038
567.868	21499
567.928	21367
567.988	22509
568.047	19945
568.107	19498
568.166	19178
568.226	18354
568.285	20167
568.345	18815
568.404	19348
568.464	19529
568.523	18270
568.582	20749
568.642	20469
568.701	20080
568.761	21548
568.820	23277
568.879	23528
568.939	27988
568.998	20862
569.057	19044
569.116	19247
569.176	18433
569.235	17654
569.294	17920
569.353	17501
569.413	18986
569.472	19040
569.531	18648
569.590	19074
569.649	18696
569.708	18265
569.767	21517
569.827	24146
569.886	20106
569.945	19267
570.004	18885
570.063	20234
570.122	21377
570.181	23359
570.240	25105
570.299	23398
570.358	23505
570.417	19060
570.475	19314
570.534	20663
570.593	21698
570.652	20971
570.711	21685
570.770	20565
570.829	23048
570.887	23035
570.946	23397
571.005	19278
571.064	19760
571.122	20637
571.181	23468
571.240	19669
571.299	20162
571.357	20747
571.416	23047
571.475	25467
571.533	24616
571.592	20580
571.650	21337
571.709	18388
571.768	19789
571.826	18953
571.885	18565
571.943	17934
572.002	20121
572.060	19962
572.119	17538
572.177	17979
572.236	17947
572.294	16909
572.352	18694
572.411	17585
572.469	17383
572.528	18148
572.586	19068
572.644	21020
572.703	24171
572.761	19256
572.819	18914
572.877	18518
572.936	17541
572.994	17281
573.052	18492
573.110	18995
573.169	18320
573.227	17494
573.285	17279
573.343	17796
573.401	18325
573.459	18031
573.517	18550
573.576	17848
573.634	18692
573.692	18661
573.750	18257
573.808	17507
573.866	19938
573.924	25824
573.982	23248
574.040	17909
574.098	18049
574.155	16656
574.213	16724
574.271	16988
574.329	17127
574.387	15677
574.445	15478
574.503	15699
574.560	15229
574.618	15141
574.676	15544
574.734	16089
574.792	16335
574.849	17100
574.907	15468
574.965	15654
575.022	15536
575.080	15608
575.138	17982
575.195	17698
575.253	18538
575.311	18224
575.368	17004
575.426	16063
575.483	17280
575.541	16364
575.598	16862
575.656	17420
575.713	17243
575.771	16551
575.828	16617
575.886	16978
575.943	18822
576.001	18453
576.058	18751
576.115	20287
576.173	23576
576.230	26526
576.287	26817
576.345	20517
576.402	19829
576.459	18855
576.517	20219
576.574	21333
576.631	23149
576.688	19994
576.746	19485
576.803	18545
576.860	17236
576.917	18271
576.974	19034
577.031	19010
577.089	18254
577.146	19118
577.203	18880
577.260	20867
577.317	22094
577.374	25330
577.431	22380
577.488	19502
577.545	18335
577.602	17022
577.659	18306
577.716	16263
577.773	16139
577.830	17203
577.886	17947
577.943	16808
578.000	18645
578.057	18851
578.114	17539
578.171	16987
578.227	16616
578.284	17203
578.341	19180
578.398	19041
578.454	20797
578.511	23304
578.568	26101
578.625	20513
578.681	17902
578.738	16751
578.794	18150
578.851	18149
578.908	20691
578.964	21099
579.021	20302
579.077	18436
579.134	18821
579.190	17852
579.247	18811
579.303	16887
579.360	17254
579.416	17217
579.473	17988
579.529	17399
579.586	18012
579.642	17610
579.698	18545
579.755	19379
579.811	17537
579.867	17681
579.924	16771
579.980	16677
580.036	18016
580.093	17076
580.149	18315
580.205	17800
580.261	18824
580.317	19626
580.374	22529
580.430	24995
580.486	22056
580.542	19283
580.598	18083
580.619	18611
580.654	19529
580.692	19503
580.710	19492
580.765	18456
580.767	18419
580.823	19391
580.838	19428
580.879	19538
580.911	19388
580.935	19260
580.984	17787
580.991	17591
581.047	18944
581.057	19006
581.103	19181
581.130	19879
581.159	20604
581.203	20060
581.215	19901
581.270	21682
581.276	21504
581.326	19711
581.349	20358
581.382	21326
581.422	21370
581.438	21358
581.494	21902
581.494	21911
581.550	21506
581.567	21884
581.606	22636
581.640	22944
581.661	23104
581.713	22250
581.717	22187
581.773	21792
581.786	22097
581.829	22860
581.859	22748
581.885	22683
581.932	22997
581.940	23024
581.996	23369
582.004	23386
582.052	23436
582.077	23372
582.107	23263
582.150	23588
582.163	23655
582.219	24047
582.223	24090
582.274	24733
582.296	25053
582.330	25408
582.368	25660
582.386	25711
582.441	24282
582.441	24268
582.497	23586
582.514	23858
582.552	24495
582.587	24421
582.608	24452
582.659	23880
582.663	23804
582.719	25724
582.732	25425
582.774	24551
582.805	25601
582.830	26378
582.877	25304
582.885	25139
582.941	24772
582.950	24836
582.996	25054
583.023	25845
583.052	26860
583.095	27028
583.107	27067
583.162	27501
583.168	27616
583.218	28297
583.240	28293
583.273	28153
583.313	27831
583.328	27905
583.384	28646
583.385	28657
583.439	28167
583.458	27936
583.494	27868
583.531	28040
583.549	28123
583.603	28559
583.605	28579
583.660	28780
583.676	29027
583.715	29528
583.748	29973
583.770	30599
583.820	31560
583.825	31571
583.881	30527
583.893	30643
583.936	31319
583.965	30604
583.991	30003
584.038	30894
584.046	31108
584.101	31559
584.110	31643
584.156	32102
584.183	31715
584.211	31223
584.255	31660
584.266	31660
584.321	30707
584.328	30649
584.376	32003
584.400	32724
584.431	33055
584.472	32798
584.486	32702
584.541	32558
584.545	32559
584.596	33011
584.617	33015
584.651	34565
584.689	36355
584.706	36504
584.761	35469
584.762	35437
584.816	36650
584.834	36786
584.871	37217
584.906	37481
584.926	37688
584.978	37752
584.980	37829
585.035	39965
585.051	40433
585.090	41574
585.123	42020
585.145	42016
585.195	41086
585.200	41108
585.254	42345
585.267	42222
585.309	41950
585.340	42109
585.364	42647
585.412	44051
585.419	44187
585.473	44368
585.484	44497
585.528	47168
585.556	48845
585.583	51159
585.628	54825
585.637	56777
585.692	75129
585.700	77206
585.747	80881
585.772	75023
585.801	61817
585.845	48640
585.856	47838
585.910	47824
585.917	47507
585.965	47166
585.989	47575
586.019	48495
586.061	49052
586.074	49418
586.128	51602
586.133	51665
586.183	54850
586.205	56092
586.237	57358
586.277	57601
586.292	57412
586.346	56880
586.349	56809
586.401	57841
586.421	58180
586.455	61349
586.493	65605
586.509	71506
586.564	91816
586.565	92367
586.618	135015
586.637	139320
586.672	107402
586.709	76504
586.727	70121
586.781	60492
586.781	60626
586.835	59264
586.853	58782
586.889	58344
586.925	57617
586.944	58123
586.996	60108
586.998	60316
587.052	62136
587.068	62301
587.106	61858
587.140	61399
587.161	61738
587.212	62088
587.215	62380
587.269	65820
587.284	66550
587.323	66555
587.356	65737
587.377	65950
587.427	66941
587.431	67185
587.485	66614
587.499	66766
587.539	68585
587.571	68961
587.593	69654
587.643	71417
587.648	71679
587.702	71869
587.715	71936
587.755	73579
587.786	73836
587.810	73302
587.858	70986
587.864	71496
587.917	76224
587.930	77265
587.971	81682
588.001	83682
588.025	81924
588.073	76353
588.079	76363
588.133	76048
588.145	75860
588.187	77648
588.217	78177
588.241	79084
588.288	80810
588.295	81403
588.348	83658
588.360	84140
588.402	87606
588.431	88981
588.456	90577
588.503	94395
588.510	95391
588.564	100443
588.575	101587
588.617	106692
588.646	109858
588.671	115728
588.718	128451
588.725	132747
588.778	166546
588.789	174232
588.832	268583
588.861	337072
588.886	485240
588.932	794801
588.939	820990
588.993	966939
589.004	971645
589.047	552723
589.075	298332
589.100	237021
589.147	140036
589.154	138262
589.207	124313
589.218	121412
589.261	122543
589.290	123236
589.314	128604
589.361	140058
589.368	145938
589.421	193983
589.433	204954
589.475	359382
589.504	476889
589.528	623652
589.576	907377
589.582	874607
589.635	466857
589.647	384259
589.689	229299
589.718	129095
589.742	124483
589.790	114841
589.795	116841
589.849	133578
589.861	137783
589.902	154411
589.932	161258
589.955	143105
590.004	104402
590.009	104102
590.062	99321
590.075	97720
590.115	96144
590.146	94742
590.168	95873
590.218	96876
590.222	97450
590.275	100756
590.289	101204
590.328	102580
590.360	102569
590.381	101559
590.431	98392
590.435	98914
590.488	101803
590.503	102214
590.541	103448
590.574	103828
590.594	104251
590.645	103687
590.647	104028
590.700	102620
590.716	101868
590.753	101567
590.787	100623
590.806	101779
590.859	103694
590.859	104065
590.912	102132
590.930	101288
590.965	102990
591.001	103821
591.018	104631
591.071	105725
591.072	105331
591.124	106736
591.143	106606
591.177	108517
591.214	109942
591.230	111497
591.283	115097
591.285	114795
591.336	117007
591.356	117292
591.389	116214
591.427	113590
591.442	113386
591.495	111226
591.498	110632
591.547	110086
591.569	109240
591.600	110329
591.640	110659
591.653	111630
591.706	114013
591.711	113813
591.759	120513
591.782	123335
591.811	128955
591.853	135791
591.864	133828
591.917	120890
591.924	118548
591.969	119223
591.995	118973
592.022	121140
592.066	123359
592.075	125656
592.127	136759
592.137	138329
592.180	149925
592.208	156199
592.233	146569
592.279	126533
592.285	126444
592.338	121535
592.350	119915
592.390	119606
592.421	118534
592.443	119744
592.491	120770
592.495	121305
592.548	121729
592.562	121340
592.600	121745
592.633	121142
592.653	121560
592.704	120645
592.705	121331
592.775	120585
592.846	119411
592.916	121456
592.987	124965
593.058	123111
593.128	119384
593.199	116973
593.270	114951
593.341	116127
593.411	116474
593.482	117446
593.553	117921
593.623	112593
593.694	117376
593.764	124144
593.835	117505
593.906	114689
593.976	112894
594.047	121547
594.117	138091
594.188	137490
594.258	111721
594.329	108409
594.399	112928
594.470	107030
594.540	107505
594.611	108819
594.681	110037
594.751	113683
594.822	117169
594.892	119120
594.963	124482
595.033	123176
595.103	123521
595.174	129792
595.244	169343
595.314	198540
595.384	122045
595.455	119550
595.525	125097
595.595	123775
595.665	124659
595.736	121619
595.806	121215
595.876	119119
595.946	118105
596.016	112674
596.087	118683
596.157	119498
596.227	118152
596.297	123293
596.367	124973
596.437	132794
596.507	162930
596.577	190178
596.647	129544
596.717	118467
596.787	119592
596.857	118860
596.927	120918
596.997	116966
597.067	115998
597.137	121169
597.207	123012
597.277	122217
597.347	123959
597.417	120499
597.487	121601
597.557	125294
597.626	124191
597.696	132916
597.766	153793
597.836	184503
597.906	133644
597.975	120925
598.045	115626
598.115	116652
598.185	116431
598.254	120182
598.324	124117
598.394	120203
598.464	121730
598.533	119743
598.603	112693
598.672	116064
598.742	116071
598.812	113792
598.881	114581
598.951	112006
599.020	109615
599.090	108752
599.159	110965
599.229	108796
599.299	106042
599.368	110091
599.437	107283
599.507	107993
599.576	112094
599.646	108497
599.715	109929
599.785	110333
599.854	117490
599.924	127449
599.993	121465
600.062	113723
600.132	112093
600.201	113215
600.270	117431
600.340	114150
600.409	110090
600.478	112260
600.547	111668
600.617	117070
600.686	115376
600.755	109960
600.824	112029
600.894	111075
600.963	105614
601.032	103440
601.101	107010
601.170	104565
601.239	106549
601.308	111962
601.378	107640
601.447	103531
601.516	103577
601.585	107412
601.654	114339
601.723	105135
601.792	103159
601.861	102518
601.930	107098
601.999	110538
602.068	102729
602.137	115591
602.206	110851
602.275	104651
602.343	113346
602.412	110416
602.481	101147
602.550	101148
602.619	99232
602.688	103072
602.756	104416
602.825	98775
602.894	101888
602.963	102291
603.032	102776
603.100	100467
603.169	100085
603.238	104825
603.307	99280
603.375	95624
603.444	100112
603.513	99266
603.581	98514
603.650	99986
603.719	96714
603.787	95549
603.856	99036
603.924	98836
603.993	99927
604.061	96663
604.130	100271
604.198	99190
604.267	99841
604.335	98516
604.404	99091
604.472	98516
604.541	101472
604.609	100144
604.678	97041
604.746	98282
604.815	100738
604.883	101222
604.951	99704
605.020	96613
605.088	102043
605.156	103015
605.225	99529
605.293	97632
605.361	103467
605.429	99411
605.498	100727
605.566	100360
605.634	103060
605.702	104282
605.771	105287
605.839	104528
605.907	103300
605.975	102650
606.043	102295
606.111	99352
606.180	101666
606.248	100345
606.316	103517
606.384	106924
606.452	125759
606.520	123818
606.588	104100
606.656	94282
606.724	96625
606.792	92170
606.860	90217
606.928	85511
606.996	86938
607.064	83768
607.132	85724
607.200	88508
607.267	90260
607.335	87593
607.403	89105
607.471	89414
607.539	89286
607.607	85099
607.674	85213
607.742	88047
607.810	90444
607.878	84143
607.946	85517
608.013	85446
608.081	89567
608.149	86276
608.216	85106
608.284	87877
608.352	86854
608.419	94973
608.487	125439
608.555	97476
608.622	84870
608.690	85283
608.757	89815
608.825	91210
608.893	92370
608.960	101111
609.028	113594
609.095	129241
609.163	94848
609.230	88336
609.298	86526
609.365	81235
609.432	85649
609.500	88001
609.567	94627
609.635	97832
609.702	97633
609.769	97985
609.837	100359
609.904	85964
609.971	81081
610.039	82457
610.106	91852
610.173	116105
610.241	177970
610.308	123619
610.375	92116
610.442	83413
610.509	79847
610.577	79908
610.644	83908
610.711	84475
610.778	86338
610.845	84908
610.912	90588
610.980	88092
611.047	88967
611.114	89504
611.181	85311
611.248	84469
611.315	86526
611.382	84938
611.449	86357
611.516	87901
611.583	89621
611.650	87673
611.717	88936
611.784	88352
611.851	93126
611.918	97376
611.984	99967
612.051	120071
612.118	176486
612.185	336725
612.252	204193
612.319	96483
612.386	93632
612.452	95139
612.519	105322
612.586	139075
612.653	113154
612.719	106789
612.786	93491
612.853	86444
612.919	86397
612.986	84264
613.053	82324
613.120	79951
613.186	79698
613.253	80920
613.319	81744
613.386	86905
613.453	91172
613.519	91272
613.586	102751
613.652	126259
613.719	108261
613.785	98136
613.852	82224
613.918	78949
613.985	80202
614.051	79774
614.118	81182
614.184	80812
614.250	84455
614.317	87757
614.383	77915
614.449	77064
614.516	78603
614.582	83457
614.648	77879
614.715	76409
614.781	79216
614.847	88490
614.914	90457
614.980	87139
615.046	79347
615.112	79528
615.179	78296
615.245	79582
615.311	81296
615.377	79921
615.443	81727
615.509	84633
615.575	86072
615.642	86055
615.708	91878
615.774	95838
615.840	108872
615.906	115866
615.972	115109
616.038	138285
616.104	223064
616.170	446477
616.236	345878
616.302	134694
616.368	121373
616.434	111442
616.500	114352
616.565	115316
616.631	118866
616.697	109856
616.763	111489
616.829	125236
616.895	156496
616.961	146574
617.026	112630
617.092	103895
617.158	105136
617.224	102427
617.289	104666
617.355	110277
617.421	119880
617.487	111802
617.552	106585
617.618	102363
617.684	102936
617.749	104401
617.815	100109
617.880	98783
617.946	100051
618.012	101440
618.077	103081
618.143	99359
618.208	101748
618.274	106255
618.339	112635
618.405	105492
618.470	107773
618.536	112212
618.601	131451
618.667	123098
618.732	115902
618.798	110636
618.863	112474
618.928	111381
618.994	119611
619.059	125556
619.124	145225
619.190	124449
619.255	117077
619.320	115126
619.386	113307
619.451	106800
619.516	109193
619.581	110889
619.647	113345
619.712	110549
619.777	111421
619.842	111595
619.907	113471
619.972	112408
620.038	114752
620.103	109652
620.168	109613
620.233	107396
620.298	107547
620.363	107000
620.428	107332
620.493	109617
620.558	106265
620.623	106027
620.688	105856
620.753	102626
620.818	105657
620.883	105226
620.948	106744
621.013	106193
621.078	111724
621.143	114739
621.207	116747
621.272	118817
621.337	124841
621.402	137010
621.467	179138
621.532	176236
621.596	146544
621.661	134995
621.726	128872
621.791	130236
621.855	134291
621.920	139535
621.985	143726
622.049	152190
622.114	148386
622.179	140962
622.243	160115
622.308	151291
622.373	150161
622.437	149557
622.502	142445
622.566	144378
622.631	149825
622.695	144088
622.760	148283
622.824	141464
622.889	146762
622.953	155086
623.018	180103
623.082	169726
623.147	145207
623.211	136949
623.276	143071
623.340	134706
623.404	132607
623.469	135600
623.533	133110
623.597	132215
623.662	132904
623.726	132660
623.790	128806
623.854	135025
623.919	136313
623.983	130838
624.047	133163
624.111	127554
624.176	131278
624.240	139568
624.304	142553
624.368	131032
624.432	128960
624.496	131545
624.560	131920
624.625	136733
624.689	126548
624.753	125236
624.817	126609
624.881	121866
624.945	120011
625.009	123407
625.073	122411
625.137	130633
625.201	142966
625.265	137394
625.329	121382
625.393	127923
625.456	122557
625.520	127066
625.584	134619
625.648	153344
625.712	213364
625.776	416177
625.839	443577
625.903	196145
625.967	138267
626.031	203548
626.095	281132
626.158	136275
626.222	111891
626.286	108273
626.349	109808
626.413	106603
626.477	113416
626.540	102505
626.604	107830
626.668	109000
626.731	106412
626.795	117136
626.858	114788
626.922	110225
626.986	106373
627.049	105030
627.113	106011
627.176	101345
627.240	103034
627.303	102302
627.366	105607
627.430	101322
627.493	107122
627.557	112983
627.620	107366
627.684	105474
627.747	105406
627.810	103573
627.874	101082
627.937	100014
628.000	106476
628.064	104059
628.127	95208
628.190	99303
628.253	100413
628.317	95634
628.380	94690
628.443	94747
628.506	98393
628.569	93631
628.632	91235
628.696	91010
628.759	92089
628.822	88155
628.885	87633
628.948	89447
629.011	93287
629.074	91401
629.137	87944
629.200	91382
629.263	98415
629.326	86847
629.389	86542
629.452	91676
629.515	93519
629.578	88156
629.641	92613
629.704	90495
629.767	90952
629.830	84441
629.892	85824
629.955	85822
630.018	88437
630.081	87490
630.144	95477
630.207	88125
630.269	91774
630.332	94615
630.395	86927
630.458	79365
630.520	83184
630.583	79662
630.646	77835
630.708	78898
630.771	80231
630.834	78038
630.896	76371
630.959	76045
631.021	76034
631.084	78875
631.146	83991
631.209	90493
631.272	82306
631.334	75029
631.397	73105
631.459	71499
631.522	73106
631.584	73769
631.646	76045
631.709	75371
631.771	86967
631.834	78052
631.896	71550
631.958	66120
632.021	69943
632.083	70983
632.145	77002
632.208	71212
632.270	72818
632.332	68045
632.395	69961
632.457	73245
632.519	71405
632.581	66844
632.643	67272
632.706	68691
632.768	67955
632.830	65930
632.892	65714
632.954	69257
633.016	71775
633.078	64080
633.141	64861
633.203	66634
633.265	69008
633.327	64622
633.389	64126
633.451	71960
633.513	78491
633.575	77832
633.637	73336
633.698	69024
633.760	65744
633.822	62664
633.884	62227
633.946	62940
634.008	63420
634.070	59695
634.132	60848
634.193	61745
634.255	61978
634.317	61017
634.379	63490
634.441	65709
634.502	68563
634.564	63222
634.626	60261
634.687	60774
634.749	63621
634.811	61487
634.873	56568
634.934	57373
634.996	61883
635.057	59414
635.119	59709
635.181	61685
635.242	60590
635.304	57967
635.365	61179
635.427	60349
635.488	59581
635.550	59470
635.611	60912
635.673	58522
635.734	66112
635.796	60944
635.857	63529
635.918	58705
635.980	62805
636.041	58936
636.102	60442
636.164	56995
636.225	57581
636.286	57387
636.348	58867
636.409	55947
636.470	55469
636.531	58047
636.593	65597
636.654	62195
636.715	53601
636.776	51976
636.838	52833
636.899	56236
636.960	55440
637.021	51284
637.082	53549
637.143	53463
637.204	50714
637.265	50810
637.326	51052
637.387	50396
637.448	49846
637.509	51261
637.570	51886
637.631	50190
637.692	49231
637.753	47031
637.814	52817
637.875	51031
637.936	51169
637.997	49537
638.058	49403
638.119	52312
638.179	49693
638.240	50638
638.301	49941
638.362	49310
638.423	52538
638.483	52022
638.544	49093
638.605	49540
638.666	47868
638.726	51529
638.787	50309
638.848	46730
638.908	47611
638.969	48391
639.030	50059
639.090	45898
639.151	48506
639.211	49325
639.272	57339
639.332	74019
639.393	52189
639.453	45880
639.514	46553
639.574	45356
639.635	44080
639.695	46738
639.756	45735
639.816	45274
639.877	48686
639.937	63767
639.997	70891
640.058	45123
640.118	44086
640.178	43143
640.239	42079
640.299	41127
640.359	42654
640.420	41256
640.480	42796
640.540	40207
640.600	41374
640.661	43544
640.721	43751
640.781	47460
640.841	39699
640.901	42582
640.961	42793
641.021	43874
641.082	44350
641.142	54551
641.202	46849
641.262	40927
641.322	43086
641.382	40266
641.442	43698
641.502	42847
641.562	43267
641.622	40812
641.682	42638
641.742	40178
641.802	43166
641.861	44180
641.921	45553
641.981	46831
642.041	49149
642.101	53147
642.161	42268
642.221	40318
642.280	39950
642.340	38366
642.400	39769
642.460	40579
642.519	41096
642.579	40036
642.639	43784
642.698	38400
642.758	41888
642.818	41140
642.877	40724
642.937	42159
642.997	45978
643.056	55746
643.116	42555
643.175	41191
643.235	38754
643.294	37990
643.354	40042
643.414	38525
643.473	40268
643.532	38888
643.592	41274
643.651	45185
643.711	54822
643.770	76840
643.830	138279
643.889	249214
643.948	72626
644.008	40173
644.067	37829
644.126	34939
644.186	36733
644.245	35682
644.304	32311
644.363	37023
644.423	32935
644.482	35118
644.541	37293
644.600	32248
644.659	38324
644.719	37948
644.778	42029
644.837	42369
644.896	53180
644.955	72796
645.014	45913
645.073	37047
645.132	38911
645.191	37885
645.250	35285
645.309	38247
645.368	36326
645.427	36194
645.486	36917
645.545	40742
645.604	33897
645.663	34677
645.722	34958
645.781	32644
645.840	34049
645.898	34474
645.957	38893
646.016	37280
646.075	48160
646.134	65336
646.192	131857
646.251	168704
646.310	45447
646.369	33168
646.427	32058
646.486	31465
646.545	33109
646.603	33269
646.662	32304
646.721	31826
646.779	30449
646.838	30515
646.896	33370
646.955	31371
647.014	36953
647.072	36796
647.131	52243
647.189	36891
647.248	31162
647.306	33254
647.365	36155
647.423	31260
647.481	33954
647.540	30245
647.598	32322
647.657	28908
647.715	32383
647.773	30497
647.832	32950
647.890	31714
647.948	32702
648.007	33834
648.065	31969
648.123	32328
648.181	33775
648.240	31607
648.298	31489
648.356	33959
648.414	34943
648.472	35457
648.531	35539
648.589	33152
648.647	32157
648.705	32141
648.763	34333
648.821	33003
648.879	33075
648.937	36163
648.995	34793
649.053	32274
649.111	36031
649.169	38784
649.227	44600
649.285	57979
649.343	110950
649.401	71163
649.459	75290
649.516	52483
649.574	33314
649.632	34339
649.690	34767
649.748	35595
649.806	33921
649.863	36102
649.921	45659
649.979	36187
650.037	31694
650.094	28849
650.152	31579
650.210	28951
650.268	31337
650.325	31314
650.383	27707
650.440	27424
650.498	31177
650.556	29811
650.613	28249
650.671	29014
650.728	31756
650.786	34548
650.843	31320
650.901	27976
650.958	29525
651.016	28744
651.073	29719
651.131	27856
651.188	30445
651.246	30641
651.303	29483
651.360	27589
651.418	29153
651.475	29870
651.532	27007
651.590	29032
651.647	29225
651.704	29570
651.762	29162
651.819	28541
651.876	28004
651.933	26560
651.990	28074
652.048	27672
652.105	28361
652.162	27663
652.219	26120
652.276	26979
652.333	27862
652.390	25950
652.448	27576
652.505	26331
652.562	26760
652.619	25715
652.676	27887
652.733	26646
652.790	25739
652.847	23504
652.904	26136
652.961	24834
653.017	26065
653.074	24771
653.131	26401
653.188	24079
653.245	26514
653.302	25547
653.359	24564
653.415	25088
653.472	25477
653.529	24645
653.586	24936
653.642	23931
653.699	24338
653.756	23880
653.813	23791
653.869	23736
653.926	23155
653.983	22851
654.039	23551
654.096	24598
654.152	27239
654.209	24264
654.266	28096
654.322	25958
654.379	31186
654.435	29773
654.492	30600
654.548	38531
654.605	50760
654.661	30179
654.717	27109
654.774	28300
654.830	27284
654.887	26317
654.943	30254
655.000	28451
655.056	27733
655.112	28635
655.168	27848
655.225	29285
655.281	31238
655.337	37996
655.394	55963
655.450	41362
655.506	37957
655.562	57546
655.618	41843
655.675	25422
655.731	27141
655.787	26132
655.843	27764
655.899	23500
655.955	25061
656.011	25783
656.067	23461
656.123	24387
656.179	26915
656.235	26773
656.291	24253
656.347	27022
656.403	27302
656.459	28601
656.515	30132
656.571	29335
656.627	27893
656.683	27579
656.739	27986
656.795	24814
656.850	27276
656.906	29468
656.962	26522
657.018	23814
657.074	26189
657.129	26018
657.185	27154
657.241	26464
657.297	25544
657.352	25571
657.408	24765
657.464	27591
657.519	26787
657.575	23040
657.630	25974
657.686	24289
657.742	26273
657.797	25862
657.853	27205
657.908	27496
657.964	24396
658.019	24408
658.075	27030
658.130	26075
658.186	23385
658.241	23729
658.297	25454
658.352	24853
658.407	24293
658.463	23066
658.518	24971
658.573	26000
658.629	24186
658.684	24094
658.739	24333
658.795	21616
658.850	24184
658.905	24053
658.960	23372
659.016	22989
659.071	24951
659.126	25226
659.181	27529
659.236	32646
659.291	34381
659.346	27586
659.401	28152
659.457	23916
659.512	23494
659.567	25589
659.622	25179
659.677	24491
659.732	24511
659.787	25702
659.842	29251
659.897	35090
659.952	26392
660.007	24595
660.061	24865
660.116	23673
660.171	23703
660.226	23752
660.281	25269
660.336	22629
660.391	24595
660.445	23910
660.500	24840
660.555	24026
660.610	25825
660.664	23798
660.719	23591
660.774	24502
660.828	25358
660.883	24776
660.938	25215
660.992	24730
661.047	24877
661.101	22716
661.156	24195
661.211	23847
661.265	23624
661.320	22972
661.374	24521
661.429	23084
661.483	25513
661.538	24483
661.592	24556
661.647	24374
661.701	24330
661.755	24538
661.810	25760
661.864	25301
661.919	24524
661.973	25938
662.027	26497
662.081	23436
662.136	24992
662.190	26385
662.244	27252
662.299	24520
662.353	24144
662.407	24555
662.461	26961
662.515	26544
662.569	28791
662.624	27203
662.678	26832
662.732	24665
662.786	26819
662.840	26976
662.894	26632
662.948	24599
663.002	23587
663.056	24186
663.110	23593
663.164	24961
663.218	24283
663.272	24285
663.326	25649
663.380	26067
663.434	26519
663.488	25681
663.542	27128
663.595	27664
663.649	26504
663.703	25313
663.757	26439
663.811	25289
663.864	24541
663.918	24901
663.972	25471
664.026	23995
664.079	24086
664.133	25627
664.187	23202
664.240	23951
664.294	23505
664.348	25309
664.401	25378
664.455	24283
664.508	25049
664.562	24605
664.615	24025
664.669	24173
664.722	24698
664.776	23320
664.829	25098
664.883	24944
664.936	26590
664.990	26872
665.043	28619
665.097	31773
665.150	33885
665.203	28401
665.257	28010
665.310	27473
665.363	29258
665.417	28522
665.470	29179
665.523	28162
665.576	28030
665.630	26653
665.683	28213
665.736	28130
665.789	28547
665.842	26323
665.895	28006
665.949	25902
666.002	26276
666.055	27621
666.108	29407
666.161	26989
666.214	29804
666.267	27738
666.320	30608
666.373	27901
666.426	27104
666.479	26639
666.532	29156
666.585	32103
666.638	33119
666.691	29687
666.744	32817
666.796	32231
666.849	29216
666.902	25101
666.955	26353
667.008	25279
667.060	23955
667.113	23592
667.166	24232
667.219	24914
667.271	26096
667.324	25390
667.377	26468
667.430	24736
667.482	27034
667.535	25508
667.587	27323
667.640	27146
667.693	32358
667.745	37354
667.798	37445
667.850	28148
667.903	28597
667.955	27257
668.008	28962
668.060	33549
668.113	34247
668.165	32656
668.218	32373
668.270	31404
668.322	31126
668.375	29438
668.427	30367
668.479	27843
668.532	30403
668.584	29895
668.636	28225
668.689	29649
668.741	31442
668.793	28287
668.845	28779
668.898	28374
668.950	27682
669.002	29875
669.054	30158
669.106	29419
669.158	31171
669.211	28511
669.263	29475
669.315	29469
669.367	28113
669.419	28650
669.471	29407
669.523	25690
669.575	28860
669.627	28132
669.679	27676
669.731	26319
669.783	28317
669.835	25491
669.886	26702
669.938	28059
669.990	26841
670.042	24927
670.094	26456
670.146	25369
670.197	26335
670.249	26512
670.301	26855
670.353	25750
670.404	28311
670.456	29893
670.508	32429
670.560	36358
670.611	46365
670.663	59614
670.715	115753
670.766	155006
670.818	51165
670.869	28360
670.921	26990
670.972	27850
671.024	26720
671.075	25201
671.127	27077
671.178	25040
671.230	26530
671.281	25931
671.333	27089
671.384	30115
671.436	30011
671.487	32268
671.538	31238
671.590	31425
671.641	36658
671.692	36446
671.744	44997
671.795	38512
671.846	31718
671.897	31708
671.949	32794
672.000	29890
672.051	30091
672.102	31076
672.153	29679
672.204	29984
672.256	31292
672.307	29461
672.358	32266
672.409	30755
672.460	28762
672.511	27286
672.562	29677
672.613	28034
672.664	29266
672.715	27203
672.766	29437
672.817	28183
672.868	28211
672.919	27233
672.970	28829
673.021	29046
673.071	27435
673.122	26463
673.173	28068
673.224	27193
673.275	27830
673.326	26056
673.376	26903
673.427	26525
673.478	27123
673.528	26760
673.579	25934
673.630	26193
673.680	28349
673.731	24797
673.782	25603
673.832	27275
673.883	29204
673.934	26270
673.984	25171
674.035	26177
674.085	26575
674.136	28586
674.186	30861
674.237	31963
674.287	42197
674.338	28281
674.388	27924
674.438	25725
674.489	25979
674.539	27256
674.589	28314
674.640	27440
674.690	27530
674.740	29887
674.791	31752
674.841	29602
674.891	29307
674.942	25947
674.992	25912
675.042	22510
675.092	24417
675.142	25226
675.193	25178
675.243	24396
675.293	27229
675.343	27551
675.393	27792
675.443	26399
675.493	23690
675.543	25149
675.593	27357
675.643	25541
675.693	26178
675.743	25394
675.793	24913
675.843	24146
675.893	26333
675.943	24005
675.993	25001
676.043	25902
676.093	24679
676.142	24108
676.192	26675
676.242	24185
676.292	24855
676.341	25544
676.391	25272
676.441	22916
676.491	24149
676.540	22881
676.590	22860
676.640	23932
676.689	25021
676.739	23480
676.789	22084
676.838	23588
676.888	23761
676.937	22271
676.987	22030
677.037	20869
677.086	21032
677.136	21768
677.185	23281
677.235	20332
677.284	21678
677.333	21935
677.383	21460
677.432	19178
677.482	21924
677.531	22276
677.580	22206
677.630	19366
677.679	19079
677.728	22304
677.778	20735
677.827	19215
677.876	20631
677.925	18748
677.975	22356
678.024	21464
678.073	22647
678.122	24099
678.171	24394
678.220	23563
678.269	26435
678.319	24521
678.368	23523
678.417	23969
678.466	25173
678.515	25443
678.564	25794
678.613	24317
678.662	24013
678.711	23539
678.760	22824
678.809	22073
678.857	23784
678.906	24381
678.955	23648
679.004	23094
679.053	22884
679.102	22602
679.151	24724
679.199	23198
679.248	21763
679.297	22617
679.346	23961
679.394	22744
679.443	21673
679.492	21969
679.540	22075
679.589	24277
679.638	22310
679.686	19549
679.735	20783
679.784	22390
679.832	23676
679.881	20533
679.929	19524
679.978	19488
680.026	21360
680.075	20979
680.123	20656
680.172	19557
680.220	18883
680.268	20021
680.317	19260
680.365	19626
680.414	19362
680.462	20470
680.510	21237
680.559	17699
680.607	20136
680.655	18801
680.703	20598
680.752	19781
680.800	17499
680.848	18329
680.896	17764
680.945	18887
680.993	19989
681.041	19589
681.089	17494
681.137	16382
681.185	17535
681.233	18720
681.258	19436
681.281	19962
681.329	18647
681.377	18732
681.380	18956
681.425	20178
681.473	23549
681.502	22850
681.521	22089
681.569	23181
681.617	20200
681.624	20654
681.665	22361
681.713	21567
681.745	22318
681.761	22452
681.809	23243
681.857	23371
681.867	23172
681.904	21873
681.952	23794
681.989	23540
682.000	23277
682.048	24777
682.096	22883
682.111	23668
682.143	24836
682.191	24360
682.233	25600
682.239	25632
682.286	25416
682.334	24541
682.354	24480
682.382	24105
682.430	27242
682.476	26547
682.477	26396
682.525	26305
682.572	25682
682.598	25786
682.620	25764
682.667	26078
682.715	28150
682.720	28273
682.763	27914
682.810	27631
682.841	27156
682.857	26688
682.905	28024
682.952	27749
682.963	28251
683.000	29571
683.047	29417
683.085	29453
683.095	29279
683.142	28556
683.190	28988
683.206	29151
683.237	29283
683.284	29591
683.328	30155
683.332	30075
683.379	29821
683.426	29686
683.449	30462
683.473	31037
683.521	30474
683.568	31093
683.571	31151
683.615	30445
683.662	31610
683.693	31521
683.709	31363
683.757	31242
683.804	32729
683.814	32993
683.851	33504
683.898	31783
683.936	32919
683.945	33111
683.992	32871
684.039	35043
684.057	35057
684.086	34855
684.133	35230
684.179	35034
684.180	34918
684.227	35368
684.274	35385
684.300	35579
684.321	35638
684.368	34668
684.415	36957
684.422	36804
684.462	35228
684.509	34677
684.543	35359
684.556	35603
684.603	36622
684.649	37024
684.665	37347
684.696	37922
684.743	37616
684.786	39471
684.790	39601
684.837	40537
684.883	42245
684.908	43622
684.930	44425
684.977	46660
685.023	43887
685.029	43969
685.070	42614
685.117	41088
685.150	42529
685.164	43748
685.210	46511
685.257	48346
685.272	48154
685.303	46150
685.350	45471
685.393	45537
685.396	45572
685.443	47097
685.490	47912
685.514	48690
685.536	48730
685.583	48631
685.629	47355
685.636	47341
685.675	46910
685.722	46108
685.757	46899
685.768	47421
685.815	48557
685.861	49217
685.878	49380
685.908	49350
685.954	50731
686.000	53370
686.000	53422
686.047	56026
686.093	62369
686.121	64033
686.139	62191
686.185	58074
686.232	54107
686.242	53598
686.278	52699
686.324	49842
686.363	47222
686.370	47044
686.416	48190
686.463	49535
686.484	48924
686.509	48118
686.555	47999
686.601	47449
686.606	47602
686.647	49183
686.693	47902
686.727	49130
686.739	49522
686.785	48673
686.831	49545
686.848	49645
686.877	49270
686.923	48205
686.969	47038
686.969	47033
687.015	48559
687.061	50341
687.090	51209
687.107	51243
687.153	50470
687.199	49829
687.211	49538
687.245	49507
687.291	51363
687.332	52832
687.336	52996
687.382	55566
687.428	54251
687.453	54739
687.474	53737
687.520	51510
687.565	49736
687.574	49246
687.611	49211
687.657	48864
687.695	49706
687.702	49963
687.748	51404
687.794	52433
687.816	52383
687.839	51366
687.885	49933
687.931	48985
687.937	48858
687.976	50080
688.022	51091
688.058	51646
688.067	51699
688.113	52324
688.158	51846
688.179	52459
688.204	53136
688.249	53875
688.295	55135
688.300	55112
688.340	56217
688.386	57487
688.421	57713
688.431	57352
688.477	57124
688.522	56445
688.542	56394
688.567	56615
688.613	56044
688.658	55374
688.663	55291
688.703	55892
688.749	57995
688.784	58959
688.794	58988
688.839	57614
688.884	56717
688.905	56142
688.930	55491
688.975	54771
689.020	55689
689.026	55512
689.065	56024
689.110	56272
689.146	56589
689.155	56265
689.201	54880
689.246	53286
689.267	53055
689.291	54267
689.336	55121
689.381	56922
689.388	56977
689.426	56391
689.471	56214
689.509	55493
689.516	55322
689.561	54774
689.606	53788
689.630	53783
689.651	54766
689.696	54994
689.741	56502
689.750	56722
689.785	56712
689.830	56651
689.871	55224
689.875	55105
689.920	54898
689.965	54288
689.992	53347
690.010	53499
690.054	54673
690.099	56585
690.112	56531
690.144	55706
690.189	55773
690.233	54710
690.233	54767
690.278	54599
690.323	53675
690.354	53317
690.367	53771
690.412	54597
690.457	56432
690.474	56555
690.501	55806
690.546	54827
690.590	53854
690.595	53801
690.635	55272
690.680	54748
690.716	55689
690.724	55867
690.769	55952
690.813	56354
690.836	55694
690.857	55228
690.902	55615
690.946	55445
690.957	55339
690.991	55979
691.035	57086
691.077	57890
691.080	58084
691.124	60075
691.168	62854
691.198	63676
691.213	63866
691.257	65217
691.301	66044
691.318	66422
691.346	64662
691.390	60769
691.434	57599
691.439	57168
691.478	58506
691.522	60408
691.559	60668
691.567	60718
691.611	62084
691.655	61760
691.680	62303
691.699	62570
691.743	62436
691.787	62458
691.800	62256
691.831	63127
691.875	64874
691.919	66295
691.921	66243
691.964	68208
692.008	69273
692.041	70621
692.052	70636
692.096	69045
692.139	69047
692.162	68289
692.183	67942
692.227	67831
692.271	67111
692.282	66895
692.315	66902
692.359	66690
692.402	66625
692.403	66736
692.447	66053
692.490	65958
692.523	65961
692.534	66680
692.578	68640
692.622	70089
692.643	70834
692.666	69729
692.709	67374
692.753	65245
692.763	64478
692.797	63908
692.840	63700
692.884	62828
692.884	62950
692.928	64644
692.971	65941
693.004	66701
693.015	66724
693.059	66311
693.102	65985
693.124	65644
693.146	66248
693.189	67593
693.233	68929
693.245	69231
693.276	70195
693.320	70277
693.363	71115
693.365	71009
693.407	70688
693.450	70258
693.485	69343
693.493	69488
693.537	70364
693.580	70851
693.605	71225
693.624	70675
693.667	68211
693.710	66231
693.725	65501
693.753	66573
693.797	68038
693.840	68785
693.845	68845
693.883	68208
693.926	66738
693.966	65485
693.970	65463
694.013	63445
694.056	61724
694.086	60759
694.099	62108
694.142	66069
694.185	69246
694.206	70887
694.229	71500
694.272	71949
694.315	72681
694.326	72709
694.358	73057
694.401	73324
694.444	73662
694.446	73529
694.487	73450
694.530	72989
694.566	72681
694.573	72340
694.616	68870
694.659	65341
694.686	63012
694.702	62819
694.745	62452
694.787	61281
694.806	61005
694.830	62111
694.873	63454
694.916	64566
694.926	64725
694.959	64247
695.002	63584
695.044	62555
695.046	62403
695.087	64277
695.130	65755
695.166	66909
695.172	67179
695.215	67636
695.258	68684
695.286	69092
695.301	69254
695.343	69333
695.386	69101
695.406	68858
695.428	67669
695.471	65074
695.514	62959
695.526	62069
695.556	62787
695.599	64055
695.641	64838
695.646	64818
695.684	64319
695.726	63196
695.766	62470
695.769	62712
695.811	64086
695.854	65375
695.886	66072
695.896	65893
695.938	64627
695.981	63248
696.005	62494
696.023	62978
696.065	63376
696.108	64488
696.125	64538
696.150	65428
696.192	67014
696.235	68404
696.245	68589
696.277	66693
696.319	63827
696.361	61375
696.365	61004
696.404	61751
696.446	62606
696.485	63097
696.488	63350
696.530	64679
696.572	66250
696.604	67292
696.614	67126
696.656	65436
696.698	63842
696.724	62778
696.740	62687
696.783	62161
696.825	61434
696.844	61005
696.867	61777
696.909	62949
696.951	64130
696.964	64316
696.992	63320
697.034	61671
697.076	60011
697.083	59601
697.118	61241
697.160	62999
697.202	64800
697.203	64691
697.244	64142
697.286	63498
697.323	62751
697.327	62810
697.369	61960
697.411	61044
697.442	60371
697.453	61100
697.494	63288
697.536	65576
697.562	66798
697.578	66499
697.620	65380
697.661	64129
697.682	63368
697.703	64315
697.744	65813
697.786	67547
697.801	67956
697.828	68659
697.869	69493
697.911	70283
697.921	70337
697.952	68720
697.994	66253
698.035	63808
698.040	63349
698.077	62334
698.118	61006
698.160	59644
698.160	59486
698.201	59974
698.243	60282
698.279	60490
698.284	60786
698.325	62066
698.367	63371
698.399	64179
698.408	63887
698.449	61882
698.491	59777
698.518	58284
698.532	58900
698.573	60296
698.614	61700
698.638	62331
698.656	62662
698.697	63080
698.738	63479
698.757	63523
698.779	64664
698.820	66506
698.862	68328
698.877	68841
698.903	70164
698.944	71982
698.985	73801
698.996	74120
699.026	73316
699.067	71935
699.116	70111
699.235	64192
699.354	63386
699.474	66565
699.593	77495
699.713	73568
699.832	63152
699.951	65334
700.070	61119
700.190	61212
700.309	63128
700.428	71242
700.547	64201
700.667	63947
700.786	73683
700.905	60949
701.024	69419
701.143	65351
701.262	54019
701.381	54209
701.500	59778
701.619	62039
701.738	53611
701.857	53371
701.976	52146
702.095	51172
702.214	59615
702.333	58284
702.452	54025
702.571	51063
702.690	55159
702.809	52412
702.928	48660
703.047	52787
703.165	50789
703.284	50651
703.403	52063
703.522	61804
703.640	58842
703.759	71896
703.878	108802
703.997	56548
704.115	51615
704.234	50684
704.353	48578
704.471	47475
704.590	45359
704.708	45455
704.827	46202
704.946	51386
705.064	60001
705.183	50520
705.301	65289
705.420	102881
705.538	89605
705.656	71624
705.775	66037
705.893	69983
706.012	76242
706.130	75895
706.249	75861
706.367	78379
706.485	83786
706.604	78732
706.722	78741
706.840	91486
706.958	81102
707.077	69698
707.195	69791
707.313	66475
707.431	67057
707.549	65787
707.668	68174
707.786	68652
707.904	65829
708.022	63456
708.140	62621
708.258	62067
708.376	65044
708.494	63840
708.612	73378
708.730	114988
708.848	105584
708.966	92417
709.084	86017
709.202	83219
709.320	89724
709.438	91040
709.556	91714
709.674	94691
709.791	97945
709.909	84239
710.027	85323
710.145	85162
710.263	97965
710.380	90741
710.498	79654
710.616	82532
710.733	82989
710.851	88886
710.969	89362
711.086	83713
711.204	81759
711.322	81832
711.439	80778
711.557	85409
711.674	78153
711.792	77511
711.909	73521
712.027	71817
712.144	72845
712.262	75081
712.379	86909
712.497	128029
712.614	127460
712.732	103759
712.849	98272
712.966	104914
713.084	126842
713.201	106725
713.318	103498
713.436	98776
713.553	101702
713.670	101266
713.787	114049
713.905	116800
714.022	96377
714.139	93926
714.256	96567
714.373	97391
714.490	98552
714.608	106360
714.725	193292
714.842	200344
714.959	90884
715.076	86478
715.193	82093
715.310	81574
715.427	82245
715.544	78800
715.661	82227
715.778	81975
715.895	94798
716.011	91384
716.128	82675
716.245	82468
716.362	88639
716.479	92190
716.596	79037
716.713	82333
716.829	86509
716.946	87722
717.063	74646
717.180	74015
717.296	72599
717.413	74376
717.530	72176
717.646	71968
717.763	72861
717.880	67914
717.996	69849
718.113	71491
718.229	69157
718.346	67454
718.462	68644
718.579	80791
718.695	117100
718.812	104434
718.928	108469
719.045	76623
719.161	64089
719.277	61336
719.394	59829
719.510	65779
719.626	63837
719.743	80070
719.859	69439
719.975	69034
720.092	87347
720.208	121851
720.324	73597
720.440	66184
720.557	76929
720.673	100414
720.789	142985
720.905	315041
721.021	114761
721.137	64772
721.253	67640
721.369	68366
721.486	79146
721.602	114733
721.718	64171
721.834	54093
721.950	59132
722.066	53786
722.181	55071
722.297	58475
722.413	54010
722.529	54493
722.645	52517
722.761	52678
722.877	50943
722.993	50073
723.108	54192
723.224	50847
723.340	54767
723.456	47818
723.571	52061
723.687	48157
723.803	49941
723.918	48783
724.034	51624
724.150	49847
724.265	59917
724.381	124393
724.497	165475
724.612	50623
724.728	46928
724.843	47889
724.959	57562
725.074	116844
725.190	144984
725.305	56082
725.421	49964
725.536	40950
725.651	42940
725.767	42006
725.882	41932
725.997	41402
726.113	42916
726.228	40272
726.343	41937
726.459	37732
726.574	46229
726.689	40274
726.804	40410
726.920	42395
727.035	42666
727.150	44390
727.265	39721
727.380	43578
727.495	38359
727.610	33506
727.725	38199
727.841	36256
727.956	37086
728.071	47362
728.186	39298
728.301	33186
728.416	38920
728.531	35196
728.645	32240
728.760	35474
728.875	36957
728.990	33844
729.105	35969
729.220	35515
729.335	35722
729.449	32906
729.564	31748
729.679	30412
729.794	32064
729.908	40710
730.023	36255
730.138	27999
730.253	32461
730.367	30465
730.482	30276
730.596	31801
730.711	32092
730.826	29140
730.940	28032
731.055	31722
731.169	30046
731.284	27948
731.398	31285
731.513	38770
731.627	35403
731.742	41462
731.856	45776
731.970	26317
732.085	28587
732.199	28408
732.313	28008
732.428	33674
732.542	55725
732.656	44161
732.771	26767
732.885	26308
732.999	29153
733.113	32216
733.227	30837
733.342	25646
733.456	26931
733.570	25462
733.684	25396
733.798	27956
733.912	25375
734.026	22354
734.140	25089
734.254	32279
734.368	65052
734.482	85546
734.596	25179
734.710	24688
734.824	24583
734.938	22735
735.052	26075
735.166	30963
735.280	25807
735.393	23731
735.507	25172
735.621	38777
735.735	87077
735.849	33609
735.962	23721
736.076	26865
736.190	28384
736.303	43355
736.417	63457
736.531	24788
736.644	27549
736.758	20186
736.872	20862
736.985	20371
737.099	19674
737.212	19358
737.326	21581
737.439	20374
737.553	20089
737.666	19094
737.780	18546
737.893	19110
738.007	19265
738.120	19530
738.233	20270
738.347	18695
738.460	19492
738.573	21610
738.687	21381
738.800	20436
738.913	26450
739.026	21036
739.140	19958
739.253	17107
739.366	18812
739.479	17708
739.592	17680
739.705	18528
739.818	19162
739.932	16598
740.045	18261
740.158	18309
740.271	20168
740.384	17197
740.497	17735
740.610	17292
740.723	17578
740.836	16710
740.949	18360
741.062	26688
741.174	23608
741.287	19464
741.400	17448
741.513	16191
741.626	18524
741.739	17119
741.851	17434
741.964	16818
742.077	16565
742.189	17598
742.302	18798
742.415	16486
742.527	16351
742.640	15685
742.753	16158
742.865	14074
742.978	16470
743.090	16794
743.203	18435
743.316	15915
743.428	15662
743.541	15532
743.653	15224
743.766	15288
743.878	19176
743.990	30171
744.103	25502
744.215	15423
744.327	16699
744.440	19724
744.552	33030
744.664	17354
744.777	14300
744.889	13465
745.001	15289
745.113	14171
745.226	13638
745.338	14173
745.450	15009
745.562	14646
745.674	14469
745.786	13231
745.898	13044
746.010	13443
746.122	14279
746.234	12420
746.347	13554
746.459	13765
746.570	13708
746.682	13235
746.794	13004
746.906	14202
747.018	14681
747.130	13709
747.242	13730
747.354	12817
747.466	16253
747.577	13467
747.689	14463
747.801	13532
747.913	13060
748.024	12156
748.136	13320
748.248	12010
748.359	13644
748.471	13072
748.583	13304
748.694	12904
748.806	15509
748.918	24852
749.029	17616
749.141	16735
749.252	15731
749.364	18468
749.475	39322
749.587	28063
749.698	14370
749.809	12118
749.921	12038
750.032	11789
750.144	12402
750.255	11013
750.366	11125
750.478	11333
750.589	13184
750.700	14104
750.811	14398
750.923	17812
751.034	40142
751.145	34668
751.256	13589
751.367	12144
751.479	12308
751.590	10294
751.701	12037
751.812	11228
751.923	11683
752.034	10392
752.145	11178
752.256	11730
752.367	11437
752.478	10467
752.589	11274
752.700	10979
752.811	11402
752.922	11377
753.032	13787
753.143	14247
753.254	11403
753.365	11086
753.476	10744
753.586	10912
753.697	10795
753.808	10282
753.919	10884
754.029	10213
754.140	11041
754.251	11682
754.361	11353
754.472	11807
754.582	12542
754.693	11583
754.804	11529
754.914	10087
755.025	10684
755.135	10018
755.246	9945
755.356	9539
755.466	11876
755.577	10817
755.687	10908
755.798	10483
755.908	10439
756.018	10261
756.129	9929
756.239	10828
756.349	10200
756.460	9270
756.570	10941
756.680	10374
756.790	12328
756.900	12420
757.011	9876
757.121	9032
757.231	10092
757.341	9387
757.451	9367
757.561	8993
757.671	9900
757.781	8399
757.891	10902
758.001	12566
758.111	11225
758.221	10583
758.331	13118
758.441	11855
758.551	18832
758.661	15377
758.771	12367
758.880	12383
758.990	12589
759.100	12940
759.210	12402
759.320	11181
759.429	12452
759.539	10478
759.649	11416
759.758	10845
759.868	12325
759.978	10979
760.087	11969
760.197	10744
760.307	11913
760.416	10824
760.526	12726
760.635	12077
760.745	12712
760.854	11162
760.964	11615
761.073	11655
761.182	11258
761.292	12587
761.401	15740
761.511	11919
761.620	11259
761.729	12332
761.839	13750
761.948	12470
762.057	14725
762.166	12473
762.276	11771
762.385	11971
762.494	11514
762.603	10319
762.712	13114
762.822	13281
762.931	12774
763.040	11536
763.149	12934
763.258	11880
763.367	12062
763.476	12517
763.585	12338
763.694	12064
763.803	13273
763.912	14391
764.021	13032
764.130	10824
764.238	12467
764.347	10523
764.456	12275
764.565	12093
764.674	12909
764.783	12502
764.891	12081
765.000	12120
765.109	13013
765.217	12061
765.326	16201
765.435	20584
765.543	14387
765.652	11988
765.761	13626
765.869	15025
765.978	18608
766.086	24084
766.195	38512
766.303	95221
766.412	342618
766.520	288365
766.629	43952
766.737	23165
766.846	18683
766.954	14944
767.062	17006
767.171	17023
767.279	15938
767.387	14849
767.496	15283
767.604	12808
767.712	14171
767.820	13077
767.928	15284
768.037	13161
768.145	14930
768.253	13548
768.361	13912
768.469	13936
768.577	13443
768.685	14347
768.793	14182
768.901	13603
769.009	13743
769.117	12909
769.225	14608
769.333	15280
769.441	18147
769.549	22028
769.657	40496
769.765	121565
769.873	306546
769.981	75484
770.088	20504
770.196	15706
770.304	15052
770.412	15300
770.519	16937
770.627	14864
770.735	15553
770.842	14642
770.950	14637
771.058	14181
771.165	14742
771.273	14178
771.380	13612
771.488	13449
771.595	13009
771.703	12885
771.810	14224
771.918	12358
772.025	13816
772.133	12278
772.240	13720
772.348	13602
772.455	13439
772.562	13090
772.670	12550
772.777	13508
772.884	12307
772.991	13076
773.099	13175
773.206	10667
773.313	12197
773.420	11828
773.528	11750
773.635	11055
773.742	13845
773.849	12357
773.956	12269
774.063	11987
774.170	11991
774.277	14029
774.384	13419
774.491	13554
774.598	14272
774.705	14000
774.812	18735
774.919	16212
775.026	15360
775.133	14465
775.239	13477
775.346	13982
775.453	12569
775.560	12632
775.667	13353
775.773	13223
775.880	13951
775.987	13962
776.093	13323
776.200	13637
776.307	13174
776.413	12514
776.520	13128
776.627	13786
776.733	13224
776.840	12393
776.946	13645
777.053	11853
777.159	12887
777.266	10832
777.372	14242
777.478	12330
777.585	13607
777.691	11802
777.798	12872
777.904	14403
778.010	19043
778.117	17060
778.223	13733
778.329	13275
778.435	14008
778.542	13578
778.648	13300
778.754	12111
778.860	12705
778.966	13320
779.072	13570
779.178	12671
779.284	13127
779.391	10333
779.497	11722
779.603	12979
779.708	11379
779.815	12865
779.920	14011
780.026	17910
780.132	11712
780.238	11480
780.344	11725
780.450	11892
780.556	11098
780.661	10386
780.767	12012
780.873	10979
780.979	11935
781.085	12021
781.190	11307
781.296	10134
781.402	11781
781.507	9916
781.613	10669
781.719	10499
781.824	10925
781.930	11562
782.035	11932
782.141	10593
782.246	12092
782.352	10165
782.457	11677
782.563	10741
782.668	11045
782.773	11534
782.879	11544
782.984	12141
783.090	13898
783.195	20415
783.300	15023
783.405	11973
783.511	12450
783.616	11665
783.721	12210
783.826	9949
783.932	11277
784.037	11450
784.142	11229
784.247	11553
784.352	11657
784.457	10830
784.562	11026
784.667	10701
784.772	11084
784.877	10941
784.982	10750
785.087	9305
785.192	12531
785.297	11108
785.402	11104
785.507	10435
785.611	11060
785.716	11103
785.821	10649
785.926	9046
786.031	10951
786.135	10161
786.240	10260
786.345	8808
786.450	10016
786.554	9244
786.659	9741
786.763	8229
786.868	10639
786.973	11958
787.077	9598
787.182	9895
787.286	11291
787.391	8719
787.495	10108
787.600	8778
787.704	8721
787.809	9214
787.913	8684
788.017	9361
788.122	10614
788.226	8810
788.330	8626
788.435	9764
788.539	10178
788.643	7631
788.747	9229
788.852	9416
788.956	9461
789.060	8071
789.164	8721
789.268	7949
789.372	9133
789.476	8698
789.580	8339
789.684	8117
789.788	9661
789.892	8389
789.996	10214
790.100	9132
790.204	9286
790.308	10434
790.412	10484
790.516	9398
790.620	9983
790.724	9626
790.828	9492
790.931	9203
791.035	10325
791.139	8480
791.242	8818
791.346	10036
791.450	8837
791.554	8622
791.657	7802
791.761	8711
791.864	8910
791.968	7970
792.072	9265
792.175	9378
792.279	9329
792.382	8649
792.486	8799
792.589	10764
792.693	10506
792.796	6800
792.899	8949
793.003	8418
793.106	6772
793.209	7656
793.313	10089
793.416	6310
793.519	10673
793.623	13905
793.726	20395
793.829	9782
793.932	8676
794.035	7788
794.138	10166
794.242	9712
794.345	13452
794.448	13898
794.551	18431
794.654	14412
794.757	12781
794.860	16151
794.963	12407
795.066	7011
795.169	8533
795.272	5914
795.375	7258
795.477	7001
795.580	8535
795.683	6402
795.786	8205
795.889	6470
795.991	9155
796.094	11041
796.197	11855
796.300	8715
796.402	6872
796.505	5846
796.608	6912
796.710	6742
796.813	7433
796.915	6406
797.018	7219
797.120	6214
797.223	6199
797.326	7582
797.428	7500
797.530	7471
797.633	8433
797.735	11306
797.838	25435
797.940	19446
798.042	7364
798.145	6259
798.247	7869
798.349	5376
798.452	6637
798.554	5694
798.656	5563
798.758	6765
798.860	6661
798.962	5762
799.065	6437
799.167	6016
799.269	8519
799.371	7833
799.473	9735
799.575	12401
799.677	15102
799.779	11922
799.881	14981
799.983	9506
800.085	6678
800.187	6925
800.289	7854
800.390	7876
800.492	7033
800.594	6324
800.696	5662
800.798	5771
800.899	6487
801.001	5278
801.103	5271
801.205	5491
801.306	5626
801.408	4977
801.509	5407
801.611	6208
801.713	6643
801.814	5168
801.916	5617
802.017	5763
802.119	6144
802.220	5908
802.322	6046
802.423	14740
802.525	11400
802.626	6720
802.727	7036
802.829	7038
802.930	3610
803.031	7282
803.133	5939
803.234	4852
803.335	5876
803.436	4918
803.538	6384
803.639	4160
803.740	6038
803.841	4436
803.942	6016
804.043	5445
804.144	4849
804.245	4862
804.346	4954
804.447	6085
804.548	9981
804.649	10606
804.750	6524
804.851	4238
804.952	5246
805.053	4884
805.154	4276
805.255	5020
805.355	5595
805.456	4608
805.557	4758
805.658	3905
805.758	5562
805.859	4606
805.960	5070
806.061	3264
806.161	5598
806.262	5685
806.362	5735
806.463	5596
806.564	6725
806.664	6204
806.765	12473
806.865	10676
806.966	10291
807.066	6107
807.166	6518
807.267	4966
807.367	4820
807.468	5696
807.568	3799
807.668	5204
807.769	5592
807.869	4650
807.969	4840
808.069	5602
808.170	5255
808.270	3976
808.370	6410
808.470	8979
808.570	6991
808.670	4604
808.770	4882
808.870	4347
808.970	5495
809.070	4247
809.170	4367
809.271	4626
809.370	5612
809.470	4445
809.570	4897
809.670	3992
809.770	4821
809.870	4908
809.970	4570
810.070	4549
810.169	4970
810.269	3364
810.369	5337
810.469	3992
810.568	4272
810.668	3936
810.768	4497
810.867	4014
810.967	4167
811.066	3348
811.166	3837
811.265	4589
811.365	3732
811.464	3173
811.564	4759
811.663	4720
811.763	2883
811.862	4024
811.962	5070
812.061	3837
812.160	4032
812.260	3304
812.359	4440
812.458	2972
812.557	4722
812.657	4424
812.756	5782
812.855	2943
812.954	3711
813.053	3972
813.153	4941
813.252	5113
813.351	6133
813.450	4336
813.549	3948
813.648	3446
813.747	3772
813.846	4050
813.945	2804
814.044	2817
814.143	4248
814.242	4476
814.341	2326
814.439	3374
814.538	4613
814.637	2856
814.736	3468
814.835	4810
814.933	3456
815.032	2199
815.131	4095
815.229	3664
815.328	3850
815.427	2808
815.525	3491
815.624	3273
815.722	3379
815.821	3665
815.919	3442
816.018	3148
816.116	4642
816.215	2657
816.313	3572
816.412	3250
816.510	3579
816.609	5462
816.707	3659
816.805	2644
816.904	3816
817.002	3187
817.100	4410
817.198	4423
817.296	3273
817.395	3962
817.493	3655
817.591	3085
817.689	3299
817.787	2155
817.885	4493
817.983	4838
818.081	8707
818.179	15057
818.277	39437
818.375	30655
818.473	7772
818.571	4436
818.669	5066
818.767	4108
818.865	4151
818.963	2681
819.061	4860
819.158	6036
819.256	14636
819.354	29377
819.452	76034
819.549	40132
819.647	8682
819.745	4916
819.842	6203
819.940	4266
820.038	3996
820.135	3657
820.233	5066
820.330	2924
820.428	3363
820.525	4358
820.623	3939
820.720	3787
820.818	3991
820.915	4224
821.012	3801
821.110	3501
821.207	7038
821.304	3839
821.402	3817
821.499	3625
821.596	4218
821.693	3422
821.791	6467
821.888	7944
821.985	18677
822.082	13386
822.179	5700
822.276	2658
822.373	3840
822.470	3384
822.567	4808
822.664	2884
822.761	4039
822.858	1944
822.955	4271
823.052	3767
823.149	3802
823.246	3344
823.343	2896
823.440	3832
823.536	2938
823.633	2567
823.730	3565
823.827	3465
823.923	4348
824.020	4162
824.117	3027
824.213	2361
824.310	3610
824.407	2147
824.503	3258
824.600	2748
824.696	3050
824.793	3936
824.889	3139
824.986	2936
825.082	2973
825.179	3332
825.275	3382
825.371	1505
825.468	3453
825.564	2020
825.660	3904
825.757	2925
825.853	4141
825.949	2409
826.045	3197
826.142	2255
826.238	3266
826.334	3205
826.430	2656
826.526	2842
826.622	3533
826.718	3146
826.814	2763
826.910	3170
827.006	3399
827.102	2560
827.198	3519
827.294	2779
827.390	2864
827.486	3440
827.582	2357
827.678	1524
827.774	2923
827.869	1254
827.965	3787
828.061	1633
828.157	3030
828.252	2478
828.348	2655
828.444	3240
828.539	2197
828.635	1950
828.731	4120
828.826	2734
828.922	4379
829.017	2491
829.113	3243
829.208	2355
829.304	3153
829.399	4068
829.495	2342
829.590	3101
829.685	3176
829.781	2478
829.876	2597
829.971	2757
830.066	3685
830.162	2736
830.257	2526
830.352	2591
830.447	4362
830.543	5056
830.638	4431
830.733	3979
830.828	2550
830.923	3377
831.018	3657
831.113	4077
831.208	4437
831.303	3038
831.398	3270
831.493	2571
831.588	3321
831.683	1620
831.778	3304
831.873	2780
831.967	3582
832.062	1403
832.157	2191
832.252	3713
832.346	3887
832.441	4972
832.536	8428
832.631	18318
832.725	17756
832.820	2983
832.914	3234
833.009	2166
833.104	4800
833.198	6313
833.293	3586
833.387	4785
833.482	3853
833.576	2306
833.670	3599
833.765	2832
833.859	3415
833.954	4279
834.048	3066
834.142	2075
834.237	2245
834.331	1729
834.425	2792
834.519	1819
834.613	3459
834.708	1939
834.802	3842
834.896	2457
834.990	2570
835.084	3162
835.178	3253
835.272	3875
835.366	3282
835.460	2919
835.554	2982
835.648	1956
835.742	2626
835.836	2885
835.930	2749
836.024	3712
836.117	5176
836.211	5438
836.305	10818
836.399	15737
836.493	5033
836.586	3114
836.680	3016
836.774	2775
836.867	4273
836.961	2528
837.055	3111
837.148	1622
837.242	2300
837.335	2653
837.429	3562
837.522	3700
837.616	7637
837.709	16848
837.803	13741
837.896	3855
837.989	5719
838.083	10066
838.176	23863
838.269	24059
838.363	6688
838.456	3453
838.549	8995
838.642	12364
838.735	24959
838.829	10822
838.922	4697
839.015	3282
839.108	1984
839.201	2637
839.294	3598
839.387	3744
839.480	4424
839.573	8862
839.666	14874
839.759	4426
839.852	2405
839.945	2190
840.038	2457
840.131	2867
840.223	3416
840.316	2856
840.409	2452
840.502	1614
840.594	3262
840.687	1450
840.780	3304
840.873	3853
840.965	5333
841.058	8599
841.150	19838
841.243	16128
841.336	4878
841.428	2752
841.521	3205
841.613	4586
841.706	5488
841.798	2502
841.890	3309
841.983	2272
842.075	3779
842.167	4102
842.260	4920
842.352	8367
842.444	12561
842.537	21710
842.629	34974
842.721	7876
842.813	3776
842.905	2649
842.997	4187
843.090	4161
843.182	9945
843.274	20499
843.366	44641
843.458	88796
843.550	61443
843.642	9626
843.734	6324
843.826	8789
843.918	7615
844.009	3308
844.101	2579
844.193	3435
844.285	4214
844.377	2250
844.469	3371
844.560	2704
844.652	3271
844.744	2451
844.835	3484
844.927	3969
845.019	8479
845.110	5471
845.202	4018
845.293	2802
845.385	2498
845.476	2227
845.568	3914
845.659	3149
845.751	3352
845.842	2636
845.934	2291
846.025	2334
846.116	3434
846.208	2852
846.299	2762
846.390	3811
846.482	4716
846.573	4250
846.664	10681
846.755	13712
846.846	11892
846.937	1556
847.029	2890
847.120	1973
847.211	2997
847.302	2973
847.393	2515
847.484	2577
847.575	2648
847.666	2203
847.757	3251
847.847	2554
847.938	3168
848.029	1890
848.120	2502
848.211	2607
848.302	2330
848.392	1999
848.483	3196
848.574	1988
848.664	1974
848.755	1602
848.846	2624
848.936	1263
849.027	2446
849.118	2475
849.208	2523
849.299	3015
849.389	4068
849.480	5350
849.570	6129
849.661	7602
849.751	11050
849.841	4654
849.932	3291
850.022	1761
850.112	2854
850.203	1325
850.293	2562
850.383	2189
850.474	2807
850.564	1806
850.654	2871
850.744	1936
850.834	2838
850.924	1593
851.014	2724
851.104	2571
851.194	3784
851.284	4893
851.374	7035
851.464	4285
851.554	4030
851.644	5760
851.734	11032
851.824	7269
851.914	2585
852.004	2479
852.094	2442
852.183	2278
852.273	2857
852.363	2209
852.452	3008
852.542	2932
852.632	3406
852.721	2071
852.811	2700
852.901	1762
852.990	3522
853.080	2033
853.169	3127
853.259	1263
853.348	2344
853.438	2731
853.527	3181
853.617	1627
853.706	4941
853.795	5401
853.885	12741
853.974	18761
854.063	33529
854.152	56901
854.242	21398
854.331	3865
854.420	2584
854.509	3047
854.598	3741
854.687	4985
854.777	6630
854.866	2512
854.955	3031
855.044	1675
855.133	2827
855.222	1199
855.311	1853
855.400	2462
855.488	2838
855.577	1883
855.666	2494
855.755	1850
855.844	2750
855.933	1050
856.021	2900
856.110	2526
856.199	1375
856.288	908
856.376	2391
856.465	1727
856.554	2316
856.642	1789
856.731	2391
856.819	2403
856.908	3534
856.996	1911
857.085	2841
857.173	994
857.262	2056
857.350	1593
857.438	2127
857.527	1664
857.615	2282
857.703	2532
857.792	2327
857.880	1976
857.968	2052
858.056	2242
858.145	3039
858.233	1744
858.321	2505
858.409	2006
858.497	2090
858.585	1538
858.673	2960
858.761	1195
858.849	1765
858.937	1782
859.025	2318
859.113	2100
859.201	2379
859.289	2412
859.377	2209
859.465	2002
859.552	1949
859.640	2607
859.728	3425
859.816	2956
859.903	2118
859.991	2083
860.079	2587
860.166	928
860.254	2739
860.342	2121
860.429	2098
860.517	1943
860.604	2456
860.692	1573
860.779	2439
860.867	1376
860.954	2659
861.042	2579
861.129	3313
861.216	1938
861.304	2483
861.391	2413
861.478	2329
861.565	1626
861.653	2885
861.740	2421
861.827	1911
861.914	2174
862.001	2081
862.089	2340
862.176	2758
862.263	1134
862.350	1766
862.437	1366
862.524	1585
862.611	1269
862.698	2270
862.785	1710
862.871	2136
862.958	918
863.045	1759
863.132	1349
863.219	2258
863.306	718
863.392	2063
863.479	1191
863.566	3098
863.652	1114
863.739	1819
863.826	1501
863.912	2044
863.999	691
864.086	2002
864.172	1603
864.259	1568
864.345	756
864.432	2511
864.518	1405
864.604	2474
864.691	1491
864.777	1973
864.863	2222
864.950	1881
865.036	911
865.122	2716
865.209	1197
865.295	1976
865.381	1637
865.467	1944
865.553	2691
865.639	2544
865.726	3325
865.812	6604
865.898	12800
865.984	17695
866.070	33335
866.156	36065
866.242	8008
866.328	3082
866.414	1561
866.499	1598
866.585	1948
866.671	1774
866.757	2320
866.843	2114
866.928	1412
867.014	1976
867.100	3356
867.186	5379
867.271	5115
867.357	8435
867.442	10695
867.528	4735
867.614	1171
867.699	1641
867.785	2028
867.870	1682
867.956	2069
868.041	4341
868.127	3949
868.212	6119
868.297	3410
868.383	2940
868.468	5156
868.553	9137
868.639	12288
868.724	24386
868.809	23002
868.894	5154
868.979	1976
869.065	3583
869.150	2479
869.235	1803
869.320	1176
869.405	1914
869.490	928
869.575	1780
869.660	1219
869.745	2321
869.830	770
869.915	1821
870.000	93
870.085	1404
870.169	1203
870.254	2349
870.339	673
870.424	1131
870.509	814
870.593	1978
870.678	823
870.763	1826
870.847	804
870.932	1363
871.016	1277
871.101	1157
871.186	1009
871.270	1397
871.355	503
871.439	2150
871.523	1345
871.608	1585
871.692	204
871.777	1976
871.861	1378
871.945	742
872.030	1488
872.114	1314
872.198	1267
872.282	1290
872.367	1035
872.451	891
872.535	486
872.619	1708
872.703	1524
872.787	1034
872.871	249
872.955	367
873.039	-534
873.123	1832
873.207	1850
873.291	1727
873.375	2138
873.459	1234
873.543	138
873.627	1403
873.711	855
873.794	1696
873.878	748
873.962	340
874.045	1167
874.129	766
874.137	718
874.213	241
874.245	352
874.296	525
874.352	101
874.380	-103
874.460	1075
874.464	1122
874.547	1123
874.568	1354
874.631	2038
874.676	1204
874.714	492
874.784	1493
874.798	1694
874.881	1710
874.892	1645
874.965	1215
874.999	1058
875.048	821
875.107	810
875.131	803
875.215	234
875.215	235
875.298	812
875.323	807
875.381	896
875.430	1282
875.465	1520
875.538	1201
875.548	1160
875.631	1825
875.646	1570
875.714	330
875.753	633
875.798	1016
875.861	1072
875.881	1059
875.964	1529
875.968	1496
876.047	991
876.076	1040
876.130	1103
876.183	873
876.213	753
876.291	2130
876.296	2218
876.379	1127
876.398	1151
876.462	1282
876.506	1506
876.545	1721
876.613	1369
876.628	1288
876.711	392
876.721	456
876.794	1001
876.828	570
876.877	-108
876.935	438
876.960	687
877.043	449
877.043	450
877.125	470
877.150	510
877.208	688
877.258	892
877.291	1013
877.365	835
877.374	797
877.456	733
877.472	617
877.539	201
877.579	507
877.622	923
877.687	1033
877.704	990
877.787	1141
877.794	1030
877.869	37
877.901	327
877.952	756
878.008	601
878.034	550
878.115	1057
878.117	1066
878.199	411
878.222	521
878.282	855
878.329	934
878.364	884
878.437	553
878.447	540
878.529	424
878.544	494
878.611	652
878.651	567
878.694	588
878.758	848
878.776	907
878.858	705
878.865	771
878.941	1310
878.972	930
879.023	478
879.078	619
879.105	738
879.185	1001
879.187	997
879.269	634
879.292	516
879.351	508
879.399	202
879.433	-75
879.506	255
879.516	280
879.598	179
879.613	165
879.680	271
879.720	387
879.762	633
879.827	908
879.844	859
879.926	864
879.933	799
880.007	604
880.040	921
880.089	1341
880.147	1648
880.171	1768
880.253	4174
880.254	4185
880.335	5286
880.360	5669
880.417	6785
880.467	9919
880.499	12094
880.574	14061
880.580	13996
880.662	3527
880.680	2824
880.744	1423
880.787	1167
880.825	1072
880.893	930
880.907	896
880.989	566
881.000	634
881.070	1157
881.106	969
881.152	647
881.213	617
881.233	632
881.315	732
881.319	722
881.396	493
881.426	557
881.478	670
881.532	706
881.559	691
881.639	405
881.641	400
881.722	794
881.745	584
881.803	163
881.852	417
881.885	570
881.958	1051
881.966	1103
882.047	2089
882.064	2092
882.129	2008
882.171	2508
882.210	3368
882.277	5650
882.291	5913
882.372	2553
882.383	2271
882.454	428
882.489	390
882.535	515
882.596	78
882.616	-64
882.697	228
882.702	224
882.778	269
882.808	321
882.859	530
882.914	293
882.940	138
883.020	1034
883.021	1037
883.102	238
883.127	197
883.183	426
883.233	213
883.264	14
883.339	313
883.345	381
883.426	525
883.445	735
883.507	841
883.551	556
883.587	409
883.657	744
883.668	854
883.749	802
883.763	891
883.830	929
883.869	712
883.910	508
883.975	502
883.991	539
884.072	490
884.081	516
884.152	627
884.187	556
884.233	478
884.292	547
884.314	642
884.394	1098
884.398	1110
884.475	774
884.504	578
884.555	528
884.610	680
884.636	753
884.716	641
884.716	643
884.797	1207
884.821	1158
884.877	451
884.927	9
884.958	183
885.033	951
885.038	964
885.118	706
885.139	672
885.199	194
885.244	-16
885.279	262
885.350	270
885.359	262
885.439	682
885.456	711
885.520	616
885.561	781
885.600	923
885.667	750
885.680	692
885.760	745
885.773	689
885.840	652
885.878	846
885.920	781
885.984	241
886.000	255
886.080	681
886.089	732
886.160	908
886.195	930
886.240	800
886.300	547
886.320	562
886.400	1053
886.406	1070
886.480	990
886.511	1073
886.560	1361
886.616	1079
886.640	808
886.720	414
886.722	405
886.800	218
886.827	158
886.879	194
886.932	188
886.959	225
887.038	466
887.039	469
887.119	402
887.143	585
887.198	862
887.248	807
887.278	679
887.354	466
887.358	468
887.437	528
887.459	559
887.517	660
887.564	706
887.596	927
887.669	1368
887.676	1272
887.755	119
887.774	-133
887.835	459
887.880	834
887.914	846
887.985	868
887.994	876
888.073	918
888.090	943
888.153	846
888.195	763
888.232	537
888.300	105
888.311	149
888.391	388
888.405	467
888.470	900
888.510	1109
888.549	987
888.615	765
888.628	685
888.708	198
888.720	142
888.787	278
888.825	285
888.866	518
888.930	956
888.945	848
889.024	269
889.035	198
889.103	424
889.140	503
889.182	416
889.245	377
889.261	416
889.340	549
889.349	568
889.419	388
889.454	296
889.498	215
889.559	133
889.577	259
889.656	811
889.664	871
889.735	152
889.768	-188
889.814	247
889.873	834
889.978	602
890.083	680
890.187	703
890.292	180
890.397	592
890.501	710
890.606	1025
890.710	1011
890.815	541
890.919	524
891.024	-77
891.128	491
891.233	637
891.337	495
891.442	-174
891.546	-249
891.650	66
891.755	-199
891.859	1704
891.963	979
892.068	444
892.172	277
892.276	756
892.380	37
892.484	789
892.589	-73
892.693	14
892.797	212
892.901	443
893.005	36
893.109	521
893.213	784
893.317	942
893.421	233
893.525	865
893.629	-435
893.733	15
893.837	-363
893.941	251
894.045	826
894.148	475
894.252	150
894.356	183
894.460	760
894.564	805
894.667	272
894.771	188
894.875	652
894.978	-497
895.082	-200
895.186	756
895.289	301
895.393	603
895.496	1082
895.600	-594
895.703	725
895.807	549
895.910	-172
896.014	-194
896.117	113
896.221	10
896.324	464
896.427	96
896.531	322
896.634	-417
896.737	838
896.840	279
896.944	-236
897.047	-172
897.150	-20
897.253	17
897.356	961
897.460	-6
897.563	95
897.666	11
897.769	-251
897.872	-327
897.975	195
898.078	117
898.181	163
898.284	211
898.387	225
898.490	-222
898.593	71
898.695	-223
898.798	-35
898.901	-121
899.004	525
899.107	357
899.209	38
899.312	14
899.415	364
899.518	249
899.620	742
899.723	-114
899.826	2091
899.928	938
900.031	112
900.133	94
900.236	-339
900.338	-152
900.441	-139
900.543	-386
900.646	-457
900.748	727
900.851	129
900.953	352
901.055	166
901.158	980
901.260	491
901.362	1192
901.465	-38
901.567	-587
901.669	182
901.771	-629
901.873	199
901.976	338
902.078	-7
902.180	240
902.282	233
902.384	409
902.486	-234
902.588	658
902.690	990
902.792	519
902.894	-80
902.996	364
903.098	260
903.200	269
903.302	330
903.404	159
903.505	198
903.607	808
903.709	423
903.811	-74
903.913	-201
904.014	517
904.116	-53
904.218	-226
904.319	145
904.421	447
904.523	-452
904.624	604
904.726	-5
904.827	-107
904.929	-348
905.030	515
905.132	875
905.233	148
905.335	-172
905.436	-151
905.537	-813
905.639	-655
905.740	-44
905.841	392
905.943	-31
906.044	748
906.145	592
906.247	-694
906.348	464
906.449	421
906.550	259
906.651	1080
906.752	101
906.854	-131
906.955	59
907.056	-453
907.157	19
907.258	498
907.359	13
907.460	18
907.561	-268
907.662	-324
907.762	654
907.863	177
907.964	730
908.065	805
908.166	-303
908.267	14
908.367	-59
908.468	-83
908.569	449
908.670	805
908.770	436
908.871	260
908.971	745
909.072	148
909.173	-16
909.273	250
909.374	19
909.474	-247
909.575	461
909.675	393
909.776	219
909.876	1193
909.977	5
910.077	835
910.177	201
910.278	-27
910.378	581
910.478	144
910.579	-705
910.679	-194
910.779	416
910.879	394
910.980	-290
911.080	155
911.180	-821
911.280	684
911.380	61
911.480	-117
911.580	352
911.680	217
911.780	-280
911.880	512
911.980	-49
912.080	604
912.180	545
912.280	598
912.380	-91
912.480	324
912.580	-233
912.679	301
912.779	-383
912.879	197
912.979	107
913.078	-865
913.178	25
913.278	149
913.377	446
913.477	-230
913.577	-85
913.676	446
913.776	-397
913.875	678
913.975	82
914.074	430
914.174	77
914.273	-472
914.373	496
914.472	-149
914.572	-230
914.671	-149
914.770	-382
914.870	-508
914.969	388
915.068	-828
915.167	113
915.267	-444
915.366	87
915.465	108
915.564	-452
915.663	-303
915.763	-665
915.862	-344
915.961	-48
916.060	205
916.159	-723
916.258	-811
916.357	-572
916.456	342
916.555	-409
916.654	318
916.752	-697
916.851	331
916.950	68
917.049	-856
917.148	-302
917.247	-126
917.345	-518
917.444	-1064
917.543	378
917.642	-761
917.740	-923
917.839	108
917.937	-88
918.036	64
918.135	-136
918.233	24
918.332	-772
918.430	-391
918.529	-394
918.627	-165
918.726	-135
918.824	-706
918.923	-160
919.021	4
919.119	-629
919.218	-435
919.316	-52
919.414	-352
919.512	329
919.611	428
919.709	661
919.807	-231
919.905	-442
920.003	-46
920.102	538
920.200	131
920.298	-385
920.396	-410
920.494	-317
920.592	-1041
920.690	151
920.788	-207
920.886	-1081
920.984	-428
921.082	-978
921.180	879
921.277	86
921.375	-89
921.473	191
921.571	-601
921.669	-317
921.766	-1088
921.864	-200
921.962	422
922.060	-83
922.157	-909
922.255	-116
922.352	-659
922.450	-664
922.548	-842
922.645	383
922.743	-594
922.840	-448
922.938	-864
923.035	-189
923.133	277
923.230	206
923.327	-442
923.425	-87
923.522	373
923.619	-265
923.717	-383
923.814	31
923.911	-17
924.008	634
924.106	-631
924.203	-584
924.300	-299
924.397	-493
924.494	102
924.591	268
924.688	8
924.786	-105
924.883	180
924.979	-467
925.077	-1173
925.173	-24
925.270	-283
925.367	-739
925.464	319
925.561	-21
925.658	-499
925.755	398
925.852	-302
925.948	-5
926.045	-450
926.142	-232
926.239	-268
926.335	204
926.432	373
926.529	-495
926.625	-374
926.722	-458
926.818	-681
926.915	-382
927.011	-372
927.108	-332
927.204	-838
927.301	-63
927.397	-258
927.494	-583
927.590	-287
927.687	-21
927.783	218
927.879	-538
927.976	-113
928.072	-435
928.168	-598
928.264	-751
928.361	-485
928.457	-637
928.553	-875
928.649	-640
928.745	-186
928.841	-582
928.937	224
929.033	-1041
929.129	-190
929.225	-140
929.321	-48
929.417	-126
929.513	-644
929.609	-1050
929.705	-764
929.801	-220
929.897	-1039
929.993	-858
930.089	-430
930.184	302
930.280	-510
930.376	-91
930.471	-1910
930.567	414
930.663	196
930.758	-860
930.854	-541
930.950	-272
931.045	-632
931.141	-500
931.236	-298
931.332	-603
931.427	-861
931.523	-133
931.618	-10
931.714	-717
931.809	274
931.905	-623
932.000	-1443
932.095	-841
932.191	8
932.286	-570
932.381	-882
932.476	-66
932.572	-556
932.667	-463
932.762	-1091
932.857	-845
932.952	-575
933.047	-395
933.142	-646
933.237	60
933.332	-992
933.427	-468
933.522	-905
933.617	-1258
933.712	-143
933.807	295
933.902	-767
933.997	-964
934.092	-942
934.187	-964
934.282	-325
934.376	-754
934.471	-1011
934.566	-871
934.661	-1172
934.755	-880
934.850	-339
934.945	-396
935.039	-840
935.134	-259
935.228	-409
935.323	-1060
935.417	-295
935.512	-1663
935.606	-821
935.701	-1213
935.795	-869
935.890	-277
935.984	-261
936.079	-892
936.173	-383
936.267	-306
936.362	-965
936.456	-525
936.550	-197
936.644	-991
936.738	-474
936.833	-766
936.927	-770
937.021	-1067
937.115	-516
937.209	-1361
937.303	19
937.397	-905
937.491	-576
937.585	-1205
937.679	-933
937.773	-561
937.867	-754
937.961	-623
938.055	-158
938.149	-928
938.243	-172
938.337	-436
938.430	-729
938.524	-613
938.618	-423
938.712	-847
938.805	-449
938.899	-1280
938.993	-967
939.086	-604
939.180	-330
939.274	-834
939.367	-1086
939.461	-952
939.554	-1027
939.648	-763
939.741	-332
939.835	-1574
939.928	-1057
940.022	25
940.115	-463
940.208	-573
940.302	-1219
940.395	-1077
940.488	-1265
940.582	-468
940.675	-213
940.768	-787
940.861	-1256
940.954	-1228
941.048	-598
941.141	-864
941.234	-638
941.327	-1008
941.420	-728
941.513	-625
941.606	-625
941.699	-88
941.792	-788
941.885	-1092
941.978	-942
942.071	-588
942.164	-1065
942.257	-1053
942.349	-810
942.442	-737
942.535	-798
942.628	-730
942.721	-590
942.813	-2193
942.906	-48
942.999	-460
943.091	-741
943.184	-1281
943.277	-1368
943.369	-665
943.462	-202
943.554	-740
943.647	-1749
943.739	-33
943.832	-1047
943.924	-1484
944.017	-698
944.109	-1201
944.201	-1083
944.294	-1264
944.386	-266
944.478	-319
944.571	-853
944.663	-397
944.755	-883
944.847	-570
944.940	410
945.032	-1785
945.124	-1228
945.216	424
945.308	-1310
945.400	-237
945.492	-1647
945.584	-853
945.676	-784
945.768	-916
945.860	-1419
945.952	-1820
946.044	73
946.136	-1693
946.228	-625
946.320	-1135
946.412	-727
946.503	-719
946.595	-839
946.687	-1282
946.779	-1182
946.870	-804
946.962	-823
947.054	-1451
947.145	-164
947.237	-1013
947.329	-939
947.420	-1284
947.512	-569
947.603	-368
947.695	-197
947.786	-1686
947.878	-1418
947.969	-591
948.061	-1339
948.152	-1519
948.243	-1137
948.335	-449
948.426	-1070
948.517	-1615
948.609	-756
948.700	-1068
948.791	-1223
948.882	-686
948.973	-985
949.065	-328
949.156	-986
949.247	-1569
949.338	-478
949.429	-1441
949.520	-624
949.611	-1226
949.702	39
949.793	-408
949.884	-214
949.975	-1005
950.066	-257
950.157	-1828
950.247	-528
950.338	-801
950.429	-1017
950.520	-247
950.611	-315
950.701	-679
950.792	-990
950.883	-537
950.973	-453
951.064	-1046
951.155	-608
951.245	-529
951.336	-626
951.427	-1302
951.517	-603
951.608	-1177
951.698	-562
951.788	-479
951.879	-900
951.969	-803
952.060	-955
952.150	-761
952.240	-747
952.331	-2153
952.421	-97
952.511	-642
952.602	-642
952.692	-1243
952.782	-753
952.872	-627
952.962	-976
953.052	-1791
953.143	-1751
953.233	-1213
953.323	-1346
953.413	-1531
953.503	-1642
953.593	-748
953.683	-1010
953.773	-1531
953.863	-1015
953.953	-944
954.042	-474
954.132	-702
954.222	-842
954.312	-961
954.402	-650
954.492	-510
954.581	-787
954.671	-1555
954.761	-2317
954.850	-180
954.940	-815
955.030	-797
955.119	-1268
955.209	-500
955.298	-1197
955.388	-1359
955.477	-49
955.567	-1219
955.656	-567
955.746	-652
955.835	-697
955.925	-1447
956.014	-827
956.103	-1484
956.193	-976
956.282	-916
956.371	-154
956.461	-1345
956.550	-1562
956.639	-958
956.728	-1483
956.817	-750
956.906	-976
956.995	-235
957.085	-822
957.174	-1208
957.263	-896
957.352	-1438
957.441	-1591
957.530	-811
957.619	-1056
957.708	-1310
957.796	-1136
957.885	-491
957.974	-225
958.063	-696
958.152	-1815
958.241	-916
958.329	-1060
958.418	-1096
958.507	-1452
958.596	-157
958.684	-1306
958.773	-775
958.861	-1404
958.950	-933
959.039	-944
959.127	-1561
959.216	-181
959.304	-1337
959.393	-1257
959.481	-1284
959.570	-356
959.658	-1910
959.746	-1607
959.835	-416
959.923	-1407
960.011	-1461
960.100	-574
960.188	-424
960.276	-1194
960.365	-1278
960.453	-1024
960.541	-2380
960.629	-1236
960.717	-826
960.805	-2349
960.893	-894
960.981	-1049
961.069	-646
961.158	-1500
961.245	-1042
961.333	-1524
961.421	-2132
961.509	-329
961.597	-366
961.685	-705
961.773	-539
961.861	-1039
961.949	-1387
962.036	-1484
962.124	-844
962.212	-1381
962.299	-905
962.387	-1092
962.475	-663
962.562	-2154
962.650	-841
962.738	-735
962.825	-1037
962.913	-657
963.000	-1090
963.088	-1364
963.175	-248
963.263	-706
963.350	-1533
963.438	-1241
963.525	-1457
963.612	-367
963.700	-205
963.787	999
963.874	-677
963.962	-1115
964.049	-1112
964.136	-1474
964.223	-924
964.310	-574
964.398	-1061
964.485	-1339
964.572	-1566
964.659	-596
964.746	-634
964.833	-1078
964.920	-468
965.007	-1033
965.094	-270
965.181	-1804
965.268	-1646
965.355	-1319
965.441	-696
965.528	-2020
965.615	-403
965.702	-610
965.789	-1747
965.875	-1050
965.962	-650
966.049	-2085
966.136	-1312
966.222	-940
966.309	-318
966.395	-1735
966.482	-813
966.569	-2107
966.655	-1154
966.742	-1270
966.828	-331
966.915	-1659
967.001	-1223
967.087	-2530
967.174	-1678
967.260	-1701
967.347	-1727
967.433	-408
967.519	-91
967.605	-1004
967.692	-1200
967.778	-1619
967.864	-917
967.950	-1456
968.036	-1773
968.123	-464
968.209	-1654
968.295	-2053
968.381	-104
968.467	-249
968.553	-2042
968.639	-563
968.725	-2533
968.811	-589
968.897	-496
968.983	-1253
969.069	-2176
969.154	-166
969.240	-540
969.326	-2062
969.412	-789
969.497	-1443
969.583	-1899
969.669	-92
969.755	-1390
969.840	-1516
969.926	-1123
970.012	-1443
970.097	-513
970.183	-1388
970.268	-981
970.354	-1507
970.439	-1236
970.525	-567
970.610	-1751
970.696	-637
970.781	-1062
970.866	-2766
970.952	-1174
971.037	-1608
971.122	-1946
971.208	-1282
971.293	-1172
971.378	-1799
971.463	-1222
971.549	-1513
971.634	-1232
971.719	-1673
971.804	-1204
971.889	-761
971.974	-958
972.059	-1767
972.144	-1227
972.229	-1516
972.314	-1833
972.399	-618
972.484	-1629
972.569	-1619
972.654	-2560
972.739	-1043
972.824	-634
972.908	-884
972.993	-1025
973.078	-1538
973.163	-1047
973.247	-859
973.332	-3445
973.417	-205
973.501	-1956
973.586	-1425
973.671	-1424
973.755	-1439
973.840	-1056
973.924	-931
974.009	-1113
974.093	-1828
974.178	-129
974.262	-1415
974.346	-1956
974.431	-1550
974.515	-1829
974.600	-2076
974.684	-1074
974.768	-2354
974.852	-151
974.937	-1530
975.021	-1032
975.105	-1176
975.189	-1406
975.273	-1188
975.358	-1888
975.442	-1640
975.526	-818
975.610	-1733
975.694	-1376
975.778	-431
975.862	-1859
975.946	-2748
976.030	55
976.114	-2118
976.198	-1685
976.281	-1111
976.365	-799
976.449	-2116
976.533	-959
976.617	-1371
976.700	-1052
976.784	-538
976.868	-2307
976.951	-1257
977.035	-2137
977.119	-1214
977.202	-1215
977.286	-1634
977.369	-1043
977.453	-923
977.536	-1957
977.620	-1365
977.703	-951
977.787	-1916
977.870	-813
977.953	-237
978.037	-2654
978.120	-338
978.203	-2082
978.287	-1361
978.370	-1271
978.453	-1940
978.536	-1033
978.620	-1109
978.703	-1027
978.786	-1575
978.869	-1926
978.952	-2419
979.035	-397
979.118	-1125
979.201	-2174
979.284	-312
979.367	-1214
979.450	-640
979.533	-2497
979.616	-2263
979.699	-2025
979.782	-892
979.865	-1781
979.948	-1575
980.030	-1474
980.113	-2403
980.196	-1862
980.279	-1442
980.361	-1803
980.444	-1536
980.526	-370
980.609	-1056
980.692	-2312
980.774	-2230
980.857	-2053
980.939	-1007
981.022	-2340
981.104	-1865
981.187	-1934
981.269	-1198
981.352	-1592
981.434	-1841
981.516	-2096
981.599	-359
981.681	-1087
981.763	-1714
981.846	-871
981.928	-1610
982.010	-2054
982.092	-1858
982.174	-1471
982.256	-1750
982.339	-2263
982.421	-1615
982.503	-1737
982.585	-2106
982.667	-2046
982.749	-1805
982.831	-841
982.913	-2490
982.995	-1192
983.077	-1604
983.158	-796
983.240	-3137
983.322	-1355
983.404	-1371
983.486	-2619
983.568	-1690
983.649	-1225
983.731	-1313
983.813	-1929
983.894	-1681
983.976	-2390
984.058	-1182
984.139	-900
984.221	-1958
984.302	-1386
984.384	-1959
984.465	-2736
984.547	-1866
984.628	-2202
984.710	-1002
984.791	-1628
984.872	-1717
984.954	-2031
985.035	-1433
985.116	-2242
985.198	-2049
985.279	-1781
985.360	-953
985.441	-2103
985.522	-1192
985.604	-2038
985.685	-3272
985.766	-932
985.847	-1093
985.928	-2064
986.009	-2320
986.090	-2659
986.171	-845
986.252	-2643
986.333	-1678
986.414	-1622
986.495	-1450
986.576	-2033
986.656	-1485
986.737	-868
986.818	-2023
986.899	-2522
986.980	-1914
987.060	-1257
987.141	-2147
987.222	-2067
987.302	-1893
987.383	-1480
987.464	-1901
987.544	-1321
987.625	-1829
987.705	-1535
987.786	-1346
987.866	-1933
987.947	-1363
988.027	-2178
988.108	-2371
988.188	-1714
988.268	-1147
988.349	-1776
988.429	-2053
988.509	-1261
988.589	-2158
988.670	-2894
988.750	-1138
988.830	-1631
988.910	-1769
988.990	-2172
989.070	-1594
989.151	-1958
989.231	-2012
989.311	-2091
989.391	-1665
989.471	-1583
989.551	-1637
989.631	-2049
989.711	-1564
989.791	-2489
989.870	-2956
989.950	-1568
990.030	-1491
990.110	-1544
990.190	-1807
990.269	-2341
990.349	-1896
990.429	-2220
990.509	-895
990.588	-2364
990.668	-1653
990.747	-1529
990.827	-1993
990.907	-2200
990.986	-2668
991.066	-1886
991.145	-2111
991.225	-1376
991.304	-1858
991.383	-887
991.463	-2013
991.542	-1637
991.622	-2435
991.701	-1843
991.780	-2382
991.859	-1641
991.939	-1889
992.018	-1955
992.097	-1656
992.176	-1896
992.256	-1914
992.335	-2549
992.414	-1423
992.493	-1901
992.572	-2269
992.651	-1140
992.730	-1543
992.809	-2096
992.888	-2767
992.967	-2031
993.046	-1610
993.125	-2483
993.203	-1797
993.282	-2018
993.361	-1754
993.440	-871
993.519	-2847
993.597	-1599
993.676	-2212
993.755	-1648
993.834	-1789
993.912	-3018
993.991	-957
994.069	-2288
994.148	-1933
994.226	-1806
994.305	-1336
994.384	-2188
994.462	-644
994.540	-2448
994.619	-2207
994.697	-1629
994.776	-2118
994.854	-2023
994.932	-1898
995.011	-1493
995.089	-2511
995.167	-1975
995.245	-1901
995.324	-2072
995.402	-1597
995.480	-2322
995.558	-1538
995.636	-2475
995.714	-2663
995.792	-1570
995.870	-2351
995.948	-1862
996.026	-2376
996.104	-2326
996.182	-2158
996.260	-2753
996.338	-1415
996.416	-2548
996.494	-1948
996.572	-747
996.649	-1837
996.727	-2434
996.805	-2044
996.883	-2156
996.960	-2300
997.038	-1270
997.116	-1166
997.193	-2660
997.271	-1886
997.348	-2311
997.426	-1761
997.504	-2799
997.581	-1514
997.658	-1996
997.736	-2204
997.813	-2406
997.891	-1250
997.968	-2122
998.046	-1759
998.123	-1889
998.200	-1339
998.277	-3005
998.355	-1827
998.432	-2443
998.509	-1715
998.586	-1220
998.663	-1852
998.741	-1663
998.818	-2360
998.895	-2055
998.972	-2132
999.049	-2498
999.126	-1649
999.203	-1952
999.280	-2607
999.357	-2596
999.434	-1873
999.511	-2315
999.587	-1920
999.664	-2319
999.741	-1469
999.818	-1856
999.895	-2171
999.971	-2867
1000.048	-1976
1000.125	-1291
1000.202	-2544
1000.278	-2058
1000.355	-2507
1000.431	-2645
1000.508	-2064
1000.584	-1866
1000.661	-1637
1000.738	-2787
1000.814	-2202
1000.890	-2127
1000.967	-1903
1001.043	-1700
1001.120	-2961
1001.196	-1953
1001.272	-2664
1001.349	-1847
1001.425	-1828
1001.501	-2373
1001.577	-2096
1001.654	-1781
1001.730	-2670
1001.806	-2681
1001.882	-2735
1001.958	-1767
1002.034	-2220
1002.110	-2404
1002.186	-2594
1002.262	-1966
1002.338	-2294
1002.414	-1728
1002.490	-1450
1002.566	-2523
1002.642	-2210
1002.718	-613
1002.794	-2204
1002.870	-2291
1002.945	-2634
1003.021	-2877
1003.097	-1549
1003.173	-1456
1003.248	-2205
1003.324	-2210
1003.400	-1375
1003.475	-1782
1003.551	-1770
1003.626	-2238
1003.702	-1427
1003.777	-1986
1003.853	-2659
1003.928	-3001
1004.004	-1774
1004.079	-1835
1004.155	-2362
1004.230	-2752
1004.305	-1488
1004.381	-3290
1004.456	-2333
1004.531	-944
1004.607	-1897
1004.682	-2302
1004.757	-2360
1004.832	-2617
1004.907	-2906
1004.982	-1878
1005.057	-2467
1005.133	-2694
1005.208	-2938
1005.283	-1526
1005.358	-1903
1005.433	-2537
1005.508	-2715
1005.583	-2433
1005.657	-2400
1005.732	-2455
1005.807	-2597
1005.882	-2679
1005.957	-2019
1006.032	-1867
1006.106	-1909
1006.181	-3143
1006.256	-2263
1006.331	-2886
1006.405	-2430
1006.480	-2113
1006.554	-1960
1006.629	-2057
1006.704	-2232
1006.778	-2867
1006.853	-2274
1006.927	-2696
1007.002	-3213
1007.076	-2166
1007.150	-2135
1007.225	-1919
1007.299	-2429
1007.373	-3003
1007.448	-2202
1007.522	-2304
1007.596	-3024
1007.671	-2375
1007.745	-1920
1007.819	-3219
1007.893	-2554
1007.967	-1894
1008.041	-3371
1008.115	-1937
1008.190	-2644
1008.264	-2122
1008.338	-2659
1008.412	-3134
1008.486	-2305
1008.560	-2241
1008.633	-2786
1008.707	-2771
1008.781	-1187
1008.855	-2355
1008.929	-2741
1009.003	-2743
1009.076	-2499
1009.150	-2256
1009.224	-2743
1009.298	-2308
1009.371	-2548
1009.445	-1660
1009.519	-2527
1009.592	-3207
1009.666	-2034
1009.739	-2160
1009.813	-3228
1009.886	-1200
1009.960	-4144
1010.033	-2279
1010.107	-1547
1010.180	-3619
1010.253	-1854
1010.327	-2407
1010.400	-2498
1010.473	-3052
1010.547	-884
1010.620	-2117
1010.693	-2914
1010.766	-2578
1010.840	-2496
1010.913	-2330
1010.986	-2326
1011.059	-2796
1011.132	-3139
1011.205	-1584
1011.278	-2804
1011.351	-2834
1011.424	-2593
1011.497	-2253
1011.570	-2786
1011.643	-2068
1011.716	-2425
1011.789	-2608
1011.862	-1999
1011.934	-1353
1012.007	-3087
1012.080	-2601
1012.153	-2439
1012.225	-1612
1012.298	-4218
1012.371	-2197
1012.443	-2331
1012.516	-3115
1012.588	-2500
1012.661	-2837
1012.733	-2889
1012.806	-2487
1012.879	-2364
1012.951	-2056
1013.023	-2485
1013.096	-2230
1013.168	-2322
1013.241	-1650
1013.313	-2018
1013.385	-2759
1013.458	-3305
1013.530	-2833
1013.602	-3359
1013.674	-2223
1013.746	-2564
1013.819	-2280
1013.891	-2007
1013.963	-3491
1014.035	-2549
1014.107	-2272
1014.179	-2163
1014.251	-2797
1014.323	-2018
1014.395	-1828
1014.467	-1717
1014.539	-2640
1014.611	-2302
1014.683	-2685
1014.754	-2934
1014.826	-2854
1014.898	-2674
1014.970	-3050
1015.042	-2379
1015.113	-2292
1015.185	-1998
1015.257	-3095
1015.328	-2559
1015.400	-3164
1015.471	-3066
1015.543	-3454
1015.615	-2143
1015.686	-2034
1015.757	-2214
1015.829	-1715
1015.901	-2970
1015.972	-2552
1016.043	-2690
1016.115	-2399
1016.186	-2390
1016.257	-2699
1016.328	-2426
1016.400	-1555
1016.471	-3451
1016.542	-2165
1016.613	-1829
1016.685	-2877
1016.756	-2070
1016.827	-2445
1016.898	-2977
1016.969	-1327
1017.040	-2607
1017.111	-2712
1017.182	-2531
1017.253	-2099
1017.324	-2158
1017.395	-2971
1017.466	-2222
1017.537	-3179
1017.608	-2449
1017.678	-2434
1017.749	-2788
1017.820	-2384
1017.891	-2859
1017.961	-3204
1018.032	-2350
1018.103	-1818
1018.173	-2610
1018.244	-2415
1018.315	-2649
1018.385	-2073
1018.456	-2134
1018.526	-3230
1018.597	-2128
1018.667	-2538
1018.738	-3006
1018.808	-2815
1018.878	-2752
1018.949	-2801
1019.019	-2471
1019.089	-2372
1019.160	-1782
1019.230	-3461
1019.300	-1525
1019.371	-2762
1019.441	-2547
1019.511	-3213
1019.581	-2524
1019.651	-2752
1019.721	-2384
1019.791	-2050
1019.861	-2791
1019.931	-2372
1020.001	-3405
1020.071	-2656
1020.141	-2481
1020.211	-2581
1020.281	-2258
1020.351	-2572
1020.421	-2486
1020.491	-2446
1020.560	-2940
1020.630	-1623
1020.700	-2497
1020.770	-2497
1020.839	-2893
1020.909	-2511
1020.979	-2604
1021.048	-2709
1021.118	-2334
1021.187	-2400
1021.257	-2343
1021.326	-2131
1021.396	-2279
1021.465	-2779
1021.535	-2883
1021.604	-2520
1021.674	-2211
1021.743	-2397
1021.812	-2858
1021.882	-1846
1021.951	-2991
1022.020	-2373
1022.089	-1826
1022.159	-3602
1022.228	-2567
1022.297	-2562
1022.366	-2592
1022.435	-2523
1022.504	-2879
1022.573	-2455
1022.642	-2665
1022.711	-3143
1022.781	-2464
1022.849	-2412
1022.918	-3387
1022.987	-2527
1023.056	-2928
1023.125	-2206
1023.194	-2614
1023.263	-2157
1023.331	-2616
1023.400	-2538
1023.469	-2588
1023.538	-2166
1023.606	-2366
1023.675	-2646
1023.744	-3204
1023.812	-2897
1023.881	-3142
1023.949	-2349
1024.018	-2315
1024.086	-1396
1024.155	-2872
1024.223	-3145
1024.292	-2153
1024.360	-2816
1024.429	-2334
1024.497	-2830
1024.565	-2244
1024.634	-2450
1024.702	-3075
1024.770	-2606
1024.838	-2082
1024.907	-1987
1024.975	-3435
1025.043	-2467
1025.111	-2892
1025.179	-2063
1025.247	-2470
1025.315	-3086
1025.383	-2280
1025.451	-2548
1025.519	-2616
1025.587	-3123
1025.655	-1443
1025.723	-3175
1025.791	-2695
1025.859	-2557
1025.927	-2277
1025.995	-2416
1026.062	-2558
1026.130	-2205
1026.198	-2569
1026.266	-2551
1026.333	-2790
1026.401	-1877
1026.469	-2111
1026.536	-2434
1026.604	-2391
1026.671	-2333
1026.739	-2997
1026.806	-2509
1026.874	-2207
1026.941	-2149
1027.009	-2408
1027.076	-2496
1027.144	-1813
1027.211	-2842
1027.278	-2584
1027.345	-2653
1027.413	-2346
1027.480	-2654
1027.547	-1647
1027.614	-2113
1027.682	-1639
1027.749	-2776
1027.816	-2437
1027.883	-1855
1027.950	-2968
1028.017	-3591
1028.084	-2078
1028.151	-3183
1028.218	-2423
1028.285	-2961
1028.352	-2160
1028.419	-2431
1028.486	-2957
1028.553	-2564
1028.619	-2530
1028.686	-2357
1028.753	-2302
1028.820	-2595
1028.886	-2860
1028.953	-3075
1029.020	-2916
1029.086	-3272
1029.153	-2523
1029.220	-2762
1029.286	-2864
1029.353	-2085
1029.419	-3056
1029.486	-2515
1029.552	-2921
1029.619	-3362
1029.685	-2592
1029.751	-2856
1029.818	-2167
1029.884	-3383
1029.951	-1458
1030.017	-3441
1030.083	-2153
1030.149	-2231
1030.216	-2580
1030.282	-2790
1030.348	-2543
1030.414	-2024
1030.480	-2033
1030.546	-2933
1030.612	-2706
1030.678	-2465
1030.744	-3484
1030.810	-2307
1030.876	-2274
1030.942	-2612
1031.008	-2300
1031.074	-2731
1031.140	-2323
1031.206	-2424
1031.272	-2943
1031.337	-2324
1031.403	-2918
1031.469	-1727
1031.534	-2304
1031.600	-2640
1031.666	-2747
1031.731	-2564
1031.797	-1732
1031.863	-3065
1031.928	-2157
1031.994	-1865
1032.059	-2730
1032.125	-2447
1032.190	-2869
1032.256	-3602
1032.321	-3175
1032.386	-1959
1032.452	-2387
1032.517	-3082
1032.582	-3247
1032.647	-2727
1032.713	-3074
1032.778	-3404
1032.843	-2032
1032.908	-2389
1032.974	-3536
1033.039	-3269
1033.104	-2298
1033.169	-2719
1033.234	-3268
1033.299	-2055
1033.364	-3565
1033.429	-2750
1033.494	-2445
1033.559	-3683
1033.624	-2108
1033.688	-2387
1033.753	-2878
1033.818	-2739
1033.883	-2231
1033.948	-2014
1034.013	-3002
1034.077	-3267
1034.142	-1986
1034.207	-3254
1034.271	-2275
1034.336	-2854
1034.400	-1942
1034.465	-1938
1034.530	-2851
1034.594	-2768
1034.658	-3225
1034.723	-2974
1034.787	-2384
1034.852	-3193
1034.916	-2848
1034.981	-2689
1035.045	-2636
1035.109	-3321
1035.173	-2053
1035.238	-3068
1035.302	-2560
1035.366	-2471
1035.430	-3543
1035.495	-2649
1035.559	-1686
1035.623	-3415
1035.687	-2960
1035.751	-3209
1035.815	-3740
1035.879	-3318
1035.943	-2915
1036.007	-2315
1036.071	-2191
1036.135	-3392
1036.198	-2420
1036.262	-2333
1036.326	-2882
1036.390	-2420
1036.454	-2547
1036.517	-3036
1036.581	-3116
1036.645	-2365
1036.709	-2461
1036.772	-3353
1036.836	-3033
1036.900	-3364
1036.963	-2459
1037.026	-2617
1037.090	-2853
1037.154	-2024
1037.217	-3671
1037.280	-2995
1037.344	-3024
1037.407	-3220
1037.471	-3049
1037.534	-3210
1037.597	-2581
1037.661	-2335
1037.724	-2510
1037.787	-3331
1037.850	-3258
1037.913	-2307
1037.977	-2334
1038.040	-3413
1038.103	-2989
1038.166	-2558
1038.229	-3230
1038.292	-3238
1038.355	-2692
1038.418	-2335
1038.481	-2351
1038.544	-2402
1038.607	-2972
1038.670	-2603
1038.732	-2396
1038.795	-3532
1038.858	-2888
1038.921	-2337
1038.984	-2377
1039.046	-3377
1039.109	-2806
1039.172	-2467
1039.234	-3263
1039.297	-2552
1039.360	-2361
1039.422	-2568
1039.485	-2894
1039.547	-3013
1039.610	-3299
1039.672	-3264
1039.734	-2902
1039.797	-3140
1039.859	-3167
1039.922	-2895
1039.984	-2905
1040.046	-3317
1040.109	-3168
1040.171	-3305
1040.233	-2775
1040.295	-3228
1040.358	-2781
1040.420	-2946
1040.482	-3231
1040.544	-2991
1040.606	-2528
1040.668	-3135
1040.730	-2302
1040.792	-3306
1040.854	-2700
1040.916	-3145
1040.978	-3457
1041.040	-3285
1041.102	-2189
1041.164	-2958
1041.225	-2521
1041.287	-3004
1041.349	-2081
1041.411	-3129
1041.472	-2813
1041.534	-2761
1041.596	-3570
1041.657	-2129
1041.719	-2880
1041.781	-3000
1041.842	-3429
1041.904	-2785
1041.965	-3508
1042.027	-2543
1042.088	-3071
1042.150	-2471
1042.211	-3011
1042.272	-2394
1042.334	-3403
1042.395	-3616
1042.456	-2844
1042.518	-2988
1042.579	-2456
1042.640	-2872
1042.701	-2147
1042.763	-2935
1042.824	-3053
1042.885	-2717
1042.946	-3451
1043.007	-1981
1043.068	-3355
1043.129	-2881
1043.190	-2970
1043.251	-3308
1043.312	-2858
1043.373	-2413
1043.434	-2522
1043.495	-2974
1043.556	-2352
1043.616	-2652
1043.677	-2998
1043.738	-2796
1043.799	-3260
1043.859	-1934
1043.920	-3074
1043.981	-3031
1044.041	-3167
1044.102	-3572
1044.162	-2783
1044.223	-2973
1044.284	-2810
1044.344	-2571
1044.405	-3524
1044.465	-2675
1044.525	-2897
1044.586	-2856
1044.646	-2745
1044.707	-2814
1044.767	-2692
1044.827	-3149
1044.887	-3103
1044.948	-2327
1045.008	-2624
1045.068	-3097
1045.128	-3324
1045.188	-2297
1045.249	-2064
1045.309	-2600
1045.369	-2497
1045.429	-3335
1045.489	-2536
1045.549	-2199
1045.609	-2124
1045.669	-3099
1045.729	-3707
1045.789	-2870
1045.848	-2834
1045.908	-3319
1045.968	-2558
1046.028	-2716
1046.088	-2890
1046.147	-2133
1046.207	-2875
1046.267	-2502
1046.326	-2169
1046.386	-2945
1046.446	-1613
1046.505	-1454
1046.565	-1705
1046.624	-1855
1046.684	-2302
1046.743	-1536
1046.803	-1804
1046.862	-1125
1046.922	0
