'Start Wavelength	183.907
'End Wavelength	1046.922
'Gate Delay	5.000
'Gate Width (ms)	1.050
'Laser Output Level	0.000
'X Position	0.000
'Y Position	0.000
'Z Position	0.000
'Grid Point Number	1.000
'Shot Number	100.000
183.907	-1.000
183.977	-9.000
184.047	376
184.116	263
184.186	514
184.256	-205
184.325	-154
184.395	-529
184.465	145
184.534	343
184.604	-1136
184.674	865
184.743	-245
184.813	229
184.883	383
184.952	465
185.022	294
185.092	-303
185.161	-376
185.231	398
185.301	-424
185.370	833
185.440	118
185.509	-129
185.579	-523
185.649	166
185.718	-241
185.788	259
185.857	673
185.927	-625
185.996	-280
186.066	-535
186.136	117
186.205	122
186.275	-438
186.344	111
186.414	-244
186.483	-508
186.553	549
186.622	860
186.692	217
186.761	606
186.831	191
186.900	165
186.970	376
187.039	-35
187.109	948
187.178	232
187.248	-334
187.317	622
187.387	-869
187.456	6
187.526	-299
187.595	966
187.664	382
187.734	296
187.803	-25
187.873	502
187.942	-214
188.012	284
188.081	-82
188.150	808
188.220	345
188.289	-85
188.358	301
188.428	704
188.497	-606
188.567	1108
188.636	-929
188.705	-90
188.775	35
188.844	-282
188.913	303
188.983	146
189.052	243
189.121	93
189.191	-294
189.260	265
189.329	-317
189.399	330
189.468	-290
189.537	-31
189.606	-628
189.676	330
189.745	413
189.814	389
189.883	-151
189.953	-485
190.022	-657
190.091	873
190.161	1061
190.230	500
190.299	-479
190.368	83
190.437	-249
190.507	759
190.576	53
190.645	512
190.714	-344
190.783	132
190.853	294
190.922	504
190.991	-131
191.060	814
191.129	20
191.198	632
191.268	404
191.337	-179
191.406	389
191.475	894
191.544	126
191.613	-274
191.682	-548
191.752	229
191.821	-780
191.890	362
191.959	-257
192.028	174
192.097	-570
192.166	873
192.235	-193
192.304	545
192.373	-292
192.442	342
192.511	-533
192.580	444
192.650	-550
192.719	-119
192.788	-354
192.857	587
192.926	-427
192.995	158
193.064	125
193.133	685
193.202	-106
193.271	513
193.340	92
193.409	246
193.478	-294
193.547	344
193.615	434
193.684	984
193.753	-429
193.822	403
193.891	-347
193.960	403
194.029	620
194.098	-234
194.167	-646
194.236	-234
194.305	-440
194.374	-317
194.443	-326
194.512	88
194.580	218
194.649	990
194.718	378
194.787	266
194.856	-455
194.925	536
194.994	363
195.062	-58
195.131	116
195.200	448
195.269	1025
195.338	615
195.407	-65
195.475	-354
195.544	153
195.613	407
195.682	235
195.751	776
195.819	490
195.888	847
195.957	962
196.026	514
196.094	815
196.163	984
196.232	48
196.301	330
196.369	375
196.438	408
196.507	-889
196.576	981
196.644	-300
196.713	935
196.782	115
196.850	521
196.919	-169
196.988	675
197.056	0
197.125	874
197.194	337
197.262	-479
197.331	-485
197.400	32
197.468	344
197.537	282
197.606	212
197.674	660
197.743	712
197.812	-601
197.880	1051
197.949	1308
198.017	737
198.086	880
198.155	38
198.223	210
198.292	1532
198.360	165
198.429	232
198.497	438
198.566	1195
198.635	1165
198.703	1186
198.772	1143
198.840	1025
198.909	2013
198.977	5
199.046	517
199.114	554
199.183	164
199.251	374
199.320	-489
199.388	-63
199.457	-276
199.525	256
199.594	-467
199.662	-266
199.731	-39
199.799	-356
199.867	1543
199.936	-820
200.004	664
200.073	488
200.141	629
200.210	50
200.278	-358
200.346	-454
200.415	401
200.483	482
200.552	670
200.620	-49
200.688	-385
200.757	489
200.825	575
200.893	271
200.962	396
201.030	215
201.098	152
201.167	70
201.235	479
201.303	-123
201.372	845
201.440	523
201.508	198
201.577	241
201.645	955
201.713	-760
201.781	334
201.850	169
201.918	707
201.986	164
202.055	292
202.123	-718
202.191	693
202.259	-317
202.327	906
202.396	-98
202.464	479
202.532	-126
202.600	2515
202.669	1172
202.737	478
202.805	-207
202.873	291
202.941	-266
203.009	243
203.078	436
203.146	738
203.214	44
203.282	3
203.350	72
203.418	301
203.487	260
203.555	393
203.623	239
203.691	313
203.759	-405
203.827	444
203.895	-77
203.963	86
204.031	-910
204.099	335
204.168	-1203
204.236	542
204.304	-438
204.372	255
204.440	-562
204.508	170
204.576	-847
204.644	1138
204.712	-899
204.780	227
204.848	538
204.916	261
204.984	249
205.052	-3
205.120	460
205.188	317
205.256	-700
205.324	133
205.392	-444
205.460	127
205.528	-514
205.596	482
205.664	311
205.732	180
205.799	1639
205.867	2434
205.935	-584
206.003	790
206.071	-850
206.139	196
206.207	-45
206.275	712
206.343	-498
206.411	-200
206.478	124
206.546	-43
206.614	693
206.682	-350
206.750	-457
206.818	919
206.885	421
206.953	-101
207.021	515
207.089	532
207.157	-604
207.225	560
207.292	-1047
207.360	-283
207.428	-178
207.496	829
207.563	-138
207.631	332
207.699	291
207.767	284
207.834	-614
207.902	357
207.970	-324
208.038	203
208.105	-511
208.173	966
208.241	36
208.309	764
208.376	533
208.444	1390
208.512	402
208.579	-643
208.647	-71
208.715	1063
208.782	87
208.850	-183
208.918	-716
208.985	1336
209.053	301
209.120	592
209.188	-1336
209.256	-602
209.323	120
209.391	420
209.459	1148
209.526	545
209.594	-418
209.661	204
209.729	653
209.796	863
209.864	1155
209.932	62
209.999	1436
210.067	1294
210.134	653
210.202	773
210.269	1464
210.337	1368
210.404	639
210.472	619
210.539	890
210.607	-414
210.674	1262
210.742	967
210.809	-210
210.877	460
210.944	1484
211.012	-63
211.079	2156
211.146	416
211.214	220
211.281	1219
211.349	-241
211.416	1395
211.484	1181
211.551	1215
211.618	731
211.686	865
211.753	-276
211.821	-125
211.888	-36
211.955	1099
212.023	-36
212.090	739
212.157	-155
212.225	1091
212.292	1146
212.359	2454
212.427	8699
212.494	3539
212.561	658
212.629	864
212.696	109
212.763	983
212.831	-47
212.898	1449
212.965	28
213.032	1300
213.100	708
213.167	410
213.234	1037
213.301	1324
213.369	571
213.436	1103
213.503	-337
213.570	819
213.638	390
213.705	347
213.772	-281
213.839	549
213.906	932
213.973	711
214.041	-2
214.108	1351
214.175	1226
214.242	311
214.309	489
214.376	406
214.444	-381
214.511	1221
214.578	225
214.645	744
214.712	969
214.779	1368
214.846	407
214.913	868
214.980	1433
215.048	964
215.115	1613
215.182	1726
215.249	362
215.316	933
215.383	717
215.450	782
215.517	481
215.584	1213
215.651	-237
215.718	699
215.785	784
215.852	1262
215.919	1170
215.986	1634
216.053	681
216.120	11
216.187	678
216.254	1315
216.321	957
216.388	1335
216.455	1495
216.522	629
216.589	1169
216.656	2725
216.722	2932
216.789	1966
216.856	871
216.923	1688
216.990	760
217.057	946
217.124	745
217.191	840
217.258	1283
217.324	1845
217.391	2043
217.458	1302
217.525	611
217.592	1127
217.659	-812
217.725	1690
217.792	2336
217.859	2509
217.926	2
217.993	1644
218.059	1800
218.126	690
218.193	539
218.260	639
218.327	956
218.393	1196
218.460	874
218.527	239
218.594	955
218.660	2370
218.727	2967
218.794	770
218.860	749
218.927	945
218.994	762
219.061	-288
219.127	774
219.194	2283
219.261	1423
219.327	331
219.394	1028
219.461	10
219.527	653
219.594	2020
219.661	389
219.727	-127
219.794	728
219.860	105
219.927	173
219.994	423
220.060	3073
220.127	2934
220.193	814
220.260	511
220.326	1405
220.393	1444
220.460	1534
220.526	1373
220.593	565
220.659	3121
220.726	969
220.792	4155
220.859	2351
220.925	3237
220.992	4436
221.058	5682
221.125	5581
221.191	4258
221.258	688
221.324	1350
221.391	364
221.457	-27
221.524	1108
221.590	2279
221.657	5567
221.723	3656
221.789	3121
221.856	4088
221.922	907
221.989	2368
222.055	821
222.121	315
222.188	2476
222.254	1436
222.321	838
222.387	296
222.453	349
222.520	511
222.586	-44
222.652	1266
222.719	178
222.785	913
222.851	710
222.918	809
222.984	440
223.050	113
223.116	-532
223.183	1630
223.249	40
223.315	-175
223.382	1299
223.448	941
223.514	-641
223.580	394
223.647	-346
223.713	121
223.779	629
223.845	526
223.911	1409
223.978	253
224.044	660
224.110	43
224.176	335
224.242	825
224.309	160
224.375	991
224.441	339
224.507	763
224.573	-519
224.639	430
224.705	197
224.772	627
224.838	131
224.904	693
224.970	572
225.036	459
225.102	-139
225.168	1162
225.234	1461
225.300	108
225.366	50
225.432	1054
225.499	-126
225.565	1154
225.631	-222
225.697	1271
225.763	1639
225.829	500
225.895	582
225.961	3165
226.027	1624
226.093	1135
226.159	1356
226.225	2322
226.291	3809
226.357	7210
226.423	3437
226.489	2934
226.554	1922
226.620	2020
226.686	2174
226.752	3741
226.818	3418
226.884	10045
226.950	9202
227.016	3538
227.082	1986
227.148	1605
227.214	1921
227.279	1930
227.345	415
227.411	1174
227.477	990
227.543	3507
227.609	3423
227.674	2058
227.740	942
227.806	1578
227.872	841
227.938	731
228.003	2340
228.069	1045
228.135	438
228.201	661
228.267	762
228.332	2263
228.398	1393
228.464	1962
228.530	-203
228.595	1317
228.661	-1071
228.727	1900
228.792	3600
228.858	801
228.924	-798
228.990	2210
229.055	-27
229.121	1728
229.187	1305
229.252	1423
229.318	755
229.384	1071
229.449	2038
229.515	52
229.581	-763
229.646	1939
229.712	675
229.777	3047
229.843	4054
229.909	3124
229.974	1958
230.040	2668
230.105	2055
230.171	1657
230.236	1949
230.302	3452
230.368	2764
230.433	1642
230.499	1566
230.564	2044
230.630	497
230.695	1780
230.761	1011
230.826	302
230.892	2265
230.957	1217
231.023	28
231.088	1033
231.154	827
231.219	1810
231.284	1801
231.350	2061
231.415	-317
231.481	1974
231.546	317
231.612	1753
231.677	-159
231.742	295
231.808	1883
231.873	1135
231.939	-698
232.004	2684
232.069	3035
232.135	1008
232.200	-317
232.265	1079
232.331	119
232.396	1366
232.461	-368
232.527	90
232.592	478
232.657	726
232.723	1896
232.788	2034
232.853	1701
232.918	1029
232.984	214
233.049	856
233.114	997
233.179	2030
233.245	3188
233.310	4394
233.375	239
233.440	1235
233.506	546
233.571	220
233.636	1031
233.701	114
233.766	2257
233.832	4085
233.897	1297
233.962	369
234.027	3466
234.092	2524
234.157	1080
234.222	1664
234.288	1751
234.353	8325
234.418	8388
234.483	5389
234.548	2756
234.613	3114
234.678	2122
234.743	1971
234.808	9143
234.873	5651
234.938	2948
235.004	2447
235.069	2196
235.134	1462
235.199	2511
235.264	1888
235.329	-375
235.394	2708
235.459	2491
235.524	1865
235.589	1643
235.654	1598
235.719	405
235.784	1391
235.849	1194
235.913	4726
235.978	4927
236.043	5666
236.108	2199
236.173	1105
236.238	2369
236.303	75
236.368	847
236.433	2844
236.498	4757
236.563	3364
236.627	2978
236.692	13544
236.757	10323
236.822	5923
236.887	3177
236.952	3788
237.017	1299
237.081	3743
237.146	2524
237.211	5082
237.276	11714
237.341	25665
237.405	12416
237.470	5384
237.535	3641
237.600	2742
237.664	2873
237.729	1718
237.794	1314
237.859	4051
237.923	3110
237.988	2837
238.053	3846
238.118	3691
238.182	9471
238.247	11495
238.312	4169
238.376	3563
238.441	1694
238.506	3158
238.570	514
238.635	2029
238.700	1355
238.764	1927
238.829	3852
238.893	6770
238.958	3130
239.023	2758
239.087	1215
239.152	2195
239.216	1250
239.281	1556
239.346	1398
239.410	767
239.475	1939
239.539	10319
239.604	7216
239.668	3533
239.733	1470
239.797	2704
239.862	5313
239.926	9333
239.991	4201
240.055	2107
240.120	783
240.184	1795
240.249	733
240.313	2275
240.378	1747
240.442	5336
240.507	10095
240.571	3651
240.635	3896
240.700	6319
240.764	2321
240.829	1785
240.893	17
240.957	1723
241.022	5259
241.086	10904
241.151	4339
241.215	1272
241.279	2598
241.344	5365
241.408	3379
241.472	2054
241.537	2966
241.601	2954
241.665	624
241.730	1050
241.794	2482
241.858	1299
241.922	1976
241.987	2464
242.051	1584
242.115	712
242.179	2104
242.244	1611
242.308	1888
242.372	2106
242.436	1702
242.501	2203
242.565	888
242.629	1311
242.693	2072
242.757	954
242.822	1881
242.886	2044
242.950	2431
243.014	2491
243.078	2498
243.142	3026
243.206	1454
243.271	3397
243.335	694
243.399	3948
243.463	7525
243.527	27306
243.591	9042
243.655	4233
243.719	788
243.783	3664
243.847	3223
243.911	5373
243.975	6896
244.040	5003
244.104	3173
244.168	1864
244.232	2674
244.296	5876
244.360	4853
244.424	2794
244.488	2428
244.552	2749
244.615	191
244.679	2827
244.743	1306
244.807	2938
244.871	1904
244.935	2110
244.999	308
245.063	1870
245.127	2792
245.191	3776
245.255	3074
245.319	4441
245.383	2102
245.446	3500
245.510	1120
245.574	2870
245.638	2689
245.702	893
245.766	6221
245.829	4982
245.893	2064
245.957	1998
246.021	2955
246.085	2475
246.149	2913
246.212	9645
246.276	14973
246.340	6438
246.404	4100
246.467	4978
246.531	5846
246.595	5282
246.659	4146
246.722	2657
246.786	5390
246.850	4508
246.913	6425
246.977	2022
247.041	2739
247.104	3039
247.168	3425
247.232	8725
247.295	20993
247.359	10471
247.423	3371
247.486	8691
247.550	5781
247.614	3242
247.677	5060
247.741	3459
247.804	2631
247.868	4101
247.932	7282
247.995	20750
248.059	7486
248.122	3281
248.186	4954
248.249	7364
248.313	29550
248.376	35136
248.440	21569
248.503	7286
248.567	7459
248.630	8148
248.694	12266
248.757	15884
248.821	33926
248.884	21684
248.948	16896
249.011	25741
249.075	38035
249.138	35116
249.202	14073
249.265	6683
249.328	9623
249.392	6345
249.455	6175
249.519	4321
249.582	5008
249.645	8506
249.709	6509
249.772	3996
249.835	4697
249.899	5436
249.962	4759
250.025	3663
250.089	11658
250.152	17737
250.215	7636
250.279	6400
250.342	5276
250.405	5269
250.468	4097
250.532	5808
250.595	8772
250.658	23692
250.721	46537
250.785	17466
250.848	10000
250.911	5398
250.974	5391
251.038	7395
251.101	18680
251.164	10136
251.227	9559
251.290	8195
251.354	9149
251.417	34722
251.480	38234
251.543	22744
251.606	66607
251.669	54814
251.732	19721
251.795	22959
251.859	22325
251.922	43122
251.985	28741
252.048	11253
252.111	7549
252.174	8192
252.237	16382
252.300	39593
252.363	32409
252.426	62421
252.489	28804
252.552	14453
252.615	9184
252.678	10137
252.741	27153
252.804	29349
252.867	59165
252.930	42073
252.993	23343
253.056	13468
253.119	8401
253.182	5626
253.245	10085
253.308	8775
253.371	9194
253.434	9478
253.497	8403
253.559	17869
253.622	12027
253.685	14754
253.748	16885
253.811	7735
253.874	9487
253.937	9936
254.000	6225
254.062	12303
254.125	19022
254.188	14385
254.251	13324
254.314	6366
254.376	11578
254.439	14151
254.502	12062
254.565	11527
254.628	23183
254.690	14310
254.753	6834
254.816	5499
254.878	6614
254.941	13139
255.004	14997
255.067	6717
255.129	6218
255.192	3374
255.255	1637
255.317	5035
255.380	2016
255.443	1960
255.505	2016
255.568	2150
255.631	1251
255.693	2668
255.756	1341
255.819	2653
255.881	1504
255.944	1565
256.006	1924
256.069	2054
256.132	1773
256.194	2728
256.257	9282
256.319	6797
256.382	7206
256.444	4721
256.507	2037
256.569	1823
256.632	2346
256.694	4651
256.757	7130
256.819	20595
256.882	7897
256.944	4334
257.007	4179
257.069	5622
257.132	2475
257.194	2862
257.257	1718
257.319	2270
257.381	1697
257.444	6662
257.506	23216
257.569	30812
257.631	20270
257.693	12160
257.756	4576
257.818	5301
257.880	1940
257.943	3769
258.005	1997
258.067	3618
258.130	1751
258.192	2903
258.254	7906
258.317	5698
258.379	2944
258.441	8965
258.503	9555
258.566	10515
258.628	15360
258.690	3417
258.753	3525
258.815	8136
258.877	3654
258.939	2231
259.001	2502
259.064	2852
259.126	3006
259.188	4865
259.250	4056
259.312	4093
259.375	11542
259.437	8784
259.499	3314
259.561	2896
259.623	2738
259.685	1805
259.747	2021
259.809	8963
259.872	19371
259.934	28339
259.996	25763
260.058	6892
260.120	2482
260.182	3238
260.244	1467
260.306	2002
260.368	2870
260.430	2670
260.492	3647
260.554	9345
260.616	9472
260.678	14493
260.740	21525
260.802	5668
260.864	3835
260.926	3578
260.988	4122
261.050	2675
261.112	4631
261.174	16179
261.236	17338
261.298	4988
261.359	8764
261.421	13803
261.483	4159
261.545	4175
261.607	707
261.669	3014
261.731	4490
261.793	16059
261.854	6561
261.916	4517
261.978	2072
262.040	2058
262.102	2562
262.164	5070
262.225	4536
262.287	2227
262.349	7772
262.411	6452
262.472	2913
262.534	4653
262.596	13309
262.658	4529
262.719	2177
262.781	3405
262.843	11481
262.904	5505
262.966	3690
263.028	4231
263.090	16523
263.151	47650
263.213	16205
263.275	8719
263.336	2675
263.398	2865
263.459	1223
263.521	2424
263.583	7324
263.644	5735
263.706	2418
263.767	524
263.829	1186
263.891	1073
263.952	221
264.014	754
264.075	182
264.137	3502
264.198	4264
264.260	918
264.321	163
264.383	3766
264.444	7626
264.506	2492
264.567	1728
264.629	2026
264.690	2175
264.752	2976
264.813	2166
264.875	793
264.936	1141
264.998	1140
265.059	730
265.120	1156
265.182	1491
265.243	8869
265.305	8649
265.366	2268
265.427	1879
265.489	1803
265.550	-532
265.611	1610
265.673	925
265.734	1430
265.795	1344
265.857	119
265.918	592
265.979	2558
266.040	14489
266.102	14658
266.163	4404
266.224	4326
266.286	2083
266.347	1112
266.408	1185
266.469	2441
266.530	1883
266.592	1309
266.653	3843
266.714	9571
266.775	2294
266.836	1410
266.898	434
266.959	2481
267.020	820
267.081	2602
267.142	766
267.203	1166
267.264	504
267.326	2194
267.387	928
267.448	394
267.509	112
267.570	1539
267.631	273
267.692	86
267.753	821
267.814	444
267.875	3295
267.936	11328
267.997	2786
268.058	4348
268.119	1423
268.180	1863
268.241	755
268.302	2065
268.363	1220
268.424	1984
268.485	1625
268.546	598
268.607	430
268.668	1424
268.729	936
268.790	1344
268.851	542
268.912	4925
268.972	9197
269.033	4288
269.094	390
269.155	1607
269.216	727
269.277	2355
269.338	2006
269.398	911
269.459	1295
269.520	3543
269.581	4843
269.642	6582
269.702	2871
269.763	2151
269.824	2078
269.885	2804
269.945	5950
270.006	2181
270.067	788
270.128	1010
270.188	1302
270.249	1101
270.310	481
270.370	1296
270.431	1749
270.492	1158
270.553	789
270.613	5377
270.674	11159
270.734	4730
270.795	2362
270.856	4011
270.916	3632
270.977	1893
271.038	3260
271.098	3272
271.159	4082
271.219	6233
271.280	2275
271.340	1735
271.401	1870
271.462	8170
271.522	4355
271.583	2327
271.643	2059
271.704	1930
271.764	2798
271.825	7977
271.885	27979
271.946	44214
272.006	13991
272.066	16665
272.127	34051
272.187	10856
272.248	4522
272.308	5309
272.369	19397
272.429	12936
272.489	7723
272.550	7967
272.610	8191
272.671	6469
272.731	4419
272.791	10059
272.852	5378
272.912	5895
272.972	2691
273.033	2237
273.093	3907
273.153	4794
273.214	2211
273.274	2976
273.334	9996
273.394	29368
273.455	12095
273.515	10315
273.575	24623
273.635	10704
273.696	12813
273.756	30166
273.816	12994
273.876	7042
273.936	10319
273.997	24132
274.057	6230
274.117	4584
274.177	6245
274.237	32996
274.297	32644
274.358	21061
274.418	24058
274.478	19779
274.538	6704
274.598	4517
274.658	18258
274.718	26723
274.778	10387
274.838	4867
274.898	8117
274.958	34529
275.018	31244
275.078	22211
275.138	8376
275.198	3843
275.258	2733
275.318	4790
275.378	9194
275.438	10737
275.498	6593
275.558	12760
275.618	33614
275.678	23898
275.738	11836
275.798	9377
275.858	3209
275.918	2231
275.978	3685
276.038	3957
276.098	1864
276.157	5429
276.217	20994
276.277	9820
276.337	6027
276.397	4232
276.457	3699
276.517	4061
276.576	2176
276.636	2054
276.696	4705
276.756	12180
276.815	9737
276.875	4140
276.935	4349
276.995	5087
277.055	2080
277.114	2349
277.174	3821
277.234	17087
277.293	7824
277.353	4376
277.413	2009
277.472	3074
277.532	2657
277.592	3514
277.651	9402
277.711	23816
277.771	7159
277.830	25544
277.890	22614
277.950	12651
278.009	43780
278.069	16870
278.128	13825
278.188	22993
278.248	8491
278.307	22308
278.367	14510
278.426	5906
278.486	2870
278.545	2099
278.605	1801
278.664	2545
278.724	2602
278.783	8738
278.843	31325
278.902	9493
278.962	5080
279.021	5087
279.081	5629
279.140	6154
279.199	5418
279.259	5796
279.318	5420
279.378	6210
279.437	10580
279.496	42817
279.556	109429
279.615	97891
279.675	25261
279.734	14265
279.793	21370
279.853	41361
279.912	16691
279.971	7811
280.031	7559
280.090	13773
280.149	27072
280.208	15783
280.268	64468
280.327	82884
280.386	20096
280.445	14840
280.505	14811
280.564	6983
280.623	4168
280.682	7974
280.742	14578
280.801	5271
280.860	3201
280.919	3001
280.978	2584
281.037	2352
281.097	1909
281.156	2816
281.215	1998
281.274	3749
281.333	16670
281.392	15600
281.451	3693
281.510	2402
281.569	2251
281.628	1988
281.688	1177
281.747	2352
281.806	2617
281.865	1813
281.924	1084
281.983	1431
282.042	285
282.101	1577
282.160	917
282.219	851
282.278	2549
282.337	10017
282.396	8150
282.454	3078
282.513	3198
282.572	15640
282.631	10536
282.690	3434
282.749	1792
282.808	3510
282.867	2315
282.926	4655
282.985	1729
283.043	1805
283.102	1205
283.161	2456
283.220	6466
283.279	18790
283.338	5680
283.396	2199
283.455	2340
283.514	3004
283.573	6572
283.631	4626
283.690	2871
283.749	2529
283.808	5707
283.866	9628
283.925	2336
283.984	2270
284.043	3180
284.101	5332
284.160	1943
284.219	3369
284.277	3143
284.336	6144
284.395	21638
284.453	21387
284.512	5881
284.570	8639
284.629	7516
284.688	6049
284.746	6110
284.805	8054
284.863	8967
284.922	13278
284.981	13493
285.039	19315
285.098	31619
285.156	76935
285.215	179933
285.273	181863
285.332	99402
285.390	51146
285.449	28539
285.507	18775
285.566	13171
285.624	10855
285.683	7971
285.741	6642
285.799	5235
285.858	6369
285.916	5103
285.975	3976
286.033	2175
286.091	2374
286.150	2162
286.208	2936
286.267	2759
286.325	4402
286.383	7003
286.442	6528
286.500	1926
286.558	2170
286.616	1681
286.675	3489
286.733	3460
286.791	2949
286.850	3303
286.908	5244
286.966	10278
287.024	3707
287.083	2072
287.141	2032
287.199	2065
287.257	4101
287.315	3388
287.374	2863
287.432	9844
287.490	7357
287.548	3349
287.606	2880
287.664	1675
287.723	4039
287.781	5226
287.839	2903
287.897	3659
287.955	4525
288.013	5296
288.071	11146
288.129	44626
288.187	158870
288.245	76855
288.303	22308
288.361	11184
288.419	6758
288.477	4524
288.535	3247
288.593	2390
288.651	2526
288.709	2031
288.767	2325
288.825	2252
288.883	2018
288.941	906
288.999	1694
289.057	1266
289.115	990
289.173	974
289.231	2143
289.289	1393
289.346	1429
289.404	2115
289.462	5328
289.520	5931
289.578	2524
289.636	1024
289.694	153
289.751	828
289.809	545
289.867	574
289.925	3348
289.983	4044
290.040	1887
290.098	834
290.156	2149
290.214	3215
290.271	1944
290.329	854
290.387	1046
290.444	496
290.502	763
290.560	-127
290.617	1011
290.675	776
290.733	1473
290.790	1838
290.848	1529
290.906	1472
290.963	1940
291.021	1462
291.078	919
291.136	591
291.194	5728
291.251	17603
291.309	6347
291.366	1240
291.424	1707
291.481	1936
291.539	2190
291.596	1153
291.654	551
291.711	824
291.769	1513
291.826	6301
291.884	4227
291.941	1191
291.999	1630
292.056	2767
292.114	3001
292.171	1835
292.228	2364
292.286	1973
292.343	6685
292.401	8791
292.458	4998
292.515	2440
292.573	4450
292.630	3640
292.687	4232
292.745	1829
292.802	2104
292.859	6722
292.917	21275
292.974	14802
293.031	4402
293.089	1878
293.146	2483
293.203	952
293.260	1985
293.318	3324
293.375	4320
293.432	1617
293.489	1381
293.546	1028
293.604	2872
293.661	11903
293.718	37839
293.775	18721
293.832	9125
293.889	6060
293.947	7802
294.004	5715
294.061	4260
294.118	8776
294.175	17724
294.232	13650
294.289	6424
294.346	3309
294.403	3877
294.460	3492
294.517	4019
294.574	1929
294.631	2300
294.688	2452
294.745	9103
294.802	35042
294.859	33205
294.916	15940
294.973	11433
295.030	7513
295.087	6412
295.144	2989
295.201	3259
295.258	2280
295.315	3126
295.372	13516
295.429	31461
295.486	14724
295.542	6944
295.599	6725
295.656	13895
295.713	14342
295.770	27338
295.827	11184
295.883	4642
295.940	3805
295.997	7654
296.054	8738
296.111	4351
296.167	2401
296.224	2707
296.281	2616
296.338	2820
296.394	1612
296.451	2750
296.508	10844
296.564	22619
296.621	14435
296.678	31517
296.734	50984
296.791	19592
296.848	9038
296.904	8087
296.961	19772
297.018	33503
297.074	24989
297.131	9038
297.187	5439
297.244	7702
297.301	29924
297.357	59674
297.414	22479
297.470	9571
297.527	4845
297.583	3745
297.640	3957
297.696	3096
297.753	2582
297.809	2385
297.866	1869
297.922	2229
297.979	2031
298.035	2347
298.092	4963
298.148	17093
298.204	19018
298.261	8575
298.317	12632
298.374	41932
298.430	26864
298.486	12701
298.543	7884
298.599	6507
298.656	5847
298.712	10951
298.768	25779
298.824	18102
298.881	6272
298.937	4417
298.993	2499
299.050	5398
299.106	4611
299.162	3955
299.218	4158
299.275	4474
299.331	3744
299.387	8286
299.443	33293
299.500	41500
299.556	15239
299.612	8020
299.668	6885
299.724	6429
299.780	7934
299.837	4735
299.893	6282
299.949	27581
300.005	35318
300.061	29283
300.117	49553
300.173	26896
300.229	10849
300.285	10942
300.341	15592
300.397	7890
300.453	3660
300.510	3903
300.566	3735
300.622	5064
300.678	12507
300.734	29582
300.790	30611
300.845	37691
300.901	23345
300.957	30184
301.013	25198
301.069	10364
301.125	5795
301.181	7253
301.237	4929
301.293	3733
301.349	2274
301.405	2824
301.461	2908
301.516	3521
301.572	3856
301.628	10527
301.684	9172
301.740	11587
301.796	20985
301.851	14886
301.907	23310
301.963	23835
302.019	34277
302.074	98550
302.130	106451
302.186	51817
302.242	20789
302.297	12601
302.353	9451
302.409	19671
302.464	17925
302.520	14720
302.576	35855
302.631	46219
302.687	27157
302.743	12605
302.798	6762
302.854	3881
302.910	4457
302.965	5079
303.021	11764
303.076	12378
303.132	15027
303.187	19798
303.243	10593
303.299	5438
303.354	3750
303.410	3006
303.465	2409
303.521	2662
303.576	3506
303.632	4530
303.687	8012
303.743	31565
303.798	29186
303.853	12042
303.909	5635
303.964	5104
304.020	7715
304.075	14364
304.130	11528
304.186	23237
304.241	25525
304.297	21311
304.352	10554
304.358	10098
304.407	6398
304.449	5631
304.463	5382
304.518	6323
304.539	6066
304.573	5638
304.629	4873
304.630	4916
304.684	7294
304.720	18754
304.739	24429
304.794	40735
304.811	35134
304.850	21716
304.902	9490
304.905	8709
304.960	5421
304.992	4106
305.015	3184
305.071	3808
305.083	3476
305.126	2241
305.173	2398
305.181	2441
305.236	1727
305.264	2379
305.292	3002
305.347	3598
305.354	3793
305.402	5101
305.445	4774
305.457	4680
305.512	6115
305.535	6739
305.567	7561
305.622	5807
305.626	5989
305.678	11201
305.716	24302
305.733	28784
305.788	36827
305.807	31861
305.843	24124
305.897	32853
305.898	32924
305.953	34077
305.988	22321
306.008	16097
306.063	9413
306.078	8257
306.118	5665
306.168	4170
306.173	4041
306.228	3208
306.259	2812
306.283	2569
306.338	2343
306.349	2475
306.393	2915
306.440	2957
306.448	2982
306.503	3429
306.530	3357
306.558	3866
306.613	8895
306.620	9845
306.668	18466
306.711	30654
306.723	32175
306.778	26621
306.801	20697
306.833	14433
306.888	6392
306.892	6129
306.943	3820
306.982	3207
306.997	3073
307.052	3020
307.072	2775
307.107	2355
307.162	2495
307.163	2513
307.217	4700
307.253	5859
307.272	6203
307.327	6866
307.343	6687
307.381	6447
307.434	5256
307.436	5373
307.491	10963
307.524	17914
307.546	20684
307.600	26070
307.614	23813
307.655	14530
307.704	6427
307.710	5992
307.765	5247
307.795	6299
307.819	7184
307.874	10253
307.885	10396
307.929	9821
307.975	7677
307.984	7661
308.038	9636
308.065	11272
308.093	20826
308.148	45788
308.156	52345
308.202	86222
308.246	108727
308.257	106522
308.312	58327
308.336	41605
308.366	33322
308.421	23550
308.426	22426
308.475	13255
308.517	7898
308.530	6881
308.585	5809
308.607	5308
308.639	4985
308.694	5645
308.697	5709
308.748	8410
308.787	11754
308.803	12057
308.857	10781
308.877	9696
308.912	8725
308.967	7718
308.967	7732
309.021	11888
309.058	15294
309.076	19936
309.130	37064
309.148	43667
309.185	80600
309.238	144152
309.239	144493
309.293	157573
309.328	141127
309.348	120695
309.402	54747
309.418	38493
309.457	26229
309.508	16131
309.511	15878
309.566	15799
309.598	16811
309.620	19965
309.674	30644
309.688	33596
309.729	32245
309.778	26056
309.783	25529
309.837	18460
309.868	15152
309.892	19846
309.946	33965
309.959	38570
310.001	49860
310.049	58757
310.055	56748
310.109	32568
310.139	18122
310.163	13534
310.218	6932
310.229	6059
310.272	5254
310.319	4786
310.326	4622
310.381	3340
310.409	3017
310.435	3027
310.489	2464
310.499	2514
310.543	2676
310.589	2451
310.598	2447
310.652	2772
310.679	2882
310.706	2813
310.760	2466
310.769	2442
310.814	2290
310.859	2105
310.868	2059
310.923	1686
310.948	1622
310.977	2326
311.031	3611
311.038	3808
311.085	3093
311.128	2244
311.139	2328
311.193	2714
311.218	2923
311.247	2650
311.301	2172
311.308	2100
311.356	2307
311.398	2585
311.410	2444
311.464	1716
311.488	1406
311.518	1890
311.572	2765
311.578	2873
311.626	4269
311.668	5509
311.680	5394
311.734	4693
311.758	4374
311.788	3878
311.842	3040
311.847	2954
311.896	3950
311.937	4878
311.950	4718
312.004	4009
312.027	3694
312.058	3519
312.112	3231
312.117	3210
312.165	2697
312.207	2278
312.297	3190
312.386	2130
312.476	3836
312.566	8946
312.656	3965
312.745	1647
312.835	2301
312.925	2793
313.015	2225
313.104	1769
313.194	2452
313.284	2775
313.374	4136
313.463	3500
313.553	2592
313.643	1659
313.732	2181
313.822	1222
313.912	2910
314.001	2979
314.091	3051
314.180	3305
314.270	5359
314.360	4086
314.449	4380
314.539	1669
314.628	2609
314.718	2484
314.808	3535
314.897	1887
314.987	3376
315.076	3517
315.166	6123
315.255	3515
315.345	4577
315.434	3703
315.524	3987
315.613	3812
315.703	7865
315.792	10273
315.881	25777
315.971	8693
316.060	9651
316.150	8054
316.239	6814
316.328	2570
316.418	2183
316.507	2491
316.597	5485
316.686	3359
316.775	4422
316.865	6189
316.954	1972
317.043	1851
317.133	3202
317.222	2714
317.311	3376
317.400	1769
317.490	6896
317.579	6226
317.668	3576
317.757	6473
317.847	17547
317.936	47503
318.025	21572
318.114	10656
318.203	7163
318.293	7794
318.382	15697
318.471	11700
318.560	13519
318.649	14957
318.738	4803
318.828	5141
318.917	5739
319.006	4562
319.095	10893
319.184	24315
319.273	24197
319.362	15320
319.451	5120
319.540	4553
319.629	15349
319.718	21158
319.807	6167
319.896	11956
319.985	33487
320.074	15426
320.163	4486
320.252	4565
320.341	4171
320.430	3818
320.519	11625
320.608	4623
320.697	4175
320.786	4059
320.875	6810
320.964	8288
321.053	16326
321.142	24221
321.230	23115
321.319	16090
321.408	38365
321.497	12165
321.586	15293
321.675	10945
321.764	11432
321.852	8120
321.941	23061
322.030	12652
322.119	15432
322.207	38361
322.296	13725
322.385	7013
322.474	16160
322.562	52009
322.651	20007
322.740	17723
322.829	21557
322.917	11980
323.006	11741
323.095	11466
323.183	5661
323.272	8627
323.361	15326
323.449	29001
323.538	10099
323.626	22293
323.715	11775
323.804	5506
323.892	20852
323.981	14565
324.069	4966
324.158	7777
324.246	8539
324.335	7948
324.424	14979
324.512	4083
324.601	6132
324.689	5442
324.778	8314
324.866	9768
324.954	3902
325.043	3498
325.131	6225
325.220	6957
325.308	8784
325.397	8111
325.485	5682
325.574	2372
325.662	3440
325.750	3000
325.839	3565
325.927	2965
326.015	3752
326.104	3446
326.192	4764
326.280	1747
326.369	3184
326.457	6245
326.545	12696
326.634	4238
326.722	2277
326.810	2517
326.898	2946
326.987	3615
327.075	11207
327.163	7100
327.251	1774
327.340	1847
327.428	2959
327.516	2089
327.604	3441
327.692	2045
327.781	2727
327.869	2918
327.957	4270
328.045	4556
328.133	2051
328.221	2256
328.309	2580
328.397	2858
328.485	4245
328.574	7033
328.662	27554
328.750	9260
328.838	2614
328.926	2819
329.014	2808
329.102	3903
329.190	9501
329.278	6855
329.366	2309
329.454	680
329.542	2680
329.630	917
329.718	2164
329.806	3250
329.893	3079
329.981	1986
330.069	3995
330.157	17723
330.245	49820
330.333	22272
330.421	3999
330.509	8292
330.597	35168
330.684	17514
330.772	3641
330.860	3292
330.948	4418
331.036	2472
331.123	1726
331.211	1200
331.299	2180
331.387	3852
331.475	8777
331.562	1797
331.650	2172
331.738	1997
331.825	1958
331.913	623
332.001	1481
332.089	2203
332.176	2620
332.264	7964
332.352	7476
332.439	3265
332.527	1842
332.614	1466
332.702	2997
332.790	2025
332.877	6078
332.965	8608
333.052	4226
333.140	4063
333.228	10650
333.315	1687
333.403	2619
333.490	4454
333.578	6678
333.665	14819
333.753	6203
333.840	1568
333.928	2778
334.015	5914
334.103	9669
334.190	25684
334.278	6901
334.365	3510
334.452	3810
334.540	1803
334.627	2632
334.715	3384
334.802	7138
334.889	29242
334.977	29933
335.064	6382
335.151	2722
335.239	2936
335.326	3892
335.413	13337
335.501	17725
335.588	3771
335.675	2517
335.762	1685
335.850	3963
335.937	4200
336.024	10009
336.111	33595
336.199	16579
336.286	3992
336.373	2660
336.460	887
336.547	1958
336.635	3251
336.722	3485
336.809	1573
336.896	4787
336.983	9829
337.070	22492
337.157	26914
337.245	18904
337.332	11432
337.419	1925
337.506	1060
337.593	2694
337.680	5389
337.767	15728
337.854	6308
337.941	7508
338.028	7009
338.115	2073
338.202	3302
338.289	6615
338.376	19271
338.463	6770
338.550	9212
338.637	9448
338.724	3212
338.811	5514
338.898	1401
338.984	1657
339.071	1616
339.158	3401
339.245	13407
339.332	7047
339.419	5399
339.506	5140
339.593	483
339.679	3576
339.766	2175
339.853	5193
339.940	11012
340.027	3573
340.113	4229
340.200	6050
340.287	3313
340.374	6026
340.460	10202
340.547	2989
340.634	8003
340.720	33846
340.807	15662
340.894	2823
340.980	2603
341.067	2468
341.154	3007
341.240	7051
341.327	15413
341.414	4033
341.500	1899
341.587	3053
341.674	2238
341.760	11224
341.847	12551
341.933	3418
342.020	345
342.106	2532
342.193	4081
342.279	9057
342.366	5515
342.452	11000
342.539	4788
342.625	15204
342.712	34678
342.798	13218
342.885	4594
342.971	2032
343.058	1267
343.144	2248
343.230	2564
343.317	2088
343.403	815
343.490	1970
343.576	1044
343.662	2085
343.749	2513
343.835	4508
343.921	8038
344.008	64879
344.094	134234
344.180	26444
344.267	9712
344.353	37055
344.439	31098
344.525	15055
344.612	4417
344.698	4586
344.784	2977
344.870	2222
344.957	1742
345.043	6714
345.129	4183
345.215	10837
345.301	4670
345.387	2430
345.474	759
345.560	1750
345.646	1324
345.732	2630
345.818	2196
345.904	2666
345.990	3485
346.076	2896
346.162	2654
346.249	3007
346.335	1785
346.421	3619
346.507	15371
346.593	52820
346.679	9573
346.765	3063
346.851	2829
346.937	2873
347.023	2530
347.108	4333
347.194	2721
347.280	1855
347.366	3629
347.452	16078
347.538	63909
347.624	47317
347.710	32141
347.796	4074
347.882	2148
347.967	1518
348.053	1603
348.139	2464
348.225	1894
348.311	1823
348.397	1257
348.482	4407
348.568	4473
348.654	1884
348.740	2664
348.825	3034
348.911	7314
348.997	31062
349.083	54905
349.168	6203
349.254	2367
349.340	2613
349.425	1487
349.511	4476
349.597	3166
349.682	12459
349.768	38218
349.854	15399
349.939	1606
350.025	1840
350.110	1141
350.196	1508
350.282	178
350.367	1783
350.453	2327
350.538	3181
350.624	3326
350.709	3309
350.795	1163
350.880	2564
350.966	2406
351.051	3457
351.137	1528
351.222	3326
351.308	12323
351.393	33769
351.479	6072
351.564	2376
351.649	2557
351.735	2733
351.820	1690
351.906	3140
351.991	2997
352.076	22910
352.162	30799
352.247	5996
352.332	2964
352.418	6449
352.503	9148
352.588	52300
352.673	38203
352.759	7776
352.844	3690
352.929	5548
353.014	6477
353.100	5274
353.185	9789
353.270	14155
353.355	12153
353.441	3269
353.526	3129
353.611	11057
353.696	12545
353.781	7755
353.866	2421
353.952	3746
354.037	12096
354.122	27667
354.207	22639
354.292	7762
354.377	2247
354.462	3426
354.547	4989
354.632	4140
354.717	5375
354.802	11617
354.887	3668
354.972	2496
355.057	1076
355.142	2804
355.227	3754
355.312	6874
355.397	17797
355.482	42926
355.567	17413
355.652	14192
355.737	14967
355.822	45245
355.907	32152
355.991	6220
356.076	2278
356.161	2654
356.246	1811
356.331	3367
356.416	9102
356.501	69327
356.585	64870
356.670	7902
356.755	6909
356.840	10123
356.924	53062
357.009	171696
357.094	57593
357.179	12506
357.263	7636
357.348	8240
357.433	7664
357.517	8175
357.602	5608
357.687	4714
357.771	6719
357.856	9655
357.941	8564
358.025	39008
358.110	157800
358.195	71203
358.279	9657
358.364	8664
358.448	32440
358.533	86204
358.617	58505
358.702	57715
358.787	19177
358.871	13417
358.956	9789
359.040	2784
359.125	2443
359.209	2927
359.294	3515
359.378	6849
359.462	9007
359.547	5868
359.631	2587
359.716	2387
359.800	1815
359.885	5073
359.969	2396
360.053	3977
360.138	2450
360.222	7172
360.306	11422
360.391	7439
360.475	10554
360.559	25201
360.644	31356
360.728	21618
360.812	38733
360.896	100167
360.981	37479
361.065	18842
361.149	6564
361.233	5760
361.318	3723
361.402	5379
361.486	4443
361.570	4036
361.654	5658
361.739	15758
361.823	67670
361.907	97418
361.991	14820
362.075	10214
362.159	24372
362.243	16697
362.327	11801
362.411	15137
362.495	7216
362.580	4616
362.664	3043
362.748	2565
362.832	3462
362.916	5633
363.000	23342
363.084	79945
363.168	115070
363.252	25745
363.336	8780
363.420	10607
363.503	20434
363.587	22709
363.671	6521
363.755	7438
363.839	11281
363.923	5300
364.007	11063
364.091	11609
364.175	7204
364.258	33115
364.342	28892
364.426	44091
364.510	22539
364.594	12691
364.677	18693
364.761	88104
364.845	58620
364.929	21519
365.013	16522
365.096	14841
365.180	14458
365.264	9081
365.347	30748
365.431	13213
365.515	4171
365.598	4850
365.682	3837
365.766	3083
365.849	4094
365.933	4758
366.017	4927
366.100	2100
366.184	200
366.267	3831
366.351	2851
366.435	2331
366.518	2017
366.602	2521
366.685	3122
366.769	3950
366.852	5261
366.936	12001
367.019	7780
367.103	2333
367.186	4734
367.270	2047
367.353	1275
367.436	3712
367.520	1885
367.603	4904
367.687	7687
367.770	14745
367.853	7459
367.937	27510
368.020	42417
368.104	9274
368.187	10256
368.270	15925
368.353	13173
368.437	10976
368.520	14124
368.603	16051
368.687	31825
368.770	56813
368.853	12121
368.936	12896
369.020	9016
369.103	4497
369.186	1869
369.269	3586
369.352	9275
369.436	13029
369.519	7082
369.602	2888
369.685	5044
369.768	4415
369.851	3551
369.934	2199
370.018	3921
370.101	12992
370.184	9040
370.267	5392
370.350	8672
370.433	14956
370.516	44794
370.599	54365
370.682	16201
370.765	34263
370.848	40488
370.931	68756
371.014	23024
371.097	4494
371.180	4269
371.263	3560
371.346	1127
371.429	2961
371.511	2914
371.594	7439
371.677	9048
371.760	8591
371.843	10873
371.926	60005
372.009	128508
372.091	40095
372.174	25813
372.257	64330
372.340	21159
372.423	12949
372.505	10650
372.588	6859
372.671	22856
372.754	69823
372.836	30572
372.919	10936
373.002	17338
373.085	8974
373.167	11792
373.250	32056
373.332	65467
373.415	87676
373.498	169772
373.580	62219
373.663	83299
373.746	110505
373.828	23404
373.911	10048
373.993	7665
374.076	17182
374.159	15745
374.241	18088
374.324	59101
374.406	38880
374.489	52618
374.571	144939
374.654	55260
374.736	28844
374.819	86508
374.901	124578
374.983	122717
375.066	20320
375.148	5934
375.231	14762
375.313	27283
375.395	12508
375.478	4250
375.560	4087
375.643	5436
375.725	26991
375.807	105395
375.890	69226
375.972	15980
376.054	12313
376.136	11056
376.219	7197
376.301	32123
376.383	92080
376.465	33279
376.548	22546
376.630	28198
376.712	78180
376.794	35058
376.877	4278
376.959	1267
377.041	4141
377.123	2884
377.205	4542
377.287	967
377.369	2314
377.452	2609
377.534	2565
377.616	2549
377.698	2862
377.780	1740
377.862	3532
377.944	3675
378.026	837
378.108	2511
378.190	2804
378.272	2019
378.354	991
378.436	1437
378.518	2999
378.600	12055
378.682	16884
378.764	42378
378.846	31343
378.928	8079
379.010	12777
379.091	7275
379.173	2960
379.255	2534
379.337	6256
379.419	20880
379.501	57333
379.583	21094
379.664	5751
379.746	15666
379.828	43103
379.910	55826
379.991	46717
380.073	6827
380.155	4992
380.237	3462
380.318	2678
380.400	2783
380.482	9669
380.564	15334
380.645	14560
380.727	13100
380.809	8297
380.890	4161
380.972	3165
381.053	3800
381.135	5357
381.217	14455
381.298	44645
381.380	19385
381.461	16833
381.543	78058
381.624	93877
381.706	15486
381.787	7049
381.869	8873
381.951	36226
382.032	129274
382.113	80679
382.195	14150
382.276	11445
382.358	27439
382.439	72653
382.521	79916
382.602	118695
382.684	52900
382.765	94437
382.846	93428
382.928	115176
383.009	58663
383.090	44357
383.172	164563
383.253	240410
383.334	87150
383.416	102784
383.497	50174
383.578	18977
383.659	37067
383.741	144424
383.822	351174
383.903	178940
383.984	73409
384.066	131621
384.147	78183
384.228	14979
384.309	11118
384.390	9000
384.471	5324
384.553	6403
384.634	9072
384.715	11086
384.796	4625
384.877	7721
384.958	37188
385.039	44935
385.120	15306
385.201	6831
385.282	6447
385.363	6465
385.444	4984
385.525	14396
385.606	53670
385.687	46249
385.768	7206
385.849	12841
385.930	63954
386.011	106502
386.092	25984
386.173	5783
386.254	3762
386.335	4905
386.416	5933
386.496	24312
386.577	39135
386.658	11677
386.739	5561
386.820	5346
386.901	2056
386.981	4089
387.062	3561
387.143	10473
387.224	40030
387.304	36135
387.385	11190
387.466	4387
387.547	6191
387.627	5811
387.708	15352
387.789	72772
387.869	83588
387.950	20267
388.031	2699
388.111	1727
388.192	4363
388.273	7814
388.353	5325
388.434	5144
388.514	14880
388.595	66211
388.676	85594
388.756	41278
388.837	38602
388.917	23575
388.998	3672
389.078	4806
389.159	3084
389.239	2847
389.320	7909
389.400	4873
389.480	14780
389.561	40511
389.641	19518
389.722	7025
389.802	11804
389.883	19289
389.963	48779
390.043	26637
390.124	4805
390.204	15059
390.284	45187
390.365	27518
390.445	16985
390.525	52666
390.605	55614
390.686	21575
390.766	7395
390.846	4510
390.927	2014
391.007	2779
391.087	3684
391.167	2925
391.247	1392
391.328	3840
391.408	5154
391.488	3497
391.568	410
391.648	5127
391.728	8973
391.808	8521
391.888	8677
391.969	22632
392.049	36229
392.129	13053
392.209	16707
392.289	46683
392.369	21643
392.449	8420
392.529	6098
392.609	8662
392.689	13360
392.769	45130
392.849	36195
392.929	21711
393.009	52914
393.089	42196
393.169	29934
393.248	103911
393.328	389717
393.408	410553
393.488	103979
393.568	27467
393.648	13131
393.728	8219
393.807	4951
393.887	6722
393.967	4428
394.047	6756
394.127	6283
394.206	11115
394.286	40140
394.366	178051
394.446	188705
394.525	36076
394.605	7282
394.685	6707
394.764	12119
394.844	18667
394.924	14912
395.003	7807
395.083	5872
395.163	5119
395.242	4345
395.322	5752
395.402	1925
395.481	5440
395.561	9283
395.640	27517
395.720	24092
395.799	22057
395.879	16408
395.958	12873
396.038	53997
396.117	237218
396.197	250463
396.276	58108
396.356	15238
396.435	11230
396.515	10256
396.594	15529
396.673	29726
396.753	115474
396.832	356662
396.912	275095
396.991	64833
397.070	16542
397.150	7373
397.229	6801
397.308	7746
397.388	13738
397.467	6961
397.546	3236
397.625	1220
397.705	6105
397.784	5649
397.863	2828
397.942	1811
398.022	1857
398.101	4913
398.180	17485
398.259	8013
398.338	4457
398.417	2065
398.497	1994
398.576	2558
398.655	1143
398.734	1394
398.813	2168
398.892	5007
398.971	17090
399.050	8743
399.129	1329
399.208	589
399.287	1872
399.366	463
399.445	1426
399.524	1008
399.603	1012
399.682	5097
399.761	12668
399.840	21038
399.919	15406
399.998	1323
400.077	642
400.156	-261
400.235	3683
400.313	770
400.392	3032
400.471	22647
400.550	36176
400.629	7801
400.708	3086
400.786	834
400.865	3780
400.944	3906
401.023	5291
401.102	625
401.180	1371
401.259	373
401.338	2001
401.416	2984
401.495	2458
401.574	1023
401.652	1029
401.731	2962
401.810	2116
401.888	476
401.967	458
402.046	601
402.124	3127
402.203	3225
402.281	3074
402.360	2050
402.438	5625
402.517	2653
402.596	1951
402.674	277
402.753	1119
402.831	858
402.910	3633
402.988	15503
403.066	52428
403.145	28852
403.223	17439
403.302	43579
403.380	33885
403.459	32453
403.537	12623
403.615	3120
403.694	548
403.772	1810
403.850	1437
403.929	378
404.007	1685
404.085	6930
404.164	8270
404.242	846
404.320	3323
404.398	7117
404.477	22692
404.555	96704
404.633	81422
404.711	10949
404.789	3546
404.868	2336
404.946	2030
405.024	784
405.102	945
405.180	-677
405.258	-40
405.336	1298
405.415	911
405.493	3852
405.571	5837
405.649	833
405.727	385
405.805	2086
405.883	2858
405.961	2286
406.039	1477
406.117	-30
406.195	4392
406.273	24906
406.351	86363
406.429	46628
406.507	4694
406.585	871
406.663	2837
406.740	3993
406.818	3107
406.896	94
406.974	2702
407.052	7148
407.130	51578
407.208	68411
407.285	13135
407.363	549
407.441	2127
407.519	1616
407.596	2149
407.674	8132
407.752	23847
407.830	18467
407.907	6302
407.985	1812
408.063	1647
408.141	27
408.218	2392
408.296	1099
408.373	3673
408.451	3482
408.529	3822
408.606	94
408.684	685
408.762	-118
408.839	452
408.917	-960
408.994	683
409.072	-402
409.149	574
409.227	2424
409.304	3286
409.382	1880
409.459	2489
409.537	3241
409.614	3464
409.692	964
409.769	2140
409.846	3328
409.924	5644
410.001	2113
410.079	2364
410.156	1919
410.233	2009
410.311	1092
410.388	633
410.465	1599
410.543	1700
410.620	978
410.697	2247
410.775	2727
410.852	212
410.929	2012
411.006	4630
411.083	273
411.161	3635
411.238	3726
411.315	1692
411.392	132
411.469	3341
411.547	2031
411.624	-376
411.701	156
411.778	2426
411.855	6586
411.932	2740
412.009	733
412.086	1708
412.163	743
412.240	1774
412.317	1732
412.394	1220
412.471	94
412.548	546
412.625	568
412.702	2241
412.779	3328
412.856	3285
412.933	-779
413.010	1151
413.087	3192
413.164	21191
413.241	29730
413.318	6686
413.395	4002
413.471	6199
413.548	2617
413.625	2248
413.702	862
413.779	1218
413.855	-714
413.932	-233
414.009	-895
414.086	579
414.162	925
414.239	3646
414.316	20559
414.393	46901
414.469	14023
414.546	873
414.623	123
414.699	783
414.776	1702
414.853	1010
414.929	722
415.006	604
415.082	-54
415.159	389
415.236	772
415.312	2326
415.389	4562
415.465	6647
415.542	2149
415.618	1665
415.695	4332
415.771	1997
415.848	1367
415.924	2193
416.000	907
416.077	1146
416.153	-562
416.230	-316
416.306	-151
416.383	198
416.459	274
416.535	147
416.612	-622
416.688	606
416.764	103
416.841	-337
416.917	533
416.993	582
417.069	1272
417.146	2473
417.222	2322
417.298	1955
417.374	464
417.451	1398
417.527	1915
417.603	3215
417.679	1191
417.755	1741
417.831	56
417.908	469
417.984	-436
418.060	68
418.136	5821
418.212	7924
418.288	1319
418.364	868
418.440	213
418.516	3195
418.592	1958
418.668	9063
418.744	14122
418.820	10840
418.896	1537
418.972	511
419.048	682
419.124	6926
419.200	4097
419.276	1683
419.352	-344
419.428	292
419.504	690
419.579	2964
419.655	832
419.731	2402
419.807	9737
419.883	18264
419.959	11266
420.034	3205
420.110	7604
420.186	29490
420.262	22269
420.337	3404
420.413	1482
420.489	654
420.565	679
420.640	1063
420.716	1167
420.792	-219
420.867	837
420.943	801
421.019	3595
421.094	1925
421.170	358
421.245	398
421.321	445
421.397	1252
421.472	3644
421.548	11744
421.623	8957
421.699	3810
421.774	2815
421.850	1976
421.925	5321
422.001	5166
422.076	2775
422.152	3771
422.227	7414
422.302	8177
422.378	10348
422.453	21778
422.529	53631
422.604	157924
422.679	262567
422.755	164998
422.830	53608
422.905	20739
422.981	10615
423.056	7230
423.131	4619
423.207	3311
423.282	4692
423.357	10314
423.432	5892
423.508	7045
423.583	15712
423.658	12057
423.733	2102
423.808	3792
423.883	4789
423.959	3952
424.034	1932
424.109	2100
424.184	-161
424.259	1022
424.334	208
424.409	913
424.484	141
424.559	1858
424.634	1504
424.709	3474
424.784	3063
424.859	1920
424.934	4297
425.009	22833
425.084	35090
425.159	11107
425.234	1459
425.309	37
425.384	1892
425.459	1356
425.534	57
425.609	72
425.683	-415
425.758	461
425.833	496
425.908	3118
425.983	12869
426.058	37544
426.132	13836
426.207	1370
426.282	1966
426.357	1221
426.431	92
426.506	1012
426.581	300
426.655	896
426.730	763
426.805	1258
426.879	733
426.954	1211
427.029	4804
427.103	33949
427.178	75581
427.253	30918
427.327	2550
427.402	1148
427.476	3041
427.551	1569
427.625	635
427.700	1344
427.774	-707
427.849	1391
427.923	-1015
427.998	481
428.072	161
428.147	4374
428.221	20552
428.296	50140
428.370	23618
428.444	2498
428.519	1768
428.593	4150
428.667	3881
428.742	5062
428.816	6545
428.890	25676
428.965	42724
429.039	11835
429.113	4864
429.188	2803
429.262	746
429.336	4461
429.410	15757
429.485	9704
429.559	4074
429.633	3252
429.707	503
429.781	4559
429.855	30014
429.930	51137
430.004	20203
430.078	21422
430.152	25035
430.226	64430
430.300	64186
430.374	8896
430.448	2172
430.522	5753
430.596	18999
430.670	19532
430.744	66045
430.818	97571
430.892	19328
430.966	3065
431.040	571
431.114	-516
431.188	-954
431.262	163
431.336	-596
431.410	3031
431.484	8391
431.557	8502
431.631	107
431.705	1596
431.779	8655
431.853	41075
431.927	29061
432.000	2651
432.074	451
432.148	851
432.222	670
432.295	556
432.369	899
432.443	3144
432.516	29457
432.590	74224
432.664	24609
432.737	2386
432.811	28
432.885	-148
432.958	1111
433.032	-359
433.106	-655
433.179	-496
433.253	-395
433.326	215
433.400	-600
433.473	-184
433.547	-1342
433.620	1476
433.694	3553
433.767	2998
433.841	-70
433.914	-669
433.988	-1047
434.061	140
434.134	-326
434.208	-425
434.281	-1568
434.355	-147
434.428	-489
434.501	-229
434.575	-1176
434.648	255
434.721	274
434.795	-63
434.868	-1073
434.941	-192
435.014	-1153
435.088	169
435.161	1000
435.234	3178
435.307	3470
435.381	1472
435.454	835
435.527	1056
435.600	1006
435.673	1534
435.746	-90
435.819	-2
435.892	211
435.966	-227
436.039	-419
436.112	199
436.185	-516
436.258	-1040
436.331	-648
436.404	-347
436.477	-937
436.550	120
436.623	-25
436.696	-72
436.769	331
436.842	41
436.915	-52
436.987	2322
437.060	-432
437.133	-116
437.206	-939
437.279	1065
437.352	-567
437.425	-152
437.498	464
437.570	5727
437.643	4272
437.716	958
437.789	-128
437.861	2367
437.934	7128
438.007	3467
438.080	-166
438.152	1188
438.225	4797
438.298	40331
438.370	103568
438.443	40890
438.516	7551
438.588	1877
438.661	-244
438.734	370
438.806	254
438.879	2233
438.951	1670
439.024	3377
439.096	952
439.169	-102
439.241	-1293
439.314	-228
439.386	1160
439.459	1771
439.531	2577
439.604	1395
439.676	174
439.749	-212
439.821	-821
439.893	-341
439.966	-553
440.038	-25
440.110	719
440.183	1485
440.255	-839
440.327	2233
440.400	16652
440.472	68037
440.544	43533
440.617	4843
440.689	3994
440.761	4490
440.833	7007
440.905	4338
440.978	-213
441.050	-606
441.122	192
441.194	-221
441.266	-760
441.338	161
441.411	2605
441.483	23723
441.555	35334
441.627	6912
441.699	2141
441.771	1778
441.843	-43
441.915	404
441.987	-680
442.059	74
442.131	513
442.203	2503
442.275	3322
442.347	3491
442.419	2319
442.491	20798
442.563	54394
442.635	26463
442.706	13481
442.778	12896
442.850	2307
442.922	117
442.994	721
443.066	3301
443.137	2096
443.209	1651
443.281	2131
443.353	6476
443.425	28886
443.496	98259
443.568	98747
443.640	37097
443.711	6702
443.783	2685
443.855	1819
443.926	1074
443.998	19
444.070	2382
444.141	2370
444.213	4662
444.285	5610
444.356	3338
444.428	1643
444.499	1400
444.571	-130
444.642	386
444.714	1520
444.785	3770
444.857	3267
444.928	7864
445.000	5264
445.071	5206
445.143	7996
445.214	5949
445.285	7104
445.357	21440
445.428	70509
445.500	154960
445.571	99765
445.642	53233
445.714	18707
445.785	17575
445.856	8187
445.928	6742
445.999	4992
446.070	3692
446.141	4935
446.213	8391
446.284	2305
446.355	1870
446.426	1118
446.497	1960
446.569	2677
446.640	6541
446.711	5971
446.782	1045
446.853	1183
446.924	2156
446.995	1997
447.066	1974
447.138	3286
447.209	2296
447.280	66
447.351	462
447.422	-295
447.493	1221
447.564	2872
447.635	4697
447.706	1578
447.777	977
447.847	-612
447.918	569
447.989	1990
448.060	2513
448.131	5954
448.202	9051
448.273	6586
448.344	2802
448.414	961
448.485	1481
448.556	633
448.627	-235
448.698	231
448.768	93
448.839	805
448.910	3170
448.981	4262
449.051	2579
449.122	-55
449.193	466
449.263	-118
449.334	929
449.405	2042
449.475	7815
449.546	4542
449.616	4315
449.687	3832
449.758	1977
449.828	-60
449.899	1192
449.969	601
450.040	221
450.110	834
450.181	1438
450.251	689
450.322	696
450.392	-39
450.463	1385
450.533	996
450.604	1054
450.674	626
450.744	1224
450.815	356
450.885	1204
450.955	941
451.026	873
451.096	-62
451.166	1457
451.237	4550
451.307	13605
451.377	7042
451.447	726
451.518	107
451.588	811
451.658	471
451.728	3105
451.799	11227
451.869	17734
451.939	5098
452.009	692
452.079	537
452.149	1975
452.219	3120
452.289	14976
452.360	14479
452.430	3282
452.500	1844
452.570	3739
452.640	4385
452.710	12140
452.780	20192
452.850	18621
452.920	15186
452.990	6094
453.060	2443
453.129	5233
453.199	4494
453.269	13476
453.339	33840
453.409	54263
453.479	45262
453.549	72685
453.619	82062
453.688	42997
453.758	7239
453.828	2425
453.898	1881
453.968	1762
454.037	1563
454.087	1409
454.107	1336
454.168	819
454.177	732
454.247	1491
454.249	1445
454.316	-89
454.330	368
454.386	2128
454.411	4163
454.456	7496
454.492	11445
454.525	15037
454.574	8839
454.595	6132
454.655	2084
454.665	1422
454.734	1629
454.736	1735
454.804	5024
454.817	6733
454.873	13629
454.898	15719
454.943	19641
454.979	13029
455.013	7044
455.060	3621
455.082	2083
455.141	2641
455.152	2726
455.221	10203
455.222	10368
455.291	21898
455.303	21015
455.360	16747
455.384	17481
455.430	17518
455.465	15766
455.499	14571
455.546	15086
455.569	15267
455.627	13910
455.638	13730
455.707	2395
455.708	2406
455.777	2142
455.789	2086
455.846	1716
455.869	1880
455.916	2284
455.950	2114
455.985	1872
456.031	1997
456.054	2069
456.112	2041
456.124	2040
456.193	1771
456.193	1756
456.262	1324
456.274	1747
456.332	3905
456.355	3575
456.401	2675
456.436	2733
456.470	2814
456.516	1487
456.540	864
456.597	1822
456.609	1977
456.678	1176
456.678	1164
456.747	1751
456.759	1629
456.817	1181
456.840	1213
456.886	1052
456.920	1269
456.955	1583
457.001	1916
457.024	2087
457.082	2005
457.093	2003
457.162	3146
457.163	3166
457.232	3074
457.243	2970
457.301	2656
457.324	2222
457.370	1661
457.405	1900
457.439	2059
457.485	1859
457.508	1809
457.566	2869
457.577	3106
457.646	2996
457.647	3026
457.715	5935
457.727	6314
457.784	8549
457.808	10588
457.853	12673
457.889	14663
457.922	15411
457.969	11909
457.991	11968
458.050	13098
458.060	13310
458.129	22484
458.130	22721
458.198	21099
458.211	18910
458.267	12223
458.292	8980
458.336	5919
458.372	5979
458.405	7793
458.453	11134
458.474	13263
458.533	22645
458.543	23209
458.611	33759
458.614	33920
458.680	23498
458.694	18967
458.749	9879
458.775	7678
458.818	4657
458.855	3684
458.887	3342
458.936	3142
458.955	2884
459.016	2838
459.024	2915
459.093	4058
459.097	4027
459.162	3000
459.177	3393
459.230	5303
459.257	5788
459.299	5405
459.338	4821
459.368	4857
459.418	5182
459.437	4963
459.499	4426
459.505	4504
459.574	3417
459.579	3508
459.643	3676
459.659	3361
459.711	2891
459.740	3281
459.780	3536
459.820	3406
459.849	3382
459.900	3882
459.917	4111
459.981	3821
459.986	3748
460.054	3849
460.061	3732
460.123	3700
460.141	4137
460.191	6114
460.222	6897
460.260	6698
460.302	7469
460.328	7185
460.382	4926
460.397	4797
460.462	4528
460.465	4639
460.534	7436
460.543	7887
460.602	16676
460.623	20273
460.671	31110
460.703	42687
460.739	39074
460.783	29549
460.808	27162
460.864	9434
460.876	7314
460.944	4318
460.945	4279
461.013	4569
461.024	4525
461.081	4681
461.104	5124
461.150	4934
461.184	4385
461.218	4169
461.264	3786
461.286	3767
461.345	3791
461.355	3739
461.423	3970
461.425	3955
461.491	3940
461.505	4156
461.559	5820
461.585	6330
461.628	8617
461.665	12324
461.696	13605
461.745	17432
461.764	17519
461.825	10609
461.832	10393
461.901	5514
461.905	5576
461.969	4793
461.985	4383
462.037	4551
462.065	4992
462.105	5100
462.145	4844
462.173	5465
462.225	7052
462.241	7568
462.305	11937
462.310	11881
462.378	10217
462.385	9462
462.446	6359
462.465	5889
462.514	5162
462.545	5323
462.582	5222
462.625	5051
462.650	4898
462.705	4747
462.718	4814
462.785	4830
462.786	4837
462.854	5366
462.865	5566
462.922	7092
462.945	7777
462.990	7564
463.025	6564
463.058	6120
463.104	4950
463.126	4594
463.184	4932
463.194	5046
463.262	5379
463.264	5414
463.330	4809
463.344	4584
463.398	5843
463.424	6322
463.466	5559
463.504	5303
463.533	5483
463.583	5285
463.601	5352
463.663	5250
463.669	5417
463.737	8459
463.743	8702
463.805	10173
463.823	10656
463.873	13207
463.903	15212
463.940	15656
463.982	17242
464.008	16441
464.062	10651
464.076	9959
464.142	5267
464.144	5204
464.211	5416
464.221	5545
464.279	6069
464.301	6301
464.347	6391
464.381	6558
464.414	6454
464.461	6170
464.482	6292
464.540	7021
464.550	7164
464.617	7442
464.620	7441
464.685	8264
464.699	8508
464.753	8811
464.779	9021
464.820	8776
464.859	8391
464.888	7993
464.938	7343
464.956	7494
465.018	8154
465.023	8127
465.091	7630
465.098	7536
465.158	6752
465.177	6563
465.226	6283
465.257	6081
465.293	7192
465.336	8623
465.361	9602
465.416	11561
465.428	11649
465.495	12486
465.496	12512
465.563	14140
465.575	14588
465.631	17082
465.654	18352
465.698	14330
465.734	9567
465.765	8711
465.813	7138
465.833	6688
465.893	6665
465.900	6705
465.968	6884
465.972	6908
466.035	6709
466.052	6567
466.102	7059
466.131	7409
466.170	7112
466.210	6747
466.237	7299
466.290	8522
466.304	8478
466.369	7858
466.372	7882
466.439	8511
466.449	8573
466.506	9167
466.528	9412
466.573	12721
466.607	15201
466.641	18717
466.687	23656
466.708	25071
466.766	29358
466.775	27706
466.842	14785
466.845	14151
466.909	11709
466.925	11265
466.977	9821
467.004	9140
467.044	9732
467.083	10347
467.111	10874
467.163	11819
467.178	11989
467.242	12641
467.245	12634
467.312	12194
467.321	12124
467.379	11653
467.400	11452
467.446	11428
467.480	11383
467.559	10253
467.638	8846
467.717	10336
467.796	12908
467.875	15288
467.955	9923
468.034	15236
468.113	22183
468.192	28881
468.271	10930
468.350	10924
468.429	13147
468.508	12445
468.588	10584
468.667	8932
468.746	8876
468.825	9909
468.904	9001
468.983	10081
469.062	13065
469.141	14608
469.220	7846
469.299	9095
469.378	8270
469.456	11024
469.535	10169
469.614	9591
469.693	9699
469.772	12229
469.851	13787
469.930	11839
470.009	9988
470.088	10750
470.166	11596
470.245	16716
470.324	18780
470.403	13862
470.482	10983
470.560	9844
470.639	11079
470.718	14632
470.797	9930
470.875	12436
470.954	13363
471.033	13457
471.111	8390
471.190	8321
471.269	7916
471.347	8300
471.426	7947
471.505	9489
471.583	9272
471.662	9385
471.740	8247
471.819	9286
471.898	8411
471.976	9031
472.055	7994
472.133	8851
472.212	10655
472.290	10151
472.369	7849
472.447	8364
472.526	7332
472.604	9816
472.683	11241
472.761	12580
472.839	9762
472.918	8963
472.996	9249
473.075	9603
473.153	8566
473.231	8184
473.310	10014
473.388	10593
473.466	9468
473.545	13391
473.623	17230
473.701	15667
473.780	8926
473.858	8295
473.936	11048
474.014	8446
474.093	10164
474.171	12218
474.249	13695
474.327	10408
474.405	8509
474.484	9337
474.562	9430
474.640	9531
474.718	8665
474.796	9260
474.874	8003
474.952	8178
475.030	7499
475.108	9764
475.187	10166
475.265	15674
475.343	25375
475.421	24908
475.499	7249
475.577	8808
475.655	10227
475.733	15393
475.811	20413
475.889	19099
475.966	13611
476.044	11423
476.122	18965
476.200	23983
476.278	14732
476.356	8495
476.434	9686
476.512	16469
476.590	22642
476.667	15282
476.745	8489
476.823	9074
476.901	8304
476.979	9550
477.056	8533
477.134	7915
477.212	8013
477.290	9644
477.367	7011
477.445	7989
477.523	6683
477.601	8311
477.678	7036
477.756	8637
477.834	8702
477.911	7993
477.989	6971
478.066	8439
478.144	9607
478.222	18366
478.299	34223
478.377	22015
478.454	7664
478.532	8335
478.609	8990
478.687	10300
478.764	8359
478.842	9336
478.919	10263
478.997	9126
479.074	6874
479.152	7605
479.229	8973
479.307	6515
479.384	6237
479.461	7587
479.539	7049
479.616	7978
479.694	6826
479.771	7876
479.848	7686
479.926	8940
480.003	10486
480.080	8207
480.157	7538
480.235	7329
480.312	6793
480.389	8245
480.467	10354
480.544	10865
480.621	7807
480.698	7462
480.775	8184
480.853	8835
480.930	7535
481.007	7232
481.084	8810
481.161	9171
481.238	7794
481.315	7422
481.392	6443
481.470	7488
481.547	6352
481.624	6661
481.701	6814
481.778	7950
481.855	8084
481.932	10552
482.009	14448
482.086	10360
482.163	10889
482.240	23003
482.317	44402
482.393	22679
482.470	8453
482.547	8605
482.624	8263
482.701	9089
482.778	7845
482.855	7427
482.932	5808
483.009	8019
483.085	7694
483.162	9905
483.239	9842
483.316	6791
483.393	7846
483.469	7557
483.546	7841
483.623	8271
483.699	7058
483.776	7465
483.853	8461
483.930	11738
484.006	19808
484.083	27721
484.160	19614
484.236	29500
484.313	20836
484.389	17745
484.466	16396
484.543	15647
484.619	15311
484.696	18037
484.772	16659
484.849	16814
484.925	14915
485.002	14808
485.078	16303
485.155	15814
485.231	13832
485.308	13146
485.384	14653
485.461	17575
485.537	22122
485.614	23055
485.690	14505
485.766	14583
485.843	18848
485.919	30981
485.995	27351
486.072	14228
486.148	12898
486.224	13160
486.301	13600
486.377	15962
486.453	16300
486.530	16262
486.606	19358
486.682	19656
486.758	21187
486.835	22278
486.911	20358
486.987	36766
487.063	59325
487.139	84772
487.215	50122
487.292	19479
487.368	16444
487.444	19410
487.520	22303
487.596	21543
487.672	37840
487.748	92789
487.824	114511
487.900	32086
487.976	17784
488.052	18065
488.128	21776
488.204	15959
488.280	13796
488.356	17183
488.432	24615
488.508	31641
488.584	16860
488.660	15142
488.736	15311
488.812	17381
488.888	22578
488.964	37683
489.039	94074
489.115	129139
489.191	56532
489.267	15368
489.343	13646
489.418	12465
489.494	10652
489.570	10633
489.646	12259
489.722	11749
489.797	11880
489.873	18100
489.949	27181
490.024	19758
490.100	11206
490.176	12484
490.251	19003
490.327	24176
490.403	11534
490.478	12474
490.554	9854
490.629	10599
490.705	10365
490.781	12026
490.856	11315
490.932	14525
491.007	16089
491.083	12726
491.158	11672
491.234	13586
491.309	21152
491.385	18978
491.460	11185
491.536	14286
491.611	12562
491.686	16235
491.762	25438
491.837	59534
491.913	90101
491.988	131527
492.063	141828
492.139	23526
492.214	12428
492.289	11578
492.365	12177
492.440	14385
492.515	10894
492.590	11635
492.666	9245
492.741	13532
492.816	14491
492.891	8882
492.967	9856
493.042	10813
493.117	9607
493.192	10591
493.267	18024
493.342	40757
493.418	40818
493.493	10069
493.568	8706
493.643	8372
493.718	11992
493.793	18672
493.868	23601
493.943	16923
494.018	11071
494.093	9694
494.168	8674
494.243	9065
494.318	8814
494.393	9349
494.468	9464
494.543	11170
494.618	12616
494.693	9463
494.768	9085
494.842	9642
494.917	9281
494.992	11367
495.067	8579
495.142	9758
495.217	10089
495.292	10887
495.366	12093
495.441	15407
495.516	18767
495.591	38550
495.665	140915
495.740	284762
495.815	74057
495.890	13501
495.964	10628
496.039	13848
496.114	11145
496.188	13063
496.263	11245
496.338	9958
496.412	11741
496.487	13971
496.561	18232
496.636	16579
496.710	12113
496.785	13088
496.860	13078
496.934	11339
497.009	12655
497.083	11081
497.158	10304
497.232	14092
497.307	16910
497.381	13656
497.455	13791
497.530	16423
497.604	13788
497.679	13940
497.753	20688
497.827	23982
497.902	22057
497.976	25598
498.050	52906
498.125	152425
498.199	122098
498.273	43393
498.348	35826
498.422	26807
498.496	27961
498.570	23615
498.645	13917
498.719	13170
498.793	16507
498.867	21630
498.941	26193
499.016	68293
499.090	142909
499.164	35886
499.238	12424
499.312	13932
499.386	18889
499.460	14223
499.534	11089
499.609	14083
499.683	14690
499.757	15421
499.831	33638
499.905	101586
499.979	66735
500.053	19652
500.127	26216
500.201	24558
500.275	13700
500.349	12614
500.422	14162
500.496	27784
500.570	59997
500.644	79359
500.718	92055
500.792	19662
500.866	11551
500.940	12828
501.013	11597
501.087	14728
501.161	30507
501.235	28729
501.309	41033
501.382	88317
501.456	63509
501.530	23841
501.603	28620
501.677	13025
501.751	9384
501.825	13292
501.898	18334
501.972	36283
502.046	18964
502.119	12513
502.193	25171
502.266	39186
502.340	17139
502.413	21866
502.487	33136
502.561	17780
502.634	12277
502.708	13198
502.781	10501
502.855	10601
502.928	7833
503.002	8459
503.075	8172
503.149	7619
503.222	7437
503.295	7795
503.369	9367
503.442	13245
503.516	31949
503.589	61268
503.662	32558
503.736	18268
503.809	32478
503.882	25035
503.956	42476
504.029	41512
504.102	59106
504.175	65626
504.249	18191
504.322	12489
504.395	11065
504.468	8759
504.542	7747
504.615	7083
504.688	7469
504.761	6523
504.834	11984
504.907	16964
504.980	25342
505.053	11371
505.127	16618
505.200	16200
505.273	8907
505.346	7906
505.419	6548
505.492	8260
505.565	5610
505.638	6887
505.711	5583
505.784	6539
505.857	5493
505.930	7730
506.003	6233
506.076	8605
506.149	7846
506.221	7231
506.294	10750
506.367	19873
506.440	50089
506.513	23710
506.586	10065
506.659	7784
506.731	7304
506.804	11263
506.877	14790
506.950	9193
507.022	7856
507.095	6920
507.168	9146
507.241	9146
507.313	7179
507.386	9466
507.459	15852
507.531	8444
507.604	6168
507.677	8557
507.749	5610
507.822	12157
507.894	20135
507.967	19190
508.040	9210
508.112	9791
508.185	8888
508.257	11428
508.330	16790
508.402	8381
508.475	7382
508.547	8582
508.620	8767
508.692	11277
508.765	8881
508.837	6811
508.909	7333
508.982	8555
509.054	10652
509.127	7094
509.199	6048
509.271	6960
509.344	5688
509.416	6602
509.488	7158
509.560	9271
509.633	9347
509.705	11315
509.777	10246
509.849	16203
509.922	8589
509.994	6728
510.066	8092
510.138	7401
510.210	13262
510.283	11420
510.355	9477
510.427	9335
510.499	8334
510.571	8511
510.643	9437
510.715	21024
510.787	13913
510.859	10873
510.931	11826
511.003	21001
511.076	15366
511.148	7636
511.219	7885
511.291	11222
511.363	10509
511.435	8117
511.507	6120
511.579	8521
511.651	8685
511.723	7175
511.795	7388
511.867	8217
511.939	8622
512.010	12574
512.082	9938
512.154	8803
512.226	8436
512.298	14853
512.369	18110
512.441	14711
512.513	15974
512.585	9667
512.656	11107
512.728	12993
512.800	8216
512.871	9721
512.943	9001
513.015	8263
513.086	9778
513.158	12071
513.230	10938
513.301	19626
513.373	21679
513.444	10887
513.516	8897
513.588	8595
513.659	11819
513.731	15638
513.802	14030
513.874	37622
513.945	52653
514.016	13384
514.088	8873
514.159	12150
514.231	16314
514.302	17646
514.374	10397
514.445	9967
514.516	17162
514.588	10552
514.659	10379
514.730	14601
514.802	15195
514.873	10891
514.944	13126
515.016	12940
515.087	14153
515.158	14631
515.229	15024
515.301	10984
515.372	14257
515.443	9216
515.514	8711
515.585	7537
515.656	8271
515.728	9128
515.799	7248
515.870	10748
515.941	10451
516.012	10074
516.083	14252
516.154	16390
516.225	23880
516.296	19042
516.367	15319
516.438	17223
516.509	23695
516.580	40158
516.651	129104
516.722	370810
516.793	114938
516.864	30270
516.935	24998
517.006	28603
517.077	49429
517.148	130977
517.219	399971
517.289	434994
517.360	74583
517.431	23684
517.502	14521
517.573	15385
517.643	13796
517.714	15322
517.785	15932
517.856	16399
517.926	19273
517.997	21462
518.068	24471
518.138	36550
518.209	72271
518.280	286628
518.350	784508
518.421	198895
518.492	27534
518.562	18910
518.633	18327
518.703	19622
518.774	35586
518.845	76846
518.915	57668
518.986	21426
519.056	22881
519.127	45763
519.197	58074
519.268	69956
519.338	29145
519.408	17244
519.479	30373
519.549	18123
519.620	13266
519.690	9668
519.760	9349
519.831	11984
519.901	10122
519.971	9733
520.042	8170
520.112	9177
520.182	16558
520.253	16373
520.323	9626
520.393	10880
520.463	14786
520.534	9013
520.604	16303
520.674	10750
520.744	10824
520.814	19878
520.885	18270
520.955	23847
521.025	55803
521.095	18267
521.165	9446
521.235	8416
521.305	7332
521.375	9469
521.445	11136
521.515	16813
521.585	20476
521.655	15734
521.725	12823
521.795	10724
521.865	6287
521.935	11821
522.005	8207
522.075	7542
522.145	9013
522.215	8493
522.285	11015
522.355	13988
522.424	20360
522.494	18172
522.564	19303
522.634	54800
522.704	133847
522.774	33466
522.843	10757
522.913	11920
522.983	14916
523.053	10008
523.122	12607
523.192	24287
523.262	81760
523.331	51925
523.401	11351
523.471	8793
523.540	9255
523.610	6862
523.680	7300
523.749	7589
523.819	9097
523.888	7952
523.958	7789
524.027	8046
524.097	8997
524.166	9369
524.236	9569
524.305	10724
524.375	7437
524.444	6696
524.514	8530
524.583	7546
524.653	8577
524.722	10304
524.791	5690
524.861	9083
524.930	6620
524.999	9960
525.069	13262
525.138	8404
525.207	8499
525.277	9571
525.346	8493
525.415	8981
525.484	9970
525.554	8884
525.623	9721
525.692	9243
525.761	9785
525.830	12290
525.900	12558
525.969	18892
526.038	28122
526.107	60388
526.176	143181
526.245	91285
526.314	42960
526.383	86087
526.452	93032
526.522	185087
526.591	135767
526.660	62367
526.729	29361
526.797	39402
526.867	107035
526.935	391879
527.004	453033
527.073	154540
527.142	17738
527.211	13414
527.280	16025
527.349	15202
527.418	8107
527.487	9922
527.555	6952
527.624	7819
527.693	5803
527.762	9758
527.831	5464
527.899	7645
527.968	7187
528.037	7874
528.106	12316
528.174	21486
528.243	13286
528.312	22476
528.380	24598
528.449	8065
528.518	7805
528.586	5236
528.655	7251
528.723	6330
528.792	6635
528.861	6705
528.929	5663
528.998	7626
529.066	7364
529.135	7713
529.203	6519
529.272	7135
529.340	9617
529.409	10503
529.477	7373
529.545	8697
529.614	10527
529.682	9370
529.751	9660
529.819	13771
529.887	9868
529.956	9014
530.024	10329
530.092	8593
530.161	13406
530.229	19216
530.297	10547
530.365	10241
530.434	9895
530.502	8586
530.570	8907
530.638	8779
530.707	9243
530.775	11442
530.843	8134
530.911	9123
530.979	8942
531.047	9879
531.115	10516
531.183	9674
531.252	9081
531.320	9373
531.388	9028
531.456	10193
531.524	7504
531.592	10656
531.660	12216
531.728	9312
531.796	9538
531.864	10540
531.932	10663
532.000	10720
532.067	11464
532.135	12193
532.203	14915
532.271	15160
532.339	27031
532.407	62207
532.475	27414
532.542	15976
532.610	18789
532.678	32371
532.746	131438
532.814	227800
532.881	45204
532.949	13809
533.017	11287
533.084	10279
533.152	10609
533.220	11445
533.287	11882
533.355	10847
533.423	10191
533.490	9523
533.558	10432
533.625	10273
533.693	9627
533.761	11089
533.828	11074
533.896	11673
533.963	23878
534.031	27662
534.098	36458
534.166	14372
534.233	9700
534.300	11648
534.368	10587
534.435	10250
534.503	10365
534.570	10542
534.637	10244
534.705	11169
534.772	13377
534.840	22547
534.907	77602
534.974	66766
535.041	12147
535.109	10403
535.176	8652
535.243	10322
535.310	9781
535.378	9229
535.445	9443
535.512	9647
535.579	9635
535.646	8625
535.714	9476
535.781	10717
535.848	10077
535.915	10777
535.982	9559
536.049	9734
536.116	11136
536.183	10159
536.250	9527
536.317	10160
536.384	13273
536.451	20058
536.518	18226
536.585	13444
536.652	18156
536.719	25928
536.786	18040
536.853	15004
536.920	23127
536.987	35479
537.053	40256
537.120	144137
537.187	82681
537.254	12179
537.321	9652
537.388	11080
537.454	8744
537.521	9082
537.588	9237
537.654	11193
537.721	10925
537.788	11733
537.855	9154
537.921	10654
537.988	9856
538.055	11084
538.121	10338
538.188	12957
538.254	20944
538.321	37581
538.388	18859
538.454	10912
538.521	10066
538.587	9637
538.654	9506
538.720	9934
538.787	9191
538.853	11286
538.920	12723
538.986	12295
539.053	9773
539.119	12326
539.185	11553
539.252	15667
539.318	20817
539.385	14908
539.451	12361
539.517	13897
539.583	17996
539.650	47778
539.716	90468
539.782	19888
539.849	11268
539.915	13051
539.981	13295
540.047	15089
540.114	12100
540.180	13571
540.246	12682
540.312	20481
540.378	36923
540.444	35811
540.510	51165
540.576	106172
540.643	23012
540.709	10359
540.775	11603
540.841	10256
540.907	12816
540.973	15439
541.039	18764
541.105	20078
541.171	11369
541.237	11443
541.303	12178
541.369	16644
541.435	19711
541.500	33438
541.566	17105
541.632	10403
541.698	9979
541.764	11034
541.830	8686
541.896	9682
541.961	10970
542.027	11102
542.093	11733
542.159	12801
542.224	12243
542.290	20447
542.356	31417
542.421	33477
542.487	15224
542.553	11527
542.618	11976
542.684	10554
542.750	12398
542.815	17400
542.881	29824
542.947	104059
543.012	51045
543.078	12515
543.143	10583
543.209	12980
543.274	12479
543.340	16798
543.405	43256
543.471	50413
543.536	12325
543.602	10680
543.667	8963
543.732	11609
543.798	7820
543.863	10935
543.928	9051
543.994	8863
544.059	10219
544.124	10887
544.190	10287
544.255	11897
544.320	10672
544.386	12564
544.451	18153
544.516	20268
544.581	22424
544.646	68458
544.712	77014
544.777	15492
544.842	11358
544.907	11439
544.972	10635
545.037	12823
545.102	12688
545.168	12079
545.233	13732
545.298	13603
545.363	15372
545.428	19960
545.493	41384
545.558	75127
545.623	22216
545.688	11569
545.753	12821
545.818	12264
545.883	13058
545.947	11969
546.012	13274
546.077	12980
546.142	14136
546.207	14095
546.272	20084
546.337	19190
546.401	14429
546.466	13972
546.531	12901
546.596	16349
546.661	15401
546.725	15808
546.790	14009
546.855	16573
546.919	14831
546.984	18030
547.049	18446
547.113	21628
547.178	19776
547.243	24359
547.307	25487
547.372	28981
547.436	27036
547.501	28161
547.565	29503
547.630	33244
547.695	28972
547.759	27323
547.823	26204
547.888	26773
547.952	27921
548.017	28357
548.081	30371
548.146	32128
548.210	30090
548.274	31095
548.339	28435
548.403	29274
548.468	26599
548.532	26850
548.596	27106
548.660	28328
548.725	31457
548.789	33936
548.853	32737
548.917	29561
548.982	30978
549.046	28219
549.110	23569
549.174	26019
549.238	28958
549.303	30848
549.367	31930
549.431	28818
549.495	27438
549.559	28368
549.623	33929
549.687	38465
549.751	45169
549.815	40849
549.879	40278
549.943	37638
550.007	40542
550.071	40496
550.135	43469
550.199	37569
550.263	33701
550.327	35333
550.391	35578
550.455	37373
550.519	39712
550.582	43244
550.646	55025
550.710	51564
550.774	43989
550.838	45459
550.901	45362
550.965	48113
551.029	50713
551.093	54690
551.156	58663
551.220	72129
551.284	74447
551.347	56940
551.411	60085
551.475	55711
551.538	48033
551.602	44168
551.666	43583
551.729	39813
551.793	40107
551.856	40209
551.920	39909
551.983	39971
552.047	39672
552.110	40421
552.174	39117
552.237	41255
552.301	37652
552.364	35881
552.428	35804
552.491	38435
552.554	39410
552.618	38219
552.681	40129
552.745	39904
552.808	50754
552.871	55207
552.934	42487
552.998	37648
553.061	37240
553.124	36641
553.187	36221
553.251	37603
553.314	38116
553.377	39397
553.440	43561
553.503	58979
553.567	60588
553.630	41028
553.693	38865
553.756	40869
553.819	39421
553.882	39164
553.945	38995
554.008	39150
554.071	37672
554.134	39771
554.197	36529
554.260	36779
554.323	39869
554.386	39677
554.449	40425
554.512	40033
554.575	37479
554.638	39584
554.701	36617
554.764	37553
554.827	35734
554.889	35580
554.952	32203
555.015	32490
555.078	32588
555.141	34524
555.203	33191
555.266	32692
555.329	32314
555.391	32518
555.454	32888
555.517	31127
555.580	30333
555.642	29514
555.705	28236
555.768	29777
555.830	28078
555.893	26523
555.955	26616
556.018	26860
556.080	25924
556.143	27085
556.206	25368
556.268	26830
556.330	27450
556.393	26289
556.455	26164
556.518	28210
556.580	26675
556.643	23213
556.705	23572
556.767	22706
556.830	24090
556.892	28406
556.955	34435
557.017	26447
557.079	22203
557.142	23011
557.204	27672
557.266	42728
557.328	29563
557.391	19659
557.453	19393
557.515	20824
557.577	24378
557.639	22471
557.701	19333
557.764	18756
557.826	19446
557.888	20853
557.950	20296
558.012	23330
558.074	29908
558.136	57952
558.198	97203
558.260	33373
558.322	22385
558.384	23228
558.446	25775
558.508	27635
558.570	35367
558.632	60732
558.694	78464
558.756	90566
558.818	249049
558.880	427940
558.942	109491
559.003	104893
559.065	43015
559.127	27185
559.189	27423
559.251	34781
559.312	52198
559.374	122121
559.436	299047
559.498	98343
559.559	26093
559.621	27154
559.683	35057
559.744	59330
559.806	165382
559.868	169851
559.929	34161
559.991	29406
560.052	46495
560.114	103052
560.176	55627
560.237	72759
560.299	84113
560.360	21789
560.422	15439
560.483	16079
560.545	15100
560.606	14855
560.667	14837
560.729	14127
560.790	13842
560.852	14802
560.913	14162
560.974	14108
561.036	13552
561.097	14682
561.158	14106
561.220	14801
561.281	14977
561.342	16261
561.403	20840
561.465	26702
561.526	56693
561.587	57409
561.648	16569
561.709	14549
561.771	15902
561.832	14871
561.893	14845
561.954	15775
562.015	14354
562.076	14296
562.137	15117
562.198	14332
562.259	14715
562.320	16045
562.381	18076
562.442	24907
562.503	17904
562.564	15286
562.625	14865
562.686	15208
562.747	16589
562.808	14968
562.869	14202
562.930	17310
562.991	14875
563.051	15817
563.112	15093
563.173	14843
563.234	13252
563.294	15488
563.355	14591
563.416	14694
563.477	14386
563.537	14935
563.598	15701
563.659	15667
563.720	14982
563.780	15353
563.841	15589
563.901	15735
563.962	14174
564.023	14817
564.083	16123
564.144	14862
564.204	13966
564.265	15218
564.325	16729
564.386	23198
564.446	19179
564.507	14457
564.567	14415
564.628	15412
564.688	14514
564.749	14907
564.809	16426
564.869	16661
564.930	14233
564.990	15180
565.050	14659
565.111	16107
565.171	14034
565.231	14870
565.292	15903
565.352	14289
565.412	15664
565.472	15443
565.532	15913
565.593	16182
565.653	15165
565.713	16027
565.773	17493
565.833	20607
565.893	21891
565.953	16074
566.013	15099
566.074	16473
566.134	18346
566.194	24148
566.254	23466
566.314	18523
566.374	15264
566.434	16145
566.494	16402
566.554	16078
566.614	16364
566.673	17238
566.733	16682
566.793	17545
566.853	16836
566.913	17411
566.973	18318
567.033	18787
567.092	17299
567.152	19087
567.212	18216
567.272	17904
567.331	17256
567.391	17475
567.451	19118
567.511	21468
567.570	20817
567.630	17644
567.690	17200
567.749	17860
567.809	17367
567.868	19593
567.928	20527
567.988	22881
568.047	23476
568.107	27674
568.166	35324
568.226	51260
568.285	61783
568.345	47476
568.404	36164
568.464	33948
568.523	31369
568.582	34748
568.642	39225
568.701	48024
568.761	70228
568.820	104959
568.879	85972
568.939	61831
568.998	43196
569.057	35880
569.116	29131
569.176	26720
569.235	22355
569.294	21127
569.353	21025
569.413	20138
569.472	18645
569.531	18219
569.590	17139
569.649	17657
569.708	16820
569.767	17062
569.827	18889
569.886	16981
569.945	15275
570.004	16696
570.063	16228
570.122	18291
570.181	17016
570.240	17828
570.299	17777
570.358	17899
570.417	15334
570.475	16095
570.534	17827
570.593	17497
570.652	17007
570.711	16202
570.770	15546
570.829	17073
570.887	17315
570.946	17841
571.005	15187
571.064	15878
571.122	16244
571.181	16616
571.240	14759
571.299	15262
571.357	15303
571.416	16369
571.475	16932
571.533	16417
571.592	14522
571.650	15348
571.709	13968
571.768	16225
571.826	15132
571.885	14840
571.943	13748
572.002	14270
572.060	13779
572.119	13357
572.177	14013
572.236	13428
572.294	13140
572.352	14218
572.411	13607
572.469	14068
572.528	14007
572.586	14043
572.644	15439
572.703	17967
572.761	14144
572.819	14245
572.877	12569
572.936	12701
572.994	13891
573.052	13342
573.110	14022
573.169	13169
573.227	12893
573.285	13549
573.343	12935
573.401	12140
573.459	12465
573.517	13600
573.576	12839
573.634	14106
573.692	12639
573.750	13075
573.808	11609
573.866	13943
573.924	14743
573.982	14353
574.040	13017
574.098	12825
574.155	11886
574.213	13166
574.271	11964
574.329	11988
574.387	11803
574.445	12565
574.503	11913
574.560	11670
574.618	12410
574.676	11858
574.734	11386
574.792	12850
574.849	11197
574.907	11130
574.965	11057
575.022	11149
575.080	11369
575.138	12491
575.195	12280
575.253	12831
575.311	13580
575.368	11707
575.426	11357
575.483	12144
575.541	11435
575.598	10367
575.656	11849
575.713	12852
575.771	11061
575.828	11770
575.886	12187
575.943	12922
576.001	12674
576.058	12073
576.115	12357
576.173	14881
576.230	15955
576.287	18211
576.345	13781
576.402	12835
576.459	12195
576.517	13123
576.574	13279
576.631	14144
576.688	12112
576.746	12267
576.803	12106
576.860	11925
576.917	12751
576.974	12620
577.031	11946
577.089	12488
577.146	12217
577.203	13398
577.260	12770
577.317	14347
577.374	14251
577.431	13608
577.488	12616
577.545	11989
577.602	12514
577.659	12405
577.716	12672
577.773	11903
577.830	12276
577.886	12398
577.943	11587
578.000	11777
578.057	12238
578.114	13558
578.171	12302
578.227	12503
578.284	11689
578.341	12828
578.398	12465
578.454	13859
578.511	14332
578.568	15963
578.625	12867
578.681	13319
578.738	11917
578.794	12971
578.851	13462
578.908	14296
578.964	15839
579.021	15188
579.077	13429
579.134	14755
579.190	12884
579.247	13626
579.303	13280
579.360	12242
579.416	13539
579.473	12814
579.529	11905
579.586	12191
579.642	12814
579.698	13623
579.755	12806
579.811	13223
579.867	13136
579.924	12474
579.980	12302
580.036	13315
580.093	13815
580.149	14906
580.205	13974
580.261	13967
580.317	13481
580.374	15193
580.430	16282
580.486	15374
580.542	13501
580.598	14267
580.619	14340
580.654	14485
580.692	14518
580.710	14566
580.765	13832
580.767	13825
580.823	15319
580.838	15115
580.879	14647
580.911	14766
580.935	14871
580.984	13111
580.991	12892
581.047	15106
581.057	14790
581.103	13447
581.130	14297
581.159	15210
581.203	13683
581.215	13299
581.270	15004
581.276	14875
581.326	13852
581.349	14107
581.382	14482
581.422	13552
581.438	13177
581.494	15109
581.494	15088
581.550	14253
581.567	14594
581.606	15285
581.640	14754
581.661	14482
581.713	14666
581.717	14699
581.773	14314
581.786	14451
581.829	14807
581.859	14564
581.885	14463
581.932	15265
581.940	15408
581.996	16108
582.004	15961
582.052	15142
582.077	14911
582.107	14720
582.150	15131
582.163	15259
582.219	15060
582.223	15110
582.274	15819
582.296	15401
582.330	14728
582.368	15376
582.386	15734
582.441	14589
582.441	14593
582.497	14756
582.514	14678
582.552	14709
582.587	15317
582.608	15587
582.659	14886
582.663	14846
582.719	14814
582.732	14675
582.774	14324
582.805	14994
582.830	15488
582.877	14842
582.885	14753
582.941	15386
582.950	15340
582.996	15118
583.023	15407
583.052	15751
583.095	14938
583.107	14699
583.162	16298
583.168	16146
583.218	14686
583.240	14845
583.273	15196
583.313	15184
583.328	15191
583.384	15156
583.385	15157
583.439	14860
583.458	14740
583.494	14644
583.531	14254
583.549	14128
583.603	15241
583.605	15268
583.660	15151
583.676	14991
583.715	14659
583.748	14679
583.770	14617
583.820	15377
583.825	15465
583.881	15613
583.893	15503
583.936	14935
583.965	14213
583.991	13672
584.038	14906
584.046	15110
584.101	14795
584.110	14809
584.156	14983
584.183	15240
584.211	15383
584.255	15219
584.266	15224
584.321	13412
584.328	13687
584.376	15827
584.400	15615
584.431	15309
584.472	15352
584.486	15289
584.541	15964
584.545	15943
584.596	15697
584.617	15881
584.651	16338
584.689	16823
584.706	16871
584.761	16351
584.762	16362
584.816	17168
584.834	17127
584.871	16877
584.906	16942
584.926	17001
584.978	17079
584.980	17079
585.035	16936
585.051	17446
585.090	18802
585.123	19064
585.145	19142
585.195	18799
585.200	18807
585.254	20597
585.267	20876
585.309	21505
585.340	22687
585.364	23600
585.412	24353
585.419	24490
585.473	28043
585.484	28995
585.528	33834
585.556	38729
585.583	47131
585.628	67019
585.637	73742
585.692	136861
585.700	145807
585.747	176673
585.772	147054
585.801	89957
585.845	39934
585.856	34205
585.910	25435
585.917	24540
585.965	22782
585.989	22785
586.019	22755
586.061	21650
586.074	21497
586.128	22221
586.133	22289
586.183	23117
586.205	23393
586.237	23311
586.277	22511
586.292	22274
586.346	22464
586.349	22496
586.401	23119
586.421	23325
586.455	23556
586.493	24796
586.509	25589
586.564	28543
586.565	28735
586.618	36579
586.637	35626
586.672	31858
586.709	28154
586.727	26655
586.781	27562
586.781	27549
586.835	26527
586.853	26250
586.889	25504
586.925	25167
586.944	25389
586.996	26720
586.998	26721
587.052	27303
587.068	27373
587.106	28008
587.140	28226
587.161	28268
587.212	29575
587.215	29641
587.269	30888
587.284	31220
587.323	31534
587.356	31956
587.377	32501
587.427	33885
587.431	33957
587.485	34686
587.499	35250
587.539	36905
587.571	37386
587.593	37986
587.643	40153
587.648	40283
587.702	41983
587.715	42427
587.755	44101
587.786	45818
587.810	47277
587.858	49680
587.864	50051
587.917	54633
587.930	55840
587.971	59647
588.001	62403
588.025	64586
588.073	68120
588.079	68824
588.133	77060
588.145	79132
588.187	85838
588.217	90203
588.241	95340
588.288	106546
588.295	108266
588.348	124890
588.360	128386
588.402	143052
588.431	154364
588.456	165430
588.503	190199
588.510	194639
588.564	233647
588.575	242983
588.617	288596
588.646	323556
588.671	366594
588.718	458731
588.725	478561
588.778	647720
588.789	685210
588.832	880776
588.861	1016968
588.886	1097622
588.932	1201625
588.939	1197967
588.993	1112517
589.004	1104805
589.047	1101332
589.075	1052602
589.100	926784
589.147	692610
589.154	669412
589.207	512619
589.218	484395
589.261	445584
589.290	427987
589.314	442954
589.361	483916
589.368	499925
589.421	647795
589.433	683264
589.475	880790
589.504	1017210
589.528	1066712
589.576	1101802
589.582	1090671
589.635	980107
589.647	944070
589.689	702191
589.718	538690
589.742	453218
589.790	303380
589.795	294710
589.849	221906
589.861	206519
589.902	177030
589.932	154923
589.955	142783
590.004	119239
590.009	117707
590.062	102815
590.075	99315
590.115	90701
590.146	84259
590.168	81029
590.218	74156
590.222	73753
590.275	68878
590.289	67649
590.328	64006
590.360	60897
590.381	59164
590.431	55543
590.435	55366
590.488	52244
590.503	51568
590.541	49862
590.574	48335
590.594	47686
590.645	45906
590.647	45800
590.700	43476
590.716	42772
590.753	41082
590.787	39646
590.806	39181
590.859	37995
590.859	37966
590.912	37403
590.930	37373
590.965	37264
591.001	37064
591.018	36467
591.071	34724
591.072	34730
591.124	35036
591.143	35164
591.177	34547
591.214	33858
591.230	33900
591.283	34394
591.285	34429
591.336	34106
591.356	34048
591.389	33735
591.427	33238
591.442	32614
591.495	30490
591.498	30359
591.547	29141
591.569	28684
591.600	28176
591.640	27483
591.653	27632
591.706	28663
591.711	28782
591.759	28077
591.782	27855
591.811	28602
591.853	29719
591.864	29429
591.917	27974
591.924	27818
591.969	27588
591.995	27492
592.022	27417
592.066	27374
592.075	27306
592.127	27174
592.137	27208
592.180	27678
592.208	27942
592.233	27148
592.279	25735
592.285	25721
592.338	26051
592.350	26157
592.390	25478
592.421	25021
592.443	25098
592.491	25420
592.495	25363
592.548	25094
592.562	25060
592.600	24955
592.633	24954
592.653	24294
592.704	22566
592.705	22709
592.775	23530
592.846	24931
592.916	25243
592.987	27527
593.058	23991
593.128	23544
593.199	22970
593.270	23551
593.341	23165
593.411	22747
593.482	24511
593.553	23576
593.623	22509
593.694	22651
593.764	23685
593.835	22918
593.906	22316
593.976	22103
594.047	21816
594.117	24964
594.188	23891
594.258	22790
594.329	22745
594.399	22556
594.470	23245
594.540	23180
594.611	22783
594.681	22232
594.751	22392
594.822	24155
594.892	23390
594.963	24796
595.033	24899
595.103	24538
595.174	24781
595.244	28571
595.314	30224
595.384	24368
595.455	25146
595.525	26047
595.595	26323
595.665	26305
595.736	25555
595.806	25799
595.876	24948
595.946	26320
596.016	25590
596.087	27390
596.157	26440
596.227	26308
596.297	27725
596.367	29743
596.437	30711
596.507	33581
596.577	33807
596.647	30713
596.717	30964
596.787	30727
596.857	31149
596.927	30944
596.997	31534
597.067	31664
597.137	32768
597.207	32038
597.277	32111
597.347	31407
597.417	30974
597.487	32044
597.557	32892
597.626	32365
597.696	34039
597.766	32977
597.836	34650
597.906	30170
597.975	28900
598.045	28795
598.115	30331
598.185	32591
598.254	34804
598.324	38519
598.394	37855
598.464	37899
598.533	35992
598.603	34652
598.672	34493
598.742	34875
598.812	32216
598.881	34204
598.951	33665
599.020	34176
599.090	34928
599.159	35332
599.229	33678
599.299	33570
599.368	34500
599.437	34392
599.507	32790
599.576	30900
599.646	31668
599.715	32504
599.785	30606
599.854	30209
599.924	31487
599.993	30320
600.062	29550
600.132	30334
600.201	32867
600.270	38416
600.340	37823
600.409	36800
600.478	35903
600.547	36313
600.617	34811
600.686	30664
600.755	28027
600.824	29015
600.894	28143
600.963	26577
601.032	26035
601.101	25731
601.170	25787
601.239	25153
601.308	27625
601.378	27506
601.447	25560
601.516	26781
601.585	28118
601.654	31248
601.723	27710
601.792	26541
601.861	28838
601.930	31728
601.999	32820
602.068	30487
602.137	33440
602.206	33072
602.275	30887
602.343	35269
602.412	33996
602.481	30551
602.550	29721
602.619	30063
602.688	31093
602.756	31013
602.825	29789
602.894	31376
602.963	31986
603.032	31531
603.100	31357
603.169	32399
603.238	32060
603.307	31164
603.375	31423
603.444	32465
603.513	31812
603.581	32956
603.650	32891
603.719	32343
603.787	32081
603.856	32202
603.924	33735
603.993	34639
604.061	34525
604.130	36716
604.198	37479
604.267	37479
604.335	36895
604.404	37820
604.472	38254
604.541	39183
604.609	38452
604.678	40702
604.746	40098
604.815	41132
604.883	41425
604.951	41598
605.020	41441
605.088	41638
605.156	41129
605.225	43102
605.293	42212
605.361	42600
605.429	42285
605.498	44451
605.566	45288
605.634	46540
605.702	47589
605.771	48543
605.839	48372
605.907	47042
605.975	45210
606.043	44359
606.111	45053
606.180	46525
606.248	45584
606.316	45277
606.384	44766
606.452	47459
606.520	52076
606.588	47228
606.656	43932
606.724	43614
606.792	40975
606.860	37586
606.928	33626
606.996	33544
607.064	33259
607.132	33962
607.200	36037
607.267	35726
607.335	37051
607.403	38398
607.471	36386
607.539	36668
607.607	36514
607.674	32188
607.742	33270
607.810	34307
607.878	33926
607.946	33008
608.013	33950
608.081	35105
608.149	35398
608.216	36141
608.284	36530
608.352	37211
608.419	35903
608.487	37944
608.555	35048
608.622	36231
608.690	37766
608.757	41810
608.825	42744
608.893	42148
608.960	42471
609.028	41622
609.095	41263
609.163	36879
609.230	34113
609.298	32886
609.365	32503
609.432	35613
609.500	38558
609.567	44014
609.635	50425
609.702	52336
609.769	49718
609.837	40588
609.904	34157
609.971	35397
610.039	42962
610.106	57477
610.173	112083
610.241	261619
610.308	141092
610.375	48269
610.442	38000
610.509	35473
610.577	36328
610.644	35369
610.711	37960
610.778	38738
610.845	38491
610.912	41953
610.980	43519
611.047	44924
611.114	43633
611.181	40623
611.248	40161
611.315	42638
611.382	42352
611.449	44494
611.516	46171
611.583	45575
611.650	45163
611.717	46482
611.784	47682
611.851	51247
611.918	56574
611.984	66446
612.051	102244
612.118	223254
612.185	555364
612.252	336779
612.319	80905
612.386	61674
612.452	54374
612.519	53206
612.586	53059
612.653	53099
612.719	52686
612.786	50510
612.853	46188
612.919	47090
612.986	46628
613.053	42980
613.120	41272
613.186	40738
613.253	41930
613.319	41103
613.386	41713
613.453	42427
613.519	44704
613.586	50411
613.652	61335
613.719	54248
613.785	51102
613.852	43861
613.918	41440
613.985	43810
614.051	47370
614.118	53824
614.184	52725
614.250	41624
614.317	42454
614.383	42087
614.449	43055
614.516	41461
614.582	42575
614.648	41207
614.715	41269
614.781	42062
614.847	41398
614.914	42000
614.980	39566
615.046	40199
615.112	41927
615.179	41251
615.245	44030
615.311	47291
615.377	58409
615.443	59363
615.509	48654
615.575	46531
615.642	44972
615.708	46973
615.774	50363
615.840	54543
615.906	63892
615.972	87988
616.038	154425
616.104	303823
616.170	678337
616.236	558120
616.302	126458
616.368	85806
616.434	60621
616.500	56990
616.565	62842
616.631	76246
616.697	62088
616.763	64011
616.829	97713
616.895	174672
616.961	164152
617.026	72157
617.092	47610
617.158	45698
617.224	43341
617.289	41462
617.355	39086
617.421	37658
617.487	39807
617.552	36462
617.618	36086
617.684	35372
617.749	37580
617.815	34836
617.880	34374
617.946	34587
618.012	36921
618.077	35500
618.143	35299
618.208	35042
618.274	36836
618.339	37497
618.405	31318
618.470	32953
618.536	31367
618.601	32049
618.667	29909
618.732	29427
618.798	28841
618.863	28406
618.928	28208
618.994	30713
619.059	33623
619.124	41924
619.190	33071
619.255	27601
619.320	27965
619.386	28520
619.451	26574
619.516	26739
619.581	27413
619.647	28042
619.712	26943
619.777	26409
619.842	28011
619.907	28232
619.972	28979
620.038	28882
620.103	27133
620.168	26663
620.233	27559
620.298	27122
620.363	27114
620.428	29401
620.493	28948
620.558	28917
620.623	29757
620.688	29349
620.753	29060
620.818	28558
620.883	29480
620.948	29137
621.013	28244
621.078	28593
621.143	28399
621.207	31211
621.272	30748
621.337	29724
621.402	29015
621.467	30176
621.532	29572
621.596	30477
621.661	28252
621.726	27872
621.791	27854
621.855	30677
621.920	31047
621.985	28688
622.049	31289
622.114	30264
622.179	29472
622.243	30290
622.308	29888
622.373	33148
622.437	31565
622.502	29872
622.566	29083
622.631	28752
622.695	30294
622.760	30964
622.824	30331
622.889	30919
622.953	33079
623.018	47061
623.082	43333
623.147	32363
623.211	32108
623.276	31958
623.340	28586
623.404	28947
623.469	28393
623.533	29742
623.597	28105
623.662	28298
623.726	26875
623.790	24997
623.854	24932
623.919	25561
623.983	24958
624.047	26288
624.111	26175
624.176	26382
624.240	26856
624.304	30894
624.368	25688
624.432	27005
624.496	27245
624.560	31799
624.625	33034
624.689	29008
624.753	28094
624.817	27256
624.881	26218
624.945	25399
625.009	24577
625.073	24972
625.137	27386
625.201	33703
625.265	32867
625.329	27253
625.393	27750
625.456	25977
625.520	26767
625.584	28039
625.648	29347
625.712	32784
625.776	45769
625.839	48232
625.903	28524
625.967	22858
626.031	28956
626.095	36624
626.158	25382
626.222	20247
626.286	19697
626.349	18768
626.413	17570
626.477	20249
626.540	18028
626.604	17647
626.668	18574
626.731	16848
626.795	17076
626.858	17649
626.922	15775
626.986	18192
627.049	14909
627.113	18782
627.176	17689
627.240	16862
627.303	16465
627.366	16400
627.430	17215
627.493	16901
627.557	16633
627.620	17338
627.684	16968
627.747	17133
627.810	14350
627.874	15045
627.937	13271
628.000	16658
628.064	15030
628.127	11967
628.190	14240
628.253	13594
628.317	12446
628.380	12593
628.443	12023
628.506	12924
628.569	12558
628.632	11504
628.696	11316
628.759	11298
628.822	10912
628.885	10715
628.948	11526
629.011	10758
629.074	10848
629.137	10437
629.200	10157
629.263	11960
629.326	9153
629.389	10343
629.452	11262
629.515	10041
629.578	9979
629.641	11169
629.704	10250
629.767	11710
629.830	10310
629.892	10291
629.955	10216
630.018	12256
630.081	12005
630.144	16807
630.207	10385
630.269	12076
630.332	9377
630.395	9759
630.458	10086
630.520	7580
630.583	9288
630.646	10141
630.708	8575
630.771	7829
630.834	10501
630.896	8891
630.959	8043
631.021	8408
631.084	8200
631.146	9878
631.209	10262
631.272	8962
631.334	9653
631.397	8919
631.459	9261
631.522	11626
631.584	10932
631.646	11492
631.709	11795
631.771	14623
631.834	11543
631.896	10080
631.958	8836
632.021	10226
632.083	8242
632.145	9754
632.208	9369
632.270	10349
632.332	8261
632.395	7498
632.457	9412
632.519	8496
632.581	9553
632.643	7693
632.706	8154
632.768	7052
632.830	8558
632.892	8962
632.954	7824
633.016	9530
633.078	8138
633.141	7844
633.203	7756
633.265	9190
633.327	8936
633.389	8072
633.451	10743
633.513	11735
633.575	11534
633.637	11554
633.698	10316
633.760	9654
633.822	8606
633.884	9472
633.946	9072
634.008	8456
634.070	9243
634.132	10772
634.193	11046
634.255	11897
634.317	11465
634.379	12667
634.441	10381
634.502	9483
634.564	8969
634.626	8827
634.687	8455
634.749	8401
634.811	8658
634.873	8042
634.934	7285
634.996	9252
635.057	6548
635.119	7251
635.181	7689
635.242	8523
635.304	6213
635.365	10269
635.427	7366
635.488	8639
635.550	7591
635.611	8095
635.673	6024
635.734	10256
635.796	8495
635.857	12243
635.918	8975
635.980	11327
636.041	10859
636.102	12497
636.164	12020
636.225	12972
636.286	9077
636.348	9293
636.409	9731
636.470	8513
636.531	7688
636.593	7284
636.654	7881
636.715	6777
636.776	7008
636.838	5853
636.899	6351
636.960	7262
637.021	5560
637.082	5730
637.143	6875
637.204	6354
637.265	5454
637.326	6767
637.387	6773
637.448	5197
637.509	7174
637.570	6576
637.631	6921
637.692	5218
637.753	4864
637.814	6271
637.875	5918
637.936	6656
637.997	5427
638.058	5898
638.119	6095
638.179	5621
638.240	5391
638.301	5859
638.362	4922
638.423	4952
638.483	6436
638.544	3847
638.605	5509
638.666	5351
638.726	6582
638.787	6276
638.848	4434
638.908	5640
638.969	4753
639.030	5985
639.090	4341
639.151	5191
639.211	7429
639.272	9121
639.332	16279
639.393	9065
639.453	4830
639.514	5687
639.574	5186
639.635	5229
639.695	6106
639.756	4408
639.816	5764
639.877	8032
639.937	15166
639.997	19634
640.058	5974
640.118	4170
640.178	5722
640.239	4931
640.299	5596
640.359	4410
640.420	5210
640.480	5999
640.540	6973
640.600	5539
640.661	6885
640.721	5885
640.781	9856
640.841	5705
640.901	6102
640.961	5684
641.021	7144
641.082	7191
641.142	11328
641.202	8063
641.262	3091
641.322	6149
641.382	4213
641.442	4643
641.502	4617
641.562	5834
641.622	4283
641.682	5005
641.742	5446
641.802	6132
641.861	5624
641.921	5610
641.981	7895
642.041	6643
642.101	9224
642.161	4815
642.221	4050
642.280	4135
642.340	4172
642.400	3888
642.460	5633
642.519	4012
642.579	4129
642.639	5574
642.698	2101
642.758	5873
642.818	4525
642.877	3892
642.937	5003
642.997	7391
643.056	10685
643.116	4386
643.175	5352
643.235	4823
643.294	5320
643.354	5514
643.414	6145
643.473	8007
643.532	8444
643.592	12122
643.651	21456
643.711	39693
643.770	80355
643.830	199399
643.889	417550
643.948	91406
644.008	15846
644.067	9433
644.126	5798
644.186	6012
644.245	6573
644.304	3647
644.363	6504
644.423	3626
644.482	4622
644.541	4913
644.600	3069
644.659	6919
644.719	6897
644.778	11530
644.837	21511
644.896	44754
644.955	103702
645.014	30808
645.073	7000
645.132	5650
645.191	5910
645.250	4330
645.309	6354
645.368	4752
645.427	7997
645.486	10813
645.545	20567
645.604	5518
645.663	4829
645.722	4392
645.781	5646
645.840	6640
645.898	8396
645.957	13236
646.016	19077
646.075	37054
646.134	72535
646.192	206234
646.251	292729
646.310	39910
646.369	11677
646.427	8499
646.486	5451
646.545	5079
646.603	5131
646.662	4301
646.721	4296
646.779	3738
646.838	3828
646.896	6700
646.955	9035
647.014	12234
647.072	23617
647.131	65840
647.189	29583
647.248	5093
647.306	4744
647.365	4157
647.423	1594
647.481	4886
647.540	1390
647.598	2812
647.657	2156
647.715	3873
647.773	2448
647.832	4415
647.890	2325
647.948	2579
648.007	3710
648.065	1890
648.123	3030
648.181	4001
648.240	3040
648.298	2529
648.356	2252
648.414	2840
648.472	3022
648.531	2923
648.589	2897
648.647	2855
648.705	2218
648.763	3017
648.821	2698
648.879	3397
648.937	2789
648.995	5494
649.053	5465
649.111	9032
649.169	16347
649.227	28896
649.285	61810
649.343	183732
649.401	83322
649.459	26806
649.516	15225
649.574	5792
649.632	9516
649.690	10715
649.748	6956
649.806	8906
649.863	18264
649.921	45460
649.979	27248
650.037	5109
650.094	1430
650.152	3044
650.210	1985
650.268	3503
650.325	2863
650.383	3210
650.440	864
650.498	2374
650.556	2535
650.613	1864
650.671	2447
650.728	2349
650.786	2674
650.843	2645
650.901	1249
650.958	2265
651.016	1087
651.073	1439
651.131	1712
651.188	1041
651.246	1295
651.303	1174
651.360	2583
651.418	1713
651.475	1575
651.532	638
651.590	2074
651.647	886
651.704	2104
651.762	1448
651.819	2608
651.876	1011
651.933	900
651.990	3001
652.048	783
652.105	1375
652.162	2137
652.219	880
652.276	1829
652.333	1365
652.390	124
652.448	1419
652.505	665
652.562	1825
652.619	601
652.676	2605
652.733	2850
652.790	1524
652.847	-142
652.904	1178
652.961	65
653.017	1019
653.074	2585
653.131	1832
653.188	309
653.245	1484
653.302	637
653.359	1198
653.415	1533
653.472	612
653.529	1755
653.586	235
653.642	1277
653.699	2339
653.756	245
653.813	1044
653.869	821
653.926	225
653.983	758
654.039	1720
654.096	-22
654.152	1867
654.209	226
654.266	1260
654.322	496
654.379	1894
654.435	1711
654.492	2258
654.548	2808
654.605	4932
654.661	2404
654.717	1050
654.774	1960
654.830	980
654.887	16
654.943	1501
655.000	1605
655.056	1664
655.112	1871
655.168	383
655.225	1009
655.281	1606
655.337	1068
655.394	1986
655.450	1827
655.506	1867
655.562	2410
655.618	3643
655.675	162
655.731	751
655.787	951
655.843	1590
655.899	481
655.955	1391
656.011	885
656.067	718
656.123	2199
656.179	1280
656.235	2371
656.291	657
656.347	2289
656.403	453
656.459	614
656.515	1530
656.571	1198
656.627	1498
656.683	462
656.739	2308
656.795	731
656.850	2203
656.906	1822
656.962	2228
657.018	733
657.074	737
657.129	1889
657.185	2387
657.241	5326
657.297	2318
657.352	967
657.408	938
657.464	2056
657.519	1171
657.575	338
657.630	731
657.686	712
657.742	1488
657.797	1154
657.853	481
657.908	1615
657.964	607
658.019	892
658.075	690
658.130	1019
658.186	-180
658.241	1289
658.297	276
658.352	732
658.407	539
658.463	248
658.518	1288
658.573	901
658.629	-25
658.684	1297
658.739	1215
658.795	623
658.850	1434
658.905	-94
658.960	793
659.016	1124
659.071	1632
659.126	1150
659.181	1556
659.236	5048
659.291	5006
659.346	1749
659.401	1097
659.457	1794
659.512	1446
659.567	1653
659.622	1083
659.677	839
659.732	-41
659.787	465
659.842	704
659.897	262
659.952	1593
660.007	497
660.061	1112
660.116	-474
660.171	213
660.226	879
660.281	1773
660.336	-546
660.391	1321
660.445	135
660.500	1243
660.555	930
660.610	358
660.664	677
660.719	966
660.774	115
660.828	1652
660.883	1748
660.938	1001
660.992	-663
661.047	724
661.101	546
661.156	765
661.211	170
661.265	915
661.320	-102
661.374	729
661.429	-494
661.483	1452
661.538	-466
661.592	491
661.647	1741
661.701	642
661.755	442
661.810	842
661.864	931
661.919	611
661.973	782
662.027	534
662.081	569
662.136	249
662.190	866
662.244	367
662.299	174
662.353	2003
662.407	827
662.461	64
662.515	658
662.569	332
662.624	1472
662.678	563
662.732	478
662.786	250
662.840	648
662.894	997
662.948	544
663.002	544
663.056	542
663.110	704
663.164	23
663.218	156
663.272	1223
663.326	958
663.380	715
663.434	1139
663.488	466
663.542	414
663.595	389
663.649	689
663.703	590
663.757	702
663.811	-259
663.864	500
663.918	941
663.972	689
664.026	92
664.079	-446
664.133	325
664.187	115
664.240	-394
664.294	563
664.348	782
664.401	727
664.455	358
664.508	38
664.562	1048
664.615	1317
664.669	299
664.722	978
664.776	103
664.829	560
664.883	369
664.936	340
664.990	417
665.043	1169
665.097	528
665.150	1501
665.203	119
665.257	60
665.310	87
665.363	296
665.417	933
665.470	745
665.523	564
665.576	672
665.630	480
665.683	373
665.736	1038
665.789	394
665.842	-1018
665.895	-79
665.949	791
666.002	876
666.055	308
666.108	1154
666.161	568
666.214	1269
666.267	1271
666.320	1823
666.373	673
666.426	635
666.479	387
666.532	448
666.585	562
666.638	893
666.691	761
666.744	1312
666.796	-380
666.849	118
666.902	1009
666.955	551
667.008	234
667.060	104
667.113	448
667.166	509
667.219	762
667.271	498
667.324	-181
667.377	158
667.430	-44
667.482	600
667.535	537
667.587	1363
667.640	1199
667.693	1794
667.745	4032
667.798	4921
667.850	1104
667.903	415
667.955	426
668.008	452
668.060	544
668.113	564
668.165	219
668.218	640
668.270	738
668.322	636
668.375	-831
668.427	1305
668.479	137
668.532	69
668.584	129
668.636	826
668.689	408
668.741	-110
668.793	544
668.845	1058
668.898	622
668.950	765
669.002	239
669.054	332
669.106	-412
669.158	967
669.211	528
669.263	481
669.315	868
669.367	-259
669.419	787
669.471	1108
669.523	618
669.575	2196
669.627	602
669.679	-75
669.731	757
669.783	126
669.835	1050
669.886	160
669.938	755
669.990	357
670.042	-381
670.094	970
670.146	2
670.197	187
670.249	488
670.301	137
670.353	827
670.404	1908
670.456	2522
670.508	3440
670.560	7377
670.611	12045
670.663	21278
670.715	53710
670.766	81337
670.818	20990
670.869	2780
670.921	2553
670.972	1166
671.024	1032
671.075	842
671.127	958
671.178	-208
671.230	694
671.281	216
671.333	405
671.384	481
671.436	1670
671.487	1985
671.538	3083
671.590	4946
671.641	8106
671.692	13032
671.744	27404
671.795	16859
671.846	5436
671.897	1273
671.949	1927
672.000	1279
672.051	1181
672.102	507
672.153	503
672.204	74
672.256	525
672.307	205
672.358	713
672.409	-67
672.460	328
672.511	-1230
672.562	517
672.613	783
672.664	-11
672.715	-559
672.766	98
672.817	186
672.868	509
672.919	40
672.970	1
673.021	-70
673.071	-687
673.122	-88
673.173	1031
673.224	-91
673.275	-7
673.326	308
673.376	291
673.427	-309
673.478	94
673.528	-91
673.579	-128
673.630	-94
673.680	599
673.731	-94
673.782	-320
673.832	-281
673.883	168
673.934	-292
673.984	-211
674.035	-127
674.085	-84
674.136	-176
674.186	280
674.237	-522
674.287	516
674.338	-105
674.388	-116
674.438	-70
674.489	141
674.539	-111
674.589	-815
674.640	-781
674.690	14
674.740	-1267
674.791	677
674.841	-57
674.891	-667
674.942	255
674.992	259
675.042	-355
675.092	-315
675.142	-322
675.193	-311
675.243	-738
675.293	40
675.343	-1131
675.393	-761
675.443	-144
675.493	53
675.543	-561
675.593	-391
675.643	-768
675.693	-560
675.743	-655
675.793	-50
675.843	-341
675.893	-417
675.943	-558
675.993	-517
676.043	-147
676.093	383
676.142	-1051
676.192	-437
676.242	-1018
676.292	-435
676.341	-786
676.391	-543
676.441	-509
676.491	-414
676.540	-1163
676.590	-499
676.640	55
676.689	-154
676.739	-950
676.789	-352
676.838	-1353
676.888	-497
676.937	-1150
676.987	-1209
677.037	-343
677.086	-885
677.136	-777
677.185	-994
677.235	-985
677.284	-807
677.333	-740
677.383	-839
677.432	-904
677.482	-1286
677.531	-683
677.580	-821
677.630	-1727
677.679	-607
677.728	-664
677.778	-342
677.827	-482
677.876	-1160
677.925	-920
677.975	-656
678.024	-595
678.073	-1267
678.122	-385
678.171	-162
678.220	-487
678.269	404
678.319	-447
678.368	435
678.417	-981
678.466	507
678.515	-478
678.564	-281
678.613	-529
678.662	-1434
678.711	-1144
678.760	-757
678.809	-1248
678.857	-1520
678.906	-778
678.955	-349
679.004	-103
679.053	-885
679.102	-812
679.151	-552
679.199	-1128
679.248	-48
679.297	-1167
679.346	-200
679.394	-1010
679.443	-635
679.492	-516
679.540	-985
679.589	-608
679.638	-547
679.686	-689
679.735	-121
679.784	-810
679.832	-335
679.881	-705
679.929	-907
679.978	-956
680.026	-880
680.075	-1512
680.123	-1352
680.172	-1852
680.220	-1056
680.268	-468
680.317	-1051
680.365	-210
680.414	-795
680.462	-569
680.510	-33
680.559	-1257
680.607	-1250
680.655	-684
680.703	-1352
680.752	-1739
680.800	-1244
680.848	-1532
680.896	-1193
680.945	-529
680.993	-780
681.041	-586
681.089	-826
681.137	-1344
681.185	-657
681.233	-2259
681.258	-1672
681.281	-1162
681.329	-815
681.377	-461
681.380	-455
681.425	-1226
681.473	-356
681.502	-484
681.521	-658
681.569	335
681.617	-723
681.624	-578
681.665	36
681.713	284
681.745	393
681.761	376
681.809	-377
681.857	681
681.867	794
681.904	1026
681.952	116
681.989	257
682.000	235
682.048	1346
682.096	-245
682.111	261
682.143	1204
682.191	668
682.233	1592
682.239	1687
682.286	934
682.334	1315
682.354	1290
682.382	1178
682.430	1318
682.476	901
682.477	851
682.525	1719
682.572	903
682.598	1017
682.620	1084
682.667	1481
682.715	1956
682.720	1995
682.763	1905
682.810	2211
682.841	2431
682.857	2492
682.905	1772
682.952	2839
682.963	2762
683.000	2355
683.047	2411
683.085	2734
683.095	2759
683.142	2140
683.190	2974
683.206	2633
683.237	1966
683.284	3211
683.328	2416
683.332	2313
683.379	3263
683.426	2658
683.449	2644
683.473	2601
683.521	3281
683.568	3701
683.571	3722
683.615	3448
683.662	3773
683.693	2869
683.709	2386
683.757	3474
683.804	3585
683.814	3729
683.851	4011
683.898	4251
683.936	3813
683.945	3715
683.992	4492
684.039	4983
684.057	5127
684.086	5183
684.133	4610
684.179	5034
684.180	5014
684.227	5263
684.274	5227
684.300	5377
684.321	5488
684.368	5086
684.415	5521
684.422	5511
684.462	5261
684.509	4729
684.543	5283
684.556	5493
684.603	4823
684.649	5518
684.665	5460
684.696	5258
684.743	5436
684.786	6044
684.790	6084
684.837	5343
684.883	6709
684.908	6257
684.930	5770
684.977	6511
685.023	6709
685.029	6744
685.070	6585
685.117	5925
685.150	6450
685.164	6769
685.210	6923
685.257	8024
685.272	7859
685.303	7183
685.350	7714
685.393	7396
685.396	7379
685.443	7981
685.490	8846
685.514	8649
685.536	8189
685.583	8020
685.629	7851
685.636	7840
685.675	7851
685.722	8315
685.757	7965
685.768	7867
685.815	8104
685.861	8203
685.878	8176
685.908	8102
685.954	8608
686.000	9157
686.000	9164
686.047	9404
686.093	10797
686.121	10781
686.139	10346
686.185	9960
686.232	9676
686.242	9661
686.278	9536
686.324	8578
686.363	8662
686.370	8743
686.416	8554
686.463	8411
686.484	8876
686.509	9271
686.555	8955
686.601	8327
686.606	8359
686.647	8798
686.693	8966
686.727	9353
686.739	9479
686.785	8922
686.831	9070
686.848	9162
686.877	9275
686.923	9180
686.969	8951
686.969	8948
687.015	9408
687.061	9632
687.090	9926
687.107	10027
687.153	9197
687.199	9125
687.211	9112
687.245	9219
687.291	9637
687.332	9919
687.336	9956
687.382	10336
687.428	10000
687.453	10212
687.474	10128
687.520	9877
687.565	9116
687.574	9043
687.611	9194
687.657	9777
687.695	10054
687.702	10201
687.748	11151
687.794	12400
687.816	12396
687.839	11716
687.885	11234
687.931	10690
687.937	10619
687.976	10737
688.022	10972
688.058	10836
688.067	10844
688.113	10593
688.158	10979
688.179	11126
688.204	11298
688.249	11327
688.295	11272
688.300	11358
688.340	11991
688.386	12005
688.421	11340
688.431	11137
688.477	11371
688.522	11722
688.542	11790
688.567	11953
688.613	12240
688.658	11722
688.663	11732
688.703	11863
688.749	12056
688.784	11710
688.794	11623
688.839	11754
688.884	11770
688.905	11819
688.930	11928
688.975	11749
689.020	11790
689.026	11804
689.065	12146
689.110	12009
689.146	11886
689.155	11787
689.201	11984
689.246	11714
689.267	11510
689.291	11542
689.336	11880
689.381	12119
689.388	12173
689.426	12395
689.471	12137
689.509	12135
689.516	12176
689.561	12344
689.606	12420
689.630	12618
689.651	12711
689.696	11894
689.741	12213
689.750	12184
689.785	12351
689.830	12638
689.871	12653
689.875	12634
689.920	12081
689.965	12121
689.992	11662
690.010	11600
690.054	12140
690.099	12270
690.112	12392
690.144	12492
690.189	11906
690.233	11789
690.233	11810
690.278	12205
690.323	12358
690.354	12495
690.367	12513
690.412	12156
690.457	12373
690.474	12488
690.501	12827
690.546	12700
690.590	12775
690.595	12780
690.635	12792
690.680	12368
690.716	12576
690.724	12729
690.769	12396
690.813	13451
690.836	13266
690.857	13194
690.902	13585
690.946	13769
690.957	13902
690.991	14826
691.035	15856
691.077	16544
691.080	16581
691.124	16832
691.168	17236
691.198	17387
691.213	17216
691.257	16851
691.301	15621
691.318	15465
691.346	15241
691.390	14382
691.434	13971
691.439	13862
691.478	14093
691.522	14337
691.559	14738
691.567	14836
691.611	15212
691.655	14960
691.680	15050
691.699	14992
691.743	14787
691.787	14821
691.800	14664
691.831	14770
691.875	14986
691.919	15248
691.921	15237
691.964	15774
692.008	15678
692.041	15670
692.052	15634
692.096	15449
692.139	15579
692.162	15457
692.183	15414
692.227	15266
692.271	15183
692.282	15087
692.315	15204
692.359	15516
692.402	15778
692.403	15812
692.447	15643
692.490	15761
692.523	15747
692.534	15825
692.578	15581
692.622	15645
692.643	15801
692.666	15863
692.709	15364
692.753	15364
692.763	15262
692.797	15349
692.840	15588
692.884	15600
692.884	15638
692.928	15783
692.971	16245
693.004	16523
693.015	16538
693.059	16416
693.102	16065
693.124	15967
693.146	16168
693.189	16403
693.233	16438
693.245	16574
693.276	16986
693.320	17189
693.363	17067
693.365	17031
693.407	17238
693.450	17441
693.485	17266
693.493	17274
693.537	18025
693.580	18025
693.605	18101
693.624	18275
693.667	18240
693.710	18849
693.725	18926
693.753	20375
693.797	22426
693.840	25110
693.845	25278
693.883	24541
693.926	23742
693.966	23221
693.970	23060
694.013	20895
694.056	18496
694.086	16813
694.099	16952
694.142	17235
694.185	17908
694.206	18043
694.229	18062
694.272	17832
694.315	18081
694.326	17962
694.358	18121
694.401	18560
694.444	19024
694.446	18988
694.487	18820
694.530	18902
694.566	18803
694.573	18689
694.616	17522
694.659	16900
694.686	16128
694.702	16037
694.745	15914
694.787	15577
694.806	15430
694.830	15680
694.873	16184
694.916	16725
694.926	16691
694.959	16450
695.002	16645
695.044	16361
695.046	16326
695.087	16681
695.130	16542
695.166	16708
695.172	16795
695.215	16814
695.258	16977
695.286	17032
695.301	17150
695.343	17261
695.386	17527
695.406	17599
695.428	17354
695.471	16673
695.514	16128
695.526	15894
695.556	16358
695.599	16983
695.641	17592
695.646	17605
695.684	17357
695.726	17149
695.766	16963
695.769	17034
695.811	17179
695.854	17474
695.886	17754
695.896	17723
695.938	17042
695.981	16498
696.005	16203
696.023	16474
696.065	17008
696.108	17627
696.125	17775
696.150	17966
696.192	18034
696.235	18427
696.245	18425
696.277	18035
696.319	17558
696.361	17081
696.365	16989
696.404	17201
696.446	17261
696.485	17551
696.488	17614
696.530	17562
696.572	17611
696.604	17530
696.614	17552
696.656	17649
696.698	17509
696.724	17448
696.740	17489
696.783	17401
696.825	17368
696.844	17294
696.867	17545
696.909	17795
696.951	18315
696.964	18351
696.992	18160
697.034	17943
697.076	17701
697.083	17605
697.118	17944
697.160	18302
697.202	18656
697.203	18615
697.244	18264
697.286	17699
697.323	17242
697.327	17280
697.369	17168
697.411	16990
697.442	16847
697.453	17010
697.494	17535
697.536	17917
697.562	18150
697.578	18276
697.620	18513
697.661	18697
697.682	18721
697.703	19219
697.744	20149
697.786	21107
697.801	21390
697.828	21486
697.869	21446
697.911	21501
697.921	21451
697.952	20915
697.994	20117
698.035	19288
698.040	19131
698.077	19027
698.118	18915
698.160	18759
698.160	18704
698.201	18705
698.243	18616
698.279	18559
698.284	18657
698.325	18995
698.367	19421
698.399	19604
698.408	19530
698.449	19006
698.491	18446
698.518	18026
698.532	18169
698.573	18442
698.614	18712
698.638	18795
698.656	18820
698.697	18792
698.738	18735
698.757	18652
698.779	19025
698.820	19643
698.862	20249
698.877	20418
698.903	20504
698.944	20541
698.985	20587
698.996	20542
699.026	20456
699.067	20256
699.116	19963
699.235	19232
699.354	18485
699.474	19853
699.593	21507
699.713	21367
699.832	19699
699.951	21072
700.070	18360
700.190	18024
700.309	18733
700.428	20771
700.547	18714
700.667	18225
700.786	20185
700.905	18687
701.024	19263
701.143	18294
701.262	16813
701.381	17603
701.500	18738
701.619	19788
701.738	17671
701.857	17456
701.976	16047
702.095	16924
702.214	18046
702.333	19236
702.452	17701
702.571	16975
702.690	17412
702.809	15295
702.928	15758
703.047	16281
703.165	16287
703.284	16082
703.403	15895
703.522	18179
703.640	17007
703.759	19701
703.878	26151
703.997	17018
704.115	15865
704.234	15343
704.353	15075
704.471	14798
704.590	14322
704.708	15069
704.827	14563
704.946	14629
705.064	15990
705.183	15267
705.301	18819
705.420	26778
705.538	22316
705.656	19575
705.775	18703
705.893	25176
706.012	28347
706.130	20916
706.249	19774
706.367	19556
706.485	21405
706.604	21201
706.722	20425
706.840	24926
706.958	25626
707.077	21487
707.195	18492
707.313	18458
707.431	18690
707.549	17781
707.668	18134
707.786	18488
707.904	17681
708.022	18010
708.140	18566
708.258	17318
708.376	18844
708.494	17614
708.612	18685
708.730	28305
708.848	25985
708.966	24149
709.084	22668
709.202	22423
709.320	22306
709.438	22205
709.556	22526
709.674	21964
709.791	21627
709.909	21228
710.027	21770
710.145	21203
710.263	22017
710.380	21002
710.498	20963
710.616	20994
710.733	20713
710.851	21465
710.969	21541
711.086	20608
711.204	19440
711.322	19675
711.439	19766
711.557	21680
711.674	19150
711.792	18950
711.909	19954
712.027	20189
712.144	18694
712.262	19504
712.379	20543
712.497	29084
712.614	29031
712.732	24510
712.849	22934
712.966	25500
713.084	30347
713.201	25601
713.318	25544
713.436	23270
713.553	24036
713.670	24819
713.787	25816
713.905	25386
714.022	23673
714.139	24440
714.256	26290
714.373	29504
714.490	40427
714.608	81183
714.725	309645
714.842	327316
714.959	37017
715.076	25388
715.193	21774
715.310	22519
715.427	20739
715.544	19451
715.661	20404
715.778	19557
715.895	22835
716.011	21493
716.128	20798
716.245	20489
716.362	23939
716.479	24154
716.596	20041
716.713	20582
716.829	18467
716.946	19195
717.063	16896
717.180	18833
717.296	17902
717.413	19239
717.530	19257
717.646	18257
717.763	18443
717.880	17132
717.996	18094
718.113	17663
718.229	16514
718.346	16720
718.462	17747
718.579	22671
718.695	34878
718.812	26414
718.928	23441
719.045	18148
719.161	15963
719.277	15771
719.394	16506
719.510	16850
719.626	16223
719.743	21128
719.859	22220
719.975	31121
720.092	91761
720.208	204671
720.324	33661
720.440	18151
720.557	20196
720.673	27824
720.789	35807
720.905	67470
721.021	26265
721.137	15993
721.253	16507
721.369	16585
721.486	17507
721.602	24144
721.718	14586
721.834	13598
721.950	15535
722.066	13185
722.181	13805
722.297	15600
722.413	13897
722.529	14338
722.645	13350
722.761	13177
722.877	14587
722.993	13410
723.108	14320
723.224	13283
723.340	13435
723.456	12786
723.571	13000
723.687	11888
723.803	12534
723.918	13006
724.034	12543
724.150	12665
724.265	15202
724.381	26641
724.497	33868
724.612	12757
724.728	11122
724.843	11637
724.959	15053
725.074	25525
725.190	30083
725.305	13932
725.421	12812
725.536	10958
725.651	10774
725.767	11266
725.882	10628
725.997	10436
726.113	11696
726.228	11757
726.343	10603
726.459	9902
726.574	10408
726.689	11481
726.804	11053
726.920	11498
727.035	10404
727.150	11459
727.265	10784
727.380	11055
727.495	10845
727.610	10425
727.725	11199
727.841	11277
727.956	14012
728.071	14491
728.186	10987
728.301	8764
728.416	11161
728.531	9958
728.645	9133
728.760	10131
728.875	11180
728.990	9764
729.105	10106
729.220	11132
729.335	10732
729.449	9518
729.564	9132
729.679	8646
729.794	8909
729.908	10127
730.023	9445
730.138	8929
730.253	9355
730.367	8798
730.482	8320
730.596	8686
730.711	9053
730.826	9924
730.940	10017
731.055	9711
731.169	8542
731.284	8810
731.398	9203
731.513	10261
731.627	9460
731.742	11184
731.856	11859
731.970	10200
732.085	10661
732.199	12396
732.313	16658
732.428	37733
732.542	104302
732.656	63762
732.771	14635
732.885	11009
732.999	10556
733.113	10321
733.227	10438
733.342	9528
733.456	8926
733.570	8338
733.684	8449
733.798	8667
733.912	7967
734.026	7705
734.140	7955
734.254	9907
734.368	14387
734.482	18782
734.596	8356
734.710	8715
734.824	8109
734.938	8714
735.052	7225
735.166	9530
735.280	8491
735.393	8009
735.507	7313
735.621	11476
735.735	18776
735.849	9892
735.962	8858
736.076	8618
736.190	8788
736.303	11411
736.417	15736
736.531	7732
736.644	8017
736.758	6406
736.872	7179
736.985	7211
737.099	7396
737.212	6714
737.326	7324
737.439	6806
737.553	7085
737.666	7183
737.780	6680
737.893	6984
738.007	6966
738.120	6919
738.233	6996
738.347	7573
738.460	6897
738.573	7530
738.687	7707
738.800	7957
738.913	9911
739.026	7488
739.140	7495
739.253	6270
739.366	6344
739.479	5634
739.592	6081
739.705	6293
739.818	6156
739.932	5652
740.045	5664
740.158	7091
740.271	7023
740.384	7019
740.497	5776
740.610	6661
740.723	6223
740.836	6465
740.949	6335
741.062	9476
741.174	8371
741.287	6148
741.400	5500
741.513	6235
741.626	7041
741.739	6559
741.851	6707
741.964	6023
742.077	5354
742.189	6287
742.302	5931
742.415	6415
742.527	6020
742.640	6441
742.753	5722
742.865	5057
742.978	5768
743.090	5726
743.203	4851
743.316	5789
743.428	5657
743.541	5159
743.653	5505
743.766	5477
743.878	5919
743.990	7882
744.103	7880
744.215	6765
744.327	5679
744.440	7442
744.552	11972
744.664	6764
744.777	5801
744.889	5275
745.001	5606
745.113	5706
745.226	5492
745.338	5785
745.450	5662
745.562	4612
745.674	4817
745.786	4941
745.898	4850
746.010	4710
746.122	4919
746.234	5304
746.347	4807
746.459	5523
746.570	5582
746.682	5908
746.794	5302
746.906	5588
747.018	4768
747.130	5239
747.242	5152
747.354	4069
747.466	5391
747.577	5047
747.689	4878
747.801	4527
747.913	4847
748.024	4818
748.136	4461
748.248	4801
748.359	5301
748.471	4431
748.583	4767
748.694	4382
748.806	5368
748.918	6458
749.029	5721
749.141	5665
749.252	5842
749.364	6494
749.475	13269
749.587	9497
749.698	4395
749.809	5003
749.921	4703
750.032	5229
750.144	4328
750.255	5048
750.366	4035
750.478	4766
750.589	4111
750.700	5250
750.811	5588
750.923	7376
751.034	14133
751.145	14761
751.256	5594
751.367	4735
751.479	4448
751.590	4117
751.701	4309
751.812	3945
751.923	3955
752.034	4307
752.145	3434
752.256	3886
752.367	3795
752.478	4450
752.589	4712
752.700	4635
752.811	4239
752.922	4600
753.032	4520
753.143	5995
753.254	4631
753.365	4199
753.476	3832
753.586	4571
753.697	3907
753.808	4776
753.919	4068
754.029	4363
754.140	4671
754.251	4299
754.361	3847
754.472	4106
754.582	4380
754.693	3899
754.804	3955
754.914	3526
755.025	3095
755.135	4006
755.246	3442
755.356	3120
755.466	4852
755.577	4360
755.687	4054
755.798	4521
755.908	3858
756.018	4008
756.129	3589
756.239	3476
756.349	4336
756.460	4086
756.570	4020
756.680	3651
756.790	3825
756.900	4947
757.011	4088
757.121	3870
757.231	3810
757.341	3154
757.451	3353
757.561	3159
757.671	3757
757.781	3159
757.891	4627
758.001	4546
758.111	4125
758.221	4323
758.331	5763
758.441	5040
758.551	6973
758.661	6234
758.771	4249
758.880	4671
758.990	4469
759.100	4899
759.210	4096
759.320	4067
759.429	4046
759.539	3891
759.649	4806
759.758	4928
759.868	5400
759.978	4779
760.087	4376
760.197	4596
760.307	4687
760.416	4479
760.526	3915
760.635	4704
760.745	4778
760.854	4865
760.964	5411
761.073	5325
761.182	4844
761.292	4688
761.401	5424
761.511	4174
761.620	4768
761.729	4632
761.839	4656
761.948	5279
762.057	4282
762.166	3932
762.276	3648
762.385	5291
762.494	3989
762.603	4274
762.712	4825
762.822	4855
762.931	3740
763.040	3807
763.149	4252
763.258	3774
763.367	5126
763.476	4049
763.585	4600
763.694	4653
763.803	4726
763.912	4784
764.021	4639
764.130	4404
764.238	4805
764.347	5069
764.456	5371
764.565	5482
764.674	4988
764.783	5985
764.891	4140
765.000	7084
765.109	6087
765.217	6770
765.326	8167
765.435	9120
765.543	8582
765.652	10430
765.761	12196
765.869	16825
765.978	24141
766.086	43301
766.195	83174
766.303	204098
766.412	499237
766.520	437862
766.629	147984
766.737	56522
766.846	31506
766.954	21059
767.062	16854
767.171	14970
767.279	12235
767.387	9562
767.496	9383
767.604	7624
767.712	7290
767.820	7171
767.928	6909
768.037	7469
768.145	7491
768.253	6989
768.361	5870
768.469	5695
768.577	6168
768.685	6195
768.793	6123
768.901	6868
769.009	7251
769.117	8497
769.225	8731
769.333	13503
769.441	18393
769.549	33512
769.657	73729
769.765	223130
769.873	433140
769.981	179013
770.088	45293
770.196	21990
770.304	16082
770.412	12903
770.519	10421
770.627	8492
770.735	8118
770.842	6878
770.950	7088
771.058	6589
771.165	6155
771.273	5940
771.380	5703
771.488	6014
771.595	5344
771.703	5692
771.810	6329
771.918	5511
772.025	5663
772.133	4159
772.240	4855
772.348	6648
772.455	4676
772.562	4482
772.670	5050
772.777	6338
772.884	4088
772.991	4516
773.099	5152
773.206	4321
773.313	4389
773.420	5029
773.528	4178
773.635	4424
773.742	5721
773.849	5291
773.956	5361
774.063	4899
774.170	4138
774.277	5475
774.384	4420
774.491	5108
774.598	5413
774.705	5427
774.812	6034
774.919	5591
775.026	4855
775.133	4834
775.239	5357
775.346	5362
775.453	4517
775.560	4909
775.667	4476
775.773	3867
775.880	5576
775.987	4591
776.093	4801
776.200	4763
776.307	3196
776.413	5448
776.520	4726
776.627	5322
776.733	5046
776.840	3832
776.946	6417
777.053	5529
777.159	6323
777.266	4368
777.372	7035
777.478	6238
777.585	4929
777.691	4837
777.798	5070
777.904	5666
778.010	6557
778.117	6766
778.223	4082
778.329	5267
778.435	4223
778.542	4609
778.648	4072
778.754	2981
778.860	4070
778.966	4538
779.072	4431
779.178	4450
779.284	3802
779.391	3585
779.497	3128
779.603	5313
779.708	3493
779.815	5359
779.920	10278
780.026	19058
780.132	4839
780.238	3573
780.344	4209
780.450	4384
780.556	4153
780.661	2974
780.767	3622
780.873	3595
780.979	4036
781.085	3740
781.190	3420
781.296	2792
781.402	3607
781.507	3378
781.613	3829
781.719	3658
781.824	3515
781.930	3745
782.035	3965
782.141	4215
782.246	3374
782.352	3499
782.457	3787
782.563	3553
782.668	3204
782.773	3305
782.879	2721
782.984	3725
783.090	5553
783.195	8090
783.300	5219
783.405	4078
783.511	4308
783.616	4534
783.721	4570
783.826	3040
783.932	3298
784.037	3889
784.142	4104
784.247	3252
784.352	3096
784.457	3102
784.562	3022
784.667	3712
784.772	3363
784.877	2637
784.982	3724
785.087	3552
785.192	3717
785.297	2831
785.402	3033
785.507	3775
785.611	2275
785.716	3983
785.821	3589
785.926	2111
786.031	3213
786.135	3356
786.240	2563
786.345	2031
786.450	3495
786.554	2512
786.659	2760
786.763	2234
786.868	3619
786.973	3578
787.077	3012
787.182	2413
787.286	3305
787.391	2425
787.495	2379
787.600	2539
787.704	2914
787.809	3464
787.913	2229
788.017	3482
788.122	3189
788.226	2922
788.330	1951
788.435	2311
788.539	2837
788.643	1914
788.747	2588
788.852	2585
788.956	2470
789.060	3267
789.164	2836
789.268	2102
789.372	3443
789.476	2754
789.580	1488
789.684	2679
789.788	2873
789.892	2526
789.996	3124
790.100	3317
790.204	2725
790.308	3632
790.412	2490
790.516	3341
790.620	2584
790.724	3474
790.828	3062
790.931	2433
791.035	3882
791.139	2704
791.242	2697
791.346	3239
791.450	2354
791.554	2592
791.657	1995
791.761	3140
791.864	2589
791.968	2998
792.072	3062
792.175	2724
792.279	2436
792.382	2180
792.486	2836
792.589	2748
792.693	3116
792.796	1880
792.899	2955
793.003	3192
793.106	668
793.209	1837
793.313	3973
793.416	1474
793.519	3691
793.623	5105
793.726	6525
793.829	3791
793.932	2221
794.035	2364
794.138	4438
794.242	3029
794.345	2563
794.448	4235
794.551	5495
794.654	8710
794.757	10865
794.860	4750
794.963	3125
795.066	1860
795.169	3006
795.272	1864
795.375	2253
795.477	1844
795.580	2860
795.683	2192
795.786	1323
795.889	1386
795.991	2876
796.094	3466
796.197	2259
796.300	2697
796.402	1690
796.505	1830
796.608	1908
796.710	3247
796.813	2559
796.915	1319
797.018	2499
797.120	2455
797.223	796
797.326	2625
797.428	1505
797.530	1731
797.633	1936
797.735	3544
797.838	4905
797.940	4563
798.042	1446
798.145	1770
798.247	2865
798.349	953
798.452	2768
798.554	1617
798.656	1397
798.758	2575
798.860	2502
798.962	1083
799.065	1672
799.167	925
799.269	2293
799.371	3360
799.473	2576
799.575	2436
799.677	3779
799.779	4683
799.881	3824
799.983	3177
800.085	1977
800.187	2077
800.289	993
800.390	2127
800.492	2531
800.594	2257
800.696	1931
800.798	1604
800.899	1257
801.001	1377
801.103	1720
801.205	1560
801.306	1970
801.408	1209
801.509	1949
801.611	2482
801.713	2342
801.814	1335
801.916	1132
802.017	1167
802.119	1343
802.220	2060
802.322	855
802.423	4859
802.525	1255
802.626	2262
802.727	2399
802.829	3150
802.930	-167
803.031	3265
803.133	1123
803.234	1830
803.335	1331
803.436	157
803.538	2082
803.639	211
803.740	1848
803.841	1058
803.942	1302
804.043	1680
804.144	771
804.245	2049
804.346	1669
804.447	1516
804.548	3823
804.649	3654
804.750	1604
804.851	1867
804.952	2115
805.053	1361
805.154	874
805.255	2636
805.355	1014
805.456	1365
805.557	1249
805.658	1566
805.758	1669
805.859	1674
805.960	1078
806.061	1088
806.161	684
806.262	2074
806.362	1766
806.463	1111
806.564	1892
806.664	919
806.765	1951
806.865	3159
806.966	2229
807.066	964
807.166	1770
807.267	2721
807.367	1392
807.468	2023
807.568	564
807.668	2709
807.769	1968
807.869	952
807.969	1287
808.069	2769
808.170	2199
808.270	929
808.370	2421
808.470	3618
808.570	1243
808.670	1609
808.770	1647
808.870	893
808.970	1673
809.070	1551
809.170	667
809.271	2319
809.370	858
809.470	1172
809.570	1311
809.670	1425
809.770	1772
809.870	1637
809.970	894
810.070	1412
810.169	1619
810.269	141
810.369	2354
810.469	938
810.568	919
810.668	863
810.768	877
810.867	1842
810.967	1244
811.066	1152
811.166	1065
811.265	2344
811.365	1397
811.464	1246
811.564	2302
811.663	1513
811.763	83
811.862	1931
811.962	2425
812.061	584
812.160	836
812.260	1218
812.359	1727
812.458	833
812.557	2669
812.657	1973
812.756	2217
812.855	1571
812.954	1698
813.053	2111
813.153	1726
813.252	305
813.351	2400
813.450	2008
813.549	614
813.648	2169
813.747	1011
813.846	2026
813.945	432
814.044	1429
814.143	1757
814.242	2411
814.341	662
814.439	2125
814.538	1434
814.637	1773
814.736	1348
814.835	2426
814.933	2045
815.032	2080
815.131	1776
815.229	1916
815.328	3396
815.427	1911
815.525	2288
815.624	2816
815.722	1344
815.821	2867
815.919	2678
816.018	2448
816.116	2818
816.215	1826
816.313	2848
816.412	4093
816.510	2936
816.609	4560
816.707	2918
816.805	2955
816.904	3420
817.002	4028
817.100	3871
817.198	4674
817.296	4149
817.395	4809
817.493	7093
817.591	6671
817.689	9171
817.787	12152
817.885	18332
817.983	31919
818.081	65839
818.179	145784
818.277	327536
818.375	305536
818.473	101973
818.571	42165
818.669	27005
818.767	23176
818.865	21964
818.963	27235
819.061	37149
819.158	59804
819.256	119417
819.354	250946
819.452	453606
819.549	345136
819.647	135256
819.745	58946
819.842	34949
819.940	23155
820.038	17290
820.135	13832
820.233	11648
820.330	8814
820.428	6742
820.525	7581
820.623	5656
820.720	5569
820.818	6240
820.915	4553
821.012	4738
821.110	3558
821.207	4196
821.304	3258
821.402	4053
821.499	4615
821.596	3487
821.693	3853
821.791	3273
821.888	4700
821.985	8794
822.082	5933
822.179	3479
822.276	3109
822.373	3000
822.470	2390
822.567	2173
822.664	2175
822.761	1485
822.858	1631
822.955	2280
823.052	2233
823.149	1266
823.246	2096
823.343	1442
823.440	2032
823.536	2188
823.633	2017
823.730	1862
823.827	1526
823.923	2333
824.020	3533
824.117	1882
824.213	1346
824.310	1856
824.407	1673
824.503	1904
824.600	1761
824.696	1863
824.793	1637
824.889	916
824.986	1360
825.082	806
825.179	2166
825.275	1420
825.371	1242
825.468	1514
825.564	1040
825.660	1723
825.757	1687
825.853	1929
825.949	1020
826.045	1487
826.142	993
826.238	1871
826.334	1621
826.430	386
826.526	1303
826.622	993
826.718	1455
826.814	1219
826.910	1629
827.006	664
827.102	415
827.198	1900
827.294	1544
827.390	1223
827.486	2044
827.582	-7
827.678	1180
827.774	1754
827.869	273
827.965	2724
828.061	617
828.157	1049
828.252	754
828.348	376
828.444	1536
828.539	286
828.635	758
828.731	1779
828.826	985
828.922	1439
829.017	1894
829.113	1794
829.208	1150
829.304	2
829.399	2696
829.495	773
829.590	2150
829.685	718
829.781	903
829.876	1013
829.971	888
830.066	635
830.162	1229
830.257	1159
830.352	646
830.447	1424
830.543	1361
830.638	-235
830.733	3260
830.828	1348
830.923	1831
831.018	1144
831.113	1529
831.208	210
831.303	997
831.398	1577
831.493	1274
831.588	1482
831.683	768
831.778	1245
831.873	1818
831.967	1846
832.062	1362
832.157	345
832.252	1798
832.346	640
832.441	2335
832.536	4054
832.631	7892
832.725	6062
832.820	898
832.914	1178
833.009	650
833.104	2685
833.198	2529
833.293	446
833.387	1071
833.482	1371
833.576	728
833.670	1374
833.765	267
833.859	1466
833.954	1764
834.048	961
834.142	1543
834.237	1144
834.331	1104
834.425	1009
834.519	212
834.613	1167
834.708	-80
834.802	1406
834.896	560
834.990	1219
835.084	1734
835.178	1040
835.272	1521
835.366	349
835.460	1454
835.554	987
835.648	1572
835.742	222
835.836	1122
835.930	775
836.024	1446
836.117	1705
836.211	645
836.305	2545
836.399	3597
836.493	379
836.586	1118
836.680	-290
836.774	603
836.867	1995
836.961	-359
837.055	-56
837.148	1044
837.242	1541
837.335	950
837.429	558
837.522	1192
837.616	1279
837.709	3867
837.803	2961
837.896	1081
837.989	1140
838.083	2428
838.176	4576
838.269	4330
838.363	2020
838.456	1028
838.549	2231
838.642	4513
838.735	9020
838.829	4198
838.922	704
839.015	433
839.108	238
839.201	551
839.294	1377
839.387	1490
839.480	1243
839.573	2061
839.666	3006
839.759	841
839.852	520
839.945	1008
840.038	96
840.131	845
840.223	430
840.316	1120
840.409	1157
840.502	1032
840.594	1742
840.687	-391
840.780	387
840.873	701
840.965	726
841.058	2357
841.150	3939
841.243	2693
841.336	1611
841.428	1270
841.521	263
841.613	1156
841.706	1507
841.798	1498
841.890	1330
841.983	702
842.075	1452
842.167	1063
842.260	951
842.352	1808
842.444	1843
842.537	4786
842.629	6169
842.721	2110
842.813	280
842.905	105
842.997	618
843.090	1462
843.182	2617
843.274	4539
843.366	9615
843.458	19621
843.550	13169
843.642	1655
843.734	1084
843.826	1089
843.918	1557
844.009	897
844.101	531
844.193	1121
844.285	1018
844.377	1042
844.469	1563
844.560	759
844.652	992
844.744	1253
844.835	519
844.927	1236
845.019	791
845.110	1604
845.202	229
845.293	1033
845.385	-170
845.476	774
845.568	1741
845.659	910
845.751	952
845.842	766
845.934	-541
846.025	-75
846.116	927
846.208	886
846.299	-8
846.390	787
846.482	501
846.573	1811
846.664	1461
846.755	2830
846.846	3591
846.937	334
847.029	1493
847.120	1087
847.211	-234
847.302	1232
847.393	53
847.484	1961
847.575	517
847.666	300
847.757	627
847.847	451
847.938	598
848.029	127
848.120	-370
848.211	745
848.302	-498
848.392	566
848.483	1172
848.574	-97
848.664	-271
848.755	617
848.846	645
848.936	-245
849.027	876
849.118	412
849.208	493
849.299	1199
849.389	1501
849.480	3237
849.570	5870
849.661	11685
849.751	20151
849.841	7724
849.932	1389
850.022	756
850.112	1142
850.203	77
850.293	440
850.383	-334
850.474	-248
850.564	209
850.654	612
850.744	487
850.834	167
850.924	664
851.014	410
851.104	1249
851.194	-205
851.284	825
851.374	1216
851.464	1192
851.554	1064
851.644	1102
851.734	1417
851.824	1800
851.914	125
852.004	731
852.094	323
852.183	1074
852.273	689
852.363	338
852.452	306
852.542	1231
852.632	773
852.721	467
852.811	87
852.901	868
852.990	170
853.080	462
853.169	774
853.259	785
853.348	142
853.438	1937
853.527	1994
853.617	2250
853.706	4374
853.795	8852
853.885	20366
853.974	37852
854.063	70258
854.152	113191
854.242	41971
854.331	6837
854.420	2519
854.509	2038
854.598	1686
854.687	1525
854.777	1965
854.866	965
854.955	1196
855.044	871
855.133	33
855.222	557
855.311	829
855.400	67
855.488	602
855.577	572
855.666	576
855.755	1362
855.844	857
855.933	674
856.021	137
856.110	583
856.199	-458
856.288	209
856.376	481
856.465	195
856.554	112
856.642	866
856.731	204
856.819	1075
856.908	274
856.996	216
857.085	587
857.173	137
857.262	185
857.350	1098
857.438	396
857.527	961
857.615	-18
857.703	586
857.792	292
857.880	214
857.968	874
858.056	882
858.145	555
858.233	934
858.321	-283
858.409	1359
858.497	348
858.585	381
858.673	388
858.761	-81
858.849	329
858.937	-152
859.025	437
859.113	507
859.201	-278
859.289	757
859.377	-198
859.465	664
859.552	479
859.640	644
859.728	784
859.816	270
859.903	489
859.991	430
860.079	-156
860.166	260
860.254	-88
860.342	1370
860.429	187
860.517	-108
860.604	746
860.692	633
860.779	-387
860.867	1748
860.954	917
861.042	286
861.129	923
861.216	464
861.304	-112
861.391	294
861.478	-205
861.565	372
861.653	1023
861.740	-179
861.827	792
861.914	136
862.001	-79
862.089	115
862.176	247
862.263	-58
862.350	64
862.437	-38
862.524	245
862.611	734
862.698	870
862.785	-322
862.871	1191
862.958	351
863.045	94
863.132	673
863.219	599
863.306	-789
863.392	716
863.479	328
863.566	522
863.652	794
863.739	-271
863.826	227
863.912	1501
863.999	-153
864.086	484
864.172	51
864.259	652
864.345	-1089
864.432	684
864.518	786
864.604	-219
864.691	239
864.777	390
864.863	451
864.950	545
865.036	570
865.122	1295
865.209	1729
865.295	1456
865.381	1433
865.467	792
865.553	2072
865.639	2474
865.726	4331
865.812	9536
865.898	19346
865.984	29754
866.070	56528
866.156	62336
866.242	15195
866.328	3456
866.414	1600
866.499	2379
866.585	1371
866.671	483
866.757	1962
866.843	1757
866.928	466
867.014	819
867.100	1292
867.186	951
867.271	1424
867.357	2550
867.442	2756
867.528	1992
867.614	1281
867.699	663
867.785	1524
867.870	1256
867.956	1810
868.041	2261
868.127	1179
868.212	2133
868.297	1996
868.383	637
868.468	2029
868.553	3784
868.639	4855
868.724	10201
868.809	8419
868.894	2214
868.979	1523
869.065	856
869.150	163
869.235	1333
869.320	891
869.405	571
869.490	883
869.575	492
869.660	830
869.745	712
869.830	115
869.915	22
870.000	961
870.085	490
870.169	1053
870.254	1459
870.339	760
870.424	-17
870.509	510
870.593	859
870.678	283
870.763	808
870.847	1174
870.932	1134
871.016	1551
871.101	91
871.186	551
871.270	911
871.355	-28
871.439	476
871.523	199
871.608	838
871.692	1289
871.777	473
871.861	1017
871.945	318
872.030	1125
872.114	5
872.198	-216
872.282	495
872.367	1077
872.451	514
872.535	-464
872.619	-569
872.703	65
872.787	124
872.871	217
872.955	906
873.039	-543
873.123	-553
873.207	1279
873.291	380
873.375	492
873.459	-303
873.543	551
873.627	-211
873.711	193
873.794	456
873.878	482
873.962	507
874.045	724
874.129	-227
874.137	-190
874.213	177
874.245	172
874.296	165
874.352	-60
874.380	-175
874.460	7
874.464	15
874.547	-966
874.568	-572
874.631	593
874.676	515
874.714	450
874.784	736
874.798	785
874.881	1114
874.892	975
874.965	89
874.999	400
875.048	795
875.107	145
875.131	-125
875.215	753
875.215	753
875.298	884
875.323	844
875.381	772
875.430	485
875.465	280
875.538	177
875.548	149
875.631	379
875.646	352
875.714	353
875.753	106
875.798	-202
875.861	673
875.881	932
875.964	1164
875.968	1147
876.047	910
876.076	842
876.130	705
876.183	699
876.213	691
876.291	1110
876.296	1137
876.379	34
876.398	181
876.462	635
876.506	570
876.545	593
876.613	205
876.628	111
876.711	445
876.721	411
876.794	20
876.828	240
876.877	639
876.935	15
876.960	-230
877.043	698
877.043	696
877.125	38
877.150	370
877.208	1279
877.258	716
877.291	346
877.365	539
877.374	562
877.456	1030
877.472	938
877.539	383
877.579	592
877.622	925
877.687	717
877.704	631
877.787	368
877.794	345
877.869	256
877.901	430
877.952	667
878.008	1114
878.034	1328
878.115	160
878.117	134
878.199	471
878.222	503
878.282	835
878.329	953
878.364	931
878.437	630
878.447	578
878.529	187
878.544	188
878.611	435
878.651	787
878.694	1154
878.758	810
878.776	682
878.858	644
878.865	634
878.941	708
878.972	792
879.023	682
879.078	361
879.105	478
879.185	1707
879.187	1715
879.269	1104
879.292	814
879.351	374
879.399	206
879.433	149
879.506	958
879.516	1057
879.598	507
879.613	614
879.680	890
879.720	519
879.762	222
879.827	681
879.844	836
879.926	551
879.933	607
880.007	1023
880.040	784
880.089	571
880.147	1485
880.171	1872
880.253	2776
880.254	2780
880.335	3241
880.360	3352
880.417	4545
880.467	6466
880.499	7636
880.574	8942
880.580	8859
880.662	4052
880.680	3232
880.744	1207
880.787	833
880.825	528
880.893	320
880.907	397
880.989	725
881.000	767
881.070	842
881.106	802
881.152	649
881.213	667
881.233	762
881.315	975
881.319	1001
881.396	1112
881.426	793
881.478	543
881.532	1367
881.559	1658
881.639	643
881.641	616
881.722	952
881.745	751
881.803	824
881.852	1233
881.885	1312
881.958	1019
881.966	1003
882.047	1743
882.064	1760
882.129	1803
882.171	1743
882.210	2016
882.277	3680
882.291	3871
882.372	2211
882.383	2089
882.454	1102
882.489	872
882.535	1031
882.596	1324
882.616	1268
882.697	905
882.702	870
882.778	979
882.808	1166
882.859	1243
882.914	1073
882.940	1033
883.020	751
883.021	751
883.102	918
883.127	765
883.183	1029
883.233	1291
883.264	1281
883.339	1554
883.345	1552
883.426	950
883.445	958
883.507	1125
883.551	902
883.587	901
883.657	1297
883.668	1348
883.749	1531
883.763	1477
883.830	1190
883.869	1507
883.910	1683
883.975	1083
883.991	961
884.072	1225
884.081	1201
884.152	1680
884.187	1787
884.233	1345
884.292	1017
884.314	1071
884.394	1217
884.398	1209
884.475	832
884.504	825
884.555	890
884.610	822
884.636	963
884.716	1465
884.716	1472
884.797	1331
884.821	1438
884.877	1604
884.927	1519
884.958	1388
885.033	988
885.038	975
885.118	744
885.139	674
885.199	834
885.244	1118
885.279	1287
885.350	1581
885.359	1649
885.439	1721
885.456	1808
885.520	1688
885.561	1567
885.600	1460
885.667	1319
885.680	1337
885.760	972
885.773	1026
885.840	1004
885.878	788
885.920	1072
885.984	1627
886.000	1563
886.080	919
886.089	864
886.160	887
886.195	890
886.240	1311
886.300	1870
886.320	1769
886.400	1313
886.406	1296
886.480	1583
886.511	1526
886.560	1699
886.616	2130
886.640	2124
886.720	1843
886.722	1829
886.800	1198
886.827	1064
886.879	1349
886.932	1588
886.959	1740
887.038	2194
887.039	2202
887.119	2345
887.143	2342
887.198	2004
887.248	1823
887.278	1819
887.354	1535
887.358	1528
887.437	1423
887.459	1421
887.517	1663
887.564	1715
887.596	1723
887.669	1827
887.676	1801
887.755	1265
887.774	1162
887.835	1338
887.880	1499
887.914	1546
887.985	1474
887.994	1512
888.073	1904
888.090	1960
888.153	1699
888.195	1547
888.232	1496
888.300	1339
888.311	1356
888.391	1515
888.405	1525
888.470	1763
888.510	1925
888.549	1912
888.615	1818
888.628	1775
888.708	1530
888.720	1488
888.787	1697
888.825	1771
888.866	1832
888.930	1933
888.945	1939
889.024	1997
889.035	1996
889.103	2119
889.140	2161
889.182	1854
889.245	1412
889.261	1488
889.340	1827
889.349	1864
889.419	1136
889.454	760
889.498	942
889.559	1201
889.577	1116
889.656	747
889.664	711
889.735	1347
889.768	1649
889.814	1996
889.873	2444
889.978	1671
890.083	1879
890.187	2026
890.292	1733
890.397	1233
890.501	2025
890.606	1625
890.710	1557
890.815	1546
890.919	2116
891.024	2018
891.128	2512
891.233	2112
891.337	2512
891.442	1797
891.546	916
891.650	1328
891.755	1478
891.859	2341
891.963	1377
892.068	1557
892.172	1899
892.276	2170
892.380	1408
892.484	1871
892.589	1088
892.693	1675
892.797	461
892.901	661
893.005	770
893.109	1730
893.213	1921
893.317	1810
893.421	1936
893.525	1171
893.629	1516
893.733	1058
893.837	1712
893.941	2021
894.045	1771
894.148	1484
894.252	1887
894.356	1028
894.460	2296
894.564	1680
894.667	1775
894.771	1791
894.875	1428
894.978	1224
895.082	1196
895.186	1318
895.289	1055
895.393	1390
895.496	1894
895.600	1989
895.703	1666
895.807	1267
895.910	1054
896.014	1769
896.117	829
896.221	1896
896.324	1557
896.427	1679
896.531	1472
896.634	1884
896.737	1518
896.840	2026
896.944	775
897.047	1646
897.150	1956
897.253	1466
897.356	2147
897.460	569
897.563	1541
897.666	2183
897.769	642
897.872	2045
897.975	1166
898.078	1360
898.181	1859
898.284	1548
898.387	1302
898.490	1023
898.593	1598
898.695	1061
898.798	650
898.901	576
899.004	1615
899.107	1849
899.209	513
899.312	1481
899.415	1276
899.518	1904
899.620	1429
899.723	1586
899.826	2253
899.928	2649
900.031	1031
900.133	1513
900.236	1073
900.338	1207
900.441	1750
900.543	1701
900.646	1662
900.748	1399
900.851	1776
900.953	540
901.055	1963
901.158	1219
901.260	1722
901.362	1098
901.465	1643
901.567	1801
901.669	1339
901.771	1630
901.873	382
901.976	1369
902.078	745
902.180	1195
902.282	2129
902.384	2517
902.486	896
902.588	1321
902.690	1243
902.792	797
902.894	825
902.996	1320
903.098	743
903.200	1523
903.302	644
903.404	498
903.505	1184
903.607	1650
903.709	2050
903.811	1280
903.913	2227
904.014	1266
904.116	899
904.218	1095
904.319	897
904.421	1958
904.523	1084
904.624	1529
904.726	1113
904.827	1367
904.929	732
905.030	1820
905.132	1494
905.233	928
905.335	1020
905.436	1349
905.537	838
905.639	1024
905.740	319
905.841	1547
905.943	1866
906.044	1283
906.145	1401
906.247	1185
906.348	1441
906.449	1317
906.550	859
906.651	1204
906.752	939
906.854	1089
906.955	427
907.056	1396
907.157	1019
907.258	298
907.359	1151
907.460	1399
907.561	1430
907.662	1112
907.762	1128
907.863	1161
907.964	1050
908.065	1652
908.166	1206
908.267	1045
908.367	724
908.468	828
908.569	1568
908.670	1441
908.770	1898
908.871	1042
908.971	1334
909.072	1643
909.173	507
909.273	2016
909.374	990
909.474	922
909.575	1381
909.675	753
909.776	484
909.876	1224
909.977	1375
910.077	886
910.177	892
910.278	1295
910.378	1193
910.478	598
910.579	1356
910.679	1259
910.779	221
910.879	1154
910.980	1612
911.080	1319
911.180	853
911.280	878
911.380	719
911.480	1047
911.580	1155
911.680	1372
911.780	1173
911.880	1342
911.980	750
912.080	802
912.180	906
912.280	1079
912.380	1056
912.480	1011
912.580	559
912.679	935
912.779	739
912.879	1183
912.979	511
913.078	935
913.178	389
913.278	961
913.377	1101
913.477	721
913.577	510
913.676	2223
913.776	979
913.875	1558
913.975	1462
914.074	580
914.174	1236
914.273	380
914.373	1304
914.472	858
914.572	-134
914.671	896
914.770	1154
914.870	1034
914.969	888
915.068	891
915.167	1612
915.267	1699
915.366	986
915.465	755
915.564	688
915.663	639
915.763	747
915.862	1939
915.961	1034
916.060	567
916.159	833
916.258	412
916.357	1600
916.456	1131
916.555	1154
916.654	839
916.752	1088
916.851	397
916.950	1086
917.049	1185
917.148	1110
917.247	1636
917.345	1038
917.444	1008
917.543	871
917.642	800
917.740	709
917.839	892
917.937	1500
918.036	1762
918.135	503
918.233	861
918.332	688
918.430	809
918.529	271
918.627	535
918.726	1202
918.824	1448
918.923	743
919.021	460
919.119	413
919.218	734
919.316	699
919.414	1133
919.512	1425
919.611	305
919.709	533
919.807	787
919.905	477
920.003	1926
920.102	858
920.200	1216
920.298	955
920.396	964
920.494	754
920.592	411
920.690	964
920.788	896
920.886	547
920.984	1560
921.082	184
921.180	1845
921.277	1617
921.375	742
921.473	885
921.571	299
921.669	119
921.766	827
921.864	1274
921.962	1319
922.060	1692
922.157	656
922.255	1157
922.352	1704
922.450	1179
922.548	139
922.645	958
922.743	1625
922.840	1434
922.938	2145
923.035	2180
923.133	1447
923.230	1996
923.327	2939
923.425	2093
923.522	2641
923.619	2338
923.717	2693
923.814	1753
923.911	2085
924.008	2361
924.106	1995
924.203	2021
924.300	1751
924.397	2078
924.494	1833
924.591	1903
924.688	1805
924.786	2138
924.883	2675
924.979	1247
925.077	2802
925.173	1653
925.270	1450
925.367	2029
925.464	2372
925.561	2440
925.658	2966
925.755	1739
925.852	2321
925.948	1844
926.045	2302
926.142	1946
926.239	2979
926.335	1654
926.432	1995
926.529	1913
926.625	2123
926.722	1608
926.818	1144
926.915	2053
927.011	2093
927.108	2296
927.204	1895
927.301	1556
927.397	1770
927.494	2927
927.590	572
927.687	2624
927.783	1576
927.879	1221
927.976	1484
928.072	1602
928.168	1772
928.264	1319
928.361	2418
928.457	1090
928.553	1518
928.649	2102
928.745	1588
928.841	1467
928.937	1092
929.033	1096
929.129	2186
929.225	1702
929.321	1725
929.417	1543
929.513	1269
929.609	1800
929.705	1129
929.801	2452
929.897	896
929.993	1545
930.089	923
930.184	1318
930.280	900
930.376	2017
930.471	1693
930.567	958
930.663	1204
930.758	1938
930.854	1243
930.950	1357
931.045	1089
931.141	1378
931.236	1808
931.332	1932
931.427	1372
931.523	1655
931.618	2142
931.714	1507
931.809	1605
931.905	1813
932.000	583
932.095	1500
932.191	1804
932.286	1650
932.381	984
932.476	368
932.572	1330
932.667	1402
932.762	1390
932.857	1171
932.952	1068
933.047	1177
933.142	252
933.237	1081
933.332	1386
933.427	1461
933.522	1325
933.617	937
933.712	887
933.807	1623
933.902	103
933.997	733
934.092	501
934.187	883
934.282	1314
934.376	909
934.471	985
934.566	1020
934.661	1169
934.755	168
934.850	1493
934.945	973
935.039	851
935.134	1181
935.228	1498
935.323	1183
935.417	1586
935.512	1047
935.606	561
935.701	1317
935.795	763
935.890	1618
935.984	1483
936.079	1792
936.173	1809
936.267	482
936.362	622
936.456	572
936.550	715
936.644	1302
936.738	149
936.833	1101
936.927	336
937.021	1100
937.115	1776
937.209	682
937.303	1328
937.397	536
937.491	1304
937.585	849
937.679	407
937.773	783
937.867	1091
937.961	691
938.055	403
938.149	939
938.243	1582
938.337	843
938.430	415
938.524	233
938.618	1402
938.712	434
938.805	1352
938.899	630
938.993	1189
939.086	739
939.180	1274
939.274	584
939.367	1107
939.461	1058
939.554	943
939.648	213
939.741	736
939.835	1007
939.928	1225
940.022	1208
940.115	571
940.208	300
940.302	74
940.395	668
940.488	-467
940.582	601
940.675	-242
940.768	521
940.861	890
940.954	316
941.048	188
941.141	95
941.234	225
941.327	365
941.420	1153
941.513	732
941.606	54
941.699	1686
941.792	781
941.885	560
941.978	1333
942.071	552
942.164	-871
942.257	599
942.349	-177
942.442	905
942.535	54
942.628	181
942.721	555
942.813	-640
942.906	840
942.999	704
943.091	198
943.184	429
943.277	-482
943.369	1569
943.462	699
943.554	677
943.647	254
943.739	201
943.832	146
943.924	-44
944.017	1060
944.109	-595
944.201	566
944.294	798
944.386	288
944.478	106
944.571	1156
944.663	478
944.755	625
944.847	938
944.940	-844
945.032	-99
945.124	517
945.216	615
945.308	503
945.400	777
945.492	325
945.584	357
945.676	-414
945.768	294
945.860	640
945.952	618
946.044	896
946.136	-85
946.228	75
946.320	356
946.412	-114
946.503	206
946.595	939
946.687	-776
946.779	296
946.870	-316
946.962	-449
947.054	396
947.145	852
947.237	-495
947.329	-519
947.420	502
947.512	519
947.603	-184
947.695	76
947.786	-571
947.878	458
947.969	-268
948.061	177
948.152	169
948.243	246
948.335	438
948.426	-358
948.517	825
948.609	1056
948.700	516
948.791	575
948.882	-275
948.973	-520
949.065	-386
949.156	-5
949.247	-252
949.338	134
949.429	-274
949.520	701
949.611	-315
949.702	1157
949.793	112
949.884	-101
949.975	264
950.066	15
950.157	-373
950.247	503
950.338	197
950.429	42
950.520	583
950.611	-577
950.701	132
950.792	-43
950.883	-235
950.973	-591
951.064	-49
951.155	-1009
951.245	804
951.336	303
951.427	-903
951.517	892
951.608	-365
951.698	-194
951.788	-705
951.879	-243
951.969	-383
952.060	-156
952.150	78
952.240	-480
952.331	-1552
952.421	928
952.511	-878
952.602	-467
952.692	-552
952.782	193
952.872	-594
952.962	-654
953.052	-658
953.143	-679
953.233	275
953.323	-721
953.413	-766
953.503	-399
953.593	-376
953.683	66
953.773	-559
953.863	-43
953.953	-645
954.042	-586
954.132	-551
954.222	-130
954.312	-686
954.402	-165
954.492	-888
954.581	-72
954.671	-728
954.761	-116
954.850	913
954.940	-785
955.030	-481
955.119	-2062
955.209	159
955.298	-590
955.388	-961
955.477	549
955.567	-831
955.656	163
955.746	-1084
955.835	-676
955.925	-1245
956.014	-566
956.103	-606
956.193	-96
956.282	-60
956.371	479
956.461	-402
956.550	-1095
956.639	-219
956.728	-1599
956.817	-1121
956.906	-994
956.995	217
957.085	-668
957.174	-542
957.263	-572
957.352	-819
957.441	-843
957.530	-63
957.619	53
957.708	-469
957.796	-488
957.885	-720
957.974	-743
958.063	384
958.152	-1460
958.241	-460
958.329	-252
958.418	-620
958.507	-1158
958.596	566
958.684	-324
958.773	56
958.861	-610
958.950	-710
959.039	-678
959.127	-424
959.216	-84
959.304	-547
959.393	-1012
959.481	405
959.570	-621
959.658	-646
959.746	-824
959.835	-1205
959.923	-755
960.011	-1180
960.100	-473
960.188	-829
960.276	-629
960.365	-758
960.453	-1109
960.541	-1306
960.629	-681
960.717	-1160
960.805	-1631
960.893	-1370
960.981	-747
961.069	-168
961.158	-523
961.245	635
961.333	-109
961.421	-1077
961.509	-485
961.597	-290
961.685	-598
961.773	-1048
961.861	-852
961.949	-1154
962.036	-1119
962.124	-534
962.212	-680
962.299	-1141
962.387	-731
962.475	-623
962.562	-1482
962.650	281
962.738	-474
962.825	-655
962.913	-198
963.000	-357
963.088	-670
963.175	-280
963.263	-870
963.350	-640
963.438	-1053
963.525	-1789
963.612	298
963.700	-269
963.787	307
963.874	-1202
963.962	-786
964.049	-12
964.136	-1077
964.223	-670
964.310	-334
964.398	-969
964.485	-1176
964.572	-728
964.659	-828
964.746	-495
964.833	-1456
964.920	-755
965.007	-1298
965.094	-706
965.181	-2348
965.268	-1256
965.355	-266
965.441	-705
965.528	-567
965.615	214
965.702	-1303
965.789	-520
965.875	-846
965.962	-625
966.049	-1752
966.136	-120
966.222	-1211
966.309	-304
966.395	-729
966.482	-1086
966.569	-728
966.655	-587
966.742	-1117
966.828	-905
966.915	-828
967.001	-1334
967.087	-1070
967.174	-1074
967.260	-63
967.347	-871
967.433	-516
967.519	-646
967.605	-1267
967.692	-1597
967.778	-1709
967.864	-1280
967.950	-25
968.036	-1306
968.123	-591
968.209	-422
968.295	-1512
968.381	629
968.467	-1389
968.553	-2004
968.639	-16
968.725	-1061
968.811	-1058
968.897	-1135
968.983	-508
969.069	-938
969.154	-752
969.240	-515
969.326	-555
969.412	-855
969.497	-1315
969.583	-1421
969.669	-88
969.755	-1173
969.840	-1115
969.926	-789
970.012	-842
970.097	-337
970.183	-1197
970.268	-1672
970.354	-596
970.439	-1806
970.525	168
970.610	-2082
970.696	-419
970.781	-1463
970.866	-2184
970.952	-312
971.037	-984
971.122	-827
971.208	-694
971.293	-673
971.378	-1265
971.463	-764
971.549	-638
971.634	-734
971.719	-831
971.804	-1243
971.889	-960
971.974	-896
972.059	-1401
972.144	-1118
972.229	-898
972.314	-951
972.399	-1293
972.484	-1318
972.569	-898
972.654	-3111
972.739	-395
972.824	-783
972.908	-676
972.993	-297
973.078	-1287
973.163	-1425
973.247	-571
973.332	-2470
973.417	70
973.501	-1443
973.586	-1194
973.671	-1177
973.755	-737
973.840	311
973.924	-153
974.009	-1082
974.093	-1311
974.178	-400
974.262	-424
974.346	-1422
974.431	-1080
974.515	-1436
974.600	-1282
974.684	-1619
974.768	-1220
974.852	-360
974.937	-2183
975.021	-867
975.105	-1195
975.189	-777
975.273	-424
975.358	-1960
975.442	-527
975.526	-337
975.610	-1677
975.694	-1351
975.778	-113
975.862	-943
975.946	-2917
976.030	277
976.114	-1665
976.198	-1243
976.281	-973
976.365	-62
976.449	-1347
976.533	-359
976.617	-1243
976.700	-596
976.784	-591
976.868	-1641
976.951	-1096
977.035	-1264
977.119	-1148
977.202	-1305
977.286	-1591
977.369	-1511
977.453	-952
977.536	-1008
977.620	-1871
977.703	-646
977.787	-1047
977.870	-24
977.953	-229
978.037	-2116
978.120	-375
978.203	-1219
978.287	-1155
978.370	-1548
978.453	-1894
978.536	-913
978.620	-895
978.703	-944
978.786	-1687
978.869	-1517
978.952	-1724
979.035	85
979.118	-620
979.201	-2257
979.284	-814
979.367	-2261
979.450	-1197
979.533	-1968
979.616	-1606
979.699	-887
979.782	-1364
979.865	-1427
979.948	-1922
980.030	-1468
980.113	-1500
980.196	-825
980.279	-806
980.361	-1824
980.444	-2018
980.526	-1272
980.609	-1429
980.692	-890
980.774	-1333
980.857	-2312
980.939	-562
981.022	-2949
981.104	-1414
981.187	-1441
981.269	-949
981.352	-1430
981.434	-1908
981.516	-978
981.599	-103
981.681	-1173
981.763	-1370
981.846	-1834
981.928	-894
982.010	-1631
982.092	-2133
982.174	-130
982.256	-1294
982.339	-866
982.421	-1450
982.503	-1422
982.585	-2186
982.667	-1337
982.749	-1281
982.831	-2018
982.913	-1647
982.995	-467
983.077	-1591
983.158	54
983.240	-1608
983.322	-755
983.404	-408
983.486	-1777
983.568	-625
983.649	-1389
983.731	-608
983.813	-2109
983.894	-1392
983.976	-1142
984.058	-1386
984.139	-389
984.221	-2267
984.302	-352
984.384	-1769
984.465	-2001
984.547	-1692
984.628	-1894
984.710	-579
984.791	-1156
984.872	-1638
984.954	-1871
985.035	-1074
985.116	-1864
985.198	-1847
985.279	-929
985.360	-2273
985.441	-1133
985.522	-424
985.604	-1536
985.685	-3012
985.766	-790
985.847	-236
985.928	-1319
986.009	-746
986.090	-956
986.171	-853
986.252	-1568
986.333	-1587
986.414	-2149
986.495	-1303
986.576	-1150
986.656	-2177
986.737	-1806
986.818	-1281
986.899	-1822
986.980	-1685
987.060	-615
987.141	-2094
987.222	-880
987.302	-1386
987.383	-989
987.464	-1852
987.544	-1254
987.625	-1561
987.705	-729
987.786	-917
987.866	-1874
987.947	-1145
988.027	-1444
988.108	-1622
988.188	-806
988.268	-1326
988.349	-1607
988.429	-1155
988.509	-731
988.589	-2052
988.670	-3289
988.750	-214
988.830	-1472
988.910	-981
988.990	-729
989.070	-1832
989.151	-1369
989.231	-1715
989.311	-1666
989.391	-1533
989.471	-971
989.551	-2170
989.631	-1735
989.711	-1817
989.791	-1889
989.870	-1833
989.950	-1319
990.030	-2483
990.110	-1721
990.190	-2740
990.269	-1859
990.349	-1398
990.429	-1518
990.509	-1030
990.588	-2236
990.668	-1223
990.747	-1539
990.827	-1321
990.907	-1092
990.986	-2405
991.066	-1756
991.145	-1809
991.225	-1488
991.304	-2283
991.383	-480
991.463	-2007
991.542	-969
991.622	-1847
991.701	-2058
991.780	-2445
991.859	-1704
991.939	-2038
992.018	-1458
992.097	-982
992.176	-1764
992.256	-1754
992.335	-2492
992.414	-1134
992.493	-2639
992.572	-2192
992.651	-745
992.730	-2413
992.809	-2161
992.888	-2214
992.967	-2505
993.046	-1500
993.125	-2607
993.203	-1690
993.282	-956
993.361	-2352
993.440	-1035
993.519	-2125
993.597	-2153
993.676	-2781
993.755	-951
993.834	-1647
993.912	-3008
993.991	-1445
994.069	-2258
994.148	-2195
994.226	-1881
994.305	-2333
994.384	-2447
994.462	-987
994.540	-3479
994.619	-3136
994.697	-1842
994.776	-2346
994.854	-2075
994.932	-2740
995.011	-2260
995.089	-2620
995.167	-2061
995.245	-2758
995.324	-3003
995.402	-1507
995.480	-2192
995.558	-2063
995.636	-2795
995.714	-2107
995.792	-929
995.870	-2758
995.948	-2316
996.026	-1684
996.104	-3020
996.182	-1229
996.260	-3194
996.338	-1610
996.416	-3165
996.494	-1946
996.572	-1231
996.649	-2923
996.727	-3158
996.805	-2660
996.883	-3121
996.960	-2551
997.038	-2235
997.116	-1555
997.193	-2606
997.271	-2321
997.348	-1930
997.426	-2248
997.504	-2714
997.581	-1528
997.658	-1793
997.736	-3530
997.813	-2944
997.891	-732
997.968	-2106
998.046	-2341
998.123	-2126
998.200	-2381
998.277	-2249
998.355	-1697
998.432	-3476
998.509	-2336
998.586	-1502
998.663	-2488
998.741	-2575
998.818	-2765
998.895	-3045
998.972	-1785
999.049	-2187
999.126	-3219
999.203	-2893
999.280	-3415
999.357	-3251
999.434	-2069
999.511	-2780
999.587	-2084
999.664	-3078
999.741	-2164
999.818	-2326
999.895	-2416
999.971	-2292
1000.048	-2554
1000.125	-1915
1000.202	-2364
1000.278	-2133
1000.355	-2793
1000.431	-2949
1000.508	-2822
1000.584	-2543
1000.661	-2575
1000.738	-2730
1000.814	-2683
1000.890	-2230
1000.967	-2163
1001.043	-2402
1001.120	-3537
1001.196	-2835
1001.272	-2772
1001.349	-2353
1001.425	-1767
1001.501	-2780
1001.577	-3267
1001.654	-2186
1001.730	-3017
1001.806	-2817
1001.882	-3273
1001.958	-2469
1002.034	-2261
1002.110	-2365
1002.186	-3164
1002.262	-2950
1002.338	-2827
1002.414	-2006
1002.490	-3069
1002.566	-3205
1002.642	-3108
1002.718	-1965
1002.794	-2868
1002.870	-2922
1002.945	-2479
1003.021	-1912
1003.097	-2459
1003.173	-2794
1003.248	-2879
1003.324	-2359
1003.400	-3554
1003.475	-3234
1003.551	-2928
1003.626	-2442
1003.702	-3165
1003.777	-2972
1003.853	-2474
1003.928	-3137
1004.004	-2179
1004.079	-2656
1004.155	-2278
1004.230	-3964
1004.305	-1037
1004.381	-3668
1004.456	-2508
1004.531	-2956
1004.607	-2731
1004.682	-3020
1004.757	-2248
1004.832	-2367
1004.907	-3108
1004.982	-1536
1005.057	-2147
1005.133	-2307
1005.208	-2726
1005.283	-3040
1005.358	-2396
1005.433	-2892
1005.508	-3103
1005.583	-4136
1005.657	-2552
1005.732	-2110
1005.807	-3022
1005.882	-2869
1005.957	-2470
1006.032	-2366
1006.106	-2575
1006.181	-2707
1006.256	-3108
1006.331	-3826
1006.405	-2863
1006.480	-3202
1006.554	-2519
1006.629	-2504
1006.704	-2579
1006.778	-2513
1006.853	-1959
1006.927	-2803
1007.002	-3072
1007.076	-2102
1007.150	-2152
1007.225	-2104
1007.299	-2583
1007.373	-2691
1007.448	-2559
1007.522	-1669
1007.596	-2801
1007.671	-3018
1007.745	-2549
1007.819	-3305
1007.893	-2891
1007.967	-1979
1008.041	-3279
1008.115	-1556
1008.190	-2958
1008.264	-2609
1008.338	-3952
1008.412	-3016
1008.486	-3070
1008.560	-3046
1008.633	-3356
1008.707	-3523
1008.781	-2008
1008.855	-2590
1008.929	-2432
1009.003	-3019
1009.076	-3554
1009.150	-2824
1009.224	-2227
1009.298	-2545
1009.371	-3301
1009.445	-1486
1009.519	-2668
1009.592	-3532
1009.666	-3067
1009.739	-2181
1009.813	-3992
1009.886	-1516
1009.960	-3491
1010.033	-2284
1010.107	-2728
1010.180	-3540
1010.253	-2027
1010.327	-3213
1010.400	-2455
1010.473	-2882
1010.547	-1612
1010.620	-3415
1010.693	-2147
1010.766	-3104
1010.840	-2483
1010.913	-2761
1010.986	-3506
1011.059	-3189
1011.132	-2662
1011.205	-2897
1011.278	-2582
1011.351	-3615
1011.424	-2985
1011.497	-3081
1011.570	-2757
1011.643	-2892
1011.716	-2477
1011.789	-2441
1011.862	-3264
1011.934	-2651
1012.007	-2496
1012.080	-2937
1012.153	-3170
1012.225	-1918
1012.298	-3114
1012.371	-3244
1012.443	-2693
1012.516	-3626
1012.588	-2877
1012.661	-2678
1012.733	-3108
1012.806	-2489
1012.879	-3056
1012.951	-2951
1013.023	-3075
1013.096	-2365
1013.168	-3017
1013.241	-1845
1013.313	-2521
1013.385	-2652
1013.458	-3229
1013.530	-2792
1013.602	-3338
1013.674	-1629
1013.746	-2436
1013.819	-3452
1013.891	-2050
1013.963	-2764
1014.035	-1538
1014.107	-2762
1014.179	-2434
1014.251	-3589
1014.323	-2933
1014.395	-3368
1014.467	-3215
1014.539	-2647
1014.611	-3307
1014.683	-1687
1014.754	-2127
1014.826	-2824
1014.898	-2253
1014.970	-3933
1015.042	-1849
1015.113	-2963
1015.185	-2233
1015.257	-3324
1015.328	-2501
1015.400	-3632
1015.471	-1830
1015.543	-3790
1015.615	-2063
1015.686	-2812
1015.757	-3175
1015.829	-2899
1015.901	-3384
1015.972	-2802
1016.043	-2127
1016.115	-2904
1016.186	-2044
1016.257	-3096
1016.328	-2191
1016.400	-2091
1016.471	-3437
1016.542	-2230
1016.613	-2892
1016.685	-2940
1016.756	-2649
1016.827	-2677
1016.898	-3439
1016.969	-1823
1017.040	-3089
1017.111	-2925
1017.182	-2564
1017.253	-2034
1017.324	-2490
1017.395	-3000
1017.466	-3205
1017.537	-2879
1017.608	-2531
1017.678	-2144
1017.749	-3339
1017.820	-2267
1017.891	-3192
1017.961	-2763
1018.032	-3062
1018.103	-2343
1018.173	-2686
1018.244	-2701
1018.315	-2326
1018.385	-2141
1018.456	-2648
1018.526	-3224
1018.597	-3103
1018.667	-3102
1018.738	-3098
1018.808	-3115
1018.878	-3076
1018.949	-2168
1019.019	-2284
1019.089	-2877
1019.160	-2522
1019.230	-3189
1019.300	-1833
1019.371	-2976
1019.441	-2257
1019.511	-3258
1019.581	-3308
1019.651	-2683
1019.721	-2772
1019.791	-2963
1019.861	-3126
1019.931	-3609
1020.001	-2540
1020.071	-1884
1020.141	-2405
1020.211	-2520
1020.281	-3185
1020.351	-3192
1020.421	-2541
1020.491	-2318
1020.560	-3882
1020.630	-2245
1020.700	-2791
1020.770	-2549
1020.839	-2335
1020.909	-2424
1020.979	-3725
1021.048	-3127
1021.118	-2427
1021.187	-3878
1021.257	-2979
1021.326	-3311
1021.396	-3256
1021.465	-2577
1021.535	-3870
1021.604	-3004
1021.674	-3605
1021.743	-2954
1021.812	-3258
1021.882	-3311
1021.951	-3156
1022.020	-3757
1022.089	-2679
1022.159	-3106
1022.228	-3574
1022.297	-3329
1022.366	-3097
1022.435	-2579
1022.504	-2893
1022.573	-3880
1022.642	-3862
1022.711	-3535
1022.781	-2995
1022.849	-2414
1022.918	-3429
1022.987	-2736
1023.056	-3860
1023.125	-2812
1023.194	-2103
1023.263	-2830
1023.331	-3083
1023.400	-3086
1023.469	-3245
1023.538	-2329
1023.606	-3291
1023.675	-2698
1023.744	-3514
1023.812	-2720
1023.881	-2676
1023.949	-2007
1024.018	-3209
1024.086	-2417
1024.155	-2958
1024.223	-2550
1024.292	-2494
1024.360	-2326
1024.429	-3227
1024.497	-2995
1024.565	-2807
1024.634	-2755
1024.702	-3522
1024.770	-2800
1024.838	-4302
1024.907	-2745
1024.975	-2738
1025.043	-3182
1025.111	-3450
1025.179	-2675
1025.247	-2764
1025.315	-2975
1025.383	-2927
1025.451	-3581
1025.519	-3144
1025.587	-3221
1025.655	-3292
1025.723	-3093
1025.791	-3594
1025.859	-2714
1025.927	-2694
1025.995	-3269
1026.062	-3080
1026.130	-3062
1026.198	-3428
1026.266	-3175
1026.333	-2584
1026.401	-2689
1026.469	-3121
1026.536	-3470
1026.604	-2824
1026.671	-3139
1026.739	-3427
1026.806	-2891
1026.874	-3197
1026.941	-3149
1027.009	-3306
1027.076	-2576
1027.144	-2132
1027.211	-3685
1027.278	-2964
1027.345	-2304
1027.413	-2912
1027.480	-3269
1027.547	-2895
1027.614	-2484
1027.682	-3238
1027.749	-2515
1027.816	-3699
1027.883	-2663
1027.950	-2391
1028.017	-4488
1028.084	-2282
1028.151	-3680
1028.218	-2766
1028.285	-2617
1028.352	-2759
1028.419	-2994
1028.486	-3090
1028.553	-2551
1028.619	-3176
1028.686	-2485
1028.753	-3137
1028.820	-3214
1028.886	-3942
1028.953	-3277
1029.020	-2810
1029.086	-3416
1029.153	-3344
1029.220	-2998
1029.286	-2924
1029.353	-2493
1029.419	-2515
1029.486	-3275
1029.552	-3104
1029.619	-3395
1029.685	-3335
1029.751	-3191
1029.818	-2174
1029.884	-3802
1029.951	-2766
1030.017	-3496
1030.083	-2919
1030.149	-3017
1030.216	-2731
1030.282	-2662
1030.348	-3592
1030.414	-3578
1030.480	-3641
1030.546	-3128
1030.612	-3094
1030.678	-3324
1030.744	-2573
1030.810	-2785
1030.876	-3692
1030.942	-3843
1031.008	-3050
1031.074	-3244
1031.140	-4221
1031.206	-3413
1031.272	-3694
1031.337	-3285
1031.403	-2816
1031.469	-3198
1031.534	-2916
1031.600	-3439
1031.666	-2812
1031.731	-4087
1031.797	-3278
1031.863	-3109
1031.928	-2972
1031.994	-3166
1032.059	-3637
1032.125	-3517
1032.190	-2394
1032.256	-3647
1032.321	-3863
1032.386	-3476
1032.452	-2692
1032.517	-3370
1032.582	-3383
1032.647	-3425
1032.713	-3495
1032.778	-2430
1032.843	-2956
1032.908	-3630
1032.974	-3274
1033.039	-2985
1033.104	-3665
1033.169	-3549
1033.234	-3210
1033.299	-2447
1033.364	-3424
1033.429	-2472
1033.494	-3289
1033.559	-3005
1033.624	-3635
1033.688	-2728
1033.753	-3501
1033.818	-4132
1033.883	-3306
1033.948	-1983
1034.013	-3256
1034.077	-3319
1034.142	-3170
1034.207	-2925
1034.271	-2924
1034.336	-1859
1034.400	-3203
1034.465	-2931
1034.530	-2990
1034.594	-2855
1034.658	-2530
1034.723	-3324
1034.787	-3076
1034.852	-3168
1034.916	-4093
1034.981	-3969
1035.045	-2936
1035.109	-2793
1035.173	-2793
1035.238	-3495
1035.302	-3303
1035.366	-2644
1035.430	-2565
1035.495	-2643
1035.559	-2660
1035.623	-3263
1035.687	-3050
1035.751	-3121
1035.815	-3139
1035.879	-3505
1035.943	-3732
1036.007	-3546
1036.071	-3524
1036.135	-3070
1036.198	-2756
1036.262	-3812
1036.326	-3546
1036.390	-2203
1036.454	-2699
1036.517	-3888
1036.581	-3249
1036.645	-2995
1036.709	-2099
1036.772	-2955
1036.836	-2897
1036.900	-2702
1036.963	-3549
1037.026	-4058
1037.090	-2712
1037.154	-3021
1037.217	-2801
1037.280	-3459
1037.344	-3186
1037.407	-3399
1037.471	-3684
1037.534	-3548
1037.597	-3195
1037.661	-3462
1037.724	-3101
1037.787	-3331
1037.850	-3476
1037.913	-3880
1037.977	-2673
1038.040	-3350
1038.103	-3128
1038.166	-3058
1038.229	-2055
1038.292	-3359
1038.355	-3343
1038.418	-2425
1038.481	-2353
1038.544	-2956
1038.607	-2676
1038.670	-2619
1038.732	-3320
1038.795	-4114
1038.858	-2826
1038.921	-3150
1038.984	-2953
1039.046	-3520
1039.109	-2922
1039.172	-3356
1039.234	-2417
1039.297	-3045
1039.360	-2497
1039.422	-3750
1039.485	-2935
1039.547	-2671
1039.610	-3082
1039.672	-2863
1039.734	-2594
1039.797	-2920
1039.859	-2809
1039.922	-3041
1039.984	-2806
1040.046	-2608
1040.109	-2721
1040.171	-2774
1040.233	-3830
1040.295	-3906
1040.358	-2794
1040.420	-2432
1040.482	-3509
1040.544	-2717
1040.606	-2394
1040.668	-2903
1040.730	-3590
1040.792	-3219
1040.854	-3395
1040.916	-3118
1040.978	-2591
1041.040	-2260
1041.102	-2922
1041.164	-2784
1041.225	-3041
1041.287	-3259
1041.349	-2315
1041.411	-3363
1041.472	-3271
1041.534	-2672
1041.596	-3593
1041.657	-2835
1041.719	-3165
1041.781	-2466
1041.842	-3418
1041.904	-2739
1041.965	-2647
1042.027	-2978
1042.088	-2946
1042.150	-3919
1042.211	-2885
1042.272	-2174
1042.334	-3143
1042.395	-2907
1042.456	-3201
1042.518	-3133
1042.579	-2686
1042.640	-3101
1042.701	-2816
1042.763	-2718
1042.824	-2761
1042.885	-3551
1042.946	-2907
1043.007	-2748
1043.068	-2700
1043.129	-2701
1043.190	-3076
1043.251	-2562
1043.312	-2966
1043.373	-2492
1043.434	-2782
1043.495	-2810
1043.556	-2062
1043.616	-2126
1043.677	-2713
1043.738	-2786
1043.799	-2772
1043.859	-3358
1043.920	-2928
1043.981	-2646
1044.041	-2790
1044.102	-2654
1044.162	-2179
1044.223	-3291
1044.284	-2402
1044.344	-2595
1044.405	-3232
1044.465	-3308
1044.525	-3367
1044.586	-3012
1044.646	-2174
1044.707	-2522
1044.767	-2605
1044.827	-2882
1044.887	-2221
1044.948	-2038
1045.008	-2564
1045.068	-2838
1045.128	-2923
1045.188	-2831
1045.249	-2755
1045.309	-2824
1045.369	-1465
1045.429	-2664
1045.489	-1996
1045.549	-2789
1045.609	-3025
1045.669	-3004
1045.729	-2776
1045.789	-2820
1045.848	-2551
1045.908	-3038
1045.968	-3037
1046.028	-2857
1046.088	-1728
1046.147	-2486
1046.207	-2766
1046.267	-2531
1046.326	-2923
1046.386	-2337
1046.446	-2472
1046.505	-2353
1046.565	-1538
1046.624	-955
1046.684	-1243
1046.743	-1891
1046.803	-865
1046.862	-892
1046.922	0
