'Start Wavelength	183.907
'End Wavelength	1046.922
'Gate Delay	5.000
'Gate Width (ms)	1.050
'Laser Output Level	0.000
'X Position	0.000
'Y Position	0.000
'Z Position	0.000
'Grid Point Number	1.000
'Shot Number	100.000
183.907	380.000
183.977	-707.000
184.047	64
184.116	164
184.186	-324
184.256	-347
184.325	-452
184.395	-971
184.465	1291
184.534	-369
184.604	-196
184.674	400
184.743	189
184.813	29
184.883	240
184.952	159
185.022	75
185.092	945
185.161	384
185.231	679
185.301	371
185.370	-773
185.440	-245
185.509	-224
185.579	-13
185.649	-632
185.718	765
185.788	-73
185.857	-156
185.927	-299
185.996	484
186.066	839
186.136	-627
186.205	-711
186.275	-370
186.344	989
186.414	-614
186.483	-436
186.553	860
186.622	853
186.692	257
186.761	332
186.831	10
186.900	-177
186.970	474
187.039	901
187.109	748
187.178	467
187.248	-131
187.317	118
187.387	160
187.456	386
187.526	625
187.595	409
187.664	334
187.734	895
187.803	953
187.873	28
187.942	989
188.012	760
188.081	-435
188.150	1097
188.220	575
188.289	328
188.358	763
188.428	-104
188.497	604
188.567	713
188.636	291
188.705	203
188.775	654
188.844	18
188.913	897
188.983	-335
189.052	623
189.121	713
189.191	44
189.260	558
189.329	844
189.399	72
189.468	-230
189.537	105
189.606	933
189.676	1260
189.745	769
189.814	1395
189.883	156
189.953	727
190.022	1474
190.091	3114
190.161	4781
190.230	1405
190.299	971
190.368	913
190.437	558
190.507	941
190.576	741
190.645	542
190.714	-197
190.783	-47
190.853	1039
190.922	1180
190.991	860
191.060	1041
191.129	519
191.198	732
191.268	322
191.337	122
191.406	1122
191.475	410
191.544	-289
191.613	834
191.682	838
191.752	129
191.821	345
191.890	588
191.959	513
192.028	212
192.097	1350
192.166	1262
192.235	-234
192.304	330
192.373	409
192.442	269
192.511	443
192.580	344
192.650	1123
192.719	-176
192.788	1309
192.857	1625
192.926	944
192.995	1072
193.064	1499
193.133	2316
193.202	3252
193.271	3552
193.340	2459
193.409	2056
193.478	2820
193.547	3061
193.615	5544
193.684	5963
193.753	3618
193.822	2688
193.891	1155
193.960	1887
194.029	943
194.098	1351
194.167	552
194.236	1145
194.305	1573
194.374	1108
194.443	184
194.512	1685
194.580	952
194.649	462
194.718	1630
194.787	1013
194.856	375
194.925	1720
194.994	824
195.062	804
195.131	1942
195.200	1049
195.269	1655
195.338	1212
195.407	744
195.475	1021
195.544	1945
195.613	1928
195.682	1271
195.751	1674
195.819	1804
195.888	1642
195.957	2377
196.026	1802
196.094	1076
196.163	1884
196.232	1647
196.301	1353
196.369	1247
196.438	1382
196.507	321
196.576	1035
196.644	28
196.713	1227
196.782	697
196.850	1368
196.919	1737
196.988	1526
197.056	1301
197.125	1488
197.194	1426
197.262	583
197.331	1184
197.400	801
197.468	497
197.537	910
197.606	1438
197.674	2775
197.743	5573
197.812	2209
197.880	4259
197.949	3581
198.017	3868
198.086	3058
198.155	2184
198.223	1842
198.292	6034
198.360	3556
198.429	1962
198.497	1687
198.566	3279
198.635	5503
198.703	2578
198.772	2054
198.840	6474
198.909	7163
198.977	2452
199.046	1664
199.114	1601
199.183	1554
199.251	1917
199.320	515
199.388	1342
199.457	342
199.525	1683
199.594	1583
199.662	919
199.731	1426
199.799	1694
199.867	1188
199.936	1038
200.004	1611
200.073	1193
200.141	727
200.210	1579
200.278	1447
200.346	1621
200.415	2121
200.483	2118
200.552	1604
200.620	1110
200.688	1198
200.757	1089
200.825	1040
200.893	1364
200.962	1087
201.030	1542
201.098	1371
201.167	1679
201.235	1387
201.303	1735
201.372	2179
201.440	1264
201.508	2547
201.577	1529
201.645	1363
201.713	1708
201.781	2106
201.850	2570
201.918	1376
201.986	1261
202.055	2203
202.123	849
202.191	1312
202.259	1529
202.327	1390
202.396	1440
202.464	1844
202.532	2164
202.600	9175
202.669	6738
202.737	2281
202.805	1444
202.873	1912
202.941	1833
203.009	1862
203.078	1474
203.146	2423
203.214	1167
203.282	1573
203.350	2057
203.418	704
203.487	1611
203.555	1757
203.623	1697
203.691	1719
203.759	2110
203.827	1377
203.895	1908
203.963	1437
204.031	1516
204.099	1967
204.168	2638
204.236	2971
204.304	2129
204.372	1848
204.440	2680
204.508	1504
204.576	1924
204.644	1958
204.712	1275
204.780	1381
204.848	2202
204.916	1433
204.984	2044
205.052	1790
205.120	2221
205.188	2608
205.256	1465
205.324	1428
205.392	2661
205.460	1919
205.528	2855
205.596	2361
205.664	2039
205.732	1575
205.799	6246
205.867	11108
205.935	3183
206.003	2569
206.071	1288
206.139	1834
206.207	2695
206.275	2085
206.343	2158
206.411	2068
206.478	1895
206.546	2292
206.614	1204
206.682	2428
206.750	2031
206.818	2323
206.885	3023
206.953	1566
207.021	3359
207.089	1700
207.157	1998
207.225	2312
207.292	2017
207.360	1437
207.428	1794
207.496	1947
207.563	3064
207.631	2949
207.699	2100
207.767	1871
207.834	2856
207.902	3161
207.970	1858
208.038	2366
208.105	1696
208.173	2097
208.241	4171
208.309	3925
208.376	3449
208.444	5461
208.512	2906
208.579	1421
208.647	2814
208.715	3925
208.782	2571
208.850	2229
208.918	2248
208.985	2980
209.053	3863
209.120	2053
209.188	2357
209.256	3129
209.323	1835
209.391	3457
209.459	4061
209.526	3094
209.594	2727
209.661	2355
209.729	2295
209.796	3659
209.864	3028
209.932	2246
209.999	4293
210.067	3438
210.134	4183
210.202	2653
210.269	4932
210.337	4405
210.404	2713
210.472	2859
210.539	3774
210.607	2801
210.674	4275
210.742	3728
210.809	2794
210.877	2834
210.944	4096
211.012	2263
211.079	5068
211.146	3206
211.214	3557
211.281	3514
211.349	3473
211.416	3083
211.484	3970
211.551	3156
211.618	2945
211.686	3936
211.753	2838
211.821	4086
211.888	2902
211.955	3723
212.023	2983
212.090	3736
212.157	4194
212.225	3620
212.292	6559
212.359	12155
212.427	35220
212.494	18493
212.561	6606
212.629	4878
212.696	3782
212.763	4328
212.831	3715
212.898	4620
212.965	3064
213.032	3463
213.100	4178
213.167	3988
213.234	5328
213.301	3887
213.369	4088
213.436	3457
213.503	3773
213.570	4168
213.638	3677
213.705	2755
213.772	2487
213.839	3975
213.906	4988
213.973	3854
214.041	4207
214.108	3314
214.175	2919
214.242	4100
214.309	3703
214.376	3536
214.444	3996
214.511	5112
214.578	4294
214.645	4294
214.712	4047
214.779	3649
214.846	4306
214.913	4835
214.980	5138
215.048	4802
215.115	6040
215.182	4870
215.249	4593
215.316	3256
215.383	3477
215.450	3779
215.517	2942
215.584	3292
215.651	2973
215.718	3407
215.785	4043
215.852	3831
215.919	4046
215.986	4163
216.053	2732
216.120	2466
216.187	3929
216.254	3761
216.321	3546
216.388	4076
216.455	4681
216.522	3812
216.589	4817
216.656	8338
216.722	9659
216.789	7250
216.856	7023
216.923	6000
216.990	5260
217.057	4685
217.124	6606
217.191	5905
217.258	7239
217.324	8536
217.391	9531
217.458	7298
217.525	5533
217.592	5052
217.659	3928
217.725	5551
217.792	7010
217.859	7379
217.926	3120
217.993	3438
218.059	4031
218.126	3273
218.193	2839
218.260	2239
218.327	1903
218.393	3305
218.460	3140
218.527	2446
218.594	2910
218.660	6177
218.727	7190
218.794	2904
218.860	2700
218.927	2601
218.994	2289
219.061	2687
219.127	3758
219.194	6216
219.261	3686
219.327	2003
219.394	3269
219.461	1730
219.527	3002
219.594	4689
219.661	3535
219.727	2316
219.794	3636
219.860	2220
219.927	3123
219.994	4841
220.060	9169
220.127	6311
220.193	4842
220.260	5502
220.326	8727
220.393	12531
220.460	16083
220.526	11823
220.593	7931
220.659	8065
220.726	7941
220.792	17965
220.859	18295
220.925	20854
220.992	26841
221.058	25900
221.125	26757
221.191	18800
221.258	8291
221.324	7109
221.391	5293
221.457	4709
221.524	4147
221.590	5614
221.657	20329
221.723	16167
221.789	11938
221.856	12237
221.922	6457
221.989	4410
222.055	3186
222.121	2458
222.188	4136
222.254	4034
222.321	2788
222.387	1637
222.453	1700
222.520	2325
222.586	2001
222.652	2493
222.719	2433
222.785	2640
222.851	1951
222.918	2126
222.984	2098
223.050	2119
223.116	1560
223.183	2904
223.249	1574
223.315	1716
223.382	2702
223.448	2488
223.514	1331
223.580	1207
223.647	1088
223.713	1150
223.779	2504
223.845	1839
223.911	3004
223.978	1003
224.044	2618
224.110	1365
224.176	1438
224.242	1555
224.309	688
224.375	1595
224.441	1968
224.507	530
224.573	748
224.639	2214
224.705	1033
224.772	1988
224.838	1640
224.904	2602
224.970	515
225.036	1713
225.102	1028
225.168	3111
225.234	2177
225.300	2465
225.366	2502
225.432	1857
225.499	2099
225.565	2281
225.631	3499
225.697	2637
225.763	3565
225.829	5267
225.895	4953
225.961	7494
226.027	7067
226.093	5482
226.159	8639
226.225	12232
226.291	26720
226.357	44589
226.423	25209
226.489	12955
226.554	9160
226.620	8418
226.686	9926
226.752	16545
226.818	26813
226.884	55414
226.950	52928
227.016	24083
227.082	12224
227.148	8248
227.214	8124
227.279	6640
227.345	4928
227.411	4881
227.477	4046
227.543	7703
227.609	9359
227.674	5991
227.740	3988
227.806	3964
227.872	3961
227.938	3521
228.003	7099
228.069	3345
228.135	2703
228.201	3029
228.267	2729
228.332	2588
228.398	4575
228.464	3618
228.530	2178
228.595	2504
228.661	1703
228.727	4590
228.792	4006
228.858	2323
228.924	2026
228.990	5257
229.055	2206
229.121	4283
229.187	2143
229.252	2133
229.318	1570
229.384	2989
229.449	3379
229.515	1516
229.581	1240
229.646	3466
229.712	2900
229.777	7641
229.843	9194
229.909	5283
229.974	6028
230.040	4979
230.105	3861
230.171	3252
230.236	6326
230.302	8392
230.368	6914
230.433	7381
230.499	4829
230.564	3915
230.630	3008
230.695	2145
230.761	3941
230.826	814
230.892	5948
230.957	2840
231.023	1315
231.088	3529
231.154	2980
231.219	3305
231.284	5222
231.350	6949
231.415	2745
231.481	2141
231.546	1358
231.612	2998
231.677	1419
231.742	1185
231.808	3400
231.873	1135
231.939	1149
232.004	6251
232.069	6541
232.135	3446
232.200	3100
232.265	2580
232.331	2293
232.396	905
232.461	1227
232.527	1351
232.592	2048
232.657	2460
232.723	5671
232.788	4257
232.853	2758
232.918	1201
232.984	1723
233.049	2221
233.114	4054
233.179	4509
233.245	7186
233.310	11854
233.375	3154
233.440	3353
233.506	6102
233.571	6067
233.636	2599
233.701	2571
233.766	5545
233.832	8485
233.897	3325
233.962	2086
234.027	4453
234.092	3819
234.157	2812
234.222	2925
234.288	5568
234.353	21012
234.418	19920
234.483	9777
234.548	6133
234.613	5004
234.678	4029
234.743	4134
234.808	20237
234.873	14125
234.938	6044
235.004	3427
235.069	4340
235.134	3021
235.199	3740
235.264	2504
235.329	2454
235.394	3981
235.459	4852
235.524	4534
235.589	5214
235.654	2622
235.719	1911
235.784	4178
235.849	4087
235.913	10253
235.978	13107
236.043	14050
236.108	6162
236.173	4475
236.238	7235
236.303	4274
236.368	5222
236.433	8706
236.498	16191
236.563	11529
236.627	20021
236.692	71598
236.757	68493
236.822	28165
236.887	18884
236.952	14322
237.017	10581
237.081	12886
237.146	14717
237.211	33900
237.276	71113
237.341	121090
237.405	67073
237.470	25809
237.535	16899
237.600	10976
237.664	8709
237.729	6856
237.794	9423
237.859	21317
237.923	15559
237.988	8363
238.053	10137
238.118	11733
238.182	28160
238.247	30434
238.312	12894
238.376	9049
238.441	6528
238.506	7142
238.570	3317
238.635	4741
238.700	3397
238.764	3583
238.829	10635
238.893	16594
238.958	7731
239.023	5745
239.087	3514
239.152	4109
239.216	3403
239.281	3102
239.346	3555
239.410	4086
239.475	4910
239.539	25610
239.604	25329
239.668	7435
239.733	3011
239.797	5543
239.862	12884
239.926	21714
239.991	10188
240.055	5173
240.120	3397
240.184	4634
240.249	4354
240.313	3177
240.378	3222
240.442	14282
240.507	28744
240.571	9670
240.635	11336
240.700	16360
240.764	5856
240.829	2951
240.893	2506
240.957	3979
241.022	12865
241.086	27145
241.151	13033
241.215	3000
241.279	6355
241.344	14039
241.408	7487
241.472	3433
241.537	4605
241.601	4276
241.665	2513
241.730	2972
241.794	4626
241.858	3482
241.922	4267
241.987	2956
242.051	3448
242.115	2654
242.179	3092
242.244	2881
242.308	4356
242.372	3825
242.436	5898
242.501	4579
242.565	3196
242.629	3727
242.693	4348
242.757	2740
242.822	3047
242.886	4236
242.950	4360
243.014	4441
243.078	4580
243.142	4621
243.206	4294
243.271	5987
243.335	5241
243.399	8856
243.463	32140
243.527	97191
243.591	33278
243.655	11057
243.719	5702
243.783	6431
243.847	10679
243.911	14619
243.975	16807
244.040	11049
244.104	7337
244.168	5270
244.232	7028
244.296	10652
244.360	13236
244.424	7254
244.488	6792
244.552	5825
244.615	3103
244.679	4213
244.743	4846
244.807	5044
244.871	4409
244.935	3708
244.999	3148
245.063	3915
245.127	5129
245.191	8505
245.255	8778
245.319	7123
245.383	5220
245.446	5178
245.510	2788
245.574	4167
245.638	4881
245.702	3209
245.766	13550
245.829	8832
245.893	6080
245.957	4311
246.021	5107
246.085	5015
246.149	7159
246.212	17289
246.276	28552
246.340	12744
246.404	7824
246.467	8312
246.531	12891
246.595	8731
246.659	7685
246.722	4968
246.786	8169
246.850	8528
246.913	12187
246.977	5347
247.041	5483
247.104	6625
247.168	5711
247.232	14937
247.295	40245
247.359	20551
247.423	7671
247.486	14823
247.550	9692
247.614	6176
247.677	8115
247.741	6119
247.804	5575
247.868	7546
247.932	13109
247.995	37927
248.059	14485
248.122	6239
248.186	9820
248.249	13883
248.313	59417
248.376	65300
248.440	42213
248.503	14714
248.567	11306
248.630	13260
248.694	19590
248.757	24650
248.821	68332
248.884	38304
248.948	31235
249.011	47449
249.075	76360
249.138	67515
249.202	24329
249.265	14077
249.328	20588
249.392	13844
249.455	10825
249.519	7904
249.582	10161
249.645	15680
249.709	12636
249.772	9114
249.835	8700
249.899	12015
249.962	9992
250.025	7865
250.089	22274
250.152	32118
250.215	15484
250.279	10874
250.342	11911
250.405	11393
250.468	10280
250.532	13098
250.595	21142
250.658	78147
250.721	152715
250.785	53449
250.848	25184
250.911	13878
250.974	14357
251.038	18363
251.101	40496
251.164	22343
251.227	21314
251.290	18929
251.354	27582
251.417	116007
251.480	130615
251.543	77002
251.606	216209
251.669	180652
251.732	65859
251.795	56641
251.859	58500
251.922	136525
251.985	89449
252.048	31395
252.111	22845
252.174	18895
252.237	33021
252.300	79929
252.363	80622
252.426	180817
252.489	82386
252.552	41382
252.615	25793
252.678	24975
252.741	56675
252.804	77757
252.867	185134
252.930	113132
252.993	56590
253.056	30135
253.119	23495
253.182	17606
253.245	29246
253.308	24918
253.371	21610
253.434	19865
253.497	18466
253.559	34834
253.622	26482
253.685	27060
253.748	26545
253.811	14314
253.874	20403
253.937	19272
254.000	13332
254.062	21635
254.125	38807
254.188	30818
254.251	28597
254.314	13409
254.376	22641
254.439	25177
254.502	20217
254.565	22206
254.628	44105
254.690	24111
254.753	13038
254.816	11381
254.878	12970
254.941	26334
255.004	30229
255.067	12462
255.129	11395
255.192	6722
255.255	5829
255.317	7725
255.380	5842
255.443	4484
255.505	4631
255.568	4836
255.631	5902
255.693	5986
255.756	4125
255.819	5292
255.881	3484
255.944	4685
256.006	4704
256.069	5834
256.132	5190
256.194	6560
256.257	22531
256.319	18244
256.382	15796
256.444	7964
256.507	6671
256.569	5353
256.632	7989
256.694	13494
256.757	33540
256.819	115375
256.882	54050
256.944	18518
257.007	11900
257.069	12261
257.132	9947
257.194	7992
257.257	7106
257.319	7632
257.381	10204
257.444	25168
257.506	123523
257.569	150162
257.631	56661
257.693	28074
257.756	14644
257.818	14093
257.880	9273
257.943	8371
258.005	6381
258.067	6267
258.130	6081
258.192	7132
258.254	15984
258.317	11946
258.379	7215
258.441	17595
258.503	20163
258.566	25506
258.628	38575
258.690	9155
258.753	7594
258.815	12302
258.877	8355
258.939	5578
259.001	5675
259.064	4477
259.126	6754
259.188	11514
259.250	7355
259.312	8113
259.375	13976
259.437	11246
259.499	5858
259.561	5011
259.623	5711
259.685	6169
259.747	6819
259.809	23363
259.872	51881
259.934	70971
259.996	71084
260.058	18720
260.120	7196
260.182	5601
260.244	5830
260.306	4598
260.368	4603
260.430	5138
260.492	11714
260.554	20333
260.616	12846
260.678	29791
260.740	54376
260.802	14159
260.864	8375
260.926	6135
260.988	7511
261.050	6795
261.112	17422
261.174	51790
261.236	45660
261.298	12368
261.359	19743
261.421	33179
261.483	8851
261.545	7233
261.607	4520
261.669	5430
261.731	11226
261.793	33530
261.854	13644
261.916	8210
261.978	6420
262.040	8291
262.102	6913
262.164	11771
262.225	11842
262.287	5469
262.349	13948
262.411	13592
262.472	6785
262.534	12281
262.596	32907
262.658	11582
262.719	5197
262.781	8287
262.843	31219
262.904	14874
262.966	10343
263.028	11591
263.090	51139
263.151	152252
263.213	51796
263.275	22030
263.336	9872
263.398	6449
263.459	4883
263.521	5469
263.583	13581
263.644	10662
263.706	5171
263.767	3506
263.829	4392
263.891	3189
263.952	3557
264.014	3389
264.075	7874
264.137	21356
264.198	10357
264.260	4023
264.321	3928
264.383	10618
264.444	32083
264.506	10431
264.567	6013
264.629	11607
264.690	28784
264.752	10613
264.813	6019
264.875	3555
264.936	4290
264.998	4117
265.059	4680
265.120	4773
265.182	8660
265.243	50488
265.305	65363
265.366	16231
265.427	7699
265.489	5467
265.550	3366
265.611	5573
265.673	4764
265.734	6187
265.795	4310
265.857	4955
265.918	5179
265.979	13412
266.040	89371
266.102	90180
266.163	23830
266.224	14313
266.286	7809
266.347	5040
266.408	5869
266.469	6843
266.530	4821
266.592	4450
266.653	8860
266.714	15057
266.775	5709
266.836	4368
266.898	2729
266.959	6530
267.020	5725
267.081	4389
267.142	3563
267.203	3329
267.264	2350
267.326	4828
267.387	2350
267.448	2751
267.509	3700
267.570	3476
267.631	2757
267.692	2610
267.753	4290
267.814	2022
267.875	6899
267.936	19067
267.997	10821
268.058	8658
268.119	3937
268.180	3898
268.241	2528
268.302	2283
268.363	3045
268.424	3760
268.485	4051
268.546	3484
268.607	2807
268.668	2745
268.729	1347
268.790	3435
268.851	3556
268.912	10390
268.972	13398
269.033	6264
269.094	1778
269.155	2853
269.216	2613
269.277	3381
269.338	3231
269.398	3489
269.459	3370
269.520	5247
269.581	6334
269.642	8774
269.702	5671
269.763	5082
269.824	3542
269.885	5517
269.945	8447
270.006	3886
270.067	2095
270.128	2178
270.188	2177
270.249	2691
270.310	1803
270.370	3104
270.431	3130
270.492	2467
270.553	4101
270.613	7355
270.674	17602
270.734	8342
270.795	4191
270.856	5836
270.916	6479
270.977	3470
271.038	4226
271.098	4904
271.159	7310
271.219	8832
271.280	4169
271.340	3694
271.401	4260
271.462	16813
271.522	8971
271.583	4588
271.643	5159
271.704	4581
271.764	5529
271.825	11756
271.885	46035
271.946	78487
272.006	23835
272.066	27853
272.127	60050
272.187	18152
272.248	8993
272.308	7773
272.369	37602
272.429	24459
272.489	13604
272.550	15616
272.610	13871
272.671	11366
272.731	11902
272.791	22828
272.852	10859
272.912	8656
272.972	4802
273.033	5046
273.093	10507
273.153	10189
273.214	7200
273.274	7174
273.334	25187
273.394	60210
273.455	22393
273.515	19235
273.575	47074
273.635	20981
273.696	24902
273.756	58008
273.816	24001
273.876	12864
273.936	27862
273.997	59980
274.057	16442
274.117	10689
274.177	12915
274.237	61404
274.297	63996
274.358	44551
274.418	44265
274.478	32777
274.538	12954
274.598	10219
274.658	43084
274.718	61294
274.778	24455
274.838	11706
274.898	21696
274.958	82994
275.018	64317
275.078	41440
275.138	16448
275.198	8878
275.258	7222
275.318	8619
275.378	15816
275.438	15575
275.498	11003
275.558	30636
275.618	74187
275.678	42144
275.738	21713
275.798	17281
275.858	10675
275.918	5296
275.978	6249
276.038	5960
276.098	5254
276.157	9422
276.217	32788
276.277	16417
276.337	10897
276.397	6846
276.457	7922
276.517	6437
276.576	4510
276.636	4777
276.696	8242
276.756	20211
276.815	16764
276.875	7288
276.935	8994
276.995	8155
277.055	5813
277.114	5036
277.174	7739
277.234	25753
277.293	14002
277.353	7559
277.413	6524
277.472	6253
277.532	7008
277.592	8407
277.651	31971
277.711	73520
277.771	23845
277.830	69618
277.890	64948
277.950	40849
278.009	138651
278.069	55875
278.128	44075
278.188	70910
278.248	28163
278.307	74937
278.367	53139
278.426	16252
278.486	10924
278.545	8424
278.605	8058
278.664	7638
278.724	8491
278.783	19725
278.843	62977
278.902	22371
278.962	12276
279.021	14376
279.081	29866
279.140	32403
279.199	17066
279.259	16638
279.318	19387
279.378	24783
279.437	39086
279.496	114589
279.556	381804
279.615	367662
279.675	116707
279.734	57107
279.793	68711
279.853	97357
279.912	38174
279.971	23698
280.031	21275
280.090	27941
280.149	46579
280.208	55284
280.268	260279
280.327	317677
280.386	89627
280.445	46819
280.505	36754
280.564	19864
280.623	16344
280.682	19631
280.742	29454
280.801	12500
280.860	9017
280.919	7732
280.978	8388
281.037	9347
281.097	8097
281.156	7390
281.215	7401
281.274	8183
281.333	33544
281.392	32551
281.451	9173
281.510	6341
281.569	5724
281.628	6560
281.688	6475
281.747	7546
281.806	6885
281.865	5537
281.924	4833
281.983	5051
282.042	4134
282.101	3606
282.160	4592
282.219	3354
282.278	3998
282.337	16114
282.396	13365
282.454	5722
282.513	7158
282.572	24346
282.631	16926
282.690	6308
282.749	3998
282.808	7121
282.867	7327
282.926	6579
282.985	5152
283.043	4276
283.102	5423
283.161	6392
283.220	15085
283.279	36620
283.338	12567
283.396	6967
283.455	7183
283.514	6428
283.573	11542
283.631	9106
283.690	6687
283.749	5812
283.808	10824
283.866	14803
283.925	7348
283.984	6738
284.043	8242
284.101	10513
284.160	8311
284.219	13463
284.277	10035
284.336	12721
284.395	37346
284.453	38120
284.512	14851
284.570	17621
284.629	17067
284.688	15184
284.746	17695
284.805	19849
284.863	27013
284.922	33613
284.981	42155
285.039	58532
285.098	98250
285.156	222326
285.215	481908
285.273	502950
285.332	289441
285.390	143421
285.449	84057
285.507	55661
285.566	40730
285.624	32256
285.683	26297
285.741	21057
285.799	17636
285.858	16267
285.916	14705
285.975	12353
286.033	10178
286.091	9974
286.150	8365
286.208	9620
286.267	10384
286.325	9001
286.383	12331
286.442	10669
286.500	7176
286.558	7080
286.616	6277
286.675	8333
286.733	7511
286.791	7186
286.850	7139
286.908	8397
286.966	15456
287.024	8207
287.083	6560
287.141	4950
287.199	5364
287.257	7221
287.315	6419
287.374	6039
287.432	15166
287.490	11884
287.548	8024
287.606	6882
287.664	6291
287.723	9259
287.781	14999
287.839	10017
287.897	10516
287.955	13987
288.013	19657
288.071	37909
288.129	152868
288.187	474852
288.245	248754
288.303	79944
288.361	40043
288.419	27422
288.477	20587
288.535	14243
288.593	11121
288.651	9507
288.709	7119
288.767	7939
288.825	7111
288.883	6180
288.941	6883
288.999	4495
289.057	4693
289.115	4706
289.173	4701
289.231	4454
289.289	5208
289.346	5157
289.404	5273
289.462	8711
289.520	9287
289.578	5138
289.636	3343
289.694	3022
289.751	3289
289.809	3320
289.867	3419
289.925	4670
289.983	5604
290.040	3748
290.098	2666
290.156	3889
290.214	4480
290.271	3628
290.329	3463
290.387	2205
290.444	2256
290.502	2265
290.560	2674
290.617	3150
290.675	2201
290.733	2901
290.790	4194
290.848	2979
290.906	3974
290.963	4231
291.021	3799
291.078	3381
291.136	4021
291.194	14573
291.251	39450
291.309	12875
291.366	5526
291.424	3291
291.481	3884
291.539	4494
291.596	4622
291.654	2607
291.711	2980
291.769	3674
291.826	9887
291.884	6830
291.941	3324
291.999	2997
292.056	4242
292.114	4652
292.171	2337
292.228	3517
292.286	5142
292.343	8251
292.401	11168
292.458	8082
292.515	5479
292.573	6150
292.630	5957
292.687	6423
292.745	5065
292.802	6906
292.859	24691
292.917	40097
292.974	24418
293.031	7910
293.089	5526
293.146	4354
293.203	3932
293.260	3520
293.318	5522
293.375	9478
293.432	6218
293.489	3861
293.546	4706
293.604	7792
293.661	27301
293.718	74818
293.775	40484
293.832	16120
293.889	12029
293.947	9868
294.004	7277
294.061	6605
294.118	13136
294.175	33608
294.232	51514
294.289	23599
294.346	9973
294.403	8570
294.460	7542
294.517	6330
294.574	5330
294.631	5388
294.688	6238
294.745	15917
294.802	73998
294.859	88182
294.916	33704
294.973	15650
295.030	10640
295.087	9801
295.144	7543
295.201	6442
295.258	6075
295.315	6984
295.372	24024
295.429	58453
295.486	26019
295.542	13205
295.599	30097
295.656	60846
295.713	39629
295.770	50521
295.827	22208
295.883	9904
295.940	9066
295.997	13131
296.054	14156
296.111	6552
296.167	5841
296.224	3758
296.281	3730
296.338	4139
296.394	4253
296.451	6506
296.508	18732
296.564	41979
296.621	27334
296.678	54632
296.734	93725
296.791	36941
296.848	16758
296.904	13935
296.961	26620
297.018	54710
297.074	47286
297.131	18245
297.187	12477
297.244	14309
297.301	53532
297.357	117148
297.414	45560
297.470	16346
297.527	10016
297.583	8042
297.640	7129
297.696	5984
297.753	5303
297.809	4310
297.866	4216
297.922	4636
297.979	4872
298.035	4923
298.092	8924
298.148	29796
298.204	33495
298.261	14670
298.317	23325
298.374	74509
298.430	48915
298.486	22095
298.543	17049
298.599	13567
298.656	13969
298.712	19612
298.768	53200
298.824	44902
298.881	16839
298.937	8896
298.993	6607
299.050	8839
299.106	8722
299.162	6735
299.218	7862
299.275	7041
299.331	6056
299.387	12660
299.443	60214
299.500	70788
299.556	27395
299.612	12564
299.668	11329
299.724	10236
299.780	10596
299.837	8288
299.893	11880
299.949	43795
300.005	58147
300.061	46969
300.117	92057
300.173	50282
300.229	21111
300.285	22520
300.341	25250
300.397	14864
300.453	8481
300.510	7373
300.566	7609
300.622	8372
300.678	18807
300.734	39444
300.790	44939
300.845	65208
300.901	38105
300.957	44337
301.013	39020
301.069	15389
301.125	9782
301.181	11359
301.237	10131
301.293	6999
301.349	7024
301.405	5627
301.461	6782
301.516	10561
301.572	9302
301.628	13499
301.684	13567
301.740	21185
301.796	37255
301.851	24727
301.907	34238
301.963	33865
302.019	56961
302.074	184101
302.130	195431
302.186	94486
302.242	36866
302.297	19972
302.353	18197
302.409	32943
302.464	31226
302.520	23699
302.576	58809
302.631	74260
302.687	42209
302.743	18237
302.798	10847
302.854	7305
302.910	7170
302.965	10113
303.021	18674
303.076	18660
303.132	20557
303.187	25226
303.243	14274
303.299	7979
303.354	6338
303.410	6867
303.465	6181
303.521	5387
303.576	6203
303.632	6891
303.687	16838
303.743	59094
303.798	56636
303.853	24512
303.909	11756
303.964	8394
304.020	11069
304.075	17036
304.130	15431
304.186	27414
304.241	29981
304.297	24786
304.352	13484
304.358	13016
304.407	9227
304.449	7885
304.463	7438
304.518	8359
304.539	7948
304.573	7302
304.629	8034
304.630	8145
304.684	13935
304.720	32480
304.739	41626
304.794	73250
304.811	63175
304.850	38910
304.902	17787
304.905	16464
304.960	11094
304.992	11803
305.015	12261
305.071	12743
305.083	12347
305.126	10750
305.173	7386
305.181	6867
305.236	6120
305.264	6045
305.292	6011
305.347	7663
305.354	7825
305.402	8994
305.445	11272
305.457	11830
305.512	14124
305.535	13739
305.567	13351
305.622	12349
305.626	12769
305.678	24889
305.716	54902
305.733	65008
305.788	76980
305.807	66411
305.843	49954
305.897	62658
305.898	62729
305.953	65432
305.988	44579
306.008	33748
306.063	17266
306.078	15351
306.118	11327
306.168	7718
306.173	7421
306.228	6485
306.259	6742
306.283	7040
306.338	7019
306.349	7304
306.393	8744
306.440	11193
306.448	11513
306.503	10918
306.530	11476
306.558	15368
306.613	35249
306.620	38021
306.668	52886
306.711	61512
306.723	61368
306.778	48093
306.801	36287
306.833	23729
306.888	12862
306.892	12373
306.943	8530
306.982	7821
306.997	7726
307.052	8013
307.072	8438
307.107	10590
307.162	16786
307.163	16878
307.217	26761
307.253	32872
307.272	33920
307.327	36528
307.343	32922
307.381	25490
307.434	20273
307.436	20737
307.491	41916
307.524	62683
307.546	67151
307.600	59068
307.614	52234
307.655	33519
307.704	19327
307.710	18970
307.765	22904
307.795	29485
307.819	36458
307.874	63866
307.885	64673
307.929	52636
307.975	35724
307.984	35845
308.038	46392
308.065	56090
308.093	100299
308.148	216980
308.156	244429
308.202	383732
308.246	477646
308.257	464843
308.312	254857
308.336	169352
308.366	123107
308.421	71607
308.426	67670
308.475	44060
308.517	31640
308.530	29260
308.585	24930
308.607	23876
308.639	24763
308.694	28359
308.697	28801
308.748	53445
308.787	81670
308.803	82052
308.857	64167
308.877	53694
308.912	45380
308.967	41408
308.967	41407
309.021	53444
309.058	64471
309.076	81645
309.130	142296
309.148	167435
309.185	312871
309.238	566975
309.239	568730
309.293	617334
309.328	572433
309.348	498084
309.402	246449
309.418	182000
309.457	125941
309.508	76895
309.511	75501
309.566	65218
309.598	63377
309.620	71059
309.674	98188
309.688	105797
309.729	102509
309.778	87399
309.783	85490
309.837	60506
309.868	47799
309.892	51218
309.946	63903
309.959	68748
310.001	84556
310.049	99299
310.055	96274
310.109	60174
310.139	39284
310.163	32219
310.218	20814
310.229	19023
310.272	16157
310.319	13432
310.326	13177
310.381	12957
310.409	12707
310.435	12453
310.489	11883
310.499	11823
310.543	12407
310.589	13313
310.598	13242
310.652	12958
310.679	12484
310.706	10923
310.760	7540
310.769	7062
310.814	6349
310.859	6003
310.868	6054
310.923	6279
310.948	6553
310.977	7582
311.031	9346
311.038	9609
311.085	8993
311.128	8106
311.139	8052
311.193	8003
311.218	7895
311.247	7373
311.301	6446
311.308	6321
311.356	6746
311.398	7343
311.410	7347
311.464	7089
311.488	7016
311.518	6495
311.572	5476
311.578	5377
311.626	8032
311.668	10408
311.680	10739
311.734	12016
311.758	12632
311.788	12203
311.842	11223
311.847	11119
311.896	15221
311.937	18876
311.950	18450
312.004	16433
312.027	15464
312.058	12615
312.112	7591
312.117	7096
312.165	7019
312.207	6972
312.297	12180
312.386	8306
312.476	8565
312.566	16141
312.656	7072
312.745	5614
312.835	7210
312.925	8819
313.015	7894
313.104	9815
313.194	6430
313.284	7107
313.374	10040
313.463	8777
313.553	6256
313.643	5733
313.732	5264
313.822	5112
313.912	6215
314.001	7643
314.091	8708
314.180	12880
314.270	10942
314.360	13151
314.449	9291
314.539	6494
314.628	5800
314.718	8108
314.808	11429
314.897	6174
314.987	6028
315.076	8196
315.166	12669
315.255	12568
315.345	11801
315.434	11806
315.524	10661
315.613	11974
315.703	13161
315.792	20135
315.881	55192
315.971	19832
316.060	24404
316.150	43264
316.239	44247
316.328	14004
316.418	6027
316.507	6247
316.597	10321
316.686	9222
316.775	20343
316.865	47759
316.954	8150
317.043	4712
317.133	6143
317.222	5425
317.311	5667
317.400	4808
317.490	9801
317.579	9476
317.668	7051
317.757	12419
317.847	34190
317.936	99752
318.025	38389
318.114	21873
318.203	13661
318.293	14675
318.382	24365
318.471	21743
318.560	37275
318.649	91810
318.738	15912
318.828	10941
318.917	13016
319.006	18912
319.095	55632
319.184	116312
319.273	53265
319.362	23240
319.451	9226
319.540	9054
319.629	22491
319.718	32235
319.807	15440
319.896	40718
319.985	143558
320.074	40714
320.163	14517
320.252	28727
320.341	19158
320.430	15241
320.519	17796
320.608	9290
320.697	9005
320.786	8895
320.875	12572
320.964	15065
321.053	24257
321.142	34803
321.230	33593
321.319	29235
321.408	64206
321.497	24978
321.586	26357
321.675	42316
321.764	35378
321.852	22876
321.941	36415
322.030	21091
322.119	29133
322.207	70318
322.296	61632
322.385	26595
322.474	29493
322.562	80501
322.651	37184
322.740	28422
322.829	45494
322.917	62401
323.006	26574
323.095	20404
323.183	19194
323.272	27757
323.361	61979
323.449	189528
323.538	54292
323.626	136453
323.715	69116
323.804	31196
323.892	124457
323.981	52446
324.069	18465
324.158	72068
324.246	54863
324.335	15561
324.424	21725
324.512	8236
324.601	9629
324.689	11930
324.778	20691
324.866	42660
324.954	10822
325.043	9901
325.131	26197
325.220	50470
325.308	55999
325.397	40099
325.485	20361
325.574	5733
325.662	5828
325.750	6915
325.839	6418
325.927	5371
326.015	8895
326.104	24544
326.192	31463
326.280	6933
326.369	7639
326.457	9170
326.545	18618
326.634	7380
326.722	4599
326.810	5100
326.898	4768
326.987	6257
327.075	18631
327.163	23949
327.251	9886
327.340	4899
327.428	6333
327.516	5433
327.604	6261
327.692	7415
327.781	11913
327.869	22034
327.957	11044
328.045	9609
328.133	5810
328.221	11367
328.309	7641
328.397	5166
328.485	7985
328.574	11240
328.662	42759
328.750	28681
328.838	12254
328.926	5387
329.014	4789
329.102	9526
329.190	28589
329.278	15221
329.366	4560
329.454	5048
329.542	4686
329.630	4027
329.718	4832
329.806	6906
329.893	7665
329.981	6929
330.069	10120
330.157	51784
330.245	159560
330.333	70499
330.421	11576
330.509	12700
330.597	49433
330.684	30943
330.772	11922
330.860	19497
330.948	25858
331.036	9499
331.123	4554
331.211	5057
331.299	7502
331.387	21850
331.475	36913
331.562	11646
331.650	5578
331.738	8783
331.825	13326
331.913	4898
332.001	5142
332.089	9596
332.176	24589
332.264	68372
332.352	42870
332.439	10673
332.527	7756
332.614	8192
332.702	11580
332.790	7505
332.877	28857
332.965	60262
333.052	14655
333.140	17224
333.228	42017
333.315	11151
333.403	9940
333.490	39117
333.578	30614
333.665	45811
333.753	22092
333.840	7287
333.928	9865
334.015	36897
334.103	56027
334.190	171661
334.278	34032
334.365	15485
334.452	9994
334.540	7075
334.627	11773
334.715	15312
334.802	37145
334.889	246097
334.977	200692
335.064	20184
335.151	9819
335.239	10065
335.326	14294
335.413	76761
335.501	92811
335.588	11264
335.675	7757
335.762	11122
335.850	19394
335.937	12452
336.024	48266
336.111	227463
336.199	73151
336.286	12191
336.373	7465
336.460	4986
336.547	5878
336.635	9533
336.722	7946
336.809	7337
336.896	11650
336.983	43338
337.070	104252
337.157	155440
337.245	147522
337.332	94623
337.419	11134
337.506	6229
337.593	7974
337.680	33820
337.767	100442
337.854	24786
337.941	31716
338.028	51144
338.115	15791
338.202	15982
338.289	38454
338.376	146542
338.463	35803
338.550	61643
338.637	58198
338.724	27106
338.811	42811
338.898	7573
338.984	5111
339.071	8593
339.158	9206
339.245	24944
339.332	17964
339.419	30904
339.506	25309
339.593	3709
339.679	4341
339.766	4327
339.853	8238
339.940	16669
340.027	6005
340.113	5905
340.200	9648
340.287	6454
340.374	8357
340.460	13702
340.547	5716
340.634	12104
340.720	49148
340.807	24406
340.894	5371
340.980	5371
341.067	4685
341.154	5546
341.240	10859
341.327	22481
341.414	12169
341.500	16722
341.587	6191
341.674	4749
341.760	14697
341.847	17745
341.933	6048
342.020	2450
342.106	3627
342.193	5662
342.279	11600
342.366	9715
342.452	16018
342.539	7230
342.625	19926
342.712	49823
342.798	18253
342.885	6952
342.971	3355
343.058	3054
343.144	3254
343.230	4365
343.317	6061
343.403	5174
343.490	3138
343.576	3693
343.662	4653
343.749	5449
343.835	6983
343.921	14412
344.008	114566
344.094	254273
344.180	44480
344.267	14821
344.353	65760
344.439	69985
344.525	25039
344.612	14790
344.698	10971
344.784	6333
344.870	3918
344.957	4426
345.043	8288
345.129	6353
345.215	14467
345.301	8843
345.387	5653
345.474	2567
345.560	4497
345.646	7676
345.732	5582
345.818	9994
345.904	7637
345.990	6619
346.076	10346
346.162	24240
346.249	8289
346.335	3112
346.421	6864
346.507	27567
346.593	95710
346.679	18103
346.765	6240
346.851	4952
346.937	4707
347.023	4286
347.108	6215
347.194	5324
347.280	5876
347.366	5983
347.452	25066
347.538	117618
347.624	74323
347.710	61576
347.796	9847
347.882	4546
347.967	4156
348.053	8472
348.139	5544
348.225	4087
348.311	3588
348.397	3683
348.482	6128
348.568	6280
348.654	2975
348.740	4377
348.825	4500
348.911	9411
348.997	53795
349.083	107010
349.168	15650
349.254	8681
349.340	9002
349.425	3365
349.511	7418
349.597	7177
349.682	15663
349.768	56274
349.854	23790
349.939	5984
350.025	4678
350.110	7898
350.196	3958
350.282	2436
350.367	3533
350.453	14343
350.538	13352
350.624	7704
350.709	6558
350.795	4055
350.880	3180
350.966	6183
351.051	15095
351.137	9537
351.222	4820
351.308	17108
351.393	46309
351.479	15050
351.564	6726
351.649	5523
351.735	3379
351.820	2240
351.906	3330
351.991	7491
352.076	32352
352.162	44769
352.247	8053
352.332	6308
352.418	19456
352.503	21880
352.588	66979
352.673	51364
352.759	10994
352.844	5408
352.929	6566
353.014	8970
353.100	5287
353.185	6758
353.270	16182
353.355	15721
353.441	5152
353.526	9055
353.611	16489
353.696	18059
353.781	10269
353.866	3563
353.952	5548
354.037	14660
354.122	34910
354.207	30369
354.292	11405
354.377	4350
354.462	4527
354.547	6347
354.632	6458
354.717	7718
354.802	6482
354.887	3703
354.972	3529
355.057	2589
355.142	2148
355.227	5279
355.312	9888
355.397	24018
355.482	56610
355.567	24712
355.652	17802
355.737	19145
355.822	68457
355.907	52994
355.991	8501
356.076	5614
356.161	4959
356.246	3321
356.331	5532
356.416	14893
356.501	126756
356.585	125220
356.670	16559
356.755	9652
356.840	13731
356.924	77934
357.009	296369
357.094	98493
357.179	19385
357.263	11757
357.348	13305
357.433	13377
357.517	11832
357.602	8082
357.687	7157
357.771	14763
357.856	62848
357.941	33540
358.025	62655
358.110	296985
358.195	123154
358.279	14521
358.364	10867
358.448	43671
358.533	119744
358.617	83199
358.702	85091
358.787	29222
358.871	15149
358.956	12177
359.040	4773
359.125	3159
359.209	5746
359.294	29425
359.378	49587
359.462	15520
359.547	8152
359.631	7676
359.716	4010
359.800	5738
359.885	10104
359.969	5424
360.053	4040
360.138	3437
360.222	7764
360.306	16148
360.391	13123
360.475	31523
360.559	65082
360.644	48829
360.728	31934
360.812	64843
360.896	187715
360.981	68695
361.065	33045
361.149	8657
361.233	8402
361.318	7047
361.402	7007
361.486	7014
361.570	6012
361.654	6967
361.739	22122
361.823	119293
361.907	190130
361.991	30238
362.075	14892
362.159	33689
362.243	22274
362.327	18584
362.411	21668
362.495	14617
362.580	7387
362.664	6304
362.748	4372
362.832	6804
362.916	10834
363.000	35873
363.084	130745
363.168	212013
363.252	43028
363.336	13925
363.420	21595
363.503	98201
363.587	111044
363.671	15740
363.755	11195
363.839	16027
363.923	8069
364.007	17804
364.091	21826
364.175	37475
364.258	153797
364.342	86206
364.426	67911
364.510	36159
364.594	21983
364.677	33102
364.761	161394
364.845	108424
364.929	28941
365.013	22406
365.096	19803
365.180	23703
365.264	41304
365.347	159186
365.431	62695
365.515	13912
365.598	6612
365.682	6528
365.766	14817
365.849	17474
365.933	9209
366.017	13077
366.100	9583
366.184	4217
366.267	6782
366.351	3387
366.435	3427
366.518	2774
366.602	2907
366.685	4198
366.769	5377
366.852	12451
366.936	21839
367.019	10583
367.103	9604
367.186	20454
367.270	5662
367.353	2915
367.436	4640
367.520	3682
367.603	6029
367.687	9225
367.770	19419
367.853	11291
367.937	41789
368.020	69487
368.104	14247
368.187	14739
368.270	18780
368.353	16967
368.437	35070
368.520	96682
368.603	45807
368.687	48139
368.770	90333
368.853	20195
368.936	20315
369.020	20746
369.103	7427
369.186	3334
369.269	5322
369.352	12525
369.436	19166
369.519	11362
369.602	3933
369.685	6931
369.768	6796
369.851	6469
369.934	3572
370.018	6725
370.101	15365
370.184	13885
370.267	9103
370.350	13349
370.433	24466
370.516	75216
370.599	97411
370.682	26249
370.765	42992
370.848	56336
370.931	114354
371.014	40776
371.097	6936
371.180	5675
371.263	3866
371.346	2809
371.429	4522
371.511	4654
371.594	10150
371.677	17175
371.760	20925
371.843	16678
371.926	96986
372.009	229146
372.091	65092
372.174	44155
372.257	111729
372.340	41810
372.423	29926
372.505	35758
372.588	14392
372.671	33032
372.754	108935
372.836	53827
372.919	43722
373.002	85328
373.085	23034
373.167	15402
373.250	44237
373.332	102971
373.415	148753
373.498	316206
373.580	104139
373.663	147551
373.746	202125
373.828	39612
373.911	15712
373.993	19814
374.076	86971
374.159	82699
374.241	31257
374.324	88682
374.406	57776
374.489	88105
374.571	252833
374.654	94638
374.736	44586
374.819	155662
374.901	225995
374.983	229905
375.066	34099
375.148	12726
375.231	70731
375.313	134506
375.395	42552
375.478	8341
375.560	6705
375.643	10380
375.725	46933
375.807	203852
375.890	174063
375.972	81202
376.054	40557
376.136	75716
376.219	30373
376.301	54709
376.383	167499
376.465	59829
376.548	33317
376.630	45322
376.712	134261
376.794	60352
376.877	7131
376.959	3776
377.041	6592
377.123	16564
377.205	20740
377.287	3885
377.369	3833
377.452	4179
377.534	4894
377.616	4882
377.698	4443
377.780	2552
377.862	4729
377.944	5606
378.026	1955
378.108	3883
378.190	3419
378.272	3295
378.354	2884
378.436	2538
378.518	9434
378.600	34000
378.682	27415
378.764	58658
378.846	45852
378.928	12306
379.010	15210
379.091	8594
379.173	4547
379.255	3540
379.337	7015
379.419	28564
379.501	86380
379.583	33661
379.664	8875
379.746	20820
379.828	57485
379.910	78353
379.991	69163
380.073	10955
380.155	7173
380.237	5486
380.318	3295
380.400	4999
380.482	14271
380.564	21659
380.645	16832
380.727	16488
380.809	11174
380.890	7215
380.972	4767
381.053	6035
381.135	7889
381.217	20516
381.298	59520
381.380	29379
381.461	27915
381.543	139333
381.624	169344
381.706	28573
381.787	13583
381.869	16361
381.951	62650
382.032	239480
382.113	145772
382.195	26999
382.276	18295
382.358	40337
382.439	122441
382.521	143716
382.602	226381
382.684	102904
382.765	182459
382.846	232972
382.928	347558
383.009	199074
383.090	158579
383.172	529333
383.253	723781
383.334	247972
383.416	214859
383.497	115665
383.578	68222
383.659	140734
383.741	485549
383.822	1049612
383.903	536171
383.984	172182
384.066	232165
384.147	139046
384.228	33122
384.309	24498
384.390	19404
384.471	13250
384.553	14691
384.634	19278
384.715	19548
384.796	11242
384.877	15487
384.958	55738
385.039	66335
385.120	22970
385.201	12150
385.282	16733
385.363	17938
385.444	15054
385.525	26596
385.606	91979
385.687	82977
385.768	20024
385.849	25049
385.930	107490
386.011	188260
386.092	45820
386.173	10812
386.254	8759
386.335	9691
386.416	9177
386.496	35546
386.577	58366
386.658	23077
386.739	13959
386.820	14321
386.901	11346
386.981	10280
387.062	6753
387.143	13186
387.224	56411
387.304	53329
387.385	18426
387.466	11509
387.547	15949
387.627	8670
387.708	22980
387.789	102544
387.869	133366
387.950	35180
388.031	6772
388.111	6981
388.192	22346
388.273	34051
388.353	17718
388.434	10304
388.514	22256
388.595	111665
388.676	138766
388.756	56825
388.837	50779
388.917	32134
388.998	5308
389.078	6824
389.159	8455
389.239	7438
389.320	11803
389.400	8800
389.480	23638
389.561	63153
389.641	29991
389.722	10086
389.802	16171
389.883	27029
389.963	77619
390.043	54019
390.124	16358
390.204	21120
390.284	62864
390.365	42933
390.445	66701
390.525	183225
390.605	152443
390.686	36072
390.766	10190
390.846	6453
390.927	4472
391.007	6922
391.087	7624
391.167	5685
391.247	5211
391.328	15616
391.408	21600
391.488	12870
391.568	4539
391.648	8442
391.728	11490
391.808	12362
391.888	13352
391.969	33783
392.049	52840
392.129	24733
392.209	27898
392.289	71175
392.369	40957
392.449	34805
392.529	22476
392.609	16862
392.689	22313
392.769	70426
392.849	61368
392.929	43381
393.009	104484
393.089	79696
393.169	65950
393.248	239637
393.328	930022
393.408	980292
393.488	230553
393.568	59527
393.648	29823
393.728	20217
393.807	15989
393.887	15897
393.967	14870
394.047	17395
394.127	21767
394.206	40781
394.286	164110
394.366	698375
394.446	756127
394.525	176938
394.605	41061
394.685	29330
394.764	55011
394.844	89726
394.924	63302
395.003	18497
395.083	13813
395.163	12986
395.242	11623
395.322	12309
395.402	9702
395.481	14450
395.561	40161
395.640	97968
395.720	74476
395.799	114070
395.879	94715
395.958	66799
396.038	247734
396.117	913432
396.197	997037
396.276	292812
396.356	86775
396.435	56315
396.515	36226
396.594	36387
396.673	64489
396.753	266100
396.832	846752
396.912	608820
396.991	124273
397.070	32690
397.150	18737
397.229	14879
397.308	15745
397.388	23888
397.467	14169
397.546	7725
397.625	5316
397.705	10779
397.784	9715
397.863	6203
397.942	4437
398.022	6366
398.101	31962
398.180	94064
398.259	47687
398.338	11268
398.417	7361
398.497	5744
398.576	6238
398.655	3723
398.734	3330
398.813	4706
398.892	29512
398.971	102904
399.050	49678
399.129	5367
399.208	3801
399.287	4440
399.366	3963
399.445	3616
399.524	3629
399.603	3267
399.682	9069
399.761	30881
399.840	109794
399.919	84507
399.998	10048
400.077	2532
400.156	2110
400.235	6361
400.313	3159
400.392	5556
400.471	28921
400.550	47614
400.629	12464
400.708	6404
400.786	6243
400.865	19583
400.944	20820
401.023	10386
401.102	1319
401.180	2495
401.259	3892
401.338	4996
401.416	7002
401.495	5654
401.574	5262
401.652	4358
401.731	6982
401.810	3888
401.888	2470
401.967	1169
402.046	1506
402.124	5412
402.203	8341
402.281	4569
402.360	5695
402.438	24693
402.517	17316
402.596	5715
402.674	5471
402.753	3273
402.831	3287
402.910	4285
402.988	11103
403.066	32461
403.145	18472
403.223	11074
403.302	21955
403.380	16790
403.459	14287
403.537	6536
403.615	4353
403.694	1003
403.772	2559
403.850	1726
403.929	1397
404.007	2203
404.085	5040
404.164	3694
404.242	2092
404.320	11002
404.398	37767
404.477	56525
404.555	171687
404.633	150798
404.711	35173
404.789	15088
404.868	3778
404.946	2107
405.024	1703
405.102	2564
405.180	1768
405.258	1399
405.336	2584
405.415	2214
405.493	7256
405.571	5607
405.649	901
405.727	1992
405.805	5061
405.883	4413
405.961	5110
406.039	8640
406.117	2512
406.195	6997
406.273	37802
406.351	138925
406.429	82787
406.507	12001
406.585	3957
406.663	4370
406.740	5948
406.818	4916
406.896	2536
406.974	3872
407.052	10971
407.130	77752
407.208	109152
407.285	19027
407.363	3082
407.441	4094
407.519	4197
407.596	8266
407.674	40807
407.752	172907
407.830	140086
407.907	24725
407.985	4675
408.063	2615
408.141	1869
408.218	6883
408.296	5177
408.373	2325
408.451	4494
408.529	4269
408.606	777
408.684	816
408.762	1094
408.839	888
408.917	771
408.994	986
409.072	289
409.149	1172
409.227	3217
409.304	3776
409.382	2914
409.459	2350
409.537	5027
409.614	5112
409.692	2895
409.769	3683
409.846	5563
409.924	8222
410.001	5023
410.079	3466
410.156	3074
410.233	2602
410.311	2095
410.388	1536
410.465	2182
410.543	1375
410.620	1380
410.697	3580
410.775	4038
410.852	1009
410.929	3920
411.006	4843
411.083	1309
411.161	6047
411.238	8044
411.315	5292
411.392	1380
411.469	3588
411.547	2562
411.624	161
411.701	1395
411.778	4099
411.855	9287
411.932	4627
412.009	1152
412.086	1986
412.163	2603
412.240	3852
412.317	5383
412.394	4528
412.471	1780
412.548	901
412.625	2081
412.702	2693
412.779	7091
412.856	3841
412.933	580
413.010	3131
413.087	8158
413.164	27276
413.241	36393
413.318	8021
413.395	4442
413.471	6633
413.548	3129
413.625	3572
413.702	3176
413.779	3165
413.855	-581
413.932	238
414.009	-468
414.086	-223
414.162	747
414.239	4884
414.316	26150
414.393	59635
414.469	19383
414.546	1548
414.623	1278
414.699	1252
414.776	1510
414.853	1290
414.929	1507
415.006	1103
415.082	2989
415.159	1992
415.236	1897
415.312	1700
415.389	6412
415.465	7940
415.542	4122
415.618	1848
415.695	5020
415.771	2950
415.848	3092
415.924	3356
416.000	2086
416.077	2162
416.153	-638
416.230	-170
416.306	886
416.383	1987
416.459	729
416.535	804
416.612	1006
416.688	1045
416.764	1132
416.841	869
416.917	1379
416.993	2197
417.069	3659
417.146	4171
417.222	5555
417.298	2822
417.374	761
417.451	2658
417.527	3347
417.603	4420
417.679	2185
417.755	1746
417.831	-369
417.908	1026
417.984	701
418.060	525
418.136	6420
418.212	9274
418.288	3072
418.364	1594
418.440	1373
418.516	4961
418.592	7073
418.668	11717
418.744	17431
418.820	12948
418.896	2535
418.972	153
419.048	1357
419.124	7875
419.200	4786
419.276	449
419.352	2
419.428	239
419.504	1410
419.579	3015
419.655	1540
419.731	2328
419.807	10695
419.883	21301
419.959	14978
420.034	3686
420.110	8654
420.186	35285
420.262	27510
420.337	4686
420.413	4081
420.489	1435
420.565	1637
420.640	1216
420.716	1436
420.792	428
420.867	2208
420.943	1742
421.019	4474
421.094	3351
421.170	1650
421.245	879
421.321	2000
421.397	3744
421.472	31203
421.548	102207
421.623	55615
421.699	7535
421.774	4210
421.850	3365
421.925	7265
422.001	6106
422.076	4979
422.152	4285
422.227	9248
422.302	10355
422.378	13090
422.453	27285
422.529	76847
422.604	304538
422.679	607459
422.755	331351
422.830	78819
422.905	25881
422.981	13842
423.056	8386
423.131	6049
423.207	5247
423.282	6228
423.357	11440
423.432	7050
423.508	7532
423.583	16925
423.658	13518
423.733	4437
423.808	6190
423.883	6671
423.959	4286
424.034	3280
424.109	2525
424.184	149
424.259	176
424.334	1393
424.409	524
424.484	1716
424.559	2398
424.634	918
424.709	2687
424.784	4977
424.859	2175
424.934	5259
425.009	24375
425.084	39746
425.159	14488
425.234	1964
425.309	1364
425.384	13808
425.459	22937
425.534	6384
425.609	1929
425.683	1731
425.758	1812
425.833	1438
425.908	3582
425.983	15039
426.058	43595
426.132	18493
426.207	3305
426.282	6941
426.357	6493
426.431	1532
426.506	2091
426.581	1431
426.655	1854
426.730	1332
426.805	999
426.879	1922
426.954	1594
427.029	7313
427.103	43335
427.178	110651
427.253	48189
427.327	5103
427.402	8922
427.476	27106
427.551	12989
427.625	3280
427.700	3313
427.774	1298
427.849	3294
427.923	1801
427.998	650
428.072	2020
428.147	7962
428.221	31669
428.296	88838
428.370	44148
428.444	6630
428.519	9193
428.593	19278
428.667	16065
428.742	19519
428.816	18562
428.890	61830
428.965	95019
429.039	35493
429.113	23004
429.188	7484
429.262	1985
429.336	6303
429.410	19574
429.485	13372
429.559	15237
429.633	11736
429.707	3513
429.781	13501
429.855	68022
429.930	97786
430.004	61167
430.078	96715
430.152	83782
430.226	135044
430.300	132370
430.374	17260
430.448	6645
430.522	32973
430.596	95455
430.670	54847
430.744	107507
430.818	157979
430.892	29663
430.966	4303
431.040	1811
431.114	-39
431.188	515
431.262	1070
431.336	1740
431.410	8320
431.484	24347
431.557	15161
431.631	571
431.705	2847
431.779	16255
431.853	75243
431.927	50918
432.000	4216
432.074	1558
432.148	3821
432.222	2326
432.295	1458
432.369	1517
432.443	5320
432.516	45557
432.590	114610
432.664	40893
432.737	3472
432.811	53
432.885	231
432.958	646
433.032	-479
433.106	-276
433.179	-69
433.253	-134
433.326	-310
433.400	-119
433.473	814
433.547	-652
433.620	979
433.694	2760
433.767	5041
433.841	1167
433.914	108
433.988	121
434.061	392
434.134	-286
434.208	-621
434.281	-1680
434.355	305
434.428	750
434.501	960
434.575	-235
434.648	532
434.721	-530
434.795	257
434.868	-1454
434.941	-710
435.014	-499
435.088	1454
435.161	2059
435.234	5104
435.307	5279
435.381	2497
435.454	1701
435.527	2220
435.600	1447
435.673	1581
435.746	659
435.819	270
435.892	545
435.966	533
436.039	726
436.112	542
436.185	-865
436.258	394
436.331	-949
436.404	-286
436.477	-941
436.550	-168
436.623	-461
436.696	170
436.769	832
436.842	507
436.915	1060
436.987	2112
437.060	706
437.133	67
437.206	-265
437.279	734
437.352	-374
437.425	-457
437.498	221
437.570	3518
437.643	3269
437.716	333
437.789	-291
437.861	1782
437.934	6458
438.007	3135
438.080	-446
438.152	1233
438.225	6500
438.298	62583
438.370	170437
438.443	62220
438.516	8585
438.588	1450
438.661	-36
438.734	625
438.806	1450
438.879	1588
438.951	1266
439.024	3674
439.096	830
439.169	88
439.241	-885
439.314	388
439.386	3526
439.459	5997
439.531	8794
439.604	2620
439.676	143
439.749	-899
439.821	-420
439.893	-257
439.966	161
440.038	1532
440.110	1779
440.183	557
440.255	-17
440.327	2518
440.400	22949
440.472	98202
440.544	61230
440.617	5210
440.689	2655
440.761	3492
440.833	6184
440.905	3238
440.978	267
441.050	66
441.122	-115
441.194	-504
441.266	-93
441.338	321
441.411	3595
441.483	26526
441.555	38631
441.627	7282
441.699	4423
441.771	5094
441.843	1252
441.915	143
441.987	-937
442.059	-221
442.131	1155
442.203	4311
442.275	4074
442.347	3408
442.419	3899
442.491	28559
442.563	68284
442.635	29398
442.706	23156
442.778	17869
442.850	2404
442.922	734
442.994	1172
443.066	3751
443.137	2611
443.209	2145
443.281	3456
443.353	9065
443.425	41395
443.496	140324
443.568	120850
443.640	37977
443.711	6071
443.783	2472
443.855	1724
443.926	949
443.998	1149
444.070	3471
444.141	1939
444.213	4045
444.285	4848
444.356	5533
444.428	5515
444.499	1274
444.571	142
444.642	677
444.714	1214
444.785	3033
444.857	7090
444.928	18174
445.000	9331
445.071	11452
445.143	13038
445.214	5314
445.285	10572
445.357	37732
445.428	106914
445.500	236426
445.571	131928
445.642	56523
445.714	25973
445.785	28248
445.856	6888
445.928	5240
445.999	3055
446.070	1560
446.141	2746
446.213	3856
446.284	1553
446.355	3125
446.426	1902
446.497	1568
446.569	4937
446.640	8308
446.711	4773
446.782	1705
446.853	5809
446.924	4450
446.995	1115
447.066	1444
447.138	6303
447.209	2911
447.280	-944
447.351	-382
447.422	-366
447.493	2309
447.564	2610
447.635	4148
447.706	517
447.777	-627
447.847	12
447.918	-13
447.989	2265
448.060	4601
448.131	12941
448.202	10062
448.273	5738
448.344	2426
448.414	976
448.485	565
448.556	493
448.627	-101
448.698	338
448.768	-576
448.839	677
448.910	5189
448.981	4104
449.051	433
449.122	-359
449.193	-494
449.263	129
449.334	453
449.405	2227
449.475	6236
449.546	3963
449.616	6383
449.687	5411
449.758	891
449.828	304
449.899	-631
449.969	-787
450.040	369
450.110	3082
450.181	3867
450.251	536
450.322	1063
450.392	871
450.463	1093
450.533	-1
450.604	518
450.674	355
450.744	1108
450.815	103
450.885	1600
450.955	280
451.026	-245
451.096	767
451.166	2194
451.237	6876
451.307	19306
451.377	7204
451.447	754
451.518	897
451.588	585
451.658	1290
451.728	3696
451.799	19996
451.869	22117
451.939	3953
452.009	641
452.079	431
452.149	1297
452.219	5031
452.289	24387
452.360	18314
452.430	3099
452.500	2955
452.570	3346
452.640	3728
452.710	14420
452.780	23386
452.850	14485
452.920	10969
452.990	4764
453.060	2154
453.129	3693
453.199	5537
453.269	28987
453.339	61984
453.409	95025
453.479	93162
453.549	133309
453.619	137413
453.688	53224
453.758	7243
453.828	1854
453.898	1634
453.968	2120
454.037	1077
454.087	1271
454.107	1329
454.168	995
454.177	922
454.247	951
454.249	965
454.316	519
454.330	1094
454.386	2937
454.411	6159
454.456	11023
454.492	14472
454.525	17594
454.574	9206
454.595	5622
454.655	2488
454.665	2012
454.734	2946
454.736	3151
454.804	7094
454.817	10301
454.873	21606
454.898	23921
454.943	27819
454.979	19851
455.013	13072
455.060	7924
455.082	6169
455.141	7937
455.152	8680
455.221	28003
455.222	28729
455.291	58914
455.303	68144
455.360	99455
455.384	145346
455.430	213163
455.465	156374
455.499	109053
455.546	56145
455.569	31597
455.627	17207
455.638	14797
455.707	3569
455.708	3589
455.777	2720
455.789	2705
455.846	2313
455.869	2126
455.916	1947
455.950	2042
455.985	1866
456.031	2293
456.054	2585
456.112	2047
456.124	1938
456.193	2234
456.193	2207
456.262	2459
456.274	2918
456.332	4599
456.355	5161
456.401	5576
456.436	4554
456.470	3603
456.516	1665
456.540	851
456.597	1048
456.609	1066
456.678	1125
456.678	1107
456.747	869
456.759	857
456.817	969
456.840	851
456.886	588
456.920	1137
456.955	1710
457.001	1639
457.024	1982
457.082	3866
457.093	4108
457.162	7082
457.163	7133
457.232	9381
457.243	8758
457.301	5391
457.324	3699
457.370	1582
457.405	2306
457.439	2699
457.485	2123
457.508	1972
457.566	1964
457.577	2016
457.646	2538
457.647	2571
457.715	4428
457.727	4709
457.784	6026
457.808	7404
457.853	9545
457.889	11339
457.922	11988
457.969	9418
457.991	9077
458.050	9782
458.060	9902
458.129	15174
458.130	15332
458.198	15655
458.211	14064
458.267	8095
458.292	6174
458.336	4773
458.372	4815
458.405	5905
458.453	8183
458.474	9529
458.533	15327
458.543	15771
458.611	25109
458.614	25173
458.680	16767
458.694	13736
458.749	6824
458.775	5260
458.818	3908
458.855	3932
458.887	3536
458.936	3187
458.955	3289
459.016	2847
459.024	2737
459.093	3161
459.097	3193
459.162	4258
459.177	4401
459.230	4154
459.257	4246
459.299	4519
459.338	4766
459.368	4712
459.418	4482
459.437	4364
459.499	3638
459.505	3554
459.574	3099
459.579	3088
459.643	3611
459.659	3577
459.711	3269
459.740	3508
459.780	4093
459.820	4590
459.849	4684
459.900	5058
459.917	5170
459.981	5723
459.986	5697
460.054	4189
460.061	4156
460.123	4806
460.141	4869
460.191	5098
460.222	5332
460.260	5918
460.302	7443
460.328	7459
460.382	6074
460.397	6275
460.462	7612
460.465	8074
460.534	18946
460.543	20488
460.602	54629
460.623	68055
460.671	102196
460.703	138620
460.739	124951
460.783	87976
460.808	75910
460.864	18440
460.876	12136
460.944	6079
460.945	6007
461.013	5553
461.024	5401
461.081	5184
461.104	5508
461.150	5225
461.184	4574
461.218	4465
461.264	4589
461.286	4733
461.345	4645
461.355	4579
461.423	5301
461.425	5298
461.491	6264
461.505	6587
461.559	15740
461.585	19910
461.628	29527
461.665	39545
461.696	40767
461.745	46043
461.764	40664
461.825	12912
461.832	12436
461.901	7189
461.905	7190
461.969	5779
461.985	5366
462.037	6171
462.065	6556
462.105	7758
462.145	9118
462.173	13265
462.225	21373
462.241	22992
462.305	31317
462.310	30357
462.378	14747
462.385	12451
462.446	7739
462.465	6798
462.514	6037
462.545	5998
462.582	5583
462.625	5604
462.650	5856
462.705	5298
462.718	5557
462.785	7698
462.786	7770
462.854	11917
462.865	12651
462.922	14333
462.945	15258
462.990	11662
463.025	7528
463.058	6390
463.104	5189
463.126	5037
463.184	5277
463.194	5405
463.262	6089
463.264	6121
463.330	6500
463.344	6463
463.398	6574
463.424	6781
463.466	7471
463.504	8191
463.533	7947
463.583	7236
463.601	7885
463.663	9929
463.669	10182
463.737	13377
463.743	13683
463.805	23502
463.823	26287
463.873	39463
463.903	47962
463.940	47102
463.982	47203
464.008	37586
464.062	13246
464.076	12347
464.142	6929
464.144	6854
464.211	6349
464.221	6324
464.279	6623
464.301	6826
464.347	7691
464.381	8220
464.414	10382
464.461	13422
464.482	13694
464.540	14589
464.550	14324
464.617	11875
464.620	11769
464.685	11197
464.699	11070
464.753	12768
464.779	13703
464.820	13871
464.859	14006
464.888	14306
464.938	14703
464.956	14844
465.018	15282
465.023	15121
465.091	12709
465.098	12422
465.158	12184
465.177	12130
465.226	12464
465.257	12685
465.293	12261
465.336	11587
465.361	13104
465.416	16601
465.428	18273
465.495	27253
465.496	27413
465.563	45257
465.575	48420
465.631	52505
465.654	54303
465.698	32631
465.734	13488
465.765	11970
465.813	9640
465.833	9750
465.893	10987
465.900	11030
465.968	11360
465.972	11351
466.035	11222
466.052	11216
466.102	10481
466.131	9954
466.170	10467
466.210	11031
466.237	11228
466.290	11608
466.304	11900
466.369	12970
466.372	13014
466.439	13672
466.449	13734
466.506	16158
466.528	17069
466.573	26954
466.607	34256
466.641	48150
466.687	67479
466.708	71467
466.766	82405
466.775	75713
466.842	24059
466.845	21558
466.909	16899
466.925	15905
466.977	16021
467.004	16108
467.044	16378
467.083	16607
467.111	18131
467.163	20903
467.178	21335
467.242	22948
467.245	22913
467.312	21303
467.321	21051
467.379	20082
467.400	19670
467.446	22319
467.480	24163
467.559	19432
467.638	16726
467.717	16759
467.796	19828
467.875	19345
467.955	20711
468.034	37895
468.113	78586
468.192	103264
468.271	20548
468.350	15493
468.429	17876
468.508	15234
468.588	15156
468.667	14326
468.746	15427
468.825	14530
468.904	15156
468.983	20538
469.062	34040
469.141	36769
469.220	14591
469.299	15542
469.378	16577
469.456	19075
469.535	16692
469.614	16320
469.693	18930
469.772	25626
469.851	36287
469.930	20990
470.009	17667
470.088	16470
470.166	22922
470.245	32153
470.324	37005
470.403	25901
470.482	20181
470.560	16015
470.639	16874
470.718	18410
470.797	16234
470.875	19170
470.954	25773
471.033	26765
471.111	12746
471.190	12055
471.269	12412
471.347	12306
471.426	14721
471.505	16387
471.583	17127
471.662	14015
471.740	13517
471.819	13780
471.898	12576
471.976	12825
472.055	14143
472.133	16738
472.212	24450
472.290	21317
472.369	14323
472.447	12258
472.526	12265
472.604	14207
472.683	14093
472.761	12956
472.839	12766
472.918	12041
472.996	14535
473.075	16821
473.153	14830
473.231	12410
473.310	15819
473.388	14243
473.466	14404
473.545	15368
473.623	19973
473.701	17703
473.780	13631
473.858	10033
473.936	13231
474.014	12267
474.093	17147
474.171	26751
474.249	37268
474.327	16871
474.405	11179
474.484	10954
474.562	12127
474.640	12407
474.718	13557
474.796	12768
474.874	12147
474.952	10508
475.030	10906
475.108	10786
475.187	13826
475.265	13158
475.343	15070
475.421	15120
475.499	13007
475.577	13893
475.655	22910
475.733	46769
475.811	80332
475.889	69017
475.966	35235
476.044	12619
476.122	13366
476.200	14955
476.278	12860
476.356	11449
476.434	12883
476.512	12756
476.590	16146
476.667	13884
476.745	11708
476.823	13056
476.901	11712
476.979	11667
477.056	12460
477.134	12153
477.212	10455
477.290	11530
477.367	10620
477.445	10597
477.523	11149
477.601	9834
477.678	11562
477.756	15406
477.834	17457
477.911	10919
477.989	11807
478.066	10912
478.144	13078
478.222	12183
478.299	15171
478.377	13524
478.454	11040
478.532	10217
478.609	10964
478.687	12006
478.764	10408
478.842	10840
478.919	12830
478.997	11379
479.074	11033
479.152	14633
479.229	20077
479.307	10679
479.384	9285
479.461	8972
479.539	11887
479.616	13856
479.694	11551
479.771	12728
479.848	15275
479.926	21123
480.003	21749
480.080	10317
480.157	10413
480.235	9941
480.312	9954
480.389	13795
480.467	25283
480.544	28535
480.621	12586
480.698	11436
480.775	14543
480.853	13928
480.930	11534
481.007	12733
481.084	18256
481.161	22804
481.238	16112
481.315	9312
481.392	9765
481.470	9404
481.547	9731
481.624	9091
481.701	9891
481.778	10455
481.855	13716
481.932	23125
482.009	41431
482.086	21669
482.163	10406
482.240	11020
482.317	16519
482.393	12130
482.470	11892
482.547	10813
482.624	10240
482.701	10815
482.778	10034
482.855	8033
482.932	8875
483.009	8689
483.085	12733
483.162	16075
483.239	14963
483.316	8971
483.393	10119
483.469	9645
483.546	13983
483.623	13213
483.699	10362
483.776	10356
483.853	12885
483.930	24836
484.006	67158
484.083	103371
484.160	42144
484.236	57759
484.313	43144
484.389	32630
484.466	29121
484.543	27442
484.619	29282
484.696	30836
484.772	33176
484.849	34693
484.925	27344
485.002	25787
485.078	28782
485.155	27337
485.231	25730
485.308	25593
485.384	28235
485.461	38380
485.537	68440
485.614	70865
485.690	26964
485.766	24349
485.843	28472
485.919	35932
485.995	35341
486.072	23035
486.148	22806
486.224	21833
486.301	25394
486.377	28702
486.453	26754
486.530	27414
486.606	36846
486.682	42750
486.758	56679
486.835	62022
486.911	51685
486.987	84582
487.063	73584
487.139	81891
487.215	58833
487.292	31311
487.368	27276
487.444	27974
487.520	33241
487.596	32629
487.672	42638
487.748	75152
487.824	95450
487.900	39343
487.976	28955
488.052	28419
488.128	33043
488.204	26615
488.280	25858
488.356	35195
488.432	81609
488.508	109935
488.584	30927
488.660	22742
488.736	22360
488.812	23509
488.888	31561
488.964	41638
489.039	86065
489.115	116394
489.191	61842
489.267	26416
489.343	23830
489.418	19954
489.494	19609
489.570	17158
489.646	20761
489.722	19446
489.797	23222
489.873	44783
489.949	95121
490.024	62901
490.100	18444
490.176	18542
490.251	24504
490.327	28410
490.403	18263
490.478	16739
490.554	15861
490.629	15583
490.705	17416
490.781	18576
490.856	19492
490.932	20832
491.007	20588
491.083	19959
491.158	19261
491.234	32855
491.309	68413
491.385	56368
491.460	20142
491.536	19913
491.611	18015
491.686	18778
491.762	28079
491.837	54260
491.913	91269
491.988	127371
492.063	133465
492.139	45750
492.214	28785
492.289	16421
492.365	15885
492.440	18686
492.515	20735
492.590	20073
492.666	17150
492.741	28366
492.816	41525
492.891	22852
492.967	20674
493.042	21770
493.117	27311
493.192	43541
493.267	145817
493.342	521615
493.418	583270
493.493	50412
493.568	18217
493.643	16993
493.718	22597
493.793	32570
493.868	29472
493.943	17279
494.018	15119
494.093	14220
494.168	15446
494.243	13203
494.318	12318
494.393	10626
494.468	12348
494.543	11969
494.618	15656
494.693	12664
494.768	13239
494.842	12710
494.917	12235
494.992	12435
495.067	11905
495.142	10550
495.217	12966
495.292	12752
495.366	14825
495.441	17318
495.516	23307
495.591	37897
495.665	122779
495.740	241595
495.815	79503
495.890	18291
495.964	14866
496.039	18363
496.114	18797
496.188	25038
496.263	22012
496.338	15239
496.412	20044
496.487	22201
496.561	23389
496.636	21173
496.710	19589
496.785	21732
496.860	24831
496.934	16508
497.009	17123
497.083	16425
497.158	18995
497.232	22065
497.307	28851
497.381	22981
497.455	31700
497.530	39149
497.604	25715
497.679	29027
497.753	46590
497.827	54873
497.902	47125
497.976	64771
498.050	193266
498.125	623218
498.199	477524
498.273	66946
498.348	52596
498.422	43496
498.496	40932
498.570	35424
498.645	28453
498.719	26615
498.793	35563
498.867	56705
498.941	88854
499.016	283095
499.090	613553
499.164	146095
499.238	23012
499.312	19720
499.386	24927
499.460	22837
499.534	22078
499.609	27734
499.683	41545
499.757	44090
499.831	132135
499.905	444601
499.979	313368
500.053	53331
500.127	49418
500.201	30147
500.275	21473
500.349	19560
500.422	24427
500.496	38733
500.570	90361
500.644	256075
500.718	393254
500.792	61012
500.866	23241
500.940	29288
501.013	21956
501.087	21724
501.161	38006
501.235	57268
501.309	157132
501.382	396765
501.456	257073
501.530	69401
501.603	114236
501.677	32869
501.751	16709
501.825	24286
501.898	58012
501.972	152029
502.046	69392
502.119	25347
502.193	73239
502.266	157897
502.340	60191
502.413	77542
502.487	134858
502.561	67531
502.634	19928
502.708	16168
502.781	13792
502.855	12231
502.928	11308
503.002	11586
503.075	11833
503.149	12556
503.222	13375
503.295	14663
503.369	20514
503.442	35643
503.516	133339
503.589	285581
503.662	149934
503.736	54760
503.809	132008
503.882	91858
503.956	150508
504.029	102022
504.102	50805
504.175	51239
504.249	21320
504.322	19855
504.395	17825
504.468	12372
504.542	13146
504.615	8701
504.688	9486
504.761	7881
504.834	14065
504.907	15331
504.980	23838
505.053	11833
505.127	16040
505.200	20100
505.273	22821
505.346	10280
505.419	10071
505.492	9717
505.565	7386
505.638	6977
505.711	8649
505.784	7564
505.857	7994
505.930	9421
506.003	6734
506.076	11535
506.149	15901
506.221	17549
506.294	22330
506.367	68864
506.440	197360
506.513	71458
506.586	20845
506.659	10775
506.731	9851
506.804	13693
506.877	18230
506.950	12029
507.022	9677
507.095	13699
507.168	18398
507.241	9533
507.313	9258
507.386	9253
507.459	14111
507.531	7955
507.604	7700
507.677	8150
507.749	6920
507.822	13172
507.894	24143
507.967	25228
508.040	14739
508.112	12435
508.185	12255
508.257	10570
508.330	17429
508.402	12277
508.475	12961
508.547	13059
508.620	14268
508.692	22430
508.765	12495
508.837	9071
508.909	9775
508.982	9436
509.054	11914
509.127	9896
509.199	9689
509.271	7660
509.344	9165
509.416	8951
509.488	9669
509.560	9093
509.633	11341
509.705	12021
509.777	13413
509.849	17024
509.922	11626
509.994	10597
510.066	11351
510.138	12819
510.210	25425
510.283	20818
510.355	17140
510.427	13614
510.499	13649
510.571	12498
510.643	14179
510.715	21654
510.787	16321
510.859	14775
510.931	16457
511.003	20345
511.076	17375
511.148	11847
511.219	14690
511.291	26067
511.363	26196
511.435	12516
511.507	11073
511.579	12327
511.651	11953
511.723	10154
511.795	10844
511.867	11784
511.939	18663
512.010	39274
512.082	25035
512.154	11241
512.226	13013
512.298	19382
512.369	26197
512.441	20325
512.513	20543
512.585	14885
512.656	17162
512.728	16485
512.800	13043
512.871	13669
512.943	13903
513.015	11147
513.086	12766
513.158	14798
513.230	15887
513.301	21298
513.373	23049
513.444	13824
513.516	12413
513.588	12181
513.659	14611
513.731	17097
513.802	16451
513.874	33256
513.945	47754
514.016	14833
514.088	12647
514.159	13741
514.231	20089
514.302	22893
514.374	18212
514.445	19672
514.516	43492
514.588	25215
514.659	19929
514.730	36428
514.802	23736
514.873	16373
514.944	19455
515.016	16802
515.087	18543
515.158	26893
515.229	34449
515.301	18673
515.372	24860
515.443	15502
515.514	13611
515.585	12227
515.656	14127
515.728	12382
515.799	13092
515.870	13827
515.941	15551
516.012	15588
516.083	20977
516.154	21910
516.225	28269
516.296	25799
516.367	23567
516.438	25885
516.509	36615
516.580	64635
516.651	223624
516.722	612619
516.793	200875
516.864	46443
516.935	45309
517.006	53026
517.077	84250
517.148	226594
517.219	856795
517.289	1012664
517.360	272211
517.431	68655
517.502	28249
517.573	27189
517.643	26324
517.714	27496
517.785	30733
517.856	30205
517.926	36097
517.997	40721
518.068	50892
518.138	75633
518.209	153955
518.280	621441
518.350	1548407
518.421	509566
518.492	63746
518.562	35542
518.633	33471
518.703	26978
518.774	40983
518.845	69987
518.915	59767
518.986	29583
519.056	31037
519.127	53139
519.197	90201
519.268	210912
519.338	98956
519.408	26766
519.479	30095
519.549	20629
519.620	17453
519.690	12425
519.760	14424
519.831	13702
519.901	14585
519.971	11952
520.042	14555
520.112	17837
520.182	20331
520.253	19277
520.323	18097
520.393	31073
520.463	43497
520.534	35729
520.604	68426
520.674	24645
520.744	31654
520.814	83674
520.885	56601
520.955	85126
521.025	245191
521.095	65676
521.165	16513
521.235	13795
521.305	13343
521.375	11286
521.445	14816
521.515	16841
521.585	20367
521.655	14725
521.725	17231
521.795	13601
521.865	11026
521.935	22367
522.005	16480
522.075	10377
522.145	14745
522.215	16345
522.285	25271
522.355	36075
522.424	69086
522.494	49161
522.564	24455
522.634	48416
522.704	107873
522.774	30273
522.843	14185
522.913	12580
522.983	15545
523.053	11563
523.122	14487
523.192	20776
523.262	69086
523.331	49405
523.401	12875
523.471	9361
523.540	11345
523.610	7004
523.680	9120
523.749	11058
523.819	17254
523.888	13857
523.958	8889
524.027	9353
524.097	11900
524.166	9505
524.236	10328
524.305	11429
524.375	8825
524.444	8184
524.514	12288
524.583	10623
524.653	14157
524.722	16526
524.791	10223
524.861	10837
524.930	8115
524.999	8692
525.069	15930
525.138	11900
525.207	15663
525.277	9858
525.346	9856
525.415	9454
525.484	11087
525.554	13200
525.623	12631
525.692	13163
525.761	11875
525.830	10632
525.900	11872
525.969	18069
526.038	25253
526.107	44953
526.176	112465
526.245	80627
526.314	39352
526.383	70683
526.452	81693
526.522	151404
526.591	142197
526.660	56014
526.729	27427
526.797	35797
526.867	92712
526.935	335990
527.004	384929
527.073	157149
527.142	19089
527.211	12835
527.280	14945
527.349	13938
527.418	7603
527.487	9925
527.555	8307
527.624	6266
527.693	6628
527.762	8447
527.831	6455
527.899	7003
527.968	7976
528.037	6595
528.106	12870
528.174	20234
528.243	18171
528.312	29055
528.380	29474
528.449	9302
528.518	8844
528.586	5056
528.655	7731
528.723	5761
528.792	6966
528.861	7110
528.929	5988
528.998	6767
529.066	7147
529.135	5778
529.203	6457
529.272	5853
529.340	8235
529.409	9540
529.477	6923
529.545	11659
529.614	13661
529.682	14969
529.751	17412
529.819	20008
529.887	12312
529.956	7066
530.024	9315
530.092	6573
530.161	10533
530.229	14456
530.297	8224
530.365	7406
530.434	7721
530.502	5650
530.570	6871
530.638	5141
530.707	8188
530.775	8061
530.843	6815
530.911	6866
530.979	6572
531.047	7141
531.115	8105
531.183	6085
531.252	7773
531.320	6950
531.388	5547
531.456	6945
531.524	6205
531.592	7356
531.660	10335
531.728	6698
531.796	6775
531.864	6410
531.932	7857
532.000	6437
532.067	8293
532.135	8793
532.203	12136
532.271	11949
532.339	24060
532.407	50249
532.475	24519
532.542	13135
532.610	15081
532.678	25190
532.746	104232
532.814	184348
532.881	36100
532.949	10093
533.017	9985
533.084	8142
533.152	8228
533.220	8112
533.287	8993
533.355	7888
533.423	9049
533.490	6883
533.558	8279
533.625	8529
533.693	9663
533.761	9363
533.828	10387
533.896	9860
533.963	21372
534.031	23230
534.098	28232
534.166	12652
534.233	9271
534.300	9956
534.368	11368
534.435	9062
534.503	10487
534.570	11507
534.637	9723
534.705	8798
534.772	11659
534.840	17967
534.907	60145
534.974	58747
535.041	12481
535.109	12259
535.176	7212
535.243	8267
535.310	8930
535.378	6366
535.445	7669
535.512	6268
535.579	8592
535.646	6467
535.714	8475
535.781	9437
535.848	11128
535.915	11016
535.982	11369
536.049	9964
536.116	11943
536.183	8998
536.250	10456
536.317	9719
536.384	12939
536.451	17315
536.518	16210
536.585	11135
536.652	18099
536.719	21165
536.786	14579
536.853	12563
536.920	22506
536.987	30861
537.053	31730
537.120	107993
537.187	63737
537.254	8666
537.321	8849
537.388	8738
537.454	7660
537.521	7077
537.588	7165
537.654	8972
537.721	10846
537.788	9823
537.855	8583
537.921	8080
537.988	9267
538.055	8925
538.121	8884
538.188	10438
538.254	18204
538.321	31193
538.388	17105
538.454	9229
538.521	8229
538.587	7708
538.654	7942
538.720	6073
538.787	8726
538.853	8996
538.920	13010
538.986	13357
539.053	10907
539.119	9007
539.185	10235
539.252	11999
539.318	17839
539.385	12465
539.451	11486
539.517	11241
539.583	16384
539.650	36312
539.716	70173
539.782	15598
539.849	8785
539.915	10248
539.981	9490
540.047	11694
540.114	11143
540.180	11419
540.246	10954
540.312	16837
540.378	33479
540.444	28028
540.510	37825
540.576	76794
540.643	20218
540.709	7811
540.775	8934
540.841	10837
540.907	17765
540.973	27107
541.039	20241
541.105	17119
541.171	10440
541.237	9565
541.303	10631
541.369	13180
541.435	18100
541.500	26436
541.566	13373
541.632	9016
541.698	8492
541.764	9255
541.830	8214
541.896	7639
541.961	9580
542.027	7446
542.093	8982
542.159	9525
542.224	12412
542.290	18412
542.356	30176
542.421	30756
542.487	15970
542.553	10889
542.618	12257
542.684	9341
542.750	9494
542.815	14049
542.881	26241
542.947	76284
543.012	39673
543.078	8331
543.143	8518
543.209	9099
543.274	10142
543.340	12552
543.405	31775
543.471	35191
543.536	10511
543.602	9314
543.667	7692
543.732	9677
543.798	7609
543.863	8599
543.928	7784
543.994	7324
544.059	8377
544.124	8504
544.190	9001
544.255	8147
544.320	9178
544.386	8745
544.451	14602
544.516	15121
544.581	18060
544.646	51577
544.712	58797
544.777	12837
544.842	12598
544.907	11960
544.972	11441
545.037	10310
545.102	13785
545.168	11177
545.233	12575
545.298	13750
545.363	16659
545.428	18096
545.493	33450
545.558	53547
545.623	20885
545.688	11285
545.753	12332
545.818	10303
545.883	12685
545.947	10930
546.012	13777
546.077	12916
546.142	12716
546.207	12260
546.272	17231
546.337	16454
546.401	13770
546.466	12077
546.531	12135
546.596	13281
546.661	13171
546.725	11770
546.790	11730
546.855	11958
546.919	12238
546.984	13115
547.049	14855
547.113	18238
547.178	15575
547.243	17911
547.307	19482
547.372	23565
547.436	24046
547.501	16560
547.565	19504
547.630	22482
547.695	22519
547.759	25689
547.823	22234
547.888	18193
547.952	17371
548.017	20860
548.081	29924
548.146	32394
548.210	24757
548.274	17424
548.339	18444
548.403	16066
548.468	15583
548.532	16891
548.596	17420
548.660	17335
548.725	20052
548.789	23791
548.853	24533
548.917	20959
548.982	29495
549.046	24419
549.110	17277
549.174	15538
549.238	17552
549.303	17545
549.367	18946
549.431	17425
549.495	17163
549.559	15990
549.623	19023
549.687	22457
549.751	28394
549.815	23594
549.879	22579
549.943	20542
550.007	24130
550.071	23061
550.135	24939
550.199	20890
550.263	21184
550.327	24768
550.391	32962
550.455	24363
550.519	22536
550.582	23196
550.646	31779
550.710	30915
550.774	26386
550.838	24654
550.901	26506
550.965	27433
551.029	28664
551.093	33745
551.156	45732
551.220	78796
551.284	74692
551.347	45185
551.411	87916
551.475	73843
551.538	28769
551.602	23595
551.666	23257
551.729	20794
551.793	24550
551.856	26078
551.920	27886
551.983	23307
552.047	22000
552.110	21438
552.174	24548
552.237	22192
552.301	20651
552.364	19708
552.428	20536
552.491	20528
552.554	21917
552.618	22045
552.681	25561
552.745	29618
552.808	51640
552.871	62228
552.934	37644
552.998	27574
553.061	27090
553.124	24376
553.187	26037
553.251	29324
553.314	34540
553.377	42568
553.440	84438
553.503	294209
553.567	349833
553.630	49209
553.693	24757
553.756	22377
553.819	21822
553.882	18816
553.945	19899
554.008	18888
554.071	19693
554.134	18692
554.197	18551
554.260	18722
554.323	20664
554.386	19225
554.449	18426
554.512	17963
554.575	18383
554.638	19145
554.701	17086
554.764	16566
554.827	16844
554.889	14898
554.952	14541
555.015	13514
555.078	15192
555.141	15779
555.203	15195
555.266	15278
555.329	15870
555.391	14451
555.454	16369
555.517	14998
555.580	14805
555.642	13806
555.705	14182
555.768	14735
555.830	14786
555.893	12182
555.955	12804
556.018	12366
556.080	13235
556.143	12918
556.206	13255
556.268	14077
556.330	15135
556.393	14563
556.455	16910
556.518	23721
556.580	21483
556.643	12579
556.705	13163
556.767	10985
556.830	13483
556.892	15669
556.955	21672
557.017	15192
557.079	12708
557.142	12545
557.204	16422
557.266	29059
557.328	21491
557.391	10975
557.453	10447
557.515	11195
557.577	15403
557.639	14473
557.701	11631
557.764	10665
557.826	12437
557.888	13259
557.950	12490
558.012	14614
558.074	18942
558.136	41073
558.198	81010
558.260	27121
558.322	14421
558.384	15236
558.446	18061
558.508	20496
558.570	27700
558.632	44938
558.694	64666
558.756	74678
558.818	226606
558.880	445823
558.942	111484
559.003	84317
559.065	37018
559.127	17751
559.189	19832
559.251	24759
559.312	38399
559.374	97772
559.436	274423
559.498	104584
559.559	19448
559.621	19040
559.683	26080
559.744	46059
559.806	140278
559.868	162912
559.929	30892
559.991	22654
560.052	34910
560.114	82933
560.176	47944
560.237	54318
560.299	72426
560.360	18052
560.422	11463
560.483	10848
560.545	10601
560.606	9300
560.667	9954
560.729	10307
560.790	9858
560.852	9780
560.913	9918
560.974	9154
561.036	9778
561.097	9216
561.158	10504
561.220	9997
561.281	9739
561.342	10923
561.403	13032
561.465	18054
561.526	45034
561.587	44351
561.648	12947
561.709	10319
561.771	10679
561.832	9565
561.893	9823
561.954	9112
562.015	9550
562.076	9339
562.137	8736
562.198	8335
562.259	10335
562.320	9111
562.381	11480
562.442	16305
562.503	11834
562.564	9324
562.625	9427
562.686	8490
562.747	10731
562.808	8830
562.869	10373
562.930	12788
562.991	11849
563.051	9928
563.112	9986
563.173	9501
563.234	8498
563.294	9906
563.355	9621
563.416	9597
563.477	10056
563.537	10326
563.598	10554
563.659	10120
563.720	9711
563.780	10431
563.841	11591
563.901	9947
563.962	10114
564.023	9929
564.083	10617
564.144	10058
564.204	11377
564.265	10630
564.325	15563
564.386	32628
564.446	23038
564.507	10181
564.567	9520
564.628	9127
564.688	9540
564.749	9164
564.809	13154
564.869	14884
564.930	10479
564.990	9373
565.050	9499
565.111	8518
565.171	9767
565.231	9297
565.292	9693
565.352	8071
565.412	9958
565.472	9559
565.532	10656
565.593	8348
565.653	9445
565.713	9712
565.773	11790
565.833	12939
565.893	15930
565.953	10118
566.013	9651
566.074	11997
566.134	16995
566.194	27675
566.254	25879
566.314	14960
566.374	10973
566.434	11230
566.494	11650
566.554	10161
566.614	11057
566.673	11341
566.733	13109
566.793	12495
566.853	14029
566.913	13405
566.973	13796
567.033	13645
567.092	14388
567.152	12509
567.212	13196
567.272	13981
567.331	16264
567.391	14906
567.451	18645
567.511	25103
567.570	22894
567.630	13932
567.690	14058
567.749	13816
567.809	16096
567.868	17037
567.928	19105
567.988	22930
568.047	25110
568.107	30123
568.166	42904
568.226	66289
568.285	86763
568.345	69773
568.404	55575
568.464	46206
568.523	43263
568.582	43544
568.642	52147
568.701	66609
568.761	101650
568.820	148530
568.879	141490
568.939	102344
568.998	73027
569.057	53429
569.116	41462
569.176	33026
569.235	28699
569.294	24383
569.353	21533
569.413	19259
569.472	18674
569.531	15512
569.590	14494
569.649	13728
569.708	13788
569.767	14370
569.827	15138
569.886	11624
569.945	11153
570.004	11345
570.063	12074
570.122	12250
570.181	12587
570.240	13641
570.299	13391
570.358	11664
570.417	10864
570.475	8564
570.534	12170
570.593	10842
570.652	10929
570.711	10397
570.770	10423
570.829	11838
570.887	11913
570.946	11429
571.005	9960
571.064	9135
571.122	12082
571.181	11803
571.240	9763
571.299	8642
571.357	10954
571.416	10834
571.475	13142
571.533	11396
571.592	9609
571.650	10040
571.709	8163
571.768	7824
571.826	8816
571.885	7467
571.943	7499
572.002	7808
572.060	9655
572.119	7270
572.177	7938
572.236	7073
572.294	7020
572.352	6937
572.411	6979
572.469	6370
572.528	7314
572.586	7179
572.644	8679
572.703	9936
572.761	8546
572.819	6891
572.877	7083
572.936	5919
572.994	7815
573.052	6306
573.110	7260
573.169	6825
573.227	7439
573.285	6325
573.343	7238
573.401	6474
573.459	7278
573.517	6457
573.576	6676
573.634	6642
573.692	8208
573.750	6631
573.808	8443
573.866	7211
573.924	11777
573.982	10323
574.040	7363
574.098	6773
574.155	6381
574.213	6036
574.271	6226
574.329	5972
574.387	6327
574.445	6311
574.503	5645
574.560	5376
574.618	5547
574.676	5230
574.734	6147
574.792	5900
574.849	6518
574.907	4663
574.965	6479
575.022	4132
575.080	5797
575.138	5866
575.195	6416
575.253	6455
575.311	7030
575.368	5777
575.426	4726
575.483	6262
575.541	6143
575.598	4870
575.656	6845
575.713	5484
575.771	6385
575.828	5550
575.886	6396
575.943	6646
576.001	6385
576.058	6382
576.115	7708
576.173	9443
576.230	10703
576.287	10707
576.345	8214
576.402	6958
576.459	7256
576.517	7797
576.574	8996
576.631	9272
576.688	7385
576.746	6101
576.803	7322
576.860	5803
576.917	6837
576.974	5988
577.031	7601
577.089	5846
577.146	8226
577.203	6972
577.260	8831
577.317	9497
577.374	10970
577.431	9421
577.488	7885
577.545	6486
577.602	8383
577.659	9366
577.716	14275
577.773	15992
577.830	10170
577.886	7843
577.943	7452
578.000	7092
578.057	8504
578.114	7611
578.171	9158
578.227	10335
578.284	10262
578.341	10230
578.398	8660
578.454	8826
578.511	10463
578.568	10592
578.625	8030
578.681	6667
578.738	6722
578.794	5423
578.851	6572
578.908	6154
578.964	6729
579.021	6308
579.077	6668
579.134	5953
579.190	6372
579.247	6283
579.303	6849
579.360	4646
579.416	5962
579.473	5996
579.529	7003
579.586	6225
579.642	7583
579.698	5915
579.755	6993
579.811	5783
579.867	7724
579.924	6467
579.980	8376
580.036	9382
580.093	10633
580.149	14059
580.205	16134
580.261	11921
580.317	11504
580.374	10237
580.430	11224
580.486	10272
580.542	9426
580.598	7143
580.619	7817
580.654	8994
580.692	7809
580.710	7230
580.765	7484
580.767	7498
580.823	7512
580.838	7403
580.879	7133
580.911	6750
580.935	6476
580.984	6834
580.991	6890
581.047	7461
581.057	7531
581.103	7883
581.130	8141
581.159	8397
581.203	9233
581.215	9475
581.270	8050
581.276	8047
581.326	8004
581.349	7606
581.382	6999
581.422	7422
581.438	7617
581.494	7023
581.494	7024
581.550	7393
581.567	7496
581.606	7709
581.640	7662
581.661	7660
581.713	8175
581.717	8224
581.773	7680
581.786	7423
581.829	6502
581.859	7307
581.885	8022
581.932	7259
581.940	7125
581.996	7910
582.004	7810
582.052	7152
582.077	7008
582.107	6865
582.150	6752
582.163	6735
582.219	8263
582.223	8148
582.274	6834
582.296	7621
582.330	8870
582.368	8718
582.386	8675
582.441	9294
582.441	9295
582.497	8347
582.514	8859
582.552	10420
582.587	12512
582.608	13488
582.659	10452
582.663	10220
582.719	7766
582.732	7854
582.774	8438
582.805	8227
582.830	7971
582.877	8725
582.885	8854
582.941	8213
582.950	8327
582.996	8967
583.023	9066
583.052	9244
583.095	10335
583.107	10628
583.162	12114
583.168	12181
583.218	12563
583.240	11670
583.273	10264
583.313	10381
583.328	10498
583.384	9221
583.385	9230
583.439	9387
583.458	9119
583.494	8664
583.531	8900
583.549	9038
583.603	8724
583.605	8704
583.660	9192
583.676	8747
583.715	8014
583.748	8618
583.770	8996
583.820	8843
583.825	8797
583.881	9544
583.893	9369
583.936	8963
583.965	9022
583.991	9088
584.038	9228
584.046	9265
584.101	9741
584.110	9558
584.156	8409
584.183	8841
584.211	9298
584.255	9020
584.266	8978
584.321	9597
584.328	9576
584.376	9589
584.400	9911
584.431	10247
584.472	9551
584.486	9278
584.541	10424
584.545	10381
584.596	9813
584.617	10191
584.651	11252
584.689	11200
584.706	10812
584.761	10972
584.762	10956
584.816	10208
584.834	10790
584.871	11803
584.906	11625
584.926	11600
584.978	11862
584.980	11878
585.035	12863
585.051	13234
585.090	14207
585.123	14979
585.145	15652
585.195	16943
585.200	17252
585.254	22417
585.267	24853
585.309	34727
585.340	40852
585.364	42108
585.412	29902
585.419	28043
585.473	22573
585.484	22455
585.528	26627
585.556	29946
585.583	38007
585.628	56059
585.637	63241
585.692	122342
585.700	131421
585.747	158952
585.772	140002
585.801	89180
585.845	35675
585.856	30727
585.910	21050
585.917	20032
585.965	18970
585.989	18286
586.019	17678
586.061	17538
586.074	17596
586.128	17863
586.133	17907
586.183	18603
586.205	18575
586.237	18757
586.277	19183
586.292	19210
586.346	18660
586.349	18671
586.401	19476
586.421	19564
586.455	20141
586.493	21975
586.509	23948
586.564	31021
586.565	31310
586.618	46925
586.637	46696
586.672	37035
586.709	28124
586.727	25488
586.781	23205
586.781	23230
586.835	22914
586.853	22593
586.889	22109
586.925	22429
586.944	22962
586.996	23511
586.998	23536
587.052	24937
587.068	24754
587.106	25021
587.140	25959
587.161	26182
587.212	26070
587.215	26167
587.269	27628
587.284	28082
587.323	29132
587.356	30009
587.377	30748
587.427	32261
587.431	32417
587.485	34359
587.499	34776
587.539	36538
587.571	38237
587.593	39449
587.643	41456
587.648	41755
587.702	45096
587.715	45846
587.755	48698
587.786	50662
587.810	52184
587.858	54739
587.864	55308
587.917	62644
587.930	63922
587.971	69530
588.001	73992
588.025	77457
588.073	83865
588.079	85192
588.133	97483
588.145	100064
588.187	111488
588.217	120502
588.241	129868
588.288	146949
588.295	149949
588.348	175928
588.360	181522
588.402	207610
588.431	226386
588.456	245656
588.503	285048
588.510	292695
588.564	356634
588.575	371061
588.617	447330
588.646	505291
588.671	581134
588.718	741130
588.725	785424
588.778	1154712
588.789	1237671
588.832	1788504
588.861	2189348
588.886	2446728
588.932	2859202
588.939	2860100
588.993	2664780
589.004	2621931
589.047	2474363
589.075	2289614
589.100	1887940
589.147	1195452
589.154	1147956
589.207	824935
589.218	762615
589.261	705810
589.290	677680
589.314	713770
589.361	799066
589.368	840894
589.421	1208627
589.433	1293898
589.475	1883387
589.504	2316065
589.528	2479195
589.576	2655687
589.582	2627983
589.635	2226372
589.647	2120208
589.689	1371037
589.718	883946
589.742	723650
589.790	433845
589.795	421414
589.849	311229
589.861	286586
589.902	244506
589.932	212191
589.955	193802
590.004	155458
590.009	153542
590.062	132450
590.075	126922
590.115	114761
590.146	105554
590.168	101235
590.218	90884
590.222	90483
590.275	83778
590.289	81737
590.328	77902
590.360	74548
590.381	72489
590.431	66961
590.435	66812
590.488	62304
590.503	60860
590.541	58699
590.574	56779
590.594	55909
590.645	53013
590.647	53028
590.700	50407
590.716	49398
590.753	47860
590.787	46428
590.806	45796
590.859	43463
590.859	43539
590.912	42005
590.930	41338
590.965	40790
591.001	40250
591.018	39889
591.071	38415
591.072	38309
591.124	38261
591.143	38058
591.177	37271
591.214	36533
591.230	36640
591.283	36473
591.285	36373
591.336	36433
591.356	36400
591.389	36174
591.427	35534
591.442	35156
591.495	33383
591.498	33178
591.547	31997
591.569	31289
591.600	31236
591.640	31014
591.653	31078
591.706	30976
591.711	30900
591.759	32215
591.782	32757
591.811	33556
591.853	34416
591.864	33872
591.917	30509
591.924	29971
591.969	29536
591.995	29154
592.022	29274
592.066	29276
592.075	29811
592.127	32644
592.137	33126
592.180	34723
592.208	35432
592.233	33289
592.279	29040
592.285	28978
592.338	27882
592.350	27569
592.390	26891
592.421	26239
592.443	26482
592.491	26812
592.495	26943
592.548	27731
592.562	27875
592.600	27064
592.633	26222
592.653	26373
592.704	26446
592.705	26576
592.775	25453
592.846	26407
592.916	27197
592.987	28414
593.058	27621
593.128	26241
593.199	25236
593.270	24289
593.341	24050
593.411	25099
593.482	25075
593.553	25728
593.623	24497
593.694	25839
593.764	26177
593.835	25281
593.906	24065
593.976	24767
594.047	25827
594.117	30169
594.188	29383
594.258	24390
594.329	23854
594.399	24729
594.470	23999
594.540	25686
594.611	24010
594.681	24765
594.751	25692
594.822	27009
594.892	28183
594.963	27578
595.033	28260
595.103	27391
595.174	30186
595.244	40015
595.314	45621
595.384	29627
595.455	26914
595.525	27023
595.595	27838
595.665	28633
595.736	27450
595.806	27776
595.876	28145
595.946	27167
596.016	28047
596.087	28857
596.157	29049
596.227	29307
596.297	30576
596.367	30814
596.437	34634
596.507	43097
596.577	48127
596.647	34549
596.717	32040
596.787	31972
596.857	32476
596.927	33726
596.997	33243
597.067	36689
597.137	42733
597.207	37318
597.277	33961
597.347	33235
597.417	31790
597.487	33438
597.557	32231
597.626	34573
597.696	37062
597.766	42235
597.836	48083
597.906	34562
597.975	31793
598.045	31712
598.115	31967
598.185	32318
598.254	36379
598.324	38732
598.394	39049
598.464	38977
598.533	37091
598.603	35478
598.672	34695
598.742	35096
598.812	35074
598.881	34955
598.951	34976
599.020	35378
599.090	35782
599.159	35624
599.229	35102
599.299	35389
599.368	36168
599.437	34851
599.507	33848
599.576	35722
599.646	40383
599.715	40830
599.785	33793
599.854	34360
599.924	36005
599.993	34395
600.062	32837
600.132	32982
600.201	33776
600.270	39490
600.340	39006
600.409	37537
600.478	39324
600.547	39125
600.617	37239
600.686	32931
600.755	30024
600.824	31710
600.894	30382
600.963	29502
601.032	29201
601.101	28653
601.170	28010
601.239	27917
601.308	29007
601.378	27922
601.447	28067
601.516	28291
601.585	29475
601.654	30242
601.723	30899
601.792	31470
601.861	36566
601.930	44394
601.999	37112
602.068	33366
602.137	33234
602.206	33662
602.275	34617
602.343	37934
602.412	37097
602.481	33871
602.550	33261
602.619	35018
602.688	35442
602.756	34383
602.825	34466
602.894	35471
602.963	34902
603.032	35409
603.100	35061
603.169	35498
603.238	35760
603.307	35748
603.375	35142
603.444	36054
603.513	35496
603.581	36321
603.650	37428
603.719	32747
603.787	33449
603.856	34541
603.924	35595
603.993	37331
604.061	37503
604.130	39302
604.198	40299
604.267	39473
604.335	40616
604.404	40196
604.472	41787
604.541	42436
604.609	42818
604.678	42333
604.746	43347
604.815	45060
604.883	44960
604.951	43759
605.020	44424
605.088	44800
605.156	43862
605.225	44982
605.293	44232
605.361	44878
605.429	44860
605.498	46147
605.566	46450
605.634	49128
605.702	49162
605.771	51009
605.839	50192
605.907	50084
605.975	48024
606.043	47349
606.111	47644
606.180	52357
606.248	59237
606.316	62257
606.384	49627
606.452	49619
606.520	50208
606.588	45871
606.656	44343
606.724	43803
606.792	40858
606.860	37303
606.928	35218
606.996	33614
607.064	32732
607.132	33579
607.200	35457
607.267	36202
607.335	35172
607.403	37853
607.471	35693
607.539	35962
607.607	35176
607.674	32186
607.742	33452
607.810	33196
607.878	33460
607.946	32357
608.013	33287
608.081	33995
608.149	33388
608.216	35020
608.284	38421
608.352	36735
608.419	37181
608.487	44693
608.555	36283
608.622	36040
608.690	37411
608.757	40553
608.825	41457
608.893	41979
608.960	41321
609.028	42827
609.095	46659
609.163	38744
609.230	34712
609.298	32423
609.365	33162
609.432	34894
609.500	37555
609.567	41820
609.635	47677
609.702	49756
609.769	49416
609.837	42048
609.904	34813
609.971	35425
610.039	44532
610.106	63774
610.173	130324
610.241	320501
610.308	177725
610.375	64633
610.442	39724
610.509	36041
610.577	35666
610.644	34918
610.711	35989
610.778	37269
610.845	37842
610.912	43899
610.980	51996
611.047	73685
611.114	52309
611.181	40710
611.248	38552
611.315	42688
611.382	41373
611.449	42858
611.516	44004
611.583	43978
611.650	44777
611.717	45244
611.784	46613
611.851	50840
611.918	57449
611.984	73283
612.051	120549
612.118	282513
612.185	745242
612.252	420848
612.319	84312
612.386	62707
612.452	55803
612.519	54378
612.586	59248
612.653	54203
612.719	51521
612.786	48596
612.853	45127
612.919	44465
612.986	45478
613.053	42376
613.120	39875
613.186	38357
613.253	41161
613.319	39374
613.386	39731
613.453	39659
613.519	43001
613.586	46557
613.652	56111
613.719	51314
613.785	50107
613.852	46280
613.918	49087
613.985	64739
614.051	115943
614.118	270651
614.184	242955
614.250	60759
614.317	46224
614.383	42663
614.449	42476
614.516	42200
614.582	42034
614.648	40432
614.715	40489
614.781	38534
614.847	39072
614.914	40899
614.980	38899
615.046	38479
615.112	39828
615.179	40832
615.245	43198
615.311	51584
615.377	73427
615.443	75991
615.509	52547
615.575	47521
615.642	46172
615.708	49269
615.774	53007
615.840	61015
615.906	75085
615.972	115251
616.038	221349
616.104	432723
616.170	992455
616.236	778967
616.302	144258
616.368	93021
616.434	64559
616.500	59670
616.565	65509
616.631	82154
616.697	64419
616.763	68005
616.829	106529
616.895	197166
616.961	182763
617.026	73341
617.092	48009
617.158	45445
617.224	42824
617.289	40010
617.355	37872
617.421	36957
617.487	38714
617.552	35119
617.618	35192
617.684	34067
617.749	36897
617.815	33429
617.880	33012
617.946	32407
618.012	33664
618.077	33960
618.143	33159
618.208	33627
618.274	36043
618.339	35494
618.405	29254
618.470	30991
618.536	30931
618.601	32399
618.667	28723
618.732	28220
618.798	27061
618.863	26834
618.928	26364
618.994	28650
619.059	30181
619.124	37456
619.190	30956
619.255	27300
619.320	26917
619.386	27193
619.451	25169
619.516	26161
619.581	26118
619.647	26592
619.712	26833
619.777	25306
619.842	25799
619.907	26995
619.972	26795
620.038	26380
620.103	25764
620.168	25356
620.233	25952
620.298	26108
620.363	25584
620.428	26738
620.493	27117
620.558	28467
620.623	27176
620.688	28536
620.753	26877
620.818	27726
620.883	27727
620.948	27969
621.013	26781
621.078	26580
621.143	27126
621.207	31795
621.272	29033
621.337	29867
621.402	30683
621.467	35296
621.532	35527
621.596	31096
621.661	28700
621.726	27391
621.791	27146
621.855	29083
621.920	30103
621.985	30348
622.049	34274
622.114	31982
622.179	30292
622.243	31107
622.308	30631
622.373	32835
622.437	30833
622.502	29278
622.566	30219
622.631	28447
622.695	30507
622.760	29926
622.824	28952
622.889	29302
622.953	32566
623.018	42862
623.082	39512
623.147	31303
623.211	30922
623.276	31060
623.340	28170
623.404	28367
623.469	27489
623.533	28642
623.597	26728
623.662	27638
623.726	25683
623.790	24752
623.854	24196
623.919	25140
623.983	25154
624.047	25683
624.111	25927
624.176	25844
624.240	26929
624.304	29692
624.368	25190
624.432	26385
624.496	27536
624.560	30242
624.625	31118
624.689	27785
624.753	28209
624.817	27036
624.881	25093
624.945	24189
625.009	23491
625.073	24966
625.137	27031
625.201	32105
625.265	30318
625.329	24992
625.393	26480
625.456	26502
625.520	27353
625.584	30977
625.648	35892
625.712	51712
625.776	102036
625.839	110277
625.903	44352
625.967	28023
626.031	44129
626.095	66038
626.158	29785
626.222	19771
626.286	20352
626.349	17819
626.413	17713
626.477	20088
626.540	18454
626.604	18197
626.668	18116
626.731	18672
626.795	17977
626.858	18697
626.922	17253
626.986	19044
627.049	15962
627.113	18998
627.176	17105
627.240	17006
627.303	16282
627.366	17508
627.430	17954
627.493	17517
627.557	16810
627.620	18909
627.684	17932
627.747	18589
627.810	15100
627.874	16021
627.937	15049
628.000	18087
628.064	15934
628.127	11891
628.190	14756
628.253	15368
628.317	13241
628.380	14146
628.443	13757
628.506	14296
628.569	12641
628.632	11665
628.696	12358
628.759	12314
628.822	11632
628.885	11106
628.948	12330
629.011	12276
629.074	12229
629.137	11124
629.200	11263
629.263	13534
629.326	11086
629.389	11284
629.452	12119
629.515	13013
629.578	10901
629.641	13489
629.704	11384
629.767	12645
629.830	11397
629.892	11246
629.955	10129
630.018	13509
630.081	13000
630.144	16658
630.207	12351
630.269	14339
630.332	13966
630.395	12479
630.458	9837
630.520	10329
630.583	11297
630.646	11018
630.708	10290
630.771	9186
630.834	11687
630.896	10420
630.959	10311
631.021	9565
631.084	10863
631.146	12033
631.209	14050
631.272	10451
631.334	11134
631.397	10677
631.459	9986
631.522	12754
631.584	11460
631.646	12740
631.709	13324
631.771	16619
631.834	14274
631.896	12672
631.958	9898
632.021	10852
632.083	9069
632.145	10464
632.208	9821
632.270	11477
632.332	8961
632.395	9721
632.457	10517
632.519	8677
632.581	9587
632.643	9289
632.706	9515
632.768	8624
632.830	10591
632.892	9301
632.954	8711
633.016	10695
633.078	8566
633.141	9112
633.203	9978
633.265	10393
633.327	9501
633.389	8987
633.451	10945
633.513	12715
633.575	13081
633.637	12873
633.698	11447
633.760	11415
633.822	9842
633.884	11247
633.946	10468
634.008	11269
634.070	13884
634.132	20510
634.193	15778
634.255	14769
634.317	13357
634.379	14299
634.441	11849
634.502	11486
634.564	11287
634.626	10806
634.687	11487
634.749	10526
634.811	10218
634.873	8379
634.934	9028
634.996	9979
635.057	9020
635.119	8369
635.181	9125
635.242	10589
635.304	6945
635.365	10992
635.427	7915
635.488	9681
635.550	7409
635.611	9778
635.673	7233
635.734	12320
635.796	10194
635.857	12414
635.918	10346
635.980	13762
636.041	13471
636.102	14960
636.164	13650
636.225	15423
636.286	10292
636.348	12512
636.409	9241
636.470	9536
636.531	10302
636.593	10022
636.654	9554
636.715	9212
636.776	7516
636.838	6315
636.899	8937
636.960	8722
637.021	7140
637.082	8548
637.143	8702
637.204	6846
637.265	6764
637.326	7809
637.387	7673
637.448	7131
637.509	7786
637.570	7533
637.631	8170
637.692	6063
637.753	5910
637.814	6879
637.875	6168
637.936	7820
637.997	7136
638.058	7815
638.119	7874
638.179	6954
638.240	6139
638.301	6783
638.362	5731
638.423	6410
638.483	8068
638.544	5153
638.605	7046
638.666	6224
638.726	6857
638.787	7346
638.848	6435
638.908	6391
638.969	6475
639.030	6062
639.090	5423
639.151	5612
639.211	7825
639.272	9647
639.332	14841
639.393	10306
639.453	6704
639.514	6611
639.574	7222
639.635	6296
639.695	6659
639.756	5154
639.816	6963
639.877	8373
639.937	13694
639.997	18123
640.058	5814
640.118	5375
640.178	6391
640.239	6177
640.299	5951
640.359	6082
640.420	6890
640.480	7510
640.540	8263
640.600	7611
640.661	8961
640.721	9062
640.781	17539
640.841	17129
640.901	9100
640.961	6503
641.021	7872
641.082	8085
641.142	10479
641.202	8857
641.262	4034
641.322	5957
641.382	4269
641.442	5676
641.502	6526
641.562	6552
641.622	4978
641.682	5880
641.742	6571
641.802	7434
641.861	7541
641.921	7014
641.981	7633
642.041	7458
642.101	7848
642.161	5153
642.221	5168
642.280	5189
642.340	4567
642.400	4986
642.460	6852
642.519	5308
642.579	5493
642.639	6685
642.698	3364
642.758	8299
642.818	4881
642.877	5126
642.937	6546
642.997	7851
643.056	10505
643.116	5865
643.175	7187
643.235	5814
643.294	6287
643.354	7464
643.414	7520
643.473	9947
643.532	12402
643.592	18214
643.651	31876
643.711	60209
643.770	124229
643.830	314304
643.889	657607
643.948	128776
644.008	20440
644.067	13149
644.126	8716
644.186	8927
644.245	7559
644.304	4705
644.363	7869
644.423	5088
644.482	6138
644.541	7346
644.600	5352
644.659	9238
644.719	9882
644.778	16061
644.837	25928
644.896	55981
644.955	128073
645.014	41236
645.073	15211
645.132	7913
645.191	7636
645.250	6838
645.309	7686
645.368	7405
645.427	9764
645.486	13570
645.545	23672
645.604	7546
645.663	6176
645.722	6700
645.781	7445
645.840	8574
645.898	11194
645.957	17341
646.016	27704
646.075	53872
646.134	107930
646.192	307442
646.251	427782
646.310	51127
646.369	14534
646.427	11457
646.486	7792
646.545	7966
646.603	6603
646.662	6776
646.721	5842
646.779	4963
646.838	5015
646.896	8249
646.955	9040
647.014	15631
647.072	28061
647.131	78567
647.189	33828
647.248	6859
647.306	5142
647.365	5961
647.423	3597
647.481	5699
647.540	3018
647.598	4958
647.657	3664
647.715	4090
647.773	2553
647.832	5677
647.890	2824
647.948	3961
648.007	4810
648.065	4643
648.123	4811
648.181	7684
648.240	11107
648.298	9097
648.356	4716
648.414	4524
648.472	4319
648.531	4949
648.589	3647
648.647	4328
648.705	4080
648.763	4520
648.821	4311
648.879	4868
648.937	5687
648.995	5843
649.053	7885
649.111	14038
649.169	21918
649.227	40535
649.285	85615
649.343	245808
649.401	108680
649.459	33467
649.516	31120
649.574	39307
649.632	102522
649.690	118804
649.748	29486
649.806	32190
649.863	51057
649.921	59902
649.979	33899
650.037	7854
650.094	3717
650.152	5259
650.210	4131
650.268	6821
650.325	7055
650.383	11774
650.440	4477
650.498	5229
650.556	3263
650.613	3205
650.671	4113
650.728	3841
650.786	4074
650.843	4564
650.901	1231
650.958	3925
651.016	3377
651.073	3485
651.131	2047
651.188	2765
651.246	3191
651.303	3042
651.360	3111
651.418	2417
651.475	2983
651.532	2169
651.590	2760
651.647	2946
651.704	2192
651.762	2973
651.819	2905
651.876	2899
651.933	2682
651.990	3363
652.048	579
652.105	1876
652.162	2842
652.219	2486
652.276	2897
652.333	3373
652.390	2018
652.448	3119
652.505	4106
652.562	3914
652.619	5776
652.676	14735
652.733	14783
652.790	3861
652.847	1771
652.904	2040
652.961	1319
653.017	1630
653.074	2807
653.131	2014
653.188	1711
653.245	2745
653.302	2218
653.359	2631
653.415	2889
653.472	2174
653.529	2499
653.586	2160
653.642	1896
653.699	2397
653.756	2357
653.813	2075
653.869	2443
653.926	1594
653.983	1567
654.039	3384
654.096	1060
654.152	2926
654.209	614
654.266	2946
654.322	1395
654.379	3292
654.435	3867
654.492	3627
654.548	5574
654.605	8381
654.661	4556
654.717	2993
654.774	3242
654.830	3445
654.887	3674
654.943	4187
655.000	5361
655.056	4540
655.112	2210
655.168	1916
655.225	2976
655.281	3408
655.337	4466
655.394	8384
655.450	5716
655.506	5449
655.562	7603
655.618	7235
655.675	2419
655.731	3631
655.787	2234
655.843	4169
655.899	2435
655.955	4338
656.011	4193
656.067	3143
656.123	4339
656.179	4508
656.235	5291
656.291	3715
656.347	5275
656.403	3820
656.459	3602
656.515	4407
656.571	4052
656.627	3799
656.683	3064
656.739	3506
656.795	2697
656.850	2432
656.906	3012
656.962	3511
657.018	1671
657.074	2509
657.129	3076
657.185	3977
657.241	6456
657.297	3963
657.352	2265
657.408	2008
657.464	3330
657.519	3101
657.575	1747
657.630	1636
657.686	1447
657.742	2003
657.797	1958
657.853	1492
657.908	2755
657.964	1465
658.019	1918
658.075	1963
658.130	2258
658.186	697
658.241	2071
658.297	1586
658.352	1609
658.407	2381
658.463	1083
658.518	3018
658.573	1880
658.629	1643
658.684	1537
658.739	2377
658.795	671
658.850	2269
658.905	1438
658.960	2507
659.016	372
659.071	2582
659.126	2068
659.181	2280
659.236	5314
659.291	6515
659.346	3731
659.401	4974
659.457	7550
659.512	11543
659.567	6092
659.622	2269
659.677	1899
659.732	1884
659.787	2045
659.842	2131
659.897	3639
659.952	2920
660.007	1924
660.061	2427
660.116	1163
660.171	2139
660.226	1815
660.281	1731
660.336	77
660.391	2675
660.445	1046
660.500	1352
660.555	1533
660.610	2079
660.664	2017
660.719	1597
660.774	1480
660.828	2674
660.883	1550
660.938	2485
660.992	1370
661.047	2657
661.101	1035
661.156	1438
661.211	555
661.265	2097
661.320	2127
661.374	1028
661.429	1430
661.483	2391
661.538	1736
661.592	2833
661.647	3341
661.701	5214
661.755	2940
661.810	2874
661.864	597
661.919	1537
661.973	2123
662.027	1766
662.081	775
662.136	1286
662.190	1892
662.244	2120
662.299	1668
662.353	2413
662.407	1198
662.461	1995
662.515	1825
662.569	2284
662.624	2655
662.678	1679
662.732	1180
662.786	2190
662.840	2282
662.894	2793
662.948	1923
663.002	1798
663.056	1903
663.110	1332
663.164	1593
663.218	1356
663.272	2494
663.326	2532
663.380	1602
663.434	2536
663.488	1204
663.542	1692
663.595	1284
663.649	1446
663.703	1726
663.757	2467
663.811	1502
663.864	1891
663.918	1618
663.972	642
664.026	1671
664.079	2088
664.133	1971
664.187	1949
664.240	1964
664.294	2124
664.348	1933
664.401	2210
664.455	1688
664.508	2050
664.562	1004
664.615	2015
664.669	1266
664.722	1833
664.776	1868
664.829	2455
664.883	2088
664.936	1932
664.990	2066
665.043	1480
665.097	1733
665.150	4093
665.203	1604
665.257	2891
665.310	1767
665.363	2321
665.417	2134
665.470	1790
665.523	2174
665.576	1381
665.630	1316
665.683	2242
665.736	1604
665.789	2078
665.842	1304
665.895	1732
665.949	2539
666.002	2128
666.055	1807
666.108	2245
666.161	1887
666.214	2485
666.267	2339
666.320	3014
666.373	1120
666.426	2475
666.479	2606
666.532	2636
666.585	2949
666.638	3720
666.691	2619
666.744	3342
666.796	2516
666.849	2291
666.902	1967
666.955	2815
667.008	1794
667.060	1625
667.113	1201
667.166	1421
667.219	1943
667.271	2399
667.324	2135
667.377	2973
667.430	2972
667.482	6280
667.535	2649
667.587	3093
667.640	1486
667.693	2733
667.745	5020
667.798	6445
667.850	2185
667.903	2212
667.955	2664
668.008	2015
668.060	1783
668.113	2178
668.165	2089
668.218	1805
668.270	2140
668.322	1416
668.375	2126
668.427	3233
668.479	1754
668.532	2119
668.584	1639
668.636	1776
668.689	2196
668.741	2116
668.793	2376
668.845	1563
668.898	2869
668.950	1920
669.002	1524
669.054	2349
669.106	2065
669.158	3115
669.211	2437
669.263	3613
669.315	4948
669.367	7405
669.419	3336
669.471	4430
669.523	3959
669.575	8284
669.627	4628
669.679	3440
669.731	4082
669.783	3661
669.835	4365
669.886	4516
669.938	2708
669.990	2654
670.042	1419
670.094	3263
670.146	1607
670.197	3149
670.249	3939
670.301	4322
670.353	5566
670.404	8695
670.456	12569
670.508	18969
670.560	32611
670.611	56159
670.663	98544
670.715	246911
670.766	372840
670.818	90384
670.869	14134
670.921	8188
670.972	6807
671.024	4721
671.075	3555
671.127	3278
671.178	1995
671.230	3644
671.281	2943
671.333	3429
671.384	2970
671.436	3954
671.487	4427
671.538	5501
671.590	6553
671.641	11582
671.692	17748
671.744	33387
671.795	20735
671.846	7953
671.897	3875
671.949	3935
672.000	3095
672.051	2691
672.102	2741
672.153	2124
672.204	2617
672.256	2524
672.307	2438
672.358	1652
672.409	2323
672.460	2473
672.511	934
672.562	2112
672.613	1332
672.664	2496
672.715	1883
672.766	2416
672.817	1521
672.868	2173
672.919	1469
672.970	1834
673.021	604
673.071	1685
673.122	1552
673.173	1645
673.224	1968
673.275	1674
673.326	1614
673.376	1642
673.427	1060
673.478	1366
673.528	1693
673.579	1036
673.630	1656
673.680	2268
673.731	879
673.782	1595
673.832	1049
673.883	2053
673.934	1375
673.984	1181
674.035	1595
674.085	1972
674.136	2011
674.186	2331
674.237	2364
674.287	4462
674.338	2407
674.388	995
674.438	1401
674.489	1535
674.539	1928
674.589	1857
674.640	933
674.690	1995
674.740	1518
674.791	2178
674.841	1523
674.891	1412
674.942	1997
674.992	1363
675.042	1180
675.092	1409
675.142	448
675.193	1350
675.243	972
675.293	1833
675.343	978
675.393	940
675.443	1206
675.493	1910
675.543	269
675.593	1083
675.643	607
675.693	1705
675.743	1358
675.793	1154
675.843	863
675.893	1884
675.943	1314
675.993	1807
676.043	1605
676.093	1373
676.142	890
676.192	1085
676.242	691
676.292	693
676.341	927
676.391	1678
676.441	924
676.491	1165
676.540	977
676.590	843
676.640	861
676.689	778
676.739	505
676.789	573
676.838	535
676.888	662
676.937	426
676.987	849
677.037	670
677.086	1165
677.136	765
677.185	1156
677.235	37
677.284	1495
677.333	114
677.383	376
677.432	-188
677.482	-46
677.531	557
677.580	671
677.630	797
677.679	788
677.728	204
677.778	1128
677.827	274
677.876	1513
677.925	289
677.975	1226
678.024	91
678.073	793
678.122	1056
678.171	260
678.220	692
678.269	1927
678.319	1758
678.368	709
678.417	616
678.466	838
678.515	1323
678.564	599
678.613	537
678.662	-44
678.711	535
678.760	1426
678.809	289
678.857	1066
678.906	526
678.955	644
679.004	1661
679.053	1657
679.102	2140
679.151	1229
679.199	1048
679.248	742
679.297	733
679.346	846
679.394	750
679.443	1384
679.492	1137
679.540	1147
679.589	116
679.638	966
679.686	233
679.735	646
679.784	314
679.832	1224
679.881	653
679.929	858
679.978	-342
680.026	138
680.075	81
680.123	-392
680.172	114
680.220	1031
680.268	605
680.317	249
680.365	264
680.414	371
680.462	-338
680.510	1180
680.559	-743
680.607	328
680.655	-288
680.703	218
680.752	544
680.800	245
680.848	232
680.896	918
680.945	233
680.993	293
681.041	350
681.089	152
681.137	-289
681.185	151
681.233	-132
681.258	29
681.281	166
681.329	-376
681.377	487
681.380	479
681.425	53
681.473	1366
681.502	1170
681.521	1001
681.569	1103
681.617	266
681.624	331
681.665	647
681.713	1105
681.745	1271
681.761	1334
681.809	82
681.857	536
681.867	541
681.904	491
681.952	1055
681.989	1075
682.000	1067
682.048	370
682.096	569
682.111	650
682.143	760
682.191	622
682.233	1172
682.239	1236
682.286	891
682.334	757
682.354	586
682.382	330
682.430	2220
682.476	395
682.477	342
682.525	895
682.572	278
682.598	549
682.620	798
682.667	1019
682.715	1350
682.720	1376
682.763	1408
682.810	1190
682.841	1445
682.857	1577
682.905	1689
682.952	1473
682.963	1497
683.000	1510
683.047	749
683.085	2071
683.095	2403
683.142	1318
683.190	1225
683.206	1272
683.237	1385
683.284	1166
683.328	330
683.332	246
683.379	2247
683.426	1714
683.449	1039
683.473	351
683.521	1005
683.568	1615
683.571	1590
683.615	1044
683.662	2010
683.693	1761
683.709	1614
683.757	1497
683.804	1530
683.814	1650
683.851	2057
683.898	2263
683.936	2100
683.945	2042
683.992	1711
684.039	1742
684.057	1948
684.086	2261
684.133	1978
684.179	2329
684.180	2329
684.227	2169
684.274	2017
684.300	2015
684.321	2040
684.368	1827
684.415	2212
684.422	2235
684.462	2099
684.509	2113
684.543	1672
684.556	1551
684.603	2295
684.649	1800
684.665	2030
684.696	2530
684.743	2746
684.786	2485
684.790	2454
684.837	1677
684.883	2778
684.908	2718
684.930	2606
684.977	2832
685.023	2772
685.029	2752
685.070	2548
685.117	2760
685.150	2672
685.164	2650
685.210	2966
685.257	3174
685.272	3293
685.303	3470
685.350	2674
685.393	2407
685.396	2392
685.443	3250
685.490	3435
685.514	3359
685.536	3164
685.583	2513
685.629	3223
685.636	3192
685.675	3046
685.722	3197
685.757	3470
685.768	3567
685.815	3583
685.861	3254
685.878	3380
685.908	3564
685.954	3240
686.000	4242
686.000	4258
686.047	4104
686.093	5368
686.121	5431
686.139	5161
686.185	4092
686.232	3782
686.242	3731
686.278	3771
686.324	3851
686.363	3180
686.370	3084
686.416	4049
686.463	3766
686.484	3926
686.509	4102
686.555	4257
686.601	3626
686.606	3716
686.647	4267
686.693	3387
686.727	3172
686.739	3124
686.785	3256
686.831	2853
686.848	3031
686.877	3446
686.923	3597
686.969	3481
686.969	3478
687.015	3350
687.061	3574
687.090	3354
687.107	3281
687.153	3346
687.199	3766
687.211	3628
687.245	3389
687.291	4355
687.332	4042
687.336	3999
687.382	4721
687.428	4432
687.453	4700
687.474	4791
687.520	3862
687.565	4192
687.574	4035
687.611	3912
687.657	4891
687.695	5013
687.702	5141
687.748	7621
687.794	9792
687.816	9391
687.839	7863
687.885	6409
687.931	5135
687.937	4991
687.976	4804
688.022	3913
688.058	3950
688.067	4066
688.113	4170
688.158	3820
688.179	3884
688.204	3933
688.249	4368
688.295	4809
688.300	4764
688.340	4430
688.386	4644
688.421	4417
688.431	4331
688.477	4323
688.522	3968
688.542	4214
688.567	4640
688.613	4021
688.658	4218
688.663	4270
688.703	4516
688.749	4426
688.784	4155
688.794	4134
688.839	4400
688.884	4486
688.905	4461
688.930	4389
688.975	4280
689.020	4612
689.026	4591
689.065	4445
689.110	4429
689.146	4313
689.155	4372
689.201	5109
689.246	5290
689.267	5442
689.291	5260
689.336	4689
689.381	4600
689.388	4551
689.426	4614
689.471	4881
689.509	4426
689.516	4337
689.561	4634
689.606	4627
689.630	4451
689.651	4302
689.696	4481
689.741	4383
689.750	4369
689.785	4553
689.830	5059
689.871	4802
689.875	4760
689.920	4383
689.965	4453
689.992	4408
690.010	4505
690.054	4767
690.099	5129
690.112	5152
690.144	4978
690.189	4811
690.233	4620
690.233	4629
690.278	4747
690.323	5023
690.354	5123
690.367	5200
690.412	5090
690.457	5734
690.474	5618
690.501	5331
690.546	5917
690.590	5514
690.595	5525
690.635	5968
690.680	5693
690.716	6042
690.724	6180
690.769	6657
690.813	7597
690.836	7750
690.857	8491
690.902	10296
690.946	12146
690.957	12776
690.991	17019
691.035	22007
691.077	27191
691.080	27255
691.124	25543
691.168	24329
691.198	23530
691.213	22039
691.257	18231
691.301	13747
691.318	12328
691.346	11606
691.390	9877
691.434	8167
691.439	7952
691.478	7543
691.522	7483
691.559	7174
691.567	7165
691.611	7138
691.655	6822
691.680	6775
691.699	6661
691.743	6747
691.787	6323
691.800	6066
691.831	5825
691.875	6598
691.919	6506
691.921	6497
691.964	6635
692.008	6882
692.041	6635
692.052	6561
692.096	6467
692.139	6908
692.162	6935
692.183	6947
692.227	6947
692.271	6722
692.282	6694
692.315	6697
692.359	6722
692.402	6722
692.403	6738
692.447	6586
692.490	6639
692.523	6795
692.534	6854
692.578	6991
692.622	6785
692.643	6851
692.666	6854
692.709	6356
692.753	6151
692.763	6063
692.797	6253
692.840	6740
692.884	6769
692.884	6783
692.928	6783
692.971	6725
693.004	6797
693.015	6893
693.059	6771
693.102	6695
693.124	6754
693.146	7022
693.189	7313
693.233	7994
693.245	8130
693.276	8470
693.320	8740
693.363	8715
693.365	8706
693.407	9269
693.450	10056
693.485	10243
693.493	10545
693.537	12417
693.580	14246
693.605	15399
693.624	17024
693.667	20451
693.710	24271
693.725	25551
693.753	33158
693.797	45987
693.840	58188
693.845	59368
693.883	56462
693.926	53073
693.966	50174
693.970	49276
694.013	39427
694.056	29408
694.086	22504
694.099	21561
694.142	18664
694.185	15447
694.206	13920
694.229	13384
694.272	12409
694.315	11642
694.326	11327
694.358	11014
694.401	10717
694.444	10216
694.446	10171
694.487	9741
694.530	9319
694.566	8982
694.573	8940
694.616	8282
694.659	7754
694.686	7435
694.702	7424
694.745	7361
694.787	7200
694.806	7157
694.830	7245
694.873	7265
694.916	7480
694.926	7436
694.959	7229
695.002	7089
695.044	6839
695.046	6814
695.087	6895
695.130	6855
695.166	6995
695.172	7044
695.215	6756
695.258	7182
695.286	7063
695.301	7040
695.343	7090
695.386	7127
695.406	7173
695.428	7268
695.471	7037
695.514	7253
695.526	7170
695.556	6983
695.599	7337
695.641	7147
695.646	7120
695.684	7286
695.726	7411
695.766	7440
695.769	7442
695.811	7464
695.854	7219
695.886	6987
695.896	6953
695.938	6786
695.981	6697
696.005	6696
696.023	6942
696.065	7109
696.108	7575
696.125	7703
696.150	7682
696.192	7622
696.235	7526
696.245	7512
696.277	7702
696.319	7737
696.361	7953
696.365	7934
696.404	7814
696.446	7806
696.485	7594
696.488	7618
696.530	7809
696.572	7921
696.604	7978
696.614	7962
696.656	7829
696.698	7852
696.724	7664
696.740	7537
696.783	7254
696.825	7074
696.844	6919
696.867	6931
696.909	6939
696.951	6837
696.964	6829
696.992	6889
697.034	6921
697.076	6850
697.083	6840
697.118	7119
697.160	7298
697.202	7565
697.203	7547
697.244	7495
697.286	7505
697.323	7312
697.327	7330
697.369	7436
697.411	7417
697.442	7478
697.453	7536
697.494	7559
697.536	7651
697.562	7653
697.578	7686
697.620	7805
697.661	7831
697.682	7843
697.703	8017
697.744	8254
697.786	8678
697.801	8730
697.828	8861
697.869	9068
697.911	9254
697.921	9288
697.952	8970
697.994	8498
698.035	8082
698.040	7995
698.077	7768
698.118	7560
698.160	7289
698.160	7265
698.201	7573
698.243	7839
698.279	8077
698.284	8120
698.325	8296
698.367	8454
698.399	8537
698.408	8482
698.449	8146
698.491	7817
698.518	7538
698.532	7645
698.573	7955
698.614	8210
698.638	8344
698.656	8353
698.697	8314
698.738	8262
698.757	8226
698.779	8325
698.820	8437
698.862	8571
698.877	8590
698.903	8827
698.944	9168
698.985	9508
698.996	9575
699.026	9389
699.067	9089
699.116	8707
699.235	7782
699.354	7821
699.474	8475
699.593	10143
699.713	10004
699.832	9234
699.951	9319
700.070	8707
700.190	7957
700.309	9187
700.428	9768
700.547	8998
700.667	8017
700.786	9658
700.905	8397
701.024	8570
701.143	9132
701.262	7776
701.381	7269
701.500	8257
701.619	8818
701.738	7861
701.857	7909
701.976	7834
702.095	7459
702.214	9252
702.333	8458
702.452	7306
702.571	7739
702.690	7344
702.809	7572
702.928	6963
703.047	7734
703.165	8064
703.284	7391
703.403	6869
703.522	8272
703.640	9584
703.759	10811
703.878	14464
703.997	8442
704.115	8034
704.234	7447
704.353	7513
704.471	7351
704.590	6767
704.708	6359
704.827	6954
704.946	7065
705.064	7924
705.183	7074
705.301	7997
705.420	10829
705.538	10695
705.656	10555
705.775	15345
705.893	48633
706.012	58506
706.130	10807
706.249	8694
706.367	9683
706.485	9401
706.604	8823
706.722	10122
706.840	14582
706.958	23778
707.077	14346
707.195	8741
707.313	8493
707.431	8572
707.549	8203
707.668	8428
707.786	8593
707.904	8383
708.022	7186
708.140	8514
708.258	7917
708.376	8201
708.494	7427
708.612	8362
708.730	12149
708.848	10802
708.966	9484
709.084	10379
709.202	9410
709.320	8920
709.438	9644
709.556	9338
709.674	9001
709.791	8918
709.909	9140
710.027	8929
710.145	8295
710.263	9580
710.380	9142
710.498	9277
710.616	9391
710.733	8970
710.851	10167
710.969	10276
711.086	9072
711.204	9388
711.322	8851
711.439	8232
711.557	9591
711.674	10405
711.792	10613
711.909	13421
712.027	16944
712.144	9355
712.262	8708
712.379	9769
712.497	12595
712.614	12207
712.732	10576
712.849	10679
712.966	11780
713.084	14201
713.201	11652
713.318	10903
713.436	9937
713.553	11188
713.670	11237
713.787	13032
713.905	12588
714.022	10791
714.139	10372
714.256	12369
714.373	14900
714.490	22589
714.608	56178
714.725	233233
714.842	211268
714.959	17586
715.076	11735
715.193	10662
715.310	10762
715.427	10085
715.544	9628
715.661	9976
715.778	8992
715.895	9430
716.011	9851
716.128	9879
716.245	9573
716.362	10894
716.479	11797
716.596	9549
716.713	9913
716.829	9150
716.946	8712
717.063	7506
717.180	8904
717.296	8666
717.413	8362
717.530	8587
717.646	7503
717.763	7487
717.880	7619
717.996	8489
718.113	7957
718.229	8921
718.346	7276
718.462	8407
718.579	10482
718.695	16828
718.812	13270
718.928	13812
719.045	9449
719.161	7789
719.277	8498
719.394	8640
719.510	9322
719.626	8708
719.743	9609
719.859	11063
719.975	18057
720.092	60250
720.208	122206
720.324	16746
720.440	8845
720.557	9573
720.673	14849
720.789	21529
720.905	44714
721.021	14045
721.137	7430
721.253	8085
721.369	7746
721.486	8421
721.602	13238
721.718	7032
721.834	5939
721.950	7016
722.066	6536
722.181	7441
722.297	6592
722.413	7282
722.529	6632
722.645	7110
722.761	6108
722.877	7206
722.993	6132
723.108	6754
723.224	6592
723.340	7177
723.456	6406
723.571	6257
723.687	6024
723.803	5614
723.918	5528
724.034	5992
724.150	5806
724.265	7647
724.381	16755
724.497	20197
724.612	5971
724.728	6207
724.843	5649
724.959	7829
725.074	16690
725.190	16749
725.305	7463
725.421	5779
725.536	4983
725.651	4703
725.767	5405
725.882	5478
725.997	4891
726.113	5942
726.228	5042
726.343	5369
726.459	5084
726.574	5539
726.689	5215
726.804	5338
726.920	5486
727.035	5456
727.150	5911
727.265	5481
727.380	6073
727.495	5809
727.610	4806
727.725	6181
727.841	11633
727.956	33512
728.071	20439
728.186	5561
728.301	4121
728.416	6108
728.531	4769
728.645	5566
728.760	5477
728.875	6897
728.990	6269
729.105	6428
729.220	5429
729.335	5675
729.449	4406
729.564	4276
729.679	4418
729.794	4228
729.908	5524
730.023	5539
730.138	4262
730.253	4275
730.367	4227
730.482	5099
730.596	4165
730.711	5629
730.826	6950
730.940	7768
731.055	4717
731.169	4960
731.284	3858
731.398	4435
731.513	5538
731.627	4306
731.742	5963
731.856	5765
731.970	4309
732.085	4888
732.199	6594
732.313	9223
732.428	22473
732.542	63226
732.656	33071
732.771	7724
732.885	4859
732.999	5908
733.113	5889
733.227	4759
733.342	4506
733.456	4082
733.570	4443
733.684	4033
733.798	4669
733.912	4071
734.026	3555
734.140	4453
734.254	4499
734.368	9608
734.482	10842
734.596	4208
734.710	4414
734.824	4459
734.938	4254
735.052	4267
735.166	5215
735.280	5040
735.393	3944
735.507	4506
735.621	7040
735.735	11119
735.849	5205
735.962	3868
736.076	4239
736.190	4744
736.303	6468
736.417	8523
736.531	4317
736.644	4545
736.758	3563
736.872	4356
736.985	3388
737.099	3648
737.212	3145
737.326	4524
737.439	3689
737.553	3784
737.666	3467
737.780	3355
737.893	3150
738.007	3758
738.120	3041
738.233	3582
738.347	3858
738.460	3611
738.573	3103
738.687	3438
738.800	4463
738.913	5259
739.026	3750
739.140	5776
739.253	5557
739.366	3428
739.479	2832
739.592	3022
739.705	3350
739.818	3757
739.932	2908
740.045	3606
740.158	3316
740.271	3591
740.384	3123
740.497	3580
740.610	4671
740.723	4243
740.836	4783
740.949	4317
741.062	5400
741.174	5013
741.287	3623
741.400	4331
741.513	3867
741.626	4836
741.739	4447
741.851	3809
741.964	3267
742.077	3864
742.189	4777
742.302	8468
742.415	7943
742.527	3361
742.640	3786
742.753	3460
742.865	3264
742.978	2607
743.090	2589
743.203	3363
743.316	2710
743.428	2791
743.541	3222
743.653	2551
743.766	2629
743.878	3606
743.990	5349
744.103	7514
744.215	10949
744.327	5555
744.440	5080
744.552	6616
744.664	3337
744.777	1782
744.889	2468
745.001	3069
745.113	2409
745.226	1912
745.338	2620
745.450	2776
745.562	2212
745.674	2672
745.786	2714
745.898	3613
746.010	2862
746.122	2504
746.234	3327
746.347	2943
746.459	3075
746.570	3184
746.682	5672
746.794	14161
746.906	8129
747.018	2744
747.130	3199
747.242	3319
747.354	2439
747.466	2797
747.577	2690
747.689	3319
747.801	2200
747.913	3062
748.024	1611
748.136	2963
748.248	2875
748.359	1862
748.471	2129
748.583	2505
748.694	3951
748.806	6212
748.918	3540
749.029	2714
749.141	3406
749.252	2833
749.364	3872
749.475	7151
749.587	4133
749.698	2203
749.809	2272
749.921	2829
750.032	1952
750.144	2029
750.255	2580
750.366	3055
750.478	1917
750.589	2110
750.700	2520
750.811	3048
750.923	3857
751.034	8001
751.145	7710
751.256	2286
751.367	1890
751.479	2562
751.590	1159
751.701	2308
751.812	1455
751.923	1938
752.034	1327
752.145	2298
752.256	2098
752.367	2061
752.478	1636
752.589	3236
752.700	2518
752.811	2308
752.922	1977
753.032	2079
753.143	3424
753.254	1388
753.365	2096
753.476	1726
753.586	2551
753.697	2200
753.808	2224
753.919	1359
754.029	2120
754.140	1765
754.251	1970
754.361	2098
754.472	2112
754.582	2536
754.693	2541
754.804	2739
754.914	2061
755.025	2259
755.135	2158
755.246	2401
755.356	2080
755.466	2516
755.577	2643
755.687	2912
755.798	1750
755.908	1695
756.018	2060
756.129	2019
756.239	1921
756.349	1751
756.460	1589
756.570	2766
756.680	2178
756.790	2315
756.900	2216
757.011	2331
757.121	2466
757.231	3266
757.341	2468
757.451	2123
757.561	1470
757.671	2663
757.781	1350
757.891	2779
758.001	2235
758.111	2351
758.221	3339
758.331	2867
758.441	2527
758.551	3968
758.661	3603
758.771	3298
758.880	2869
758.990	3036
759.100	2814
759.210	3079
759.320	2703
759.429	3004
759.539	3128
759.649	2833
759.758	2930
759.868	3292
759.978	3159
760.087	3420
760.197	3466
760.307	3174
760.416	3047
760.526	2330
760.635	2877
760.745	3075
760.854	4407
760.964	4620
761.073	4327
761.182	3816
761.292	3280
761.401	5006
761.511	3901
761.620	4401
761.729	3996
761.839	4461
761.948	4158
762.057	4365
762.166	3899
762.276	3589
762.385	4517
762.494	4299
762.603	3811
762.712	3712
762.822	3372
762.931	5233
763.040	3258
763.149	4681
763.258	4440
763.367	6068
763.476	5401
763.585	5588
763.694	6439
763.803	5984
763.912	6116
764.021	6610
764.130	7467
764.238	7329
764.347	7500
764.456	7910
764.565	9123
764.674	9876
764.783	9975
764.891	11323
765.000	12545
765.109	14890
765.217	15470
765.326	20631
765.435	24795
765.543	29400
765.652	35498
765.761	48255
765.869	69387
765.978	108941
766.086	183098
766.195	350398
766.303	755917
766.412	1240554
766.520	1077700
766.629	505584
766.737	226409
766.846	128996
766.954	86081
767.062	63027
767.171	53358
767.279	37053
767.387	26390
767.496	24154
767.604	21212
767.712	17883
767.820	15886
767.928	15351
768.037	14174
768.145	13457
768.253	13746
768.361	11920
768.469	13112
768.577	11994
768.685	13051
768.793	15039
768.901	14723
769.009	17748
769.117	21450
769.225	29067
769.333	42348
769.441	70621
769.549	131803
769.657	297147
769.765	745208
769.873	1025803
769.981	509810
770.088	170212
770.196	83743
770.304	54088
770.412	37816
770.519	29334
770.627	21944
770.735	17755
770.842	14676
770.950	13827
771.058	11874
771.165	11286
771.273	9770
771.380	8670
771.488	8576
771.595	7557
771.703	7159
771.810	7790
771.918	6417
772.025	5862
772.133	5940
772.240	5537
772.348	5802
772.455	5957
772.562	4763
772.670	4749
772.777	5567
772.884	4698
772.991	3887
773.099	4198
773.206	3351
773.313	4226
773.420	4158
773.528	2785
773.635	3288
773.742	4379
773.849	3049
773.956	3430
774.063	3186
774.170	2661
774.277	3151
774.384	2776
774.491	3671
774.598	3763
774.705	3505
774.812	4332
774.919	3673
775.026	3754
775.133	3749
775.239	2528
775.346	2905
775.453	2668
775.560	2878
775.667	3802
775.773	2215
775.880	3845
775.987	2311
776.093	3288
776.200	2505
776.307	2585
776.413	2610
776.520	2369
776.627	2350
776.733	3853
776.840	2631
776.946	5769
777.053	10748
777.159	25712
777.266	14973
777.372	21792
777.478	18876
777.585	10168
777.691	3486
777.798	3244
777.904	4753
778.010	8056
778.117	4388
778.223	2712
778.329	3008
778.435	2368
778.542	2857
778.648	2413
778.754	1879
778.860	1859
778.966	1898
779.072	3038
779.178	2027
779.284	2162
779.391	1824
779.497	2252
779.603	5483
779.708	5611
779.815	14801
779.920	56308
780.026	78943
780.132	9409
780.238	2574
780.344	2451
780.450	2809
780.556	2610
780.661	2093
780.767	2355
780.873	1810
780.979	2240
781.085	1216
781.190	1861
781.296	1812
781.402	1352
781.507	1449
781.613	1617
781.719	1085
781.824	1536
781.930	2292
782.035	2602
782.141	2024
782.246	1852
782.352	1925
782.457	1371
782.563	1497
782.668	1255
782.773	1667
782.879	907
782.984	1785
783.090	3227
783.195	3579
783.300	3318
783.405	1996
783.511	1492
783.616	2151
783.721	1889
783.826	1233
783.932	2294
784.037	964
784.142	2346
784.247	990
784.352	2448
784.457	2431
784.562	1413
784.667	1872
784.772	1402
784.877	924
784.982	2063
785.087	1243
785.192	1811
785.297	1385
785.402	1973
785.507	1271
785.611	1476
785.716	1470
785.821	1404
785.926	804
786.031	1520
786.135	1794
786.240	1830
786.345	-140
786.450	2104
786.554	1221
786.659	1741
786.763	1298
786.868	2226
786.973	2459
787.077	800
787.182	1328
787.286	1046
787.391	1304
787.495	884
787.600	719
787.704	653
787.809	825
787.913	1714
788.017	1400
788.122	932
788.226	689
788.330	291
788.435	1165
788.539	1255
788.643	-3
788.747	895
788.852	560
788.956	1152
789.060	661
789.164	1024
789.268	-135
789.372	1811
789.476	1155
789.580	116
789.684	915
789.788	2133
789.892	318
789.996	2082
790.100	558
790.204	940
790.308	1634
790.412	718
790.516	3056
790.620	2816
790.724	1096
790.828	1269
790.931	1063
791.035	2615
791.139	1530
791.242	1288
791.346	2467
791.450	809
791.554	148
791.657	-7
791.761	1896
791.864	1330
791.968	677
792.072	1339
792.175	1265
792.279	1228
792.382	1096
792.486	1249
792.589	1141
792.693	1291
792.796	-95
792.899	1759
793.003	1235
793.106	-798
793.209	30
793.313	1526
793.416	172
793.519	1958
793.623	2825
793.726	3420
793.829	1493
793.932	1261
794.035	1150
794.138	2015
794.242	1899
794.345	2622
794.448	4116
794.551	8074
794.654	27842
794.757	40987
794.860	6466
794.963	1612
795.066	1339
795.169	2355
795.272	789
795.375	434
795.477	472
795.580	1034
795.683	-567
795.786	1609
795.889	-418
795.991	1793
796.094	2118
796.197	-327
796.300	1795
796.402	189
796.505	-491
796.608	637
796.710	974
796.813	676
796.915	-109
797.018	1342
797.120	433
797.223	-1047
797.326	1261
797.428	-586
797.530	602
797.633	372
797.735	1770
797.838	1952
797.940	2796
798.042	54
798.145	-157
798.247	1437
798.349	-640
798.452	1262
798.554	-347
798.656	-320
798.758	713
798.860	647
798.962	568
799.065	786
799.167	-1353
799.269	1391
799.371	1170
799.473	93
799.575	924
799.677	1228
799.779	2268
799.881	1510
799.983	1129
800.085	797
800.187	-19
800.289	27
800.390	82
800.492	578
800.594	1875
800.696	326
800.798	675
800.899	449
801.001	-752
801.103	385
801.205	-121
801.306	538
801.408	-287
801.509	-14
801.611	-289
801.713	871
801.814	-242
801.916	601
802.017	76
802.119	-147
802.220	160
802.322	-520
802.423	2688
802.525	-335
802.626	-180
802.727	1478
802.829	1063
802.930	-1041
803.031	1200
803.133	59
803.234	-587
803.335	107
803.436	-931
803.538	63
803.639	-273
803.740	1128
803.841	-538
803.942	349
804.043	997
804.144	-171
804.245	-142
804.346	-338
804.447	-208
804.548	957
804.649	1648
804.750	-148
804.851	-663
804.952	-123
805.053	337
805.154	-910
805.255	753
805.355	261
805.456	-705
805.557	-556
805.658	-897
805.758	415
805.859	-389
805.960	174
806.061	-780
806.161	443
806.262	-410
806.362	-28
806.463	184
806.564	506
806.664	676
806.765	670
806.865	701
806.966	353
807.066	-503
807.166	666
807.267	524
807.367	262
807.468	-433
807.568	-1197
807.668	624
807.769	614
807.869	-157
807.969	235
808.069	340
808.170	148
808.270	198
808.370	691
808.470	661
808.570	-163
808.670	-536
808.770	-153
808.870	-1091
808.970	747
809.070	-394
809.170	-524
809.271	146
809.370	-48
809.470	236
809.570	-372
809.670	-846
809.770	-388
809.870	-99
809.970	-8
810.070	-313
810.169	510
810.269	-1725
810.369	1002
810.469	-30
810.568	-558
810.668	-758
810.768	-490
810.867	-86
810.967	-915
811.066	-523
811.166	538
811.265	976
811.365	-1018
811.464	-288
811.564	301
811.663	115
811.763	-1617
811.862	-145
811.962	583
812.061	-172
812.160	49
812.260	-540
812.359	744
812.458	-934
812.557	880
812.657	477
812.756	942
812.855	-525
812.954	279
813.053	303
813.153	256
813.252	-1002
813.351	219
813.450	154
813.549	-250
813.648	203
813.747	210
813.846	-36
813.945	358
814.044	-703
814.143	-107
814.242	984
814.341	-625
814.439	490
814.538	109
814.637	-118
814.736	363
814.835	1442
814.933	359
815.032	1020
815.131	275
815.229	-920
815.328	886
815.427	646
815.525	967
815.624	1129
815.722	-771
815.821	847
815.919	1045
816.018	209
816.116	1978
816.215	678
816.313	686
816.412	853
816.510	2043
816.609	2754
816.707	2002
816.805	748
816.904	1830
817.002	1974
817.100	2220
817.198	2588
817.296	2364
817.395	2690
817.493	5311
817.591	4718
817.689	7924
817.787	10916
817.885	18350
817.983	33863
818.081	74485
818.179	180575
818.277	427406
818.375	338428
818.473	101630
818.571	40112
818.669	26318
818.767	23049
818.865	23168
818.963	25390
819.061	37487
819.158	67155
819.256	145103
819.354	339127
819.452	671091
819.549	416229
819.647	130540
819.745	55479
819.842	32745
819.940	21704
820.038	15697
820.135	12068
820.233	10378
820.330	6332
820.428	5574
820.525	5302
820.623	5294
820.720	3137
820.818	2895
820.915	4320
821.012	4907
821.110	2039
821.207	3107
821.304	2330
821.402	3294
821.499	5429
821.596	9707
821.693	5907
821.791	2910
821.888	2379
821.985	4689
822.082	3605
822.179	3129
822.276	3932
822.373	2217
822.470	1014
822.567	2215
822.664	-513
822.761	2137
822.858	-80
822.955	1188
823.052	891
823.149	299
823.246	-369
823.343	122
823.440	864
823.536	1358
823.633	-211
823.730	476
823.827	-214
823.923	864
824.020	1697
824.117	811
824.213	3020
824.310	1867
824.407	238
824.503	737
824.600	-196
824.696	142
824.793	629
824.889	-166
824.986	758
825.082	-500
825.179	159
825.275	632
825.371	210
825.468	500
825.564	-916
825.660	750
825.757	46
825.853	263
825.949	-357
826.045	-234
826.142	-1384
826.238	-466
826.334	-73
826.430	-629
826.526	88
826.622	82
826.718	-34
826.814	-343
826.910	797
827.006	-273
827.102	-1263
827.198	876
827.294	-218
827.390	-97
827.486	319
827.582	-1350
827.678	-1041
827.774	231
827.869	-529
827.965	568
828.061	-1336
828.157	-627
828.252	-1120
828.348	-732
828.444	490
828.539	-842
828.635	-653
828.731	120
828.826	-396
828.922	-268
829.017	-444
829.113	-184
829.208	-1159
829.304	-1160
829.399	410
829.495	-269
829.590	176
829.685	-787
829.781	-267
829.876	-381
829.971	-930
830.066	-744
830.162	-132
830.257	-711
830.352	-1643
830.447	263
830.543	256
830.638	-1641
830.733	924
830.828	-611
830.923	405
831.018	-374
831.113	187
831.208	-657
831.303	-912
831.398	-533
831.493	-905
831.588	273
831.683	-403
831.778	-660
831.873	-425
831.967	-328
832.062	-1908
832.157	-1382
832.252	-576
832.346	-784
832.441	624
832.536	680
832.631	2030
832.725	1603
832.820	-952
832.914	-426
833.009	-775
833.104	-391
833.198	285
833.293	-1185
833.387	-471
833.482	-127
833.576	-905
833.670	-538
833.765	-559
833.859	-1246
833.954	-19
834.048	-790
834.142	-687
834.237	-684
834.331	-841
834.425	-707
834.519	-579
834.613	-971
834.708	-949
834.802	-120
834.896	-2131
834.990	-623
835.084	-1061
835.178	-408
835.272	-1168
835.366	-1349
835.460	-13
835.554	-629
835.648	-277
835.742	-904
835.836	-589
835.930	-1692
836.024	-448
836.117	-70
836.211	-454
836.305	430
836.399	1026
836.493	-1171
836.586	82
836.680	-1181
836.774	-815
836.867	-190
836.961	-927
837.055	-733
837.148	-1076
837.242	-614
837.335	-512
837.429	-149
837.522	268
837.616	174
837.709	883
837.803	-700
837.896	-179
837.989	-112
838.083	1031
838.176	2250
838.269	265
838.363	-329
838.456	-579
838.549	510
838.642	-217
838.735	2328
838.829	687
838.922	-1097
839.015	-491
839.108	-1001
839.201	-1081
839.294	-426
839.387	100
839.480	-852
839.573	-407
839.666	711
839.759	-687
839.852	-1397
839.945	-822
840.038	-918
840.131	-1008
840.223	-928
840.316	-512
840.409	-183
840.502	-1296
840.594	214
840.687	-1057
840.780	232
840.873	-848
840.965	-539
841.058	-36
841.150	2161
841.243	-413
841.336	-308
841.428	-690
841.521	-1286
841.613	-1382
841.706	-778
841.798	-590
841.890	-1105
841.983	-1584
842.075	736
842.167	-192
842.260	-889
842.352	621
842.444	16
842.537	2365
842.629	2319
842.721	-105
842.813	-955
842.905	-893
842.997	-143
843.090	73
843.182	902
843.274	1555
843.366	7187
843.458	13114
843.550	7032
843.642	-37
843.734	175
843.826	197
843.918	616
844.009	-605
844.101	-661
844.193	-392
844.285	532
844.377	804
844.469	3435
844.560	5357
844.652	5823
844.744	2376
844.835	-97
844.927	-833
845.019	-403
845.110	79
845.202	-412
845.293	-471
845.385	-1633
845.476	-471
845.568	-352
845.659	-1395
845.751	-354
845.842	-930
845.934	-848
846.025	-1097
846.116	-351
846.208	-833
846.299	-470
846.390	-1006
846.482	-84
846.573	-992
846.664	1020
846.755	368
846.846	453
846.937	-1423
847.029	-1012
847.120	-635
847.211	-778
847.302	-319
847.393	-1701
847.484	-734
847.575	-610
847.666	-1161
847.757	-846
847.847	-1069
847.938	846
848.029	-586
848.120	-1372
848.211	-718
848.302	-880
848.392	-1606
848.483	-586
848.574	-1517
848.664	-1601
848.755	-1259
848.846	-1022
848.936	-1336
849.027	-83
849.118	-923
849.208	-732
849.299	-510
849.389	421
849.480	2335
849.570	5154
849.661	11281
849.751	19867
849.841	5642
849.932	156
850.022	-795
850.112	-50
850.203	-1027
850.293	-1285
850.383	-903
850.474	-753
850.564	-1284
850.654	-664
850.744	-1080
850.834	-768
850.924	-410
851.014	-1261
851.104	-738
851.194	-859
851.284	-740
851.374	269
851.464	-878
851.554	-737
851.644	-791
851.734	1231
851.824	-619
851.914	-750
852.004	-501
852.094	-1243
852.183	-2
852.273	-323
852.363	-882
852.452	-913
852.542	-470
852.632	-1058
852.721	568
852.811	-1135
852.901	-139
852.990	-1016
853.080	-561
853.169	-514
853.259	-604
853.348	-600
853.438	-8
853.527	1024
853.617	853
853.706	4462
853.795	9497
853.885	24276
853.974	46449
854.063	86929
854.152	138059
854.242	45459
854.331	5818
854.420	1648
854.509	1452
854.598	723
854.687	834
854.777	488
854.866	-250
854.955	-145
855.044	-1449
855.133	-760
855.222	-505
855.311	-530
855.400	-499
855.488	-527
855.577	-654
855.666	333
855.755	262
855.844	1752
855.933	690
856.021	131
856.110	-754
856.199	-1031
856.288	-1128
856.376	-576
856.465	-696
856.554	-542
856.642	-787
856.731	-257
856.819	-12
856.908	-570
856.996	-858
857.085	-973
857.173	-347
857.262	-1100
857.350	-950
857.438	-131
857.527	-985
857.615	-757
857.703	-1060
857.792	-1223
857.880	-748
857.968	-1584
858.056	-743
858.145	-422
858.233	-1252
858.321	-771
858.409	-778
858.497	-1365
858.585	-1602
858.673	16
858.761	-691
858.849	-1596
858.937	-874
859.025	-1110
859.113	-462
859.201	-1645
859.289	-216
859.377	-125
859.465	-428
859.552	-496
859.640	-2004
859.728	-517
859.816	-1342
859.903	-795
859.991	-1373
860.079	-567
860.166	-1281
860.254	-457
860.342	-1153
860.429	-1678
860.517	-1854
860.604	-739
860.692	-1593
860.779	-1127
860.867	-1621
860.954	-1106
861.042	-655
861.129	48
861.216	-1415
861.304	-1060
861.391	-1754
861.478	-817
861.565	-1022
861.653	-470
861.740	-1261
861.827	-1076
861.914	-1365
862.001	-1250
862.089	-1183
862.176	-555
862.263	-1387
862.350	-2006
862.437	-1378
862.524	-1171
862.611	-160
862.698	114
862.785	1311
862.871	1480
862.958	55
863.045	-288
863.132	-888
863.219	-916
863.306	-1347
863.392	-875
863.479	-1147
863.566	-1747
863.652	-557
863.739	-615
863.826	-1088
863.912	-824
863.999	-1888
864.086	-827
864.172	-1068
864.259	-1394
864.345	-434
864.432	-631
864.518	-1551
864.604	-1069
864.691	-1431
864.777	-695
864.863	-1064
864.950	-780
865.036	-1123
865.122	62
865.209	506
865.295	636
865.381	-138
865.467	83
865.553	1565
865.639	1305
865.726	3194
865.812	10164
865.898	20450
865.984	31532
866.070	61237
866.156	63213
866.242	13736
866.328	1990
866.414	-218
866.499	194
866.585	-661
866.671	-207
866.757	-252
866.843	-464
866.928	-1153
867.014	-525
867.100	-981
867.186	78
867.271	33
867.357	326
867.442	472
867.528	784
867.614	580
867.699	1654
867.785	3256
867.870	4687
867.956	6218
868.041	3538
868.127	2523
868.212	3744
868.297	3306
868.383	781
868.468	1870
868.553	2056
868.639	987
868.724	2398
868.809	2501
868.894	-278
868.979	-836
869.065	-1046
869.150	-759
869.235	-1148
869.320	-1121
869.405	-1218
869.490	-813
869.575	-863
869.660	-993
869.745	66
869.830	-1607
869.915	-941
870.000	-339
870.085	-403
870.169	805
870.254	1545
870.339	-1199
870.424	-547
870.509	-785
870.593	-793
870.678	-1162
870.763	-508
870.847	-773
870.932	-510
871.016	966
871.101	1015
871.186	114
871.270	-552
871.355	-1582
871.439	-601
871.523	-734
871.608	-562
871.692	229
871.777	955
871.861	-184
871.945	-1061
872.030	-165
872.114	-1481
872.198	-505
872.282	-587
872.367	-1525
872.451	-1541
872.535	-1120
872.619	-1128
872.703	-891
872.787	-595
872.871	-931
872.955	-643
873.039	-1015
873.123	-1135
873.207	18
873.291	-1652
873.375	-1153
873.459	-1653
873.543	-805
873.627	-960
873.711	-985
873.794	-1655
873.878	-1723
873.962	-1424
874.045	-771
874.129	-921
874.137	-973
874.213	-1494
874.245	-1294
874.296	-972
874.352	-1205
874.380	-1318
874.460	-1337
874.464	-1339
874.547	-1113
874.568	-918
874.631	-339
874.676	-516
874.714	-674
874.784	-1101
874.798	-1180
874.881	-140
874.892	-251
874.965	-1056
874.999	-1217
875.048	-1398
875.107	-689
875.131	-421
875.215	-383
875.215	-384
875.298	-1109
875.323	-1069
875.381	-988
875.430	-1069
875.465	-1073
875.538	-651
875.548	-608
875.631	-558
875.646	-618
875.714	-883
875.753	-777
875.798	-622
875.861	-723
875.881	-780
875.964	-1348
875.968	-1354
876.047	-1370
876.076	-1049
876.130	-460
876.183	-638
876.213	-717
876.291	-248
876.296	-225
876.379	-1311
876.398	-1166
876.462	-649
876.506	-651
876.545	-588
876.613	-334
876.628	-300
876.711	-563
876.721	-570
876.794	-495
876.828	-493
876.877	-655
876.935	-610
876.960	-489
877.043	2
877.043	2
877.125	-216
877.150	-181
877.208	136
877.258	269
877.291	284
877.365	120
877.374	95
877.456	309
877.472	248
877.539	50
877.579	381
877.622	803
877.687	458
877.704	300
877.787	289
877.794	227
877.869	-309
877.901	-253
877.952	-103
878.008	-300
878.034	-422
878.115	-943
878.117	-954
878.199	-756
878.222	-545
878.282	164
878.329	26
878.364	-126
878.437	-32
878.447	-23
878.529	-707
878.544	-645
878.611	-323
878.651	-698
878.694	-1066
878.758	-100
878.776	144
878.858	-656
878.865	-597
878.941	218
878.972	-33
879.023	-603
879.078	-809
879.105	-732
879.185	-269
879.187	-265
879.269	-513
879.292	-444
879.351	-229
879.399	-678
879.433	-1053
879.506	-629
879.516	-556
879.598	-418
879.613	-412
879.680	-294
879.720	-126
879.762	38
879.827	-298
879.844	-452
879.926	-707
879.933	-718
880.007	-392
880.040	49
880.089	434
880.147	-6
880.171	13
880.253	1890
880.254	1898
880.335	2725
880.360	2979
880.417	4419
880.467	7596
880.499	9404
880.574	10555
880.580	10448
880.662	3372
880.680	2559
880.744	460
880.787	-311
880.825	-604
880.893	-201
880.907	-149
880.989	-360
881.000	-379
881.070	-167
881.106	-324
881.152	-810
881.213	-786
881.233	-653
881.315	-374
881.319	-372
881.396	-612
881.426	-545
881.478	-276
881.532	-20
881.559	54
881.639	-391
881.641	-403
881.722	-264
881.745	-318
881.803	-85
881.852	-159
881.885	-359
881.958	-500
881.966	-494
882.047	-95
882.064	-131
882.129	-217
882.171	0
882.210	14
882.277	-34
882.291	13
882.372	-196
882.383	-225
882.454	-597
882.489	-666
882.535	-519
882.596	-425
882.616	-412
882.697	-50
882.702	-47
882.778	-94
882.808	-127
882.859	-491
882.914	-738
882.940	-526
883.020	-101
883.021	-101
883.102	-328
883.127	-516
883.183	-449
883.233	-301
883.264	-387
883.339	54
883.345	90
883.426	-463
883.445	-541
883.507	-509
883.551	-318
883.587	-330
883.657	-185
883.668	-111
883.749	199
883.763	189
883.830	58
883.869	-142
883.910	-653
883.975	-870
883.991	-745
884.072	-423
884.081	-381
884.152	-477
884.187	-748
884.233	-869
884.292	-505
884.314	-542
884.394	-820
884.398	-840
884.475	-423
884.504	-352
884.555	-483
884.610	-446
884.636	-455
884.716	-792
884.716	-791
884.797	-833
884.821	-884
884.877	-324
884.927	145
884.958	-83
885.033	-1188
885.038	-1198
885.118	-313
885.139	-238
885.199	-321
885.244	-473
885.279	-352
885.350	-253
885.359	-294
885.439	-118
885.456	-188
885.520	-19
885.561	147
885.600	-22
885.667	-56
885.680	80
885.760	486
885.773	595
885.840	441
885.878	259
885.920	187
885.984	-25
886.000	-67
886.080	-115
886.089	-152
886.160	1
886.195	144
886.240	-327
886.300	-964
886.320	-858
886.400	-125
886.406	-90
886.480	-762
886.511	-1216
886.560	-846
886.616	-98
886.640	-42
886.720	-65
886.722	-69
886.800	-230
886.827	-242
886.879	-557
886.932	-1081
886.959	-710
887.038	598
887.039	593
887.119	-447
887.143	-749
887.198	-176
887.248	348
887.278	241
887.354	1
887.358	6
887.437	55
887.459	-0
887.517	50
887.564	170
887.596	213
887.669	270
887.676	209
887.755	-499
887.774	-709
887.835	-459
887.880	-177
887.914	-124
887.985	-168
887.994	-153
888.073	-73
888.090	-25
888.153	373
888.195	575
888.232	404
888.300	152
888.311	103
888.391	-414
888.405	-504
888.470	-854
888.510	-1065
888.549	-574
888.615	255
888.628	188
888.708	-146
888.720	-216
888.787	-431
888.825	-573
888.866	-328
888.930	48
888.945	44
889.024	79
889.035	81
889.103	388
889.140	502
889.182	393
889.245	278
889.261	253
889.340	97
889.349	80
889.419	-365
889.454	-610
889.498	-78
889.559	677
889.577	493
889.656	-319
889.664	-396
889.735	120
889.768	368
889.814	45
889.873	-379
889.978	118
890.083	-315
890.187	310
890.292	105
890.397	552
890.501	-29
890.606	225
890.710	476
890.815	233
890.919	-600
891.024	659
891.128	309
891.233	557
891.337	-918
891.442	476
891.546	-457
891.650	242
891.755	-629
891.859	1457
891.963	-436
892.068	728
892.172	-6
892.276	157
892.380	-332
892.484	298
892.589	-301
892.693	-170
892.797	-283
892.901	667
893.005	-708
893.109	29
893.213	-203
893.317	926
893.421	-658
893.525	-464
893.629	-321
893.733	594
893.837	150
893.941	-189
894.045	7
894.148	277
894.252	-290
894.356	-130
894.460	-231
894.564	706
894.667	-1194
894.771	309
894.875	-504
894.978	409
895.082	-223
895.186	1051
895.289	-246
895.393	13
895.496	-198
895.600	-789
895.703	-707
895.807	-24
895.910	-387
896.014	19
896.117	-570
896.221	307
896.324	-845
896.427	82
896.531	-275
896.634	-118
896.737	-124
896.840	641
896.944	-590
897.047	-407
897.150	-662
897.253	524
897.356	276
897.460	182
897.563	-589
897.666	-365
897.769	-507
897.872	-546
897.975	-854
898.078	361
898.181	-396
898.284	-237
898.387	-66
898.490	-1
898.593	-882
898.695	381
898.798	76
898.901	572
899.004	-426
899.107	491
899.209	-184
899.312	-58
899.415	-127
899.518	-901
899.620	-805
899.723	431
899.826	23
899.928	618
900.031	-397
900.133	2
900.236	-499
900.338	-147
900.441	-358
900.543	190
900.646	-701
900.748	-928
900.851	-263
900.953	-246
901.055	-431
901.158	-435
901.260	-685
901.362	72
901.465	-200
901.567	-11
901.669	-320
901.771	216
901.873	-17
901.976	1019
902.078	-1304
902.180	364
902.282	-1558
902.384	-676
902.486	383
902.588	-377
902.690	-264
902.792	46
902.894	-572
902.996	259
903.098	-497
903.200	-836
903.302	-1271
903.404	-29
903.505	-1203
903.607	202
903.709	-235
903.811	-463
903.913	-298
904.014	-473
904.116	-974
904.218	432
904.319	-282
904.421	136
904.523	-127
904.624	105
904.726	-1089
904.827	-382
904.929	-654
905.030	-338
905.132	197
905.233	-40
905.335	-775
905.436	-41
905.537	-908
905.639	-525
905.740	-679
905.841	2
905.943	-152
906.044	105
906.145	-482
906.247	355
906.348	-335
906.449	-297
906.550	-35
906.651	61
906.752	-767
906.854	-728
906.955	-1459
907.056	-122
907.157	-269
907.258	730
907.359	-471
907.460	51
907.561	-929
907.662	-721
907.762	-210
907.863	-211
907.964	-998
908.065	555
908.166	-751
908.267	95
908.367	-1066
908.468	482
908.569	-182
908.670	474
908.770	-476
908.871	281
908.971	-772
909.072	156
909.173	-1280
909.273	276
909.374	-803
909.474	36
909.575	-497
909.675	-245
909.776	-27
909.876	107
909.977	-337
910.077	123
910.177	-1001
910.278	-598
910.378	-872
910.478	-252
910.579	-833
910.679	-90
910.779	-373
910.879	77
910.980	-1162
911.080	-666
911.180	-272
911.280	-377
911.380	-625
911.480	277
911.580	-1063
911.680	-277
911.780	-847
911.880	143
911.980	-1365
912.080	-777
912.180	-452
912.280	305
912.380	-438
912.480	-132
912.580	-485
912.679	-150
912.779	111
912.879	153
912.979	-807
913.078	-713
913.178	-960
913.278	-346
913.377	-1393
913.477	140
913.577	-1217
913.676	366
913.776	-886
913.875	107
913.975	-352
914.074	-81
914.174	-414
914.273	-691
914.373	-35
914.472	-167
914.572	-1315
914.671	-417
914.770	-1210
914.870	-379
914.969	-619
915.068	365
915.167	-395
915.267	-679
915.366	-1265
915.465	-356
915.564	-1962
915.663	-899
915.763	-863
915.862	-148
915.961	-298
916.060	-651
916.159	-1026
916.258	-680
916.357	-321
916.456	582
916.555	-764
916.654	-804
916.752	44
916.851	135
916.950	-891
917.049	-113
917.148	-858
917.247	108
917.345	-662
917.444	-143
917.543	-404
917.642	552
917.740	-889
917.839	-169
917.937	-147
918.036	-61
918.135	-551
918.233	49
918.332	-1084
918.430	-323
918.529	-950
918.627	-627
918.726	-718
918.824	-474
918.923	-134
919.021	-18
919.119	-503
919.218	-206
919.316	-459
919.414	-390
919.512	-1165
919.611	-50
919.709	6
919.807	93
919.905	-860
920.003	-280
920.102	-987
920.200	-13
920.298	-852
920.396	-1243
920.494	-311
920.592	-861
920.690	-477
920.788	-410
920.886	-853
920.984	-139
921.082	-1001
921.180	705
921.277	-377
921.375	-639
921.473	-705
921.571	-634
921.669	-483
921.766	-792
921.864	-678
921.962	-357
922.060	-458
922.157	395
922.255	-1188
922.352	-130
922.450	-64
922.548	243
922.645	-744
922.743	-742
922.840	-758
922.938	12
923.035	-266
923.133	-233
923.230	-667
923.327	-253
923.425	90
923.522	1103
923.619	-938
923.717	238
923.814	-812
923.911	36
924.008	112
924.106	297
924.203	454
924.300	134
924.397	-653
924.494	385
924.591	-251
924.688	-12
924.786	-624
924.883	1
924.979	-657
925.077	575
925.173	606
925.270	126
925.367	-29
925.464	6
925.561	55
925.658	1075
925.755	-365
925.852	-35
925.948	115
926.045	883
926.142	-82
926.239	1656
926.335	-220
926.432	777
926.529	500
926.625	926
926.722	-541
926.818	-356
926.915	85
927.011	225
927.108	-481
927.204	-248
927.301	-409
927.397	-174
927.494	170
927.590	-79
927.687	-639
927.783	351
927.879	-1109
927.976	75
928.072	-700
928.168	-43
928.264	-261
928.361	-908
928.457	149
928.553	384
928.649	-872
928.745	-55
928.841	-878
928.937	467
929.033	17
929.129	-365
929.225	-1447
929.321	-86
929.417	-108
929.513	-120
929.609	-1284
929.705	399
929.801	-565
929.897	-188
929.993	-1402
930.089	-19
930.184	-829
930.280	271
930.376	544
930.471	-643
930.567	-696
930.663	18
930.758	-528
930.854	-867
930.950	-710
931.045	62
931.141	-650
931.236	710
931.332	-860
931.427	-458
931.523	-537
931.618	528
931.714	-1042
931.809	544
931.905	-503
932.000	-629
932.095	-485
932.191	401
932.286	-1643
932.381	-558
932.476	-995
932.572	-251
932.667	-847
932.762	-1271
932.857	-1381
932.952	-296
933.047	-464
933.142	-485
933.237	-497
933.332	-439
933.427	170
933.522	-753
933.617	-641
933.712	-187
933.807	-142
933.902	-170
933.997	-841
934.092	-470
934.187	-307
934.282	-973
934.376	-898
934.471	-184
934.566	-1208
934.661	-989
934.755	-37
934.850	-257
934.945	-1204
935.039	-708
935.134	-345
935.228	-215
935.323	-695
935.417	-634
935.512	-647
935.606	-633
935.701	-1154
935.795	-246
935.890	-1427
935.984	-550
936.079	-1000
936.173	-521
936.267	-619
936.362	-737
936.456	-54
936.550	-298
936.644	-1069
936.738	-718
936.833	-803
936.927	-142
937.021	589
937.115	-614
937.209	-1302
937.303	914
937.397	-613
937.491	-558
937.585	-1228
937.679	-509
937.773	-1002
937.867	-104
937.961	-1344
938.055	107
938.149	-392
938.243	-469
938.337	-885
938.430	-466
938.524	7
938.618	1320
938.712	378
938.805	95
938.899	-595
938.993	-262
939.086	-99
939.180	1974
939.274	1040
939.367	-94
939.461	-603
939.554	-837
939.648	-192
939.741	-395
939.835	486
939.928	-297
940.022	-931
940.115	-566
940.208	-1096
940.302	-154
940.395	-1260
940.488	-1391
940.582	-42
940.675	-276
940.768	-348
940.861	-501
940.954	-583
941.048	-181
941.141	-1022
941.234	-1690
941.327	-162
941.420	968
941.513	-721
941.606	-50
941.699	-110
941.792	-475
941.885	-645
941.978	-232
942.071	-1552
942.164	-951
942.257	-979
942.349	-942
942.442	-774
942.535	-972
942.628	-534
942.721	-503
942.813	-1545
942.906	618
942.999	-629
943.091	-652
943.184	-1399
943.277	-350
943.369	-631
943.462	-57
943.554	-1467
943.647	-1133
943.739	-1102
943.832	-267
943.924	-1333
944.017	-143
944.109	-1435
944.201	-509
944.294	-1233
944.386	-1153
944.478	-873
944.571	-1170
944.663	-698
944.755	-358
944.847	-379
944.940	-957
945.032	-1036
945.124	-176
945.216	7
945.308	-750
945.400	-261
945.492	-1121
945.584	-925
945.676	-793
945.768	-1133
945.860	47
945.952	-954
946.044	140
946.136	-1144
946.228	-545
946.320	-776
946.412	-767
946.503	-1106
946.595	628
946.687	-749
946.779	-1206
946.870	-915
946.962	-944
947.054	-514
947.145	172
947.237	-472
947.329	-1079
947.420	-1613
947.512	41
947.603	-695
947.695	261
947.786	-1396
947.878	-873
947.969	-1341
948.061	-656
948.152	-1515
948.243	-220
948.335	-178
948.426	-912
948.517	-1241
948.609	-797
948.700	-1170
948.791	-1055
948.882	-973
948.973	-584
949.065	-794
949.156	-102
949.247	-2148
949.338	-184
949.429	-1765
949.520	-76
949.611	-1638
949.702	49
949.793	-631
949.884	109
949.975	-1398
950.066	-491
950.157	-628
950.247	240
950.338	-808
950.429	-808
950.520	45
950.611	-274
950.701	-866
950.792	-911
950.883	-722
950.973	-611
951.064	-1091
951.155	-128
951.245	-1930
951.336	-763
951.427	-2525
951.517	-421
951.608	-602
951.698	-991
951.788	-341
951.879	-1362
951.969	-1133
952.060	-541
952.150	-1101
952.240	-855
952.331	-1105
952.421	279
952.511	-1179
952.602	-683
952.692	-1404
952.782	-893
952.872	-968
952.962	-1694
953.052	-1026
953.143	-993
953.233	-549
953.323	-17
953.413	-1889
953.503	-636
953.593	-403
953.683	-631
953.773	-1606
953.863	-1409
953.953	-870
954.042	-501
954.132	-1813
954.222	-665
954.312	-836
954.402	-791
954.492	-688
954.581	85
954.671	-1527
954.761	-943
954.850	199
954.940	-1265
955.030	-1143
955.119	-766
955.209	-1413
955.298	-950
955.388	-1668
955.477	168
955.567	-1674
955.656	83
955.746	-916
955.835	-1031
955.925	-2179
956.014	-858
956.103	-2094
956.193	-534
956.282	-821
956.371	-965
956.461	-1655
956.550	-1652
956.639	-1008
956.728	-486
956.817	-592
956.906	-717
956.995	-316
957.085	-1466
957.174	-1502
957.263	-534
957.352	-2032
957.441	-774
957.530	-954
957.619	22
957.708	-1152
957.796	-416
957.885	-564
957.974	-841
958.063	-1129
958.152	-1666
958.241	-643
958.329	-406
958.418	-795
958.507	-1516
958.596	-535
958.684	-882
958.773	-92
958.861	-284
958.950	-348
959.039	-643
959.127	-931
959.216	-259
959.304	-892
959.393	-1011
959.481	-1212
959.570	-161
959.658	-1258
959.746	-267
959.835	-384
959.923	296
960.011	-1737
960.100	-501
960.188	-998
960.276	-982
960.365	-1525
960.453	-258
960.541	-1507
960.629	-492
960.717	-418
960.805	-1532
960.893	-1042
960.981	-1790
961.069	-457
961.158	-1434
961.245	-327
961.333	-435
961.421	-2257
961.509	-648
961.597	-293
961.685	-1606
961.773	-721
961.861	-689
961.949	-1262
962.036	-1484
962.124	-448
962.212	-1388
962.299	-2180
962.387	-1639
962.475	-729
962.562	-862
962.650	-390
962.738	-1324
962.825	-1864
962.913	-573
963.000	-1319
963.088	-699
963.175	-1491
963.263	-1183
963.350	-1381
963.438	-1384
963.525	-1524
963.612	998
963.700	43
963.787	3823
963.874	420
963.962	-1034
964.049	-589
964.136	-687
964.223	-1278
964.310	-1166
964.398	-915
964.485	-1067
964.572	-493
964.659	-626
964.746	-814
964.833	-462
964.920	-979
965.007	-640
965.094	-544
965.181	-1525
965.268	-534
965.355	-566
965.441	-1075
965.528	-1338
965.615	-359
965.702	-1274
965.789	-2034
965.875	-800
965.962	-996
966.049	-1074
966.136	-1058
966.222	-538
966.309	-888
966.395	-1060
966.482	-861
966.569	-840
966.655	-1273
966.742	-1312
966.828	-535
966.915	-1395
967.001	-836
967.087	-1813
967.174	-1992
967.260	-637
967.347	-372
967.433	629
967.519	2271
967.605	-620
967.692	-1772
967.778	-904
967.864	-1212
967.950	-1251
968.036	-1366
968.123	67
968.209	-1300
968.295	-2195
968.381	-143
968.467	-213
968.553	-2459
968.639	-364
968.725	-1271
968.811	-323
968.897	-784
968.983	-1345
969.069	-1801
969.154	538
969.240	-1079
969.326	-1498
969.412	-2328
969.497	-887
969.583	-1665
969.669	708
969.755	-1758
969.840	-1484
969.926	-1386
970.012	-940
970.097	-351
970.183	-704
970.268	-1434
970.354	-642
970.439	-1124
970.525	1098
970.610	-1722
970.696	-383
970.781	-1492
970.866	-1453
970.952	-362
971.037	-2393
971.122	-1340
971.208	-882
971.293	-738
971.378	-1673
971.463	-1433
971.549	-889
971.634	-2165
971.719	-348
971.804	-920
971.889	-571
971.974	-1817
972.059	-785
972.144	-1172
972.229	-398
972.314	-1142
972.399	-427
972.484	-1870
972.569	-180
972.654	-2008
972.739	302
972.824	-1239
972.908	-1698
972.993	-1885
973.078	-285
973.163	-1633
973.247	-652
973.332	-2373
973.417	634
973.501	-2206
973.586	-356
973.671	-1077
973.755	-443
973.840	-1283
973.924	-266
974.009	-1147
974.093	-1756
974.178	423
974.262	-340
974.346	-1346
974.431	-437
974.515	-1627
974.600	-1225
974.684	-1401
974.768	-1319
974.852	-359
974.937	-1431
975.021	-441
975.105	-974
975.189	-1390
975.273	-286
975.358	-1840
975.442	-1006
975.526	-563
975.610	-1268
975.694	-2275
975.778	-456
975.862	-972
975.946	-2420
976.030	-489
976.114	-688
976.198	-1272
976.281	-1647
976.365	-895
976.449	-1674
976.533	-850
976.617	-1353
976.700	-1542
976.784	-1705
976.868	-1844
976.951	-1444
977.035	-1491
977.119	-1144
977.202	-1434
977.286	-857
977.369	-1103
977.453	-415
977.536	-1161
977.620	-1768
977.703	-1516
977.787	-932
977.870	69
977.953	223
978.037	-1748
978.120	653
978.203	-2189
978.287	-433
978.370	-1339
978.453	-1363
978.536	-2106
978.620	-318
978.703	-693
978.786	-1619
978.869	-1402
978.952	-1225
979.035	12
979.118	-205
979.201	-2051
979.284	-604
979.367	-942
979.450	-620
979.533	-1585
979.616	-880
979.699	-1295
979.782	-138
979.865	-1618
979.948	-685
980.030	-1706
980.113	-832
980.196	-1994
980.279	-819
980.361	-2097
980.444	-1430
980.526	-1210
980.609	-1564
980.692	-1824
980.774	-901
980.857	-2759
980.939	-550
981.022	-1444
981.104	-1741
981.187	-2293
981.269	-64
981.352	-1005
981.434	-1925
981.516	-1969
981.599	-146
981.681	-1854
981.763	-937
981.846	-2220
981.928	-565
982.010	-1821
982.092	-1612
982.174	-69
982.256	-1753
982.339	-1641
982.421	-1816
982.503	-1336
982.585	-1792
982.667	-1107
982.749	-1085
982.831	-1611
982.913	-2081
982.995	-1155
983.077	-1709
983.158	-1228
983.240	-1751
983.322	-1611
983.404	-648
983.486	-2399
983.568	-271
983.649	-1312
983.731	-1306
983.813	-2552
983.894	-1223
983.976	-2230
984.058	-1563
984.139	-547
984.221	-2032
984.302	-797
984.384	-724
984.465	-2129
984.547	-1592
984.628	-2315
984.710	-781
984.791	-1074
984.872	-1015
984.954	-1653
985.035	119
985.116	-2090
985.198	-455
985.279	-756
985.360	-1419
985.441	-1914
985.522	-888
985.604	-2189
985.685	-2948
985.766	-272
985.847	204
985.928	-2998
986.009	-931
986.090	-2664
986.171	-676
986.252	-1873
986.333	-1016
986.414	-1995
986.495	-797
986.576	-1856
986.656	-1121
986.737	-1158
986.818	-1728
986.899	-1657
986.980	-1889
987.060	-1485
987.141	-2376
987.222	-1207
987.302	-289
987.383	-1130
987.464	-943
987.544	-200
987.625	-594
987.705	-1488
987.786	-1366
987.866	-1048
987.947	-1849
988.027	-1786
988.108	-1825
988.188	-2177
988.268	-1133
988.349	-1608
988.429	-1701
988.509	-963
988.589	-1665
988.670	-2652
988.750	-182
988.830	-2209
988.910	-1240
988.990	-1644
989.070	-1315
989.151	-2208
989.231	-1563
989.311	-287
989.391	-797
989.471	-1693
989.551	-1343
989.631	-1672
989.711	-396
989.791	-2024
989.870	-1444
989.950	-280
990.030	-1786
990.110	-1865
990.190	-1269
990.269	-1912
990.349	-1540
990.429	-1183
990.509	-850
990.588	-2270
990.668	-671
990.747	-1770
990.827	-1427
990.907	-874
990.986	-1872
991.066	-2276
991.145	-1754
991.225	-984
991.304	-1383
991.383	-1213
991.463	-1850
991.542	-937
991.622	-2237
991.701	-2260
991.780	-1471
991.859	-2199
991.939	-1404
992.018	-1066
992.097	-654
992.176	-2156
992.256	-1341
992.335	-2000
992.414	-297
992.493	-1696
992.572	-1696
992.651	-837
992.730	-1431
992.809	-1295
992.888	-1781
992.967	-2170
993.046	-1022
993.125	-3241
993.203	-1477
993.282	-1756
993.361	-1107
993.440	-1340
993.519	-1245
993.597	-1448
993.676	-1145
993.755	-463
993.834	-1052
993.912	-2804
993.991	-830
994.069	-2252
994.148	-902
994.226	-2129
994.305	-441
994.384	-1810
994.462	-460
994.540	-2359
994.619	-1011
994.697	-1011
994.776	-1362
994.854	-1324
994.932	-1060
995.011	-2034
995.089	-1435
995.167	-1337
995.245	-600
995.324	-1903
995.402	62
995.480	-1960
995.558	-877
995.636	-2179
995.714	-1378
995.792	-998
995.870	-1109
995.948	-1779
996.026	-904
996.104	-3032
996.182	-470
996.260	-2706
996.338	-936
996.416	-2803
996.494	-1996
996.572	-1195
996.649	-1450
996.727	-2300
996.805	-630
996.883	-2055
996.960	-2155
997.038	-876
997.116	-1228
997.193	-1610
997.271	-1217
997.348	-1711
997.426	-977
997.504	-1863
997.581	-709
997.658	-1899
997.736	-2115
997.813	-1967
997.891	-640
997.968	-2780
998.046	-879
998.123	-2129
998.200	-639
998.277	-3171
998.355	-1524
998.432	-2846
998.509	-1438
998.586	-1363
998.663	-1546
998.741	-1576
998.818	-1916
998.895	-1749
998.972	-228
999.049	-2423
999.126	-1418
999.203	-1226
999.280	-1977
999.357	-1682
999.434	-867
999.511	-1130
999.587	-630
999.664	-2079
999.741	-1427
999.818	-1787
999.895	-1360
999.971	-2946
1000.048	-1330
1000.125	-957
1000.202	-1832
1000.278	-2411
1000.355	-1285
1000.431	-1340
1000.508	-1912
1000.584	-1727
1000.661	-793
1000.738	-2443
1000.814	-1622
1000.890	-1426
1000.967	-1125
1001.043	-2160
1001.120	-2392
1001.196	-1701
1001.272	-1885
1001.349	-2518
1001.425	-1416
1001.501	-1317
1001.577	-1990
1001.654	-1817
1001.730	-2156
1001.806	-2321
1001.882	-1767
1001.958	-2377
1002.034	-733
1002.110	-1022
1002.186	-2062
1002.262	-2298
1002.338	-1790
1002.414	-2027
1002.490	-1122
1002.566	-2101
1002.642	-1557
1002.718	-1278
1002.794	-2049
1002.870	-2358
1002.945	-1132
1003.021	-1296
1003.097	-766
1003.173	-1182
1003.248	-1503
1003.324	-1887
1003.400	-1488
1003.475	-1677
1003.551	-1237
1003.626	-2173
1003.702	-2385
1003.777	-1049
1003.853	-1378
1003.928	-2833
1004.004	-899
1004.079	-1479
1004.155	-1183
1004.230	-2999
1004.305	-617
1004.381	-2184
1004.456	-1427
1004.531	-1181
1004.607	-1179
1004.682	-2037
1004.757	-1345
1004.832	-2460
1004.907	-1260
1004.982	-1521
1005.057	-1539
1005.133	-1728
1005.208	-807
1005.283	-2353
1005.358	17
1005.433	-1798
1005.508	-444
1005.583	-2522
1005.657	-2017
1005.732	-929
1005.807	-1857
1005.882	-1628
1005.957	-1705
1006.032	-1923
1006.106	-1109
1006.181	-1832
1006.256	-924
1006.331	-2930
1006.405	-1683
1006.480	-1977
1006.554	-1962
1006.629	-1562
1006.704	-1616
1006.778	-1680
1006.853	-1519
1006.927	-2082
1007.002	-1428
1007.076	-1739
1007.150	-2002
1007.225	-1941
1007.299	-1590
1007.373	-2375
1007.448	-1974
1007.522	-929
1007.596	-997
1007.671	-2214
1007.745	-916
1007.819	-2395
1007.893	-1672
1007.967	-1737
1008.041	-1904
1008.115	-1663
1008.190	-1213
1008.264	-407
1008.338	-3336
1008.412	-2092
1008.486	-1404
1008.560	-1700
1008.633	-1621
1008.707	-2552
1008.781	-1195
1008.855	-2475
1008.929	-1648
1009.003	-1999
1009.076	-1512
1009.150	-2215
1009.224	-1455
1009.298	-2858
1009.371	-1922
1009.445	-1092
1009.519	-1345
1009.592	-2273
1009.666	-2296
1009.739	-2427
1009.813	-2899
1009.886	-1177
1009.960	-2622
1010.033	-2081
1010.107	-1222
1010.180	-2006
1010.253	-1570
1010.327	-1974
1010.400	-874
1010.473	-1916
1010.547	537
1010.620	-1258
1010.693	-1038
1010.766	-2707
1010.840	-1669
1010.913	-1972
1010.986	-1472
1011.059	-2233
1011.132	-1796
1011.205	-637
1011.278	-1397
1011.351	-1648
1011.424	-643
1011.497	-1685
1011.570	-1344
1011.643	-1848
1011.716	-1822
1011.789	-2338
1011.862	-1594
1011.934	-1856
1012.007	-2289
1012.080	-1618
1012.153	-1978
1012.225	-1172
1012.298	-1819
1012.371	-1944
1012.443	-1652
1012.516	-2054
1012.588	-1302
1012.661	-2440
1012.733	-1657
1012.806	-1247
1012.879	-1605
1012.951	-1642
1013.023	-2711
1013.096	-1854
1013.168	-1743
1013.241	-1051
1013.313	-1372
1013.385	-2130
1013.458	-1391
1013.530	-1986
1013.602	-2650
1013.674	-1938
1013.746	-1519
1013.819	-2095
1013.891	-1104
1013.963	-1998
1014.035	-1993
1014.107	-1837
1014.179	-1981
1014.251	-2560
1014.323	-910
1014.395	-2045
1014.467	-1224
1014.539	-2503
1014.611	-2413
1014.683	-2039
1014.754	-1306
1014.826	-3366
1014.898	-1439
1014.970	-3203
1015.042	-1453
1015.113	-2086
1015.185	-1517
1015.257	-2797
1015.328	-704
1015.400	-2537
1015.471	-1823
1015.543	-3721
1015.615	-1247
1015.686	-2389
1015.757	-1750
1015.829	-1345
1015.901	-2128
1015.972	-1732
1016.043	-1259
1016.115	-1631
1016.186	-1011
1016.257	-2389
1016.328	-926
1016.400	-1269
1016.471	-1469
1016.542	-1959
1016.613	-1518
1016.685	-2023
1016.756	-927
1016.827	-2250
1016.898	-1607
1016.969	-1092
1017.040	-2143
1017.111	-2607
1017.182	-1755
1017.253	-2338
1017.324	-1656
1017.395	-2404
1017.466	-930
1017.537	-2374
1017.608	-1047
1017.678	-1859
1017.749	-1362
1017.820	-2286
1017.891	-2714
1017.961	-1786
1018.032	-1693
1018.103	-1957
1018.173	-2268
1018.244	-2504
1018.315	-2177
1018.385	-2518
1018.456	-1251
1018.526	-2061
1018.597	-2348
1018.667	-2054
1018.738	-1886
1018.808	-1745
1018.878	-2018
1018.949	-1883
1019.019	-1187
1019.089	-2184
1019.160	-1672
1019.230	-2645
1019.300	-1351
1019.371	-2609
1019.441	-1314
1019.511	-2068
1019.581	-2220
1019.651	-2419
1019.721	-2261
1019.791	-1755
1019.861	-1427
1019.931	-2166
1020.001	-1544
1020.071	-2434
1020.141	-1943
1020.211	-2201
1020.281	-1918
1020.351	-3023
1020.421	-1473
1020.491	-1315
1020.560	-1413
1020.630	-2166
1020.700	-1272
1020.770	-2154
1020.839	-1970
1020.909	-2397
1020.979	-1738
1021.048	-2019
1021.118	-2464
1021.187	-2225
1021.257	-2604
1021.326	-2081
1021.396	-1859
1021.465	-1767
1021.535	-1592
1021.604	-2857
1021.674	-2242
1021.743	-2661
1021.812	-1645
1021.882	-1860
1021.951	-1979
1022.020	-2119
1022.089	-2311
1022.159	-2659
1022.228	-1632
1022.297	-1933
1022.366	-2507
1022.435	-1943
1022.504	-1775
1022.573	-2133
1022.642	-1186
1022.711	-2693
1022.781	-1346
1022.849	-2399
1022.918	-1897
1022.987	-2531
1023.056	-1664
1023.125	-2294
1023.194	-1808
1023.263	-1221
1023.331	-1623
1023.400	-2528
1023.469	-1749
1023.538	-2974
1023.606	-1958
1023.675	-2122
1023.744	-1998
1023.812	-3080
1023.881	-519
1023.949	-2839
1024.018	-1873
1024.086	-2572
1024.155	-1594
1024.223	-2702
1024.292	-1042
1024.360	-2129
1024.429	-1207
1024.497	-2443
1024.565	-1158
1024.634	-2385
1024.702	-1212
1024.770	-2973
1024.838	-1880
1024.907	-1792
1024.975	-2059
1025.043	-2407
1025.111	-2811
1025.179	-2305
1025.247	-1831
1025.315	-2114
1025.383	-1770
1025.451	-2435
1025.519	-1754
1025.587	-2975
1025.655	-2044
1025.723	-3037
1025.791	-1655
1025.859	-2069
1025.927	-1344
1025.995	-2405
1026.062	-1214
1026.130	-2140
1026.198	-1662
1026.266	-2275
1026.333	-896
1026.401	-1662
1026.469	-2339
1026.536	-2211
1026.604	-1622
1026.671	-1884
1026.739	-1801
1026.806	-1847
1026.874	-1636
1026.941	-2176
1027.009	-1331
1027.076	-2677
1027.144	-568
1027.211	-2359
1027.278	-1977
1027.345	-1935
1027.413	-2160
1027.480	-2312
1027.547	-2122
1027.614	-2938
1027.682	-1218
1027.749	-2451
1027.816	-1375
1027.883	-3062
1027.950	-1277
1028.017	-2741
1028.084	-1667
1028.151	-3707
1028.218	-1989
1028.285	-1827
1028.352	-2481
1028.419	-2101
1028.486	-1957
1028.553	-2267
1028.619	-1445
1028.686	-1724
1028.753	-1271
1028.820	-2437
1028.886	-2150
1028.953	-1541
1029.020	-1814
1029.086	-2210
1029.153	-2011
1029.220	-2187
1029.286	-2066
1029.353	-2776
1029.419	-2331
1029.486	-2308
1029.552	-2016
1029.619	-2556
1029.685	-2003
1029.751	-2372
1029.818	-1441
1029.884	-2282
1029.951	-501
1030.017	-1932
1030.083	-1547
1030.149	-2487
1030.216	-2177
1030.282	-2066
1030.348	-1869
1030.414	-2138
1030.480	-476
1030.546	-2352
1030.612	-1133
1030.678	-2073
1030.744	-1029
1030.810	-3067
1030.876	-1349
1030.942	-1596
1031.008	-1277
1031.074	-1931
1031.140	-1122
1031.206	-2410
1031.272	-1824
1031.337	-2019
1031.403	-1576
1031.469	-1739
1031.534	-2004
1031.600	-1804
1031.666	-1748
1031.731	-2977
1031.797	-2257
1031.863	-1663
1031.928	-1291
1031.994	-2453
1032.059	-1356
1032.125	-2411
1032.190	-1880
1032.256	-2772
1032.321	-2059
1032.386	-2433
1032.452	-1275
1032.517	-1836
1032.582	-1459
1032.647	-1369
1032.713	-2148
1032.778	-2187
1032.843	-1993
1032.908	-2509
1032.974	-1126
1033.039	-1752
1033.104	-1730
1033.169	-2301
1033.234	-1364
1033.299	-1675
1033.364	-1777
1033.429	-1398
1033.494	-2198
1033.559	-1966
1033.624	-1214
1033.688	-1392
1033.753	-1843
1033.818	-2125
1033.883	-1982
1033.948	-1843
1034.013	-1165
1034.077	-1548
1034.142	-1227
1034.207	-2372
1034.271	-1227
1034.336	-1483
1034.400	-466
1034.465	-2013
1034.530	-1520
1034.594	-1843
1034.658	-1939
1034.723	-2073
1034.787	-1549
1034.852	-2096
1034.916	-1426
1034.981	-2999
1035.045	-1843
1035.109	-2004
1035.173	-558
1035.238	-2169
1035.302	-1157
1035.366	-2004
1035.430	-1689
1035.495	-2152
1035.559	-1137
1035.623	-2565
1035.687	-1460
1035.751	-2198
1035.815	-1993
1035.879	-1868
1035.943	-1348
1036.007	-2251
1036.071	-1695
1036.135	-2649
1036.198	-1875
1036.262	-2263
1036.326	-1294
1036.390	-1760
1036.454	-654
1036.517	-2238
1036.581	-2012
1036.645	-1656
1036.709	-566
1036.772	-2500
1036.836	-1699
1036.900	-2251
1036.963	-1960
1037.026	-2328
1037.090	-1255
1037.154	-2625
1037.217	-2109
1037.280	-1884
1037.344	-1647
1037.407	-3154
1037.471	-1098
1037.534	-1971
1037.597	-2031
1037.661	-2416
1037.724	-1276
1037.787	-2573
1037.850	-1026
1037.913	-1812
1037.977	-1605
1038.040	-2138
1038.103	-1497
1038.166	-2078
1038.229	-1496
1038.292	-2391
1038.355	-1715
1038.418	-2229
1038.481	-835
1038.544	-1725
1038.607	-1614
1038.670	-1715
1038.732	-1629
1038.795	-2265
1038.858	-1901
1038.921	-3160
1038.984	-1198
1039.046	-2244
1039.109	-1774
1039.172	-2120
1039.234	-1561
1039.297	-1392
1039.360	-1865
1039.422	-2322
1039.485	-834
1039.547	-2519
1039.610	-2291
1039.672	-1658
1039.734	-2194
1039.797	-2245
1039.859	-1767
1039.922	-2216
1039.984	-1142
1040.046	-2058
1040.109	-1783
1040.171	-1573
1040.233	-1345
1040.295	-2401
1040.358	-1130
1040.420	-2675
1040.482	-2551
1040.544	-2066
1040.606	-1682
1040.668	-2440
1040.730	-1718
1040.792	-1945
1040.854	-1347
1040.916	-1948
1040.978	-1174
1041.040	-1712
1041.102	-1432
1041.164	-2148
1041.225	-1436
1041.287	-2202
1041.349	-1868
1041.411	-2243
1041.472	-2478
1041.534	-2151
1041.596	-1462
1041.657	-2538
1041.719	-722
1041.781	-2070
1041.842	-2101
1041.904	-2096
1041.965	-1540
1042.027	-1883
1042.088	-1645
1042.150	-1841
1042.211	-1464
1042.272	-1844
1042.334	-1340
1042.395	-1469
1042.456	-2403
1042.518	-1742
1042.579	-1053
1042.640	-1968
1042.701	-2181
1042.763	-2437
1042.824	-1079
1042.885	-2825
1042.946	-1128
1043.007	-2024
1043.068	-2026
1043.129	-3070
1043.190	-1864
1043.251	-1556
1043.312	-2213
1043.373	-1908
1043.434	-1080
1043.495	-2173
1043.556	-1496
1043.616	-2277
1043.677	-1816
1043.738	-2069
1043.799	-1172
1043.859	-1800
1043.920	-1357
1043.981	-2035
1044.041	-1600
1044.102	-1476
1044.162	-902
1044.223	-2256
1044.284	-1712
1044.344	-2193
1044.405	-1136
1044.465	-1976
1044.525	-1615
1044.586	-2358
1044.646	-1708
1044.707	-1742
1044.767	-1821
1044.827	-2012
1044.887	-1337
1044.948	-1923
1045.008	-2142
1045.068	-2189
1045.128	-1830
1045.188	-1672
1045.249	-417
1045.309	-1327
1045.369	-861
1045.429	-2535
1045.489	-1598
1045.549	-1850
1045.609	-1749
1045.669	-2927
1045.729	-1759
1045.789	-2062
1045.848	-1495
1045.908	-1914
1045.968	-1397
1046.028	-2543
1046.088	-1190
1046.147	-1378
1046.207	-1522
1046.267	-1910
1046.326	-1203
1046.386	-1670
1046.446	-904
1046.505	-1432
1046.565	-41
1046.624	-503
1046.684	-16
1046.743	-1590
1046.803	-850
1046.862	-637
1046.922	0
