'Start Wavelength	183.907
'End Wavelength	1046.922
'Gate Delay	5.000
'Gate Width (ms)	1.050
'Laser Output Level	0.000
'X Position	0.000
'Y Position	0.000
'Z Position	0.000
'Grid Point Number	1.000
'Shot Number	100.000
183.907	39.000
183.977	-140.000
184.047	137
184.116	283
184.186	-32
184.256	-352
184.325	-188
184.395	-1427
184.465	1087
184.534	-531
184.604	-214
184.674	-132
184.743	-734
184.813	666
184.883	-238
184.952	595
185.022	-168
185.092	-650
185.161	-347
185.231	-165
185.301	-450
185.370	231
185.440	-761
185.509	-392
185.579	-452
185.649	-687
185.718	-265
185.788	886
185.857	40
185.927	-496
185.996	34
186.066	474
186.136	-936
186.205	-798
186.275	-544
186.344	-529
186.414	393
186.483	-30
186.553	719
186.622	-97
186.692	131
186.761	-398
186.831	483
186.900	-99
186.970	149
187.039	463
187.109	360
187.178	-309
187.248	-352
187.317	215
187.387	-774
187.456	-84
187.526	881
187.595	61
187.664	-419
187.734	-61
187.803	-507
187.873	170
187.942	308
188.012	571
188.081	-577
188.150	-535
188.220	-94
188.289	442
188.358	605
188.428	13
188.497	-250
188.567	33
188.636	-588
188.705	-255
188.775	350
188.844	-198
188.913	-152
188.983	129
189.052	239
189.121	-176
189.191	-188
189.260	363
189.329	565
189.399	-236
189.468	334
189.537	-349
189.606	-322
189.676	-86
189.745	-202
189.814	486
189.883	-493
189.953	-208
190.022	-97
190.091	1787
190.161	1542
190.230	550
190.299	468
190.368	109
190.437	740
190.507	-1164
190.576	-170
190.645	-147
190.714	-126
190.783	-201
190.853	180
190.922	467
190.991	44
191.060	99
191.129	-707
191.198	-47
191.268	208
191.337	-477
191.406	38
191.475	187
191.544	-346
191.613	-911
191.682	-187
191.752	-182
191.821	-138
191.890	50
191.959	87
192.028	-227
192.097	-116
192.166	96
192.235	189
192.304	704
192.373	-62
192.442	126
192.511	-154
192.580	266
192.650	21
192.719	-44
192.788	178
192.857	229
192.926	1200
192.995	920
193.064	112
193.133	786
193.202	1221
193.271	807
193.340	1514
193.409	1094
193.478	486
193.547	1112
193.615	1789
193.684	1660
193.753	497
193.822	-437
193.891	93
193.960	864
194.029	379
194.098	-89
194.167	298
194.236	689
194.305	125
194.374	673
194.443	-397
194.512	977
194.580	728
194.649	201
194.718	646
194.787	88
194.856	-253
194.925	566
194.994	158
195.062	599
195.131	568
195.200	375
195.269	686
195.338	-113
195.407	188
195.475	4
195.544	253
195.613	-353
195.682	149
195.751	943
195.819	251
195.888	-220
195.957	1239
196.026	923
196.094	496
196.163	947
196.232	602
196.301	111
196.369	453
196.438	33
196.507	173
196.576	429
196.644	645
196.713	52
196.782	-232
196.850	966
196.919	516
196.988	151
197.056	311
197.125	222
197.194	-112
197.262	83
197.331	489
197.400	332
197.468	881
197.537	119
197.606	-189
197.674	1109
197.743	1812
197.812	248
197.880	1367
197.949	1218
198.017	1881
198.086	529
198.155	405
198.223	580
198.292	2056
198.360	480
198.429	177
198.497	284
198.566	584
198.635	1399
198.703	1000
198.772	603
198.840	1794
198.909	1937
198.977	583
199.046	191
199.114	144
199.183	379
199.251	530
199.320	408
199.388	767
199.457	317
199.525	6
199.594	765
199.662	412
199.731	530
199.799	674
199.867	622
199.936	346
200.004	471
200.073	621
200.141	261
200.210	337
200.278	348
200.346	728
200.415	432
200.483	693
200.552	86
200.620	64
200.688	-107
200.757	348
200.825	23
200.893	931
200.962	126
201.030	831
201.098	229
201.167	794
201.235	613
201.303	-584
201.372	155
201.440	261
201.508	420
201.577	652
201.645	408
201.713	585
201.781	208
201.850	800
201.918	524
201.986	204
202.055	783
202.123	-317
202.191	481
202.259	167
202.327	-152
202.396	-7
202.464	759
202.532	1075
202.600	2157
202.669	1535
202.737	515
202.805	152
202.873	62
202.941	-137
203.009	221
203.078	590
203.146	506
203.214	318
203.282	-113
203.350	1031
203.418	902
203.487	741
203.555	192
203.623	936
203.691	566
203.759	-51
203.827	190
203.895	-53
203.963	81
204.031	-254
204.099	459
204.168	609
204.236	1209
204.304	594
204.372	880
204.440	911
204.508	-98
204.576	221
204.644	412
204.712	-196
204.780	166
204.848	486
204.916	315
204.984	-45
205.052	872
205.120	317
205.188	426
205.256	586
205.324	437
205.392	10
205.460	755
205.528	-105
205.596	811
205.664	-205
205.732	1096
205.799	2854
205.867	3774
205.935	289
206.003	1231
206.071	1084
206.139	-480
206.207	1301
206.275	764
206.343	61
206.411	330
206.478	1272
206.546	629
206.614	377
206.682	872
206.750	1043
206.818	905
206.885	1361
206.953	-174
207.021	1435
207.089	630
207.157	-159
207.225	468
207.292	-88
207.360	876
207.428	914
207.496	836
207.563	317
207.631	958
207.699	1321
207.767	709
207.834	356
207.902	1122
207.970	15
208.038	799
208.105	154
208.173	609
208.241	1707
208.309	1675
208.376	684
208.444	2078
208.512	915
208.579	2
208.647	676
208.715	1308
208.782	151
208.850	604
208.918	1077
208.985	1225
209.053	822
209.120	1441
209.188	1384
209.256	405
209.323	699
209.391	710
209.459	1413
209.526	1208
209.594	1331
209.661	537
209.729	809
209.796	1254
209.864	310
209.932	-34
209.999	1973
210.067	911
210.134	729
210.202	438
210.269	2258
210.337	1133
210.404	-200
210.472	989
210.539	1135
210.607	587
210.674	846
210.742	706
210.809	1405
210.877	841
210.944	1885
211.012	-66
211.079	2304
211.146	857
211.214	1770
211.281	1012
211.349	1324
211.416	1332
211.484	1674
211.551	934
211.618	818
211.686	568
211.753	738
211.821	1319
211.888	319
211.955	1034
212.023	1261
212.090	1778
212.157	1248
212.225	1530
212.292	2843
212.359	5078
212.427	10610
212.494	5430
212.561	2114
212.629	1079
212.696	1215
212.763	1443
212.831	732
212.898	1785
212.965	1075
213.032	1817
213.100	1353
213.167	749
213.234	1873
213.301	1328
213.369	942
213.436	811
213.503	1207
213.570	1830
213.638	999
213.705	926
213.772	968
213.839	1501
213.906	1795
213.973	1788
214.041	1083
214.108	1034
214.175	1656
214.242	1352
214.309	766
214.376	1135
214.444	933
214.511	436
214.578	1847
214.645	1197
214.712	1575
214.779	1916
214.846	1006
214.913	1601
214.980	2310
215.048	1925
215.115	1965
215.182	1472
215.249	1503
215.316	789
215.383	1194
215.450	795
215.517	1581
215.584	1598
215.651	677
215.718	1258
215.785	2223
215.852	830
215.919	1822
215.986	1103
216.053	509
216.120	1405
216.187	978
216.254	1660
216.321	1224
216.388	1243
216.455	1183
216.522	1530
216.589	1393
216.656	2509
216.722	3365
216.789	2399
216.856	1851
216.923	2441
216.990	2531
217.057	1331
217.124	2759
217.191	1888
217.258	2650
217.324	3708
217.391	3807
217.458	3205
217.525	2928
217.592	1970
217.659	1438
217.725	2800
217.792	2036
217.859	2400
217.926	748
217.993	1597
218.059	1739
218.126	675
218.193	642
218.260	1235
218.327	405
218.393	985
218.460	929
218.527	163
218.594	1283
218.660	1404
218.727	3512
218.794	854
218.860	1610
218.927	828
218.994	485
219.061	646
219.127	1486
219.194	1449
219.261	481
219.327	317
219.394	1599
219.461	-298
219.527	156
219.594	1642
219.661	1186
219.727	-97
219.794	1385
219.860	1348
219.927	1317
219.994	1345
220.060	3129
220.127	2678
220.193	1952
220.260	1762
220.326	3399
220.393	5169
220.460	6540
220.526	4831
220.593	2581
220.659	3975
220.726	3370
220.792	7092
220.859	6939
220.925	8520
220.992	10816
221.058	10340
221.125	9701
221.191	6308
221.258	3024
221.324	1497
221.391	1477
221.457	1227
221.524	2010
221.590	2248
221.657	6506
221.723	5472
221.789	4102
221.856	4696
221.922	2069
221.989	2181
222.055	1029
222.121	780
222.188	2730
222.254	1784
222.321	419
222.387	897
222.453	1049
222.520	34
222.586	-106
222.652	869
222.719	649
222.785	1229
222.851	444
222.918	672
222.984	434
223.050	-308
223.116	-880
223.183	1869
223.249	533
223.315	-147
223.382	386
223.448	702
223.514	-172
223.580	930
223.647	970
223.713	48
223.779	634
223.845	406
223.911	516
223.978	132
224.044	884
224.110	-201
224.176	968
224.242	300
224.309	-44
224.375	286
224.441	424
224.507	537
224.573	-473
224.639	908
224.705	234
224.772	848
224.838	-114
224.904	838
224.970	446
225.036	299
225.102	249
225.168	1033
225.234	955
225.300	981
225.366	715
225.432	699
225.499	349
225.565	900
225.631	285
225.697	1131
225.763	1606
225.829	2177
225.895	2019
225.961	2294
226.027	2030
226.093	1871
226.159	2834
226.225	4608
226.291	11675
226.357	18127
226.423	9405
226.489	4440
226.554	3428
226.620	3158
226.686	3297
226.752	5841
226.818	9819
226.884	22887
226.950	20489
227.016	8132
227.082	4513
227.148	2451
227.214	2571
227.279	1481
227.345	1371
227.411	1365
227.477	1572
227.543	2629
227.609	3185
227.674	1371
227.740	1079
227.806	1644
227.872	1436
227.938	614
228.003	714
228.069	260
228.135	1160
228.201	876
228.267	236
228.332	681
228.398	685
228.464	1602
228.530	-367
228.595	-21
228.661	-540
228.727	837
228.792	1909
228.858	359
228.924	-112
228.990	3097
229.055	449
229.121	1896
229.187	385
229.252	824
229.318	-98
229.384	1170
229.449	1153
229.515	-1261
229.581	-623
229.646	2325
229.712	987
229.777	2284
229.843	3256
229.909	1887
229.974	2437
230.040	1643
230.105	1161
230.171	959
230.236	1951
230.302	3112
230.368	3414
230.433	2117
230.499	1761
230.564	1357
230.630	1095
230.695	652
230.761	1715
230.826	-616
230.892	2810
230.957	226
231.023	352
231.088	1035
231.154	1509
231.219	2102
231.284	1748
231.350	2425
231.415	854
231.481	1732
231.546	171
231.612	1231
231.677	115
231.742	-140
231.808	1778
231.873	151
231.939	-1272
232.004	2304
232.069	2785
232.135	584
232.200	381
232.265	696
232.331	337
232.396	166
232.461	845
232.527	160
232.592	32
232.657	493
232.723	666
232.788	-161
232.853	1747
232.918	79
232.984	11
233.049	82
233.114	292
233.179	1174
233.245	1638
233.310	1851
233.375	-103
233.440	727
233.506	1767
233.571	1235
233.636	1006
233.701	774
233.766	1354
233.832	1374
233.897	-364
233.962	-556
234.027	1493
234.092	781
234.157	865
234.222	64
234.288	739
234.353	4104
234.418	3659
234.483	2948
234.548	1406
234.613	1106
234.678	1983
234.743	904
234.808	4926
234.873	2694
234.938	2623
235.004	1439
235.069	1922
235.134	930
235.199	814
235.264	1097
235.329	-823
235.394	947
235.459	1264
235.524	480
235.589	852
235.654	-72
235.719	-95
235.784	652
235.849	844
235.913	2268
235.978	2217
236.043	2588
236.108	1372
236.173	1349
236.238	1761
236.303	426
236.368	596
236.433	2428
236.498	3317
236.563	2928
236.627	7196
236.692	27416
236.757	26222
236.822	9062
236.887	4912
236.952	4956
237.017	3322
237.081	4977
237.146	4888
237.211	12311
237.276	27133
237.341	44174
237.405	21950
237.470	8013
237.535	5165
237.600	3545
237.664	2770
237.729	2367
237.794	2746
237.859	7528
237.923	4704
237.988	2521
238.053	2361
238.118	2216
238.182	6809
238.247	6849
238.312	2119
238.376	1901
238.441	-217
238.506	2018
238.570	-313
238.635	2108
238.700	965
238.764	649
238.829	2134
238.893	2913
238.958	2758
239.023	1718
239.087	776
239.152	2155
239.216	482
239.281	831
239.346	964
239.410	778
239.475	982
239.539	5359
239.604	4185
239.668	2851
239.733	1200
239.797	1385
239.862	3691
239.926	4762
239.991	2031
240.055	1412
240.120	1122
240.184	1075
240.249	325
240.313	811
240.378	244
240.442	2917
240.507	6122
240.571	1392
240.635	1581
240.700	1948
240.764	1258
240.829	409
240.893	-540
240.957	830
241.022	3080
241.086	4996
241.151	1076
241.215	-243
241.279	879
241.344	1467
241.408	1885
241.472	1200
241.537	2419
241.601	1851
241.665	126
241.730	1080
241.794	1560
241.858	1163
241.922	1688
241.987	1919
242.051	371
242.115	71
242.179	1273
242.244	841
242.308	959
242.372	883
242.436	446
242.501	1389
242.565	99
242.629	712
242.693	2360
242.757	284
242.822	973
242.886	1272
242.950	1997
243.014	91
243.078	1681
243.142	2106
243.206	594
243.271	1694
243.335	1385
243.399	3282
243.463	12881
243.527	38146
243.591	13721
243.655	3621
243.719	1615
243.783	3079
243.847	4368
243.911	5305
243.975	4755
244.040	2529
244.104	2930
244.168	1048
244.232	1672
244.296	3913
244.360	4784
244.424	1747
244.488	1736
244.552	1450
244.615	-874
244.679	1270
244.743	1608
244.807	325
244.871	1168
244.935	1286
244.999	-656
245.063	749
245.127	2630
245.191	3663
245.255	3758
245.319	2229
245.383	373
245.446	2338
245.510	142
245.574	1248
245.638	1354
245.702	496
245.766	4659
245.829	2922
245.893	1076
245.957	1425
246.021	2352
246.085	1337
246.149	1905
246.212	5644
246.276	10115
246.340	3149
246.404	2106
246.467	2888
246.531	2249
246.595	2954
246.659	2170
246.722	526
246.786	2271
246.850	2667
246.913	3294
246.977	768
247.041	1069
247.104	1583
247.168	2042
247.232	4347
247.295	12855
247.359	6579
247.423	1383
247.486	5168
247.550	3177
247.614	855
247.677	2183
247.741	2071
247.804	819
247.868	2180
247.932	3707
247.995	12267
248.059	3667
248.122	830
248.186	2784
248.249	4322
248.313	19199
248.376	22424
248.440	12577
248.503	3870
248.567	4415
248.630	3779
248.694	6605
248.757	9438
248.821	22795
248.884	13816
248.948	9259
249.011	16715
249.075	25028
249.138	22347
249.202	7767
249.265	3476
249.328	4655
249.392	3169
249.455	3440
249.519	2916
249.582	2972
249.645	5784
249.709	4808
249.772	2205
249.835	2992
249.899	2794
249.962	3326
250.025	2241
250.089	7272
250.152	11562
250.215	4769
250.279	3384
250.342	3278
250.405	3601
250.468	3683
250.532	3959
250.595	8323
250.658	31325
250.721	57889
250.785	21067
250.848	10453
250.911	5156
250.974	4610
251.038	5771
251.101	14095
251.164	6864
251.227	6829
251.290	6521
251.354	10914
251.417	45584
251.480	50151
251.543	33139
251.606	83515
251.669	69103
251.732	26923
251.795	20749
251.859	22526
251.922	52860
251.985	33327
252.048	11551
252.111	8263
252.174	6005
252.237	11987
252.300	27248
252.363	29958
252.426	69849
252.489	29752
252.552	11243
252.615	6349
252.678	7541
252.741	18527
252.804	29198
252.867	70785
252.930	40660
252.993	18548
253.056	10833
253.119	6277
253.182	3587
253.245	10244
253.308	7668
253.371	5691
253.434	4622
253.497	3854
253.559	11191
253.622	7653
253.685	7256
253.748	7006
253.811	3313
253.874	4379
253.937	3936
254.000	2837
254.062	6512
254.125	11785
254.188	8666
254.251	7297
254.314	2556
254.376	6073
254.439	7523
254.502	4684
254.565	7132
254.628	14462
254.690	6588
254.753	2951
254.816	1789
254.878	3269
254.941	7977
255.004	8738
255.067	2679
255.129	1642
255.192	1149
255.255	262
255.317	1889
255.380	1477
255.443	1008
255.505	-110
255.568	-692
255.631	810
255.693	1244
255.756	-234
255.819	1087
255.881	299
255.944	520
256.006	892
256.069	717
256.132	894
256.194	1470
256.257	3432
256.319	2739
256.382	1934
256.444	2429
256.507	2114
256.569	698
256.632	1196
256.694	2448
256.757	12631
256.819	47531
256.882	19586
256.944	6334
257.007	4523
257.069	2679
257.132	3151
257.194	2716
257.257	2164
257.319	1839
257.381	2220
257.444	9089
257.506	50047
257.569	58849
257.631	19658
257.693	9410
257.756	4641
257.818	3122
257.880	2120
257.943	2279
258.005	928
258.067	1317
258.130	838
258.192	724
258.254	3047
258.317	2676
258.379	2025
258.441	5784
258.503	6824
258.566	5410
258.628	7054
258.690	1775
258.753	2707
258.815	3420
258.877	2279
258.939	1226
259.001	1670
259.064	1618
259.126	1303
259.188	1461
259.250	1811
259.312	1311
259.375	3207
259.437	3180
259.499	1632
259.561	1731
259.623	929
259.685	971
259.747	1640
259.809	4606
259.872	9323
259.934	16676
259.996	14667
260.058	3448
260.120	1690
260.182	1225
260.244	719
260.306	542
260.368	1315
260.430	98
260.492	1596
260.554	2600
260.616	2112
260.678	7509
260.740	11109
260.802	2430
260.864	2778
260.926	13
260.988	1328
261.050	30
261.112	1186
261.174	7858
261.236	7771
261.298	2147
261.359	3494
261.421	5560
261.483	1095
261.545	1739
261.607	98
261.669	1005
261.731	2627
261.793	6344
261.854	1835
261.916	2164
261.978	79
262.040	1420
262.102	1308
262.164	1339
262.225	1330
262.287	529
262.349	3851
262.411	3423
262.472	1142
262.534	1283
262.596	4488
262.658	1922
262.719	405
262.781	1056
262.843	4697
262.904	2458
262.966	1511
263.028	1249
263.090	14491
263.151	48507
263.213	14967
263.275	5828
263.336	2140
263.398	2260
263.459	363
263.521	1123
263.583	4129
263.644	2708
263.706	101
263.767	136
263.829	940
263.891	121
263.952	-484
264.014	339
264.075	475
264.137	1237
264.198	1658
264.260	-482
264.321	38
264.383	2029
264.444	4796
264.506	503
264.567	751
264.629	914
264.690	-558
264.752	1026
264.813	1560
264.875	338
264.936	430
264.998	284
265.059	-293
265.120	1318
265.182	2305
265.243	21533
265.305	26733
265.366	4548
265.427	2791
265.489	2216
265.550	-264
265.611	774
265.673	438
265.734	224
265.795	1133
265.857	230
265.918	1061
265.979	5011
266.040	37856
266.102	36120
266.163	8579
266.224	3749
266.286	2145
266.347	1015
266.408	854
266.469	1109
266.530	220
266.592	613
266.653	2092
266.714	4344
266.775	1531
266.836	934
266.898	-61
266.959	756
267.020	-361
267.081	317
267.142	166
267.203	469
267.264	-54
267.326	1209
267.387	-285
267.448	264
267.509	919
267.570	510
267.631	590
267.692	-115
267.753	1464
267.814	-183
267.875	2118
267.936	7056
267.997	2652
268.058	2459
268.119	447
268.180	163
268.241	-446
268.302	350
268.363	86
268.424	175
268.485	-445
268.546	-843
268.607	-16
268.668	218
268.729	-403
268.790	463
268.851	735
268.912	2776
268.972	3661
269.033	1079
269.094	-37
269.155	198
269.216	-132
269.277	-377
269.338	-88
269.398	-116
269.459	778
269.520	1210
269.581	1780
269.642	2120
269.702	-14
269.763	730
269.824	420
269.885	814
269.945	1974
270.006	774
270.067	209
270.128	116
270.188	830
270.249	276
270.310	-431
270.370	-227
270.431	240
270.492	350
270.553	174
270.613	1617
270.674	5959
270.734	2123
270.795	220
270.856	1633
270.916	359
270.977	611
271.038	1419
271.098	239
271.159	2369
271.219	2075
271.280	737
271.340	601
271.401	544
271.462	2193
271.522	1235
271.583	360
271.643	482
271.704	-18
271.764	397
271.825	2982
271.885	17278
271.946	26522
272.006	7368
272.066	9260
272.127	21116
272.187	4841
272.248	2393
272.308	1698
272.369	13301
272.429	7149
272.489	3329
272.550	3703
272.610	3675
272.671	2067
272.731	2854
272.791	2981
272.852	1487
272.912	1823
272.972	738
273.033	514
273.093	1162
273.153	1687
273.214	1019
273.274	506
273.334	6843
273.394	19721
273.455	7423
273.515	5466
273.575	15308
273.635	5035
273.696	6189
273.756	19177
273.816	7448
273.876	2463
273.936	4689
273.997	8147
274.057	1636
274.117	1635
274.177	3491
274.237	20596
274.297	18540
274.358	7720
274.418	13792
274.478	11092
274.538	2534
274.598	997
274.658	5811
274.718	8407
274.778	2952
274.838	946
274.898	2558
274.958	11239
275.018	16782
275.078	12596
275.138	3332
275.198	891
275.258	299
275.318	662
275.378	3264
275.438	3217
275.498	2345
275.558	5115
275.618	15276
275.678	12292
275.738	5663
275.798	3965
275.858	1229
275.918	610
275.978	1514
276.038	1592
276.098	-266
276.157	2448
276.217	10528
276.277	4664
276.337	2551
276.397	1477
276.457	1112
276.517	550
276.576	432
276.636	-149
276.696	766
276.756	5153
276.815	3502
276.875	1614
276.935	196
276.995	1274
277.055	831
277.114	-130
277.174	1816
277.234	8496
277.293	3180
277.353	896
277.413	561
277.472	195
277.532	1721
277.592	1457
277.651	6732
277.711	16794
277.771	3943
277.830	17668
277.890	14746
277.950	9706
278.009	37891
278.069	12284
278.128	10952
278.188	15695
278.248	5410
278.307	17277
278.367	10926
278.426	1975
278.486	1523
278.545	334
278.605	1295
278.664	297
278.724	880
278.783	5600
278.843	21018
278.902	5927
278.962	2556
279.021	1732
279.081	2883
279.140	2197
279.199	2317
279.259	2202
279.318	3166
279.378	4305
279.437	5565
279.496	25319
279.556	82549
279.615	68190
279.675	16074
279.734	7956
279.793	10431
279.853	19499
279.912	7087
279.971	3051
280.031	2201
280.090	6288
280.149	13390
280.208	8524
280.268	51567
280.327	59265
280.386	11593
280.445	8578
280.505	7044
280.564	2440
280.623	1068
280.682	4179
280.742	8104
280.801	2216
280.860	925
280.919	214
280.978	980
281.037	732
281.097	428
281.156	1652
281.215	490
281.274	1031
281.333	11771
281.392	9240
281.451	2038
281.510	304
281.569	164
281.628	-204
281.688	664
281.747	320
281.806	728
281.865	668
281.924	-219
281.983	152
282.042	-491
282.101	83
282.160	397
282.219	-187
282.278	667
282.337	4760
282.396	3155
282.454	1189
282.513	1011
282.572	7222
282.631	3450
282.690	907
282.749	-202
282.808	762
282.867	413
282.926	1409
282.985	-231
283.043	-815
283.102	-259
283.161	935
283.220	2816
283.279	10789
283.338	2162
283.396	1015
283.455	1070
283.514	493
283.573	2283
283.631	1072
283.690	661
283.749	-101
283.808	2744
283.866	3368
283.925	1058
283.984	779
284.043	841
284.101	1475
284.160	245
284.219	1530
284.277	906
284.336	1713
284.395	11483
284.453	10895
284.512	2208
284.570	3251
284.629	2818
284.688	2662
284.746	3100
284.805	2906
284.863	4313
284.922	6575
284.981	7505
285.039	11001
285.098	19635
285.156	56676
285.215	145888
285.273	151324
285.332	74844
285.390	34022
285.449	18793
285.507	11466
285.566	8306
285.624	5367
285.683	4272
285.741	3626
285.799	2352
285.858	2441
285.916	1966
285.975	1595
286.033	522
286.091	1037
286.150	750
286.208	1154
286.267	1506
286.325	905
286.383	1851
286.442	1958
286.500	408
286.558	586
286.616	649
286.675	1365
286.733	1488
286.791	537
286.850	805
286.908	1559
286.966	4261
287.024	971
287.083	662
287.141	-342
287.199	675
287.257	646
287.315	848
287.374	1062
287.432	4490
287.490	2327
287.548	1224
287.606	608
287.664	1288
287.723	1277
287.781	1980
287.839	1080
287.897	2140
287.955	3022
288.013	4841
288.071	12877
288.129	64735
288.187	185224
288.245	90391
288.303	28923
288.361	14542
288.419	7482
288.477	4679
288.535	3837
288.593	2107
288.651	1730
288.709	657
288.767	710
288.825	49
288.883	551
288.941	44
288.999	-442
289.057	567
289.115	-179
289.173	-200
289.231	75
289.289	24
289.346	-114
289.404	598
289.462	1398
289.520	1857
289.578	233
289.636	1061
289.694	-208
289.751	-9
289.809	38
289.867	-238
289.925	862
289.983	987
290.040	-154
290.098	-652
290.156	-885
290.214	313
290.271	-564
290.329	-115
290.387	-606
290.444	-613
290.502	-823
290.560	-1188
290.617	-505
290.675	-110
290.733	-673
290.790	-200
290.848	182
290.906	-142
290.963	-78
291.021	-683
291.078	-370
291.136	-121
291.194	1908
291.251	6892
291.309	765
291.366	-1101
291.424	-113
291.481	-730
291.539	-507
291.596	-59
291.654	-582
291.711	54
291.769	-183
291.826	1065
291.884	577
291.941	390
291.999	-552
292.056	6
292.114	399
292.171	-142
292.228	-31
292.286	-388
292.343	1115
292.401	1246
292.458	-6
292.515	-111
292.573	179
292.630	-190
292.687	-118
292.745	-334
292.802	-851
292.859	1439
292.917	9467
292.974	4952
293.031	-141
293.089	-398
293.146	-276
293.203	-344
293.260	-468
293.318	-178
293.375	-918
293.432	-271
293.489	-1472
293.546	-638
293.604	-156
293.661	5074
293.718	21933
293.775	7505
293.832	2120
293.889	1039
293.947	1332
294.004	760
294.061	220
294.118	3266
294.175	6138
294.232	2478
294.289	1365
294.346	644
294.403	389
294.460	392
294.517	-783
294.574	-249
294.631	-57
294.688	-882
294.745	3947
294.802	18921
294.859	12284
294.916	3939
294.973	1980
295.030	1260
295.087	537
295.144	-111
295.201	304
295.258	-583
295.315	492
295.372	6809
295.429	18147
295.486	4601
295.542	1518
295.599	1065
295.656	2430
295.713	5524
295.770	13592
295.827	3921
295.883	800
295.940	996
295.997	2021
296.054	1797
296.111	405
296.167	441
296.224	-240
296.281	-1295
296.338	-361
296.394	-486
296.451	165
296.508	4369
296.564	9860
296.621	4570
296.678	16457
296.734	26408
296.791	6396
296.848	2435
296.904	2636
296.961	7075
297.018	16582
297.074	12024
297.131	3209
297.187	1739
297.244	3209
297.301	18106
297.357	37380
297.414	11405
297.470	3748
297.527	1291
297.583	685
297.640	417
297.696	-329
297.753	-995
297.809	-545
297.866	-930
297.922	545
297.979	-809
298.035	239
298.092	1377
298.148	9679
298.204	8252
298.261	2414
298.317	6043
298.374	22455
298.430	11784
298.486	2768
298.543	2286
298.599	1336
298.656	835
298.712	4575
298.768	19976
298.824	16013
298.881	3184
298.937	1369
298.993	913
299.050	1057
299.106	952
299.162	645
299.218	677
299.275	130
299.331	-15
299.387	2525
299.443	18978
299.500	19430
299.556	6713
299.612	2026
299.668	1405
299.724	2014
299.780	1340
299.837	-189
299.893	2492
299.949	13724
300.005	15383
300.061	12639
300.117	25816
300.173	11834
300.229	3627
300.285	3540
300.341	4224
300.397	1607
300.453	13
300.510	287
300.566	171
300.622	315
300.678	5169
300.734	10800
300.790	13725
300.845	19361
300.901	9024
300.957	13890
301.013	9669
301.069	2653
301.125	1301
301.181	1243
301.237	361
301.293	-124
301.349	397
301.405	-118
301.461	65
301.516	395
301.572	-29
301.628	1607
301.684	1008
301.740	2646
301.796	8075
301.851	4143
301.907	8409
301.963	6462
302.019	17137
302.074	58093
302.130	54411
302.186	20936
302.242	7785
302.297	4424
302.353	4354
302.409	9515
302.464	6315
302.520	4780
302.576	17731
302.631	20834
302.687	9072
302.743	3487
302.798	1510
302.854	1399
302.910	712
302.965	-312
303.021	3903
303.076	2120
303.132	4484
303.187	5650
303.243	1931
303.299	1369
303.354	694
303.410	576
303.465	475
303.521	496
303.576	339
303.632	-3
303.687	3940
303.743	17877
303.798	14831
303.853	4454
303.909	1217
303.964	1515
304.020	2187
304.075	3098
304.130	2978
304.186	6181
304.241	7469
304.297	5757
304.352	2283
304.358	2090
304.407	525
304.449	493
304.463	484
304.518	357
304.539	350
304.573	339
304.629	547
304.630	579
304.684	2101
304.720	8620
304.739	11880
304.794	20113
304.811	16387
304.850	7494
304.902	2992
304.905	2713
304.960	864
304.992	1312
305.015	1616
305.071	1707
305.083	1231
305.126	-448
305.173	-436
305.181	-441
305.236	-676
305.264	-357
305.292	-20
305.347	567
305.354	472
305.402	-50
305.445	1197
305.457	1551
305.512	2325
305.535	2415
305.567	2465
305.622	1094
305.626	1261
305.678	5275
305.716	14722
305.733	18088
305.788	18702
305.807	15596
305.843	10607
305.897	16112
305.898	16168
305.953	16793
305.988	10252
306.008	6687
306.063	2594
306.078	2260
306.118	1676
306.168	384
306.173	277
306.228	-52
306.259	-5
306.283	-10
306.338	-208
306.349	-46
306.393	714
306.440	980
306.448	999
306.503	425
306.530	387
306.558	645
306.613	2313
306.620	2659
306.668	5942
306.711	12843
306.723	14015
306.778	11419
306.801	8113
306.833	4299
306.888	2041
306.892	1886
306.943	610
306.982	646
306.997	589
307.052	106
307.072	143
307.107	469
307.162	1333
307.163	1330
307.217	1021
307.253	1050
307.272	1003
307.327	800
307.343	813
307.381	1062
307.434	1286
307.436	1363
307.491	3580
307.524	6153
307.546	7182
307.600	9891
307.614	8876
307.655	4829
307.704	2212
307.710	2107
307.765	2016
307.795	2486
307.819	2788
307.874	3368
307.885	3377
307.929	3812
307.975	5270
307.984	5832
308.038	9538
308.065	12877
308.093	23912
308.148	57046
308.156	65577
308.202	108742
308.246	129207
308.257	126314
308.312	65915
308.336	44269
308.366	31102
308.421	17704
308.426	16750
308.475	10385
308.517	7266
308.530	6620
308.585	5456
308.607	5210
308.639	4688
308.694	4003
308.697	3997
308.748	4380
308.787	4483
308.803	4364
308.857	4477
308.877	4320
308.912	4509
308.967	5630
308.967	5654
309.021	9519
309.058	12839
309.076	16962
309.130	32304
309.148	39296
309.185	75128
309.238	143643
309.239	144058
309.293	156872
309.328	139172
309.348	119440
309.402	54863
309.418	39937
309.457	26722
309.508	15823
309.511	15393
309.566	12459
309.598	11539
309.620	12379
309.674	15971
309.688	17072
309.729	15736
309.778	12124
309.783	11832
309.837	8625
309.868	7089
309.892	8263
309.946	12731
309.959	14178
310.001	18358
310.049	21252
310.055	20464
310.109	11039
310.139	6082
310.163	4593
310.218	2451
310.229	2134
310.272	1828
310.319	1415
310.326	1370
310.381	1295
310.409	1416
310.435	1364
310.489	807
310.499	766
310.543	747
310.589	782
310.598	850
310.652	1080
310.679	1207
310.706	1201
310.760	1176
310.769	1172
310.814	1021
310.859	828
310.868	813
310.923	885
310.948	787
310.977	810
311.031	1017
311.038	1035
311.085	951
311.128	870
311.139	882
311.193	870
311.218	837
311.247	1039
311.301	1516
311.308	1563
311.356	1171
311.398	767
311.410	832
311.464	1089
311.488	1239
311.518	1231
311.572	1120
311.578	1109
311.626	1573
311.668	1967
311.680	1790
311.734	897
311.758	488
311.788	780
311.842	1354
311.847	1409
311.896	1485
311.937	1546
311.950	1568
312.004	1643
312.027	1681
312.058	1269
312.112	508
312.117	435
312.165	979
312.207	1451
312.297	296
312.386	1765
312.476	1448
312.566	3478
312.656	894
312.745	1300
312.835	1452
312.925	1083
313.015	934
313.104	1312
313.194	62
313.284	1071
313.374	1900
313.463	1231
313.553	768
313.643	725
313.732	69
313.822	363
313.912	1030
314.001	1395
314.091	703
314.180	762
314.270	1815
314.360	1567
314.449	911
314.539	1249
314.628	765
314.718	1091
314.808	1132
314.897	876
314.987	1506
315.076	1797
315.166	945
315.255	1610
315.345	1510
315.434	764
315.524	945
315.613	1898
315.703	1788
315.792	3386
315.881	5293
315.971	2327
316.060	2092
316.150	2187
316.239	674
316.328	901
316.418	1269
316.507	1141
316.597	1806
316.686	1591
316.775	1005
316.865	1622
316.954	445
317.043	970
317.133	543
317.222	1151
317.311	481
317.400	640
317.490	2789
317.579	1425
317.668	1212
317.757	2066
317.847	3717
317.936	10058
318.025	5628
318.114	2569
318.203	681
318.293	1774
318.382	2792
318.471	2706
318.560	2107
318.649	2225
318.738	210
318.828	1315
318.917	1014
319.006	714
319.095	1045
319.184	3983
319.273	5461
319.362	4012
319.451	950
319.540	893
319.629	3734
319.718	6130
319.807	1002
319.896	2513
319.985	5354
320.074	4119
320.163	259
320.252	1375
320.341	187
320.430	1098
320.519	2273
320.608	1692
320.697	964
320.786	941
320.875	1735
320.964	2511
321.053	3016
321.142	6150
321.230	5549
321.319	3950
321.408	9905
321.497	3575
321.586	3220
321.675	2175
321.764	2549
321.852	2334
321.941	6658
322.030	3476
322.119	3944
322.207	10336
322.296	3156
322.385	1130
322.474	3378
322.562	14064
322.651	5136
322.740	4311
322.829	4109
322.917	2666
323.006	2535
323.095	3022
323.183	948
323.272	1629
323.361	2905
323.449	4619
323.538	1372
323.626	3615
323.715	1306
323.804	615
323.892	3553
323.981	3430
324.069	398
324.158	1051
324.246	460
324.335	2377
324.424	2984
324.512	943
324.601	1052
324.689	1306
324.778	1851
324.866	2073
324.954	614
325.043	1130
325.131	398
325.220	2125
325.308	745
325.397	1426
325.485	879
325.574	167
325.662	317
325.750	292
325.839	606
325.927	789
326.015	929
326.104	409
326.192	778
326.280	238
326.369	-5
326.457	1824
326.545	2745
326.634	1305
326.722	182
326.810	418
326.898	480
326.987	980
327.075	2211
327.163	2516
327.251	-43
327.340	553
327.428	662
327.516	461
327.604	11
327.692	518
327.781	409
327.869	295
327.957	127
328.045	968
328.133	535
328.221	1478
328.309	934
328.397	1109
328.485	919
328.574	1909
328.662	8950
328.750	2342
328.838	773
328.926	403
329.014	-309
329.102	1115
329.190	1637
329.278	1261
329.366	962
329.454	643
329.542	594
329.630	773
329.718	794
329.806	495
329.893	1191
329.981	254
330.069	4060
330.157	22546
330.245	65506
330.333	30219
330.421	3289
330.509	2720
330.597	9617
330.684	4280
330.772	1066
330.860	374
330.948	773
331.036	865
331.123	580
331.211	-143
331.299	129
331.387	457
331.475	1571
331.562	436
331.650	245
331.738	260
331.825	-6
331.913	-277
332.001	405
332.089	658
332.176	-174
332.264	928
332.352	547
332.439	1255
332.527	118
332.614	220
332.702	340
332.790	128
332.877	581
332.965	1820
333.052	332
333.140	1261
333.228	3176
333.315	388
333.403	190
333.490	570
333.578	614
333.665	4746
333.753	1316
333.840	495
333.928	615
334.015	985
334.103	917
334.190	3386
334.278	903
334.365	690
334.452	786
334.540	650
334.627	-87
334.715	551
334.802	1369
334.889	4139
334.977	3610
335.064	1691
335.151	10
335.239	689
335.326	-133
335.413	2583
335.501	2752
335.588	1039
335.675	616
335.762	786
335.850	945
335.937	1320
336.024	1808
336.111	5644
336.199	3062
336.286	1412
336.373	132
336.460	596
336.547	579
336.635	414
336.722	793
336.809	1029
336.896	-229
336.983	2067
337.070	3739
337.157	3700
337.245	1790
337.332	1530
337.419	391
337.506	507
337.593	241
337.680	577
337.767	1684
337.854	959
337.941	1166
338.028	2062
338.115	-826
338.202	995
338.289	162
338.376	2719
338.463	697
338.550	701
338.637	677
338.724	105
338.811	517
338.898	655
338.984	546
339.071	938
339.158	1151
339.245	3326
339.332	1219
339.419	764
339.506	895
339.593	-259
339.679	-41
339.766	313
339.853	309
339.940	2617
340.027	451
340.113	436
340.200	1414
340.287	862
340.374	518
340.460	2560
340.547	-922
340.634	2729
340.720	9672
340.807	4513
340.894	409
340.980	278
341.067	-316
341.154	1269
341.240	1325
341.327	3878
341.414	-133
341.500	-67
341.587	955
341.674	979
341.760	3036
341.847	3681
341.933	900
342.020	-502
342.106	757
342.193	894
342.279	2162
342.366	1257
342.452	2804
342.539	694
342.625	3444
342.712	10606
342.798	3536
342.885	693
342.971	-127
343.058	-861
343.144	137
343.230	1153
343.317	482
343.403	569
343.490	161
343.576	-553
343.662	911
343.749	1057
343.835	403
343.921	3651
344.008	29952
344.094	65771
344.180	10812
344.267	2383
344.353	14978
344.439	12511
344.525	3699
344.612	1719
344.698	940
344.784	836
344.870	631
344.957	130
345.043	1358
345.129	759
345.215	2137
345.301	1015
345.387	414
345.474	6
345.560	-266
345.646	-249
345.732	208
345.818	611
345.904	445
345.990	807
346.076	535
346.162	392
346.249	965
346.335	352
346.421	860
346.507	6638
346.593	24547
346.679	3390
346.765	764
346.851	637
346.937	-186
347.023	1745
347.108	883
347.194	274
347.280	141
347.366	802
347.452	6183
347.538	29558
347.624	20062
347.710	12586
347.796	824
347.882	50
347.967	278
348.053	450
348.139	190
348.225	240
348.311	-92
348.397	180
348.482	1031
348.568	1773
348.654	-408
348.740	1069
348.825	-858
348.911	1848
348.997	12658
349.083	27337
349.168	2846
349.254	-212
349.340	-683
349.425	424
349.511	1216
349.597	636
349.682	2750
349.768	13741
349.854	5216
349.939	1221
350.025	-232
350.110	2237
350.196	-216
350.282	455
350.367	619
350.453	328
350.538	-56
350.624	123
350.709	175
350.795	11
350.880	-59
350.966	1064
351.051	666
351.137	391
351.222	608
351.308	3059
351.393	10430
351.479	1910
351.564	-266
351.649	918
351.735	156
351.820	-320
351.906	221
351.991	94
352.076	5613
352.162	11394
352.247	1264
352.332	883
352.418	627
352.503	2401
352.588	15689
352.673	11274
352.759	1418
352.844	714
352.929	353
353.014	185
353.100	1240
353.185	1144
353.270	2173
353.355	2897
353.441	1665
353.526	75
353.611	1780
353.696	2619
353.781	1745
353.866	-385
353.952	1201
354.037	1906
354.122	7432
354.207	5787
354.292	991
354.377	612
354.462	-234
354.547	434
354.632	963
354.717	1218
354.802	1233
354.887	536
354.972	-464
355.057	502
355.142	170
355.227	556
355.312	1021
355.397	3413
355.482	10151
355.567	4609
355.652	3402
355.737	3600
355.822	16106
355.907	11756
355.991	1969
356.076	-109
356.161	137
356.246	567
356.331	153
356.416	2788
356.501	32723
356.585	31561
356.670	1459
356.755	2410
356.840	2098
356.924	18976
357.009	73438
357.094	23681
357.179	3007
357.263	1406
357.348	2059
357.433	1851
357.517	1623
357.602	416
357.687	-113
357.771	1163
357.856	1099
357.941	2064
358.025	14975
358.110	73779
358.195	30646
358.279	2566
358.364	1470
358.448	9531
358.533	27947
358.617	18600
358.702	19469
358.787	5866
358.871	3242
358.956	2148
359.040	205
359.125	-131
359.209	334
359.294	155
359.378	385
359.462	2120
359.547	664
359.631	209
359.716	-397
359.800	-174
359.885	1814
359.969	-257
360.053	202
360.138	318
360.222	597
360.306	3386
360.391	1719
360.475	2445
360.559	5948
360.644	8560
360.728	5594
360.812	16980
360.896	48607
360.981	13716
361.065	3780
361.149	1371
361.233	724
361.318	-35
361.402	55
361.486	1557
361.570	283
361.654	361
361.739	4641
361.823	29463
361.907	47572
361.991	6087
362.075	2506
362.159	5117
362.243	4301
362.327	2385
362.411	4800
362.495	2712
362.580	863
362.664	431
362.748	-217
362.832	827
362.916	94
363.000	8823
363.084	32018
363.168	54086
363.252	9386
363.336	2948
363.420	2576
363.503	2721
363.587	2638
363.671	1553
363.755	705
363.839	3319
363.923	-27
364.007	2720
364.091	2034
364.175	-298
364.258	5397
364.342	5640
364.426	13776
364.510	5766
364.594	4171
364.677	8403
364.761	40811
364.845	28339
364.929	4793
365.013	4103
365.096	3327
365.180	2895
365.264	1508
365.347	4210
365.431	620
365.515	538
365.598	-1028
365.682	1594
365.766	-1332
365.849	-542
365.933	955
366.017	1412
366.100	-735
366.184	-605
366.267	558
366.351	322
366.435	-647
366.518	-152
366.602	-25
366.685	769
366.769	948
366.852	-193
366.936	2072
367.019	1975
367.103	-1381
367.186	1670
367.270	43
367.353	-1501
367.436	404
367.520	-547
367.603	102
367.687	725
367.770	2463
367.853	1819
367.937	9709
368.020	18223
368.104	2210
368.187	2730
368.270	3216
368.353	2613
368.437	1481
368.520	2065
368.603	3730
368.687	9089
368.770	21789
368.853	3962
368.936	2136
369.020	2107
369.103	342
369.186	-519
369.269	-592
369.352	2731
369.436	1659
369.519	1408
369.602	-1152
369.685	2200
369.768	-400
369.851	907
369.934	-345
370.018	-86
370.101	1881
370.184	3984
370.267	1103
370.350	1418
370.433	3913
370.516	18499
370.599	23362
370.682	2643
370.765	8349
370.848	14101
370.931	26486
371.014	9310
371.097	-357
371.180	1506
371.263	248
371.346	-1069
371.429	187
371.511	-278
371.594	372
371.677	1978
371.760	1567
371.843	3233
371.926	24168
372.009	57062
372.091	17449
372.174	9410
372.257	29667
372.340	9373
372.423	2300
372.505	3151
372.588	1270
372.671	8556
372.754	26071
372.836	12640
372.919	1916
373.002	2983
373.085	1078
373.167	3769
373.250	9807
373.332	28067
373.415	39697
373.498	78888
373.580	26989
373.663	34396
373.746	47296
373.828	8048
373.911	2840
373.993	951
374.076	2061
374.159	1849
374.241	4774
374.324	20651
374.406	13963
374.489	23609
374.571	67704
374.654	26759
374.736	10248
374.819	39449
374.901	58694
374.983	60784
375.066	8044
375.148	780
375.231	2152
375.313	3666
375.395	1286
375.478	136
375.560	412
375.643	1874
375.725	11082
375.807	50176
375.890	31535
375.972	2636
376.054	2233
376.136	1017
376.219	1460
376.301	14368
376.383	43209
376.465	15689
376.548	6581
376.630	10062
376.712	33849
376.794	15145
376.877	903
376.959	-185
377.041	866
377.123	671
377.205	136
377.287	-699
377.369	370
377.452	-79
377.534	464
377.616	331
377.698	-425
377.780	-121
377.862	187
377.944	1297
378.026	-996
378.108	-86
378.190	-620
378.272	-4
378.354	-915
378.436	-276
378.518	-986
378.600	1051
378.682	3737
378.764	13959
378.846	11381
378.928	255
379.010	1577
379.091	1924
379.173	245
379.255	-254
379.337	387
379.419	6568
379.501	21068
379.583	8016
379.664	312
379.746	3381
379.828	13637
379.910	19260
379.991	18349
380.073	1031
380.155	611
380.237	585
380.318	0
380.400	379
380.482	2265
380.564	3050
380.645	1764
380.727	2323
380.809	1514
380.890	-46
380.972	-840
381.053	-118
381.135	695
381.217	2820
381.298	13732
381.380	5754
381.461	5900
381.543	34324
381.624	43191
381.706	6349
381.787	1190
381.869	3579
381.951	14895
382.032	61165
382.113	39103
382.195	3337
382.276	3584
382.358	9321
382.439	30477
382.521	39437
382.602	59008
382.684	24681
382.765	38675
382.846	39369
382.928	49945
383.009	27277
383.090	18174
383.172	76614
383.253	121106
383.334	41421
383.416	45959
383.497	24126
383.578	6904
383.659	15391
383.741	69272
383.822	185130
383.903	93516
383.984	30693
384.066	53887
384.147	31199
384.228	5080
384.309	2666
384.390	1823
384.471	915
384.553	1466
384.634	2614
384.715	2700
384.796	517
384.877	1939
384.958	12702
385.039	14731
385.120	4234
385.201	2189
385.282	1265
385.363	1563
385.444	745
385.525	5086
385.606	22305
385.687	21873
385.768	3076
385.849	2633
385.930	27558
386.011	48627
386.092	10850
386.173	918
386.254	274
386.335	884
386.416	1274
386.496	6411
386.577	13454
386.658	2219
386.739	705
386.820	1054
386.901	-514
386.981	1253
387.062	-89
387.143	609
387.224	13211
387.304	11853
387.385	2903
387.466	-1006
387.547	1577
387.627	130
387.708	5286
387.789	26759
387.869	34542
387.950	9292
388.031	2
388.111	-2202
388.192	759
388.273	1593
388.353	181
388.434	959
388.514	4973
388.595	30254
388.676	36754
388.756	14074
388.837	12154
388.917	7071
388.998	-1373
389.078	1330
389.159	2225
389.239	-795
389.320	3307
389.400	-129
389.480	5127
389.561	14342
389.641	8679
389.722	1762
389.802	1784
389.883	5656
389.963	20184
390.043	9691
390.124	-278
390.204	3242
390.284	14591
390.365	8133
390.445	9604
390.525	37253
390.605	39027
390.686	7445
390.766	1928
390.846	1182
390.927	-111
391.007	-180
391.087	1518
391.167	-974
391.247	-1003
391.328	1095
391.408	673
391.488	437
391.568	-1237
391.648	333
391.728	2275
391.808	2261
391.888	1237
391.969	7546
392.049	12355
392.129	4159
392.209	4845
392.289	17600
392.369	8447
392.449	1281
392.529	1012
392.609	1595
392.689	5025
392.769	17364
392.849	14949
392.929	8041
393.009	20454
393.089	15983
393.169	11090
393.248	41708
393.328	191741
393.408	207074
393.488	42457
393.568	8514
393.648	3909
393.728	2503
393.807	1717
393.887	2820
393.967	2660
394.047	2577
394.127	4373
394.206	9152
394.286	43709
394.366	183268
394.446	199697
394.525	44238
394.605	7711
394.685	4186
394.764	4491
394.844	3532
394.924	3130
395.003	1812
395.083	2267
395.163	2276
395.242	2048
395.322	1821
395.402	-410
395.481	2866
395.561	2530
395.640	7355
395.720	7800
395.799	5896
395.879	7640
395.958	15630
396.038	66319
396.117	242893
396.197	264764
396.276	70161
396.356	15488
396.435	7495
396.515	6052
396.594	5243
396.673	12411
396.753	52901
396.832	178522
396.912	129368
396.991	24343
397.070	5628
397.150	1239
397.229	1816
397.308	1376
397.388	3891
397.467	1615
397.546	1010
397.625	-1326
397.705	2112
397.784	1454
397.863	-253
397.942	-319
398.022	-268
398.101	50
398.180	1495
398.259	224
398.338	531
398.417	-305
398.497	-939
398.576	164
398.655	-1185
398.734	5
398.813	-950
398.892	204
398.971	1245
399.050	-155
399.129	-994
399.208	284
399.287	342
399.366	-798
399.445	-561
399.524	233
399.603	-1691
399.682	438
399.761	1416
399.840	2840
399.919	1598
399.998	-613
400.077	-1555
400.156	-1645
400.235	2395
400.313	-874
400.392	-686
400.471	6183
400.550	10372
400.629	1678
400.708	-130
400.786	-638
400.865	-718
400.944	-522
401.023	1601
401.102	-507
401.180	-741
401.259	-440
401.338	-511
401.416	-174
401.495	-697
401.574	-440
401.652	-1418
401.731	266
401.810	-1467
401.888	360
401.967	-986
402.046	-1596
402.124	-717
402.203	-549
402.281	-288
402.360	-1143
402.438	739
402.517	-1911
402.596	-536
402.674	-1333
402.753	-1339
402.831	44
402.910	527
402.988	2004
403.066	9066
403.145	5934
403.223	2683
403.302	6700
403.380	5506
403.459	5020
403.537	457
403.615	207
403.694	-1672
403.772	10
403.850	-901
403.929	46
404.007	-1604
404.085	1731
404.164	-814
404.242	-492
404.320	2195
404.398	7655
404.477	11854
404.555	43979
404.633	40456
404.711	7554
404.789	2442
404.868	126
404.946	-839
405.024	265
405.102	-816
405.180	-812
405.258	-1955
405.336	974
405.415	-1432
405.493	676
405.571	510
405.649	-1443
405.727	-2446
405.805	725
405.883	-298
405.961	855
406.039	-772
406.117	-1500
406.195	1134
406.273	7777
406.351	34809
406.429	20707
406.507	199
406.585	-1449
406.663	-211
406.740	-316
406.818	-764
406.896	-732
406.974	1106
407.052	1645
407.130	18748
407.208	28286
407.285	4614
407.363	-1014
407.441	-260
407.519	-700
407.596	139
407.674	5402
407.752	22009
407.830	16597
407.907	1241
407.985	-98
408.063	-119
408.141	-798
408.218	-552
408.296	-1697
408.373	-1368
408.451	164
408.529	-999
408.606	-558
408.684	-1020
408.762	-18
408.839	-494
408.917	-965
408.994	-825
409.072	-1267
409.149	-1400
409.227	231
409.304	-649
409.382	55
409.459	-763
409.537	99
409.614	-99
409.692	-600
409.769	-1038
409.846	-478
409.924	1070
410.001	-2041
410.079	-550
410.156	83
410.233	-450
410.311	-511
410.388	-12
410.465	-190
410.543	-1208
410.620	-306
410.697	-545
410.775	-556
410.852	-2165
410.929	-81
411.006	180
411.083	-776
411.161	-1654
411.238	-257
411.315	-638
411.392	-278
411.469	135
411.547	-360
411.624	-1982
411.701	-658
411.778	-310
411.855	-244
411.932	-807
412.009	-1028
412.086	-517
412.163	-865
412.240	-925
412.317	-153
412.394	-1465
412.471	-909
412.548	-723
412.625	-407
412.702	-1174
412.779	-128
412.856	-675
412.933	-1442
413.010	-608
413.087	641
413.164	4042
413.241	8145
413.318	196
413.395	130
413.471	512
413.548	-855
413.625	-655
413.702	-1173
413.779	-959
413.855	-1133
413.932	-1309
414.009	-1589
414.086	-1158
414.162	-355
414.239	-134
414.316	5125
414.393	13865
414.469	3006
414.546	-1086
414.623	-1037
414.699	-940
414.776	-1165
414.853	-930
414.929	-46
415.006	-1637
415.082	-499
415.159	-1037
415.236	-514
415.312	-339
415.389	960
415.465	494
415.542	-201
415.618	-1146
415.695	331
415.771	-1151
415.848	-1033
415.924	-1515
416.000	-928
416.077	-382
416.153	-1613
416.230	-2201
416.306	-1115
416.383	-2580
416.459	-386
416.535	-655
416.612	-939
416.688	-1570
416.764	-1110
416.841	-2141
416.917	-1014
416.993	-492
417.069	-928
417.146	-1138
417.222	71
417.298	-1350
417.374	-1000
417.451	-756
417.527	-436
417.603	-1550
417.679	-1324
417.755	-455
417.831	-1257
417.908	-845
417.984	-634
418.060	-1537
418.136	364
418.212	494
418.288	-548
418.364	-936
418.440	-702
418.516	-504
418.592	-643
418.668	722
418.744	2338
418.820	1280
418.896	-976
418.972	-1968
419.048	-811
419.124	609
419.200	-1459
419.276	-1318
419.352	-2261
419.428	-559
419.504	-976
419.579	-5
419.655	-1344
419.731	-868
419.807	1996
419.883	2822
419.959	2342
420.034	-670
420.110	1527
420.186	6272
420.262	5652
420.337	-1166
420.413	-1055
420.489	-547
420.565	887
420.640	-572
420.716	-186
420.792	-1843
420.867	-292
420.943	-2099
421.019	67
421.094	-1550
421.170	-573
421.245	-1136
421.321	-1156
421.397	-1008
421.472	3220
421.548	10548
421.623	6903
421.699	838
421.774	-88
421.850	-1312
421.925	547
422.001	79
422.076	2
422.152	-453
422.227	726
422.302	1527
422.378	2180
422.453	5144
422.529	18409
422.604	76521
422.679	152587
422.755	83618
422.830	17765
422.905	4673
422.981	1701
423.056	1283
423.131	789
423.207	-342
423.282	-76
423.357	1336
423.432	1373
423.508	-127
423.583	2856
423.658	1629
423.733	-1179
423.808	-694
423.883	46
423.959	-303
424.034	-242
424.109	-566
424.184	-1677
424.259	-1075
424.334	-250
424.409	-1103
424.484	-1021
424.559	-1036
424.634	-1192
424.709	-1286
424.784	187
424.859	-1923
424.934	-666
425.009	4667
425.084	8060
425.159	1659
425.234	-361
425.309	-1652
425.384	-455
425.459	-1576
425.534	-512
425.609	-1652
425.683	-1721
425.758	-1502
425.833	-785
425.908	-649
425.983	1641
426.058	8772
426.132	2595
426.207	-284
426.282	576
426.357	-2015
426.431	-1510
426.506	-853
426.581	-1449
426.655	-1558
426.730	-1142
426.805	-1457
426.879	225
426.954	-1488
427.029	-201
427.103	11035
427.178	28225
427.253	11569
427.327	-938
427.402	-2176
427.476	-1032
427.551	-1960
427.625	-1324
427.700	-351
427.774	-1889
427.849	-1031
427.923	-1635
427.998	-1616
428.072	-1761
428.147	61
428.221	5583
428.296	18016
428.370	8430
428.444	-686
428.519	-1500
428.593	-1284
428.667	-877
428.742	-972
428.816	726
428.890	7512
428.965	13886
429.039	1915
429.113	-214
429.188	-1044
429.262	-905
429.336	-219
429.410	1878
429.485	-73
429.559	-563
429.633	-1571
429.707	-795
429.781	-764
429.855	7360
429.930	13379
430.004	2594
430.078	413
430.152	5425
430.226	29574
430.300	32538
430.374	2188
430.448	-55
430.522	-577
430.596	929
430.670	3943
430.744	24777
430.818	38084
430.892	6381
430.966	-1345
431.040	-895
431.114	-1992
431.188	-1847
431.262	-1741
431.336	-1253
431.410	-469
431.484	-630
431.557	374
431.631	-853
431.705	-1451
431.779	1709
431.853	14808
431.927	10176
432.000	-23
432.074	-738
432.148	-1089
432.222	-1090
432.295	-1342
432.369	-1313
432.443	-567
432.516	10505
432.590	27134
432.664	9400
432.737	-393
432.811	-1113
432.885	-1368
432.958	-1048
433.032	-1376
433.106	-1376
433.179	-1969
433.253	-797
433.326	-1791
433.400	-1904
433.473	-1111
433.547	-1800
433.620	-1134
433.694	-821
433.767	-897
433.841	-2370
433.914	-1164
433.988	-1243
434.061	-1199
434.134	-924
434.208	-2377
434.281	-1850
434.355	-1958
434.428	-1846
434.501	-1414
434.575	-1872
434.648	-1487
434.721	-953
434.795	-1995
434.868	-1668
434.941	-1753
435.014	-1718
435.088	-2196
435.161	-1078
435.234	-1212
435.307	-885
435.381	-1895
435.454	-705
435.527	-539
435.600	-829
435.673	-1349
435.746	-1261
435.819	-1814
435.892	-1332
435.966	-2426
436.039	-1764
436.112	-542
436.185	-1699
436.258	-1707
436.331	-1796
436.404	-2115
436.477	-1982
436.550	-1500
436.623	-478
436.696	-2344
436.769	-1686
436.842	-2072
436.915	-2080
436.987	-1415
437.060	-1006
437.133	-1430
437.206	-1417
437.279	-1200
437.352	-1523
437.425	-1139
437.498	-966
437.570	-433
437.643	-1119
437.716	-1842
437.789	-2204
437.861	-1875
437.934	-731
438.007	-1186
438.080	-1536
438.152	-1722
438.225	734
438.298	16026
438.370	45387
438.443	15942
438.516	225
438.588	-2121
438.661	-1471
438.734	-1686
438.806	-1231
438.879	-474
438.951	74
439.024	-1222
439.096	-1705
439.169	-1336
439.241	-1659
439.314	-2188
439.386	-1876
439.459	-1652
439.531	-1466
439.604	-1842
439.676	-1208
439.749	-2023
439.821	-1639
439.893	-1770
439.966	-1590
440.038	-1218
440.110	-1174
440.183	-2348
440.255	-1712
440.327	-651
440.400	4599
440.472	22443
440.544	14213
440.617	-489
440.689	-350
440.761	-1098
440.833	-486
440.905	-865
440.978	-871
441.050	-2427
441.122	-1467
441.194	-1896
441.266	-1645
441.338	-1341
441.411	-848
441.483	4638
441.555	6898
441.627	-739
441.699	-1251
441.771	-1894
441.843	-1835
441.915	-1193
441.987	-1756
442.059	-1829
442.131	-1175
442.203	-1182
442.275	-1200
442.347	-931
442.419	-620
442.491	4547
442.563	14414
442.635	4343
442.706	-89
442.778	-45
442.850	-1769
442.922	-1146
442.994	-1135
443.066	-1019
443.137	-180
443.209	-1789
443.281	-1230
443.353	228
443.425	6609
443.496	30460
443.568	28121
443.640	7086
443.711	-277
443.783	-1834
443.855	-1678
443.926	-1736
443.998	-1335
444.070	-1757
444.141	-1072
444.213	-1585
444.285	-453
444.356	-837
444.428	-1369
444.499	-2089
444.571	-1009
444.642	-1902
444.714	-1993
444.785	-1152
444.857	-1712
444.928	-1642
445.000	-1483
445.071	-1316
445.143	-454
445.214	-859
445.285	-1110
445.357	1547
445.428	20843
445.500	54591
445.571	28102
445.642	11557
445.714	321
445.785	-1144
445.856	-1485
445.928	-421
445.999	-611
446.070	-2260
446.141	-995
446.213	-927
446.284	-1439
446.355	-1425
446.426	-1937
446.497	-1413
446.569	-1564
446.640	-1280
446.711	-771
446.782	-2130
446.853	-1709
446.924	-785
446.995	-1039
447.066	-1367
447.138	-2752
447.209	-1536
447.280	-1801
447.351	-1520
447.422	-1747
447.493	-2384
447.564	-1272
447.635	-1289
447.706	-2215
447.777	-2642
447.847	-1644
447.918	-2200
447.989	-1141
448.060	-2102
448.131	-1434
448.202	-1561
448.273	-763
448.344	-1594
448.414	-1860
448.485	-1188
448.556	-1260
448.627	-1912
448.698	-36
448.768	-1733
448.839	-1699
448.910	-2090
448.981	-1330
449.051	-1431
449.122	-1389
449.193	-1684
449.263	-1530
449.334	-2046
449.405	-1288
449.475	-989
449.546	-676
449.616	-1398
449.687	-1007
449.758	-1420
449.828	-1804
449.899	-1528
449.969	-1508
450.040	-2039
450.110	-799
450.181	-976
450.251	-1783
450.322	-1647
450.392	-1592
450.463	-1524
450.533	-968
450.604	-1112
450.674	-1266
450.744	-1492
450.815	-1734
450.885	-1627
450.955	-1295
451.026	-2037
451.096	-1287
451.166	-1948
451.237	-1299
451.307	-1282
451.377	-1431
451.447	-3007
451.518	-1177
451.588	-2293
451.658	-1442
451.728	-1556
451.799	-1383
451.869	-656
451.939	-915
452.009	-1641
452.079	-1112
452.149	-1496
452.219	-2485
452.289	-602
452.360	-861
452.430	-2563
452.500	-1744
452.570	-1241
452.640	-483
452.710	-385
452.780	565
452.850	319
452.920	724
452.990	-1084
453.060	-788
453.129	-1958
453.199	-1784
453.269	-2091
453.339	-1010
453.409	54
453.479	-354
453.549	194
453.619	879
453.688	-1449
453.758	-1915
453.828	-2070
453.898	-1258
453.968	-1698
454.037	-1585
454.087	-1486
454.107	-1458
454.168	-1705
454.177	-1749
454.247	-1978
454.249	-1937
454.316	-1293
454.330	-1439
454.386	-2034
454.411	-1699
454.456	-1231
454.492	-1345
454.525	-1418
454.574	-1092
454.595	-987
454.655	-1658
454.665	-1775
454.734	-1100
454.736	-1086
454.804	-1200
454.817	-1254
454.873	-1608
454.898	-1504
454.943	-1301
454.979	-1206
455.013	-1114
455.060	-1078
455.082	-958
455.141	-168
455.152	232
455.221	3089
455.222	3281
455.291	9798
455.303	13581
455.360	26197
455.384	38470
455.430	53450
455.465	36925
455.499	24417
455.546	8786
455.569	1907
455.627	-292
455.638	-731
455.707	-888
455.708	-876
455.777	-1131
455.789	-1070
455.846	-986
455.869	-1206
455.916	-1594
455.950	-1553
455.985	-1499
456.031	-1182
456.054	-1071
456.112	-871
456.124	-826
456.193	-1328
456.193	-1345
456.262	-1161
456.274	-1149
456.332	-860
456.355	-838
456.401	-932
456.436	-1372
456.470	-1762
456.516	-1307
456.540	-1141
456.597	-1498
456.609	-1560
456.678	-1083
456.678	-1090
456.747	-1970
456.759	-1870
456.817	-1271
456.840	-1328
456.886	-1419
456.920	-1244
456.955	-1248
457.001	-1146
457.024	-1119
457.082	-1486
457.093	-1514
457.162	-624
457.163	-615
457.232	-1171
457.243	-1108
457.301	-729
457.324	-669
457.370	-734
457.405	-733
457.439	-680
457.485	-709
457.508	-782
457.566	-876
457.577	-850
457.646	-341
457.647	-327
457.715	42
457.727	49
457.784	556
457.808	959
457.853	1217
457.889	1778
457.922	2086
457.969	1482
457.991	1346
458.050	1267
458.060	1309
458.129	2722
458.130	2782
458.198	2864
458.211	2320
458.267	634
458.292	216
458.336	-41
458.372	216
458.405	734
458.453	1176
458.474	1410
458.533	3035
458.543	3169
458.611	5629
458.614	5654
458.680	2923
458.694	2122
458.749	700
458.775	175
458.818	-539
458.855	-425
458.887	-261
458.936	-389
458.955	-544
459.016	-756
459.024	-724
459.093	-245
459.097	-242
459.162	-365
459.177	-314
459.230	-421
459.257	-229
459.299	119
459.338	3
459.368	-90
459.418	-235
459.437	-289
459.499	-266
459.505	-253
459.574	-245
459.579	-247
459.643	-736
459.659	-702
459.711	-293
459.740	-257
459.780	-338
459.820	-361
459.849	-313
459.900	300
459.917	458
459.981	-6
459.986	-48
460.054	93
460.061	80
460.123	70
460.141	210
460.191	578
460.222	597
460.260	400
460.302	336
460.328	512
460.382	754
460.397	898
460.462	1759
460.465	2013
460.534	7973
460.543	8733
460.602	22210
460.623	27442
460.671	42700
460.703	56380
460.739	45577
460.783	27818
460.808	23529
460.864	4737
460.876	2956
460.944	642
460.945	619
461.013	253
461.024	252
461.081	-48
461.104	6
461.150	599
461.184	933
461.218	838
461.264	316
461.286	211
461.345	335
461.355	349
461.423	146
461.425	148
461.491	-441
461.505	-463
461.559	706
461.585	940
461.628	654
461.665	615
461.696	448
461.745	631
461.764	742
461.825	232
461.832	225
461.901	517
461.905	528
461.969	78
461.985	6
462.037	614
462.065	978
462.105	768
462.145	602
462.173	878
462.225	740
462.241	602
462.305	799
462.310	764
462.378	182
462.385	93
462.446	159
462.465	177
462.514	395
462.545	671
462.582	702
462.625	591
462.650	525
462.705	612
462.718	660
462.785	282
462.786	274
462.854	310
462.865	259
462.922	914
462.945	1257
462.990	981
463.025	543
463.058	349
463.104	294
463.126	400
463.184	757
463.194	740
463.262	172
463.264	171
463.330	784
463.344	882
463.398	1062
463.424	966
463.466	384
463.504	85
463.533	506
463.583	1188
463.601	1093
463.663	475
463.669	481
463.737	935
463.743	957
463.805	949
463.823	908
463.873	1181
463.903	1504
463.940	1665
463.982	1618
464.008	1247
464.062	688
464.076	784
464.142	764
464.144	755
464.211	620
464.221	579
464.279	1102
464.301	1305
464.347	899
464.381	730
464.414	921
464.461	982
464.482	841
464.540	436
464.550	512
464.617	1086
464.620	1107
464.685	2209
464.699	2418
464.753	3840
464.779	4460
464.820	4733
464.859	5141
464.888	4368
464.938	2917
464.956	3298
465.018	4619
465.023	4566
465.091	3684
465.098	3598
465.158	3149
465.177	3013
465.226	3139
465.257	3139
465.293	3287
465.336	3533
465.361	3478
465.416	3185
465.428	3315
465.495	4095
465.496	4104
465.563	4051
465.575	4012
465.631	4717
465.654	5051
465.698	4329
465.734	3736
465.765	3904
465.813	4002
465.833	3954
465.893	3883
465.900	3875
465.968	3731
465.972	3709
466.035	3530
466.052	3467
466.102	3724
466.131	3840
466.170	3803
466.210	3827
466.237	4358
466.290	5303
466.304	5191
466.369	4684
466.372	4719
466.439	5374
466.449	5475
466.506	5215
466.528	5063
466.573	5678
466.607	6158
466.641	6630
466.687	7223
466.708	7325
466.766	7591
466.775	7589
466.842	7420
466.845	7397
466.909	6248
466.925	5952
466.977	6569
467.004	6899
467.044	7633
467.083	8307
467.111	8714
467.163	9458
467.178	9597
467.242	10070
467.245	10018
467.312	8545
467.321	8334
467.379	7272
467.400	6866
467.446	6951
467.480	6988
467.559	7495
467.638	5965
467.717	5958
467.796	5631
467.875	5963
467.955	5107
468.034	6372
468.113	7162
468.192	7903
468.271	4878
468.350	5516
468.429	5566
468.508	5169
468.588	4955
468.667	4434
468.746	4728
468.825	4884
468.904	4398
468.983	4382
469.062	6245
469.141	6780
469.220	4884
469.299	5255
469.378	5281
469.456	8868
469.535	6397
469.614	5760
469.693	5936
469.772	5757
469.851	5644
469.930	5810
470.009	5133
470.088	6086
470.166	6228
470.245	6901
470.324	6516
470.403	6066
470.482	5112
470.560	4863
470.639	5027
470.718	4622
470.797	4496
470.875	4700
470.954	4423
471.033	4554
471.111	4326
471.190	3712
471.269	3835
471.347	3513
471.426	4293
471.505	4964
471.583	7433
471.662	5780
471.740	3837
471.819	4500
471.898	4703
471.976	5030
472.055	4461
472.133	5454
472.212	5130
472.290	4435
472.369	3578
472.447	4870
472.526	4634
472.604	5433
472.683	4632
472.761	4546
472.839	3593
472.918	4085
472.996	2826
473.075	3835
473.153	4336
473.231	3659
473.310	3571
473.388	3759
473.466	4368
473.545	5099
473.623	6284
473.701	5247
473.780	4974
473.858	2763
473.936	4661
474.014	3708
474.093	4919
474.171	4708
474.249	4044
474.327	3359
474.405	3417
474.484	3240
474.562	3573
474.640	2757
474.718	4141
474.796	3560
474.874	3842
474.952	3671
475.030	3785
475.108	4873
475.187	4922
475.265	4980
475.343	5020
475.421	5477
475.499	3620
475.577	3505
475.655	3051
475.733	4332
475.811	4139
475.889	4333
475.966	4039
476.044	3366
476.122	3350
476.200	3738
476.278	2723
476.356	2884
476.434	2582
476.512	3337
476.590	2354
476.667	4204
476.745	1792
476.823	3079
476.901	2640
476.979	2911
477.056	2878
477.134	3177
477.212	2669
477.290	3651
477.367	2217
477.445	2586
477.523	2021
477.601	2570
477.678	2878
477.756	3095
477.834	2220
477.911	2537
477.989	1390
478.066	1990
478.144	3003
478.222	2560
478.299	3721
478.377	3502
478.454	2562
478.532	2009
478.609	2073
478.687	3155
478.764	1690
478.842	2487
478.919	1479
478.997	3181
479.074	1503
479.152	2273
479.229	2557
479.307	1455
479.384	1449
479.461	1984
479.539	1229
479.616	2573
479.694	1520
479.771	2542
479.848	1503
479.926	944
480.003	3146
480.080	1881
480.157	1887
480.235	1660
480.312	1602
480.389	1805
480.467	1564
480.544	1986
480.621	1757
480.698	2055
480.775	1901
480.853	1536
480.930	2289
481.007	1422
481.084	2765
481.161	4979
481.238	2253
481.315	1006
481.392	1149
481.470	1763
481.547	807
481.624	1072
481.701	1149
481.778	762
481.855	1352
481.932	2532
482.009	1510
482.086	1242
482.163	1679
482.240	3306
482.317	2925
482.393	2759
482.470	1284
482.547	1517
482.624	1069
482.701	1413
482.778	938
482.855	938
482.932	1654
483.009	935
483.085	2261
483.162	2960
483.239	3216
483.316	829
483.393	1953
483.469	1219
483.546	691
483.623	737
483.699	217
483.776	1274
483.853	1432
483.930	1674
484.006	3308
484.083	8568
484.160	17921
484.236	29656
484.313	19753
484.389	14371
484.466	13516
484.543	12303
484.619	10738
484.696	12515
484.772	11886
484.849	12196
484.925	10802
485.002	11166
485.078	10998
485.155	10335
485.231	10327
485.308	9940
485.384	10277
485.461	10659
485.537	10516
485.614	11753
485.690	9713
485.766	10010
485.843	10018
485.919	11510
485.995	10182
486.072	9228
486.148	8063
486.224	8704
486.301	8418
486.377	9311
486.453	8616
486.530	11242
486.606	17086
486.682	15956
486.758	13567
486.835	12353
486.911	10606
486.987	13350
487.063	16707
487.139	19492
487.215	16333
487.292	12546
487.368	9995
487.444	11180
487.520	12830
487.596	12047
487.672	16093
487.748	27524
487.824	29918
487.900	12726
487.976	9649
488.052	8274
488.128	10385
488.204	8656
488.280	7534
488.356	8756
488.432	9614
488.508	10313
488.584	8365
488.660	8017
488.736	8653
488.812	8262
488.888	10630
488.964	12197
489.039	17320
489.115	22963
489.191	13965
489.267	7372
489.343	7566
489.418	7212
489.494	6952
489.570	5063
489.646	7612
489.722	6562
489.797	6598
489.873	8077
489.949	8991
490.024	8183
490.100	6435
490.176	6937
490.251	6544
490.327	8473
490.403	4893
490.478	5809
490.554	4948
490.629	5358
490.705	4807
490.781	5979
490.856	4683
490.932	6362
491.007	5570
491.083	6457
491.158	4623
491.234	5621
491.309	6349
491.385	5292
491.460	3918
491.536	5695
491.611	4522
491.686	5275
491.762	6851
491.837	10966
491.913	15042
491.988	19260
492.063	21877
492.139	5569
492.214	5438
492.289	3687
492.365	3775
492.440	5139
492.515	3310
492.590	5163
492.666	4334
492.741	4922
492.816	5548
492.891	5455
492.967	6497
493.042	7083
493.117	10618
493.192	18880
493.267	67585
493.342	224409
493.418	230155
493.493	15800
493.568	4584
493.643	4725
493.718	3968
493.793	4749
493.868	5329
493.943	3436
494.018	5059
494.093	2581
494.168	2880
494.243	3266
494.318	3992
494.393	3712
494.468	2246
494.543	2945
494.618	3492
494.693	1769
494.768	2664
494.842	2561
494.917	1819
494.992	2911
495.067	2698
495.142	1767
495.217	3452
495.292	2870
495.366	2611
495.441	2261
495.516	4281
495.591	6622
495.665	19955
495.740	38656
495.815	12069
495.890	2977
495.964	56
496.039	4838
496.114	2939
496.188	6437
496.263	4271
496.338	2325
496.412	2266
496.487	4205
496.561	3929
496.636	3835
496.710	3452
496.785	3900
496.860	3748
496.934	3148
497.009	4075
497.083	4473
497.158	2862
497.232	4101
497.307	5321
497.381	6461
497.455	5796
497.530	7020
497.604	6521
497.679	7555
497.753	10187
497.827	13677
497.902	15106
497.976	15916
498.050	19828
498.125	33010
498.199	29565
498.273	22743
498.348	20844
498.422	17217
498.496	13288
498.570	12510
498.645	9020
498.719	6387
498.793	6681
498.867	7236
498.941	6373
499.016	13007
499.090	21220
499.164	6575
499.238	3629
499.312	3347
499.386	3920
499.460	3268
499.534	2690
499.609	2845
499.683	2186
499.757	2394
499.831	5300
499.905	14777
499.979	7737
500.053	2270
500.127	4410
500.201	3134
500.275	2970
500.349	1749
500.422	1888
500.496	3514
500.570	7159
500.644	10958
500.718	11055
500.792	3026
500.866	2135
500.940	1877
501.013	2294
501.087	1843
501.161	3258
501.235	2447
501.309	6035
501.382	10300
501.456	8384
501.530	2423
501.603	2346
501.677	1468
501.751	-870
501.825	2801
501.898	1771
501.972	3577
502.046	1903
502.119	1334
502.193	3581
502.266	4072
502.340	1394
502.413	2701
502.487	2860
502.561	844
502.634	1309
502.708	1668
502.781	-4
502.855	1791
502.928	531
503.002	794
503.075	164
503.149	400
503.222	1499
503.295	1194
503.369	942
503.442	1573
503.516	4196
503.589	6949
503.662	2739
503.736	1637
503.809	4297
503.882	2619
503.956	5157
504.029	5450
504.102	10459
504.175	12504
504.249	1669
504.322	1590
504.395	1113
504.468	158
504.542	738
504.615	-320
504.688	950
504.761	-495
504.834	2014
504.907	2454
504.980	2957
505.053	1430
505.127	-125
505.200	3479
505.273	373
505.346	377
505.419	-161
505.492	468
505.565	83
505.638	491
505.711	-287
505.784	-639
505.857	266
505.930	2137
506.003	-1106
506.076	2763
506.149	-451
506.221	-1793
506.294	1911
506.367	1765
506.440	5209
506.513	2514
506.586	835
506.659	-330
506.731	202
506.804	-108
506.877	228
506.950	518
507.022	1673
507.095	-681
507.168	765
507.241	1890
507.313	212
507.386	-672
507.459	1664
507.531	506
507.604	-636
507.677	1375
507.749	-653
507.822	2805
507.894	7623
507.967	9694
508.040	4107
508.112	3747
508.185	2563
508.257	1713
508.330	4299
508.402	1575
508.475	1963
508.547	2856
508.620	2044
508.692	2641
508.765	2266
508.837	1927
508.909	2374
508.982	2131
509.054	3389
509.127	1514
509.199	1545
509.271	423
509.344	788
509.416	1823
509.488	1387
509.560	2833
509.633	2171
509.705	2406
509.777	1376
509.849	2634
509.922	1781
509.994	1090
510.066	3413
510.138	3417
510.210	10710
510.283	7412
510.355	6429
510.427	5647
510.499	4944
510.571	4517
510.643	3787
510.715	6444
510.787	2249
510.859	4452
510.931	3935
511.003	4486
511.076	5277
511.148	2881
511.219	3061
511.291	3633
511.363	3992
511.435	3293
511.507	2134
511.579	2868
511.651	3894
511.723	2144
511.795	2817
511.867	2385
511.939	3295
512.010	2335
512.082	2801
512.154	1684
512.226	3055
512.298	7840
512.369	9307
512.441	7059
512.513	5620
512.585	3415
512.656	4928
512.728	4104
512.800	3274
512.871	4812
512.943	4250
513.015	2508
513.086	3794
513.158	4300
513.230	3074
513.301	4090
513.373	5722
513.444	3173
513.516	3242
513.588	3446
513.659	3591
513.731	4081
513.802	2829
513.874	7589
513.945	8502
514.016	3480
514.088	3311
514.159	2768
514.231	6370
514.302	7726
514.374	6270
514.445	2796
514.516	6473
514.588	4288
514.659	3443
514.730	4070
514.802	6381
514.873	5920
514.944	8465
515.016	5499
515.087	4451
515.158	4660
515.229	6201
515.301	8657
515.372	11884
515.443	5010
515.514	4350
515.585	2659
515.656	4463
515.728	3426
515.799	2121
515.870	3819
515.941	3515
516.012	3234
516.083	6546
516.154	5286
516.225	5878
516.296	6635
516.367	4754
516.438	4415
516.509	5568
516.580	10040
516.651	31248
516.722	77111
516.793	28259
516.864	6282
516.935	6227
517.006	7723
517.077	11558
517.148	31731
517.219	109304
517.289	126048
517.360	15597
517.431	5894
517.502	2666
517.573	5099
517.643	4234
517.714	4789
517.785	4933
517.856	3971
517.926	6829
517.997	6303
518.068	6626
518.138	11552
518.209	22106
518.280	88227
518.350	240324
518.421	66600
518.492	7873
518.562	5280
518.633	3979
518.703	2450
518.774	10236
518.845	17514
518.915	13191
518.986	4182
519.056	4893
519.127	8820
519.197	8917
519.268	9433
519.338	5325
519.408	3079
519.479	3683
519.549	2850
519.620	3438
519.690	1587
519.760	2048
519.831	2597
519.901	1399
519.971	1748
520.042	1483
520.112	652
520.182	3752
520.253	3275
520.323	1501
520.393	1051
520.463	3126
520.534	-640
520.604	3424
520.674	2753
520.744	1318
520.814	770
520.885	3206
520.955	2846
521.025	6357
521.095	1651
521.165	2214
521.235	520
521.305	549
521.375	1171
521.445	2197
521.515	1756
521.585	3071
521.655	1571
521.725	2523
521.795	2398
521.865	-644
521.935	4003
522.005	426
522.075	1051
522.145	1890
522.215	549
522.285	1525
522.355	1374
522.424	2144
522.494	1300
522.564	3220
522.634	7667
522.704	20587
522.774	4975
522.843	1687
522.913	1253
522.983	1528
523.053	101
523.122	1419
523.192	2868
523.262	9246
523.331	6209
523.401	1590
523.471	1312
523.540	1213
523.610	239
523.680	320
523.749	509
523.819	1375
523.888	448
523.958	358
524.027	1597
524.097	319
524.166	933
524.236	-396
524.305	2199
524.375	127
524.444	-300
524.514	2250
524.583	-352
524.653	-95
524.722	1022
524.791	-234
524.861	1778
524.930	-233
524.999	108
525.069	1083
525.138	-375
525.207	-727
525.277	1046
525.346	19
525.415	854
525.484	648
525.554	22
525.623	1060
525.692	1539
525.761	644
525.830	1082
525.900	993
525.969	2724
526.038	5580
526.107	12793
526.176	34852
526.245	20594
526.314	9111
526.383	20321
526.452	21820
526.522	48084
526.591	32084
526.660	8438
526.729	4716
526.797	7657
526.867	21497
526.935	80719
527.004	111349
527.073	38679
527.142	1489
527.211	1629
527.280	2135
527.349	846
527.418	-257
527.487	2686
527.555	175
527.624	-288
527.693	-1293
527.762	922
527.831	-1153
527.899	439
527.968	763
528.037	-697
528.106	822
528.174	1284
528.243	2311
528.312	1997
528.380	2448
528.449	-645
528.518	1181
528.586	-1206
528.655	1193
528.723	-310
528.792	-1161
528.861	-1201
528.929	-2237
528.998	729
529.066	-370
529.135	-89
529.203	-372
529.272	-989
529.340	118
529.409	782
529.477	-1278
529.545	-1578
529.614	1488
529.682	-2475
529.751	-977
529.819	3085
529.887	-1233
529.956	-1304
530.024	669
530.092	-1208
530.161	1595
530.229	441
530.297	-1234
530.365	112
530.434	534
530.502	-1644
530.570	308
530.638	-1404
530.707	-128
530.775	1037
530.843	-1332
530.911	68
530.979	-454
531.047	-928
531.115	-329
531.183	-135
531.252	212
531.320	-175
531.388	-771
531.456	-119
531.524	-2377
531.592	445
531.660	1324
531.728	-1426
531.796	-1229
531.864	-555
531.932	-270
532.000	-1226
532.067	-1167
532.135	-144
532.203	515
532.271	139
532.339	3003
532.407	6840
532.475	3326
532.542	654
532.610	2092
532.678	2073
532.746	20825
532.814	37554
532.881	4889
532.949	207
533.017	195
533.084	52
533.152	-590
533.220	-1073
533.287	-565
533.355	-299
533.423	851
533.490	-1189
533.558	-405
533.625	-18
533.693	-418
533.761	362
533.828	458
533.896	231
533.963	2802
534.031	3387
534.098	3875
534.166	179
534.233	-986
534.300	442
534.368	149
534.435	-952
534.503	218
534.570	577
534.637	-770
534.705	818
534.772	2040
534.840	3593
534.907	18853
534.974	14906
535.041	27
535.109	-645
535.176	-732
535.243	881
535.310	-13
535.378	-923
535.445	141
535.512	221
535.579	821
535.646	-601
535.714	460
535.781	2683
535.848	543
535.915	1564
535.982	423
536.049	874
536.116	1367
536.183	84
536.250	138
536.317	-111
536.384	906
536.451	2150
536.518	1033
536.585	32
536.652	2709
536.719	2764
536.786	857
536.853	731
536.920	2041
536.987	3028
537.053	3569
537.120	21816
537.187	12758
537.254	400
537.321	365
537.388	860
537.454	-735
537.521	-61
537.588	-858
537.654	1665
537.721	1163
537.788	2064
537.855	1107
537.921	88
537.988	117
538.055	1526
538.121	-306
538.188	545
538.254	1184
538.321	4014
538.388	1846
538.454	147
538.521	535
538.587	555
538.654	-111
538.720	459
538.787	120
538.853	230
538.920	1084
538.986	-324
539.053	695
539.119	222
539.185	-645
539.252	2334
539.318	1659
539.385	3367
539.451	684
539.517	2199
539.583	2205
539.650	6066
539.716	12007
539.782	2228
539.849	226
539.915	1341
539.981	-92
540.047	2403
540.114	1109
540.180	2126
540.246	194
540.312	1735
540.378	3250
540.444	4804
540.510	6572
540.576	14662
540.643	2952
540.709	-259
540.775	394
540.841	496
540.907	1517
540.973	2528
541.039	2367
541.105	3264
541.171	1203
541.237	101
541.303	1943
541.369	3828
541.435	1545
541.500	4027
541.566	345
541.632	346
541.698	350
541.764	1968
541.830	41
541.896	-370
541.961	822
542.027	144
542.093	1113
542.159	1707
542.224	375
542.290	3692
542.356	4573
542.421	6388
542.487	3672
542.553	979
542.618	326
542.684	-190
542.750	432
542.815	2083
542.881	2803
542.947	14086
543.012	7806
543.078	715
543.143	582
543.209	1677
543.274	64
543.340	1712
543.405	6021
543.471	6141
543.536	1144
543.602	1161
543.667	48
543.732	1589
543.798	155
543.863	2077
543.928	293
543.994	-122
544.059	681
544.124	704
544.190	-158
544.255	1223
544.320	982
544.386	348
544.451	2078
544.516	1930
544.581	2497
544.646	9473
544.712	12360
544.777	1688
544.842	583
544.907	-567
544.972	533
545.037	1524
545.102	2404
545.168	799
545.233	1797
545.298	2007
545.363	999
545.428	2021
545.493	6543
545.558	9115
545.623	2425
545.688	936
545.753	1265
545.818	862
545.883	1834
545.947	874
546.012	1690
546.077	689
546.142	1577
546.207	1229
546.272	2845
546.337	1143
546.401	2356
546.466	1869
546.531	208
546.596	1788
546.661	978
546.725	1909
546.790	771
546.855	1804
546.919	617
546.984	2178
547.049	767
547.113	2007
547.178	1999
547.243	2435
547.307	3715
547.372	4699
547.436	3745
547.501	3085
547.565	4356
547.630	4673
547.695	3637
547.759	3438
547.823	3492
547.888	4034
547.952	3022
548.017	4182
548.081	6136
548.146	3887
548.210	3704
548.274	3784
548.339	3759
548.403	3381
548.468	2826
548.532	3190
548.596	3758
548.660	3520
548.725	4453
548.789	3898
548.853	5103
548.917	3670
548.982	3440
549.046	3072
549.110	3489
549.174	3098
549.238	2920
549.303	3381
549.367	5145
549.431	3968
549.495	3091
549.559	3451
549.623	4635
549.687	5156
549.751	6133
549.815	5911
549.879	5929
549.943	4183
550.007	6404
550.071	5478
550.135	5876
550.199	4506
550.263	4920
550.327	5727
550.391	6243
550.455	5971
550.519	5670
550.582	6506
550.646	7369
550.710	8418
550.774	6778
550.838	6372
550.901	7009
550.965	7474
551.029	6568
551.093	8543
551.156	9831
551.220	11920
551.284	11716
551.347	9716
551.411	8110
551.475	7661
551.538	8084
551.602	6146
551.666	6201
551.729	5535
551.793	6534
551.856	8401
551.920	9480
551.983	7427
552.047	5281
552.110	5848
552.174	5719
552.237	5757
552.301	5820
552.364	5338
552.428	5249
552.491	5110
552.554	5300
552.618	5628
552.681	6584
552.745	5599
552.808	8403
552.871	10181
552.934	7317
552.998	5820
553.061	7037
553.124	6957
553.187	7945
553.251	8754
553.314	12468
553.377	20583
553.440	45861
553.503	163152
553.567	167407
553.630	17018
553.693	7409
553.756	5871
553.819	5349
553.882	4900
553.945	5265
554.008	4975
554.071	4665
554.134	5393
554.197	4440
554.260	4973
554.323	5727
554.386	6427
554.449	4863
554.512	5426
554.575	4472
554.638	4643
554.701	4354
554.764	4306
554.827	4284
554.889	4176
554.952	3467
555.015	3013
555.078	4124
555.141	3298
555.203	3420
555.266	3521
555.329	3773
555.391	3096
555.454	3404
555.517	3794
555.580	3096
555.642	2438
555.705	2289
555.768	3087
555.830	2259
555.893	1715
555.955	2488
556.018	2718
556.080	2713
556.143	3186
556.206	1616
556.268	2362
556.330	3132
556.393	3137
556.455	2325
556.518	2313
556.580	2964
556.643	2043
556.705	2074
556.767	1588
556.830	2540
556.892	2755
556.955	3577
557.017	2566
557.079	1374
557.142	2433
557.204	2902
557.266	5102
557.328	3606
557.391	607
557.453	1197
557.515	1958
557.577	1611
557.639	2007
557.701	1309
557.764	859
557.826	1084
557.888	2039
557.950	2590
558.012	2662
558.074	4192
558.136	11558
558.198	22576
558.260	5573
558.322	270
558.384	2264
558.446	3546
558.508	3750
558.570	5335
558.632	10356
558.694	16276
558.756	24313
558.818	78614
558.880	139586
558.942	28393
559.003	23708
559.065	8162
559.127	3772
559.189	4228
559.251	6096
559.312	11738
559.374	32566
559.436	86420
559.498	26518
559.559	3131
559.621	4095
559.683	5825
559.744	12084
559.806	42284
559.868	44834
559.929	4576
559.991	3930
560.052	8495
560.114	23702
560.176	11309
560.237	15662
560.299	17611
560.360	1856
560.422	855
560.483	445
560.545	615
560.606	492
560.667	-351
560.729	86
560.790	-259
560.852	1318
560.913	-1022
560.974	475
561.036	-444
561.097	-207
561.158	978
561.220	361
561.281	-209
561.342	198
561.403	730
561.465	1800
561.526	6296
561.587	7121
561.648	430
561.709	579
561.771	18
561.832	364
561.893	-606
561.954	195
562.015	-229
562.076	241
562.137	-366
562.198	43
562.259	1035
562.320	0
562.381	549
562.442	1335
562.503	736
562.564	491
562.625	-199
562.686	-6
562.747	620
562.808	-55
562.869	-605
562.930	13
562.991	-9
563.051	-663
563.112	-526
563.173	-114
563.234	54
563.294	203
563.355	360
563.416	475
563.477	-200
563.537	-28
563.598	-485
563.659	82
563.720	-195
563.780	378
563.841	355
563.901	536
563.962	327
564.023	156
564.083	652
564.144	588
564.204	138
564.265	1005
564.325	193
564.386	774
564.446	1334
564.507	-155
564.567	-90
564.628	-261
564.688	-731
564.749	-25
564.809	-140
564.869	610
564.930	-245
564.990	1150
565.050	684
565.111	411
565.171	10
565.231	209
565.292	1228
565.352	-131
565.412	301
565.472	607
565.532	1017
565.593	417
565.653	1078
565.713	444
565.773	822
565.833	462
565.893	2043
565.953	1099
566.013	769
566.074	861
566.134	1632
566.194	523
566.254	1351
566.314	1346
566.374	713
566.434	730
566.494	1193
566.554	1323
566.614	1844
566.673	1737
566.733	2345
566.793	2607
566.853	2649
566.913	2846
566.973	3072
567.033	3081
567.092	1866
567.152	2442
567.212	4324
567.272	2135
567.331	3576
567.391	4356
567.451	5714
567.511	5070
567.570	4745
567.630	4006
567.690	3351
567.749	4109
567.809	4612
567.868	6504
567.928	7337
567.988	8622
568.047	12731
568.107	17785
568.166	28565
568.226	49147
568.285	64456
568.345	48318
568.404	33561
568.464	27404
568.523	24820
568.582	27175
568.642	33211
568.701	47790
568.761	76044
568.820	120198
568.879	100884
568.939	66076
568.998	43950
569.057	30264
569.116	22401
569.176	16385
569.235	12587
569.294	9760
569.353	8236
569.413	6854
569.472	5722
569.531	5490
569.590	4228
569.649	4409
569.708	3023
569.767	3902
569.827	2827
569.886	2668
569.945	1868
570.004	1872
570.063	1356
570.122	2003
570.181	1287
570.240	1274
570.299	1591
570.358	2064
570.417	1406
570.475	311
570.534	1504
570.593	1085
570.652	1172
570.711	579
570.770	533
570.829	1096
570.887	375
570.946	653
571.005	658
571.064	184
571.122	669
571.181	-585
571.240	213
571.299	823
571.357	385
571.416	-269
571.475	78
571.533	308
571.592	263
571.650	747
571.709	373
571.768	410
571.826	447
571.885	-657
571.943	-20
572.002	-1101
572.060	-201
572.119	462
572.177	-423
572.236	468
572.294	-1083
572.352	339
572.411	-415
572.469	405
572.528	534
572.586	-362
572.644	379
572.703	-234
572.761	-610
572.819	53
572.877	-583
572.936	-373
572.994	-108
573.052	51
573.110	27
573.169	890
573.227	-17
573.285	-178
573.343	105
573.401	328
573.459	419
573.517	149
573.576	-386
573.634	-258
573.692	-846
573.750	-1122
573.808	-602
573.866	817
573.924	-291
573.982	622
574.040	-175
574.098	-22
574.155	70
574.213	133
574.271	-66
574.329	-376
574.387	-927
574.445	-930
574.503	-435
574.560	-719
574.618	-482
574.676	-97
574.734	-314
574.792	476
574.849	-77
574.907	-419
574.965	-690
575.022	-348
575.080	-1241
575.138	173
575.195	-702
575.253	-658
575.311	515
575.368	353
575.426	-37
575.483	418
575.541	-285
575.598	-1070
575.656	23
575.713	-478
575.771	902
575.828	320
575.886	-151
575.943	-46
576.001	-562
576.058	-332
576.115	-613
576.173	399
576.230	195
576.287	-1
576.345	-367
576.402	-285
576.459	265
576.517	-539
576.574	103
576.631	645
576.688	-574
576.746	67
576.803	201
576.860	-275
576.917	560
576.974	-1119
577.031	-803
577.089	21
577.146	36
577.203	518
577.260	-1
577.317	281
577.374	182
577.431	-37
577.488	334
577.545	1312
577.602	1281
577.659	2150
577.716	4177
577.773	5596
577.830	423
577.886	510
577.943	-254
578.000	-206
578.057	141
578.114	785
578.171	1420
578.227	1268
578.284	203
578.341	361
578.398	334
578.454	1189
578.511	567
578.568	-659
578.625	333
578.681	-46
578.738	-566
578.794	332
578.851	471
578.908	374
578.964	390
579.021	513
579.077	-906
579.134	-171
579.190	-193
579.247	227
579.303	-462
579.360	-419
579.416	539
579.473	-159
579.529	-603
579.586	347
579.642	1005
579.698	-280
579.755	539
579.811	511
579.867	1177
579.924	717
579.980	1164
580.036	1885
580.093	1846
580.149	2722
580.205	2815
580.261	916
580.317	921
580.374	163
580.430	-25
580.486	741
580.542	966
580.598	554
580.619	443
580.654	250
580.692	-157
580.710	-359
580.765	-317
580.767	-319
580.823	170
580.838	216
580.879	323
580.911	496
580.935	637
580.984	649
580.991	647
581.047	829
581.057	893
581.103	1182
581.130	1013
581.159	849
581.203	1303
581.215	1422
581.270	833
581.276	790
581.326	359
581.349	685
581.382	1155
581.422	427
581.438	120
581.494	31
581.494	33
581.550	135
581.567	538
581.606	1427
581.640	656
581.661	185
581.713	447
581.717	469
581.773	-17
581.786	254
581.829	1094
581.859	649
581.885	268
581.932	718
581.940	807
581.996	560
582.004	571
582.052	491
582.077	530
582.107	663
582.150	637
582.163	635
582.219	824
582.223	828
582.274	776
582.296	958
582.330	1227
582.368	1220
582.386	1289
582.441	1516
582.441	1515
582.497	1342
582.514	1661
582.552	2510
582.587	3476
582.608	3944
582.659	2048
582.663	1913
582.719	1199
582.732	1118
582.774	930
582.805	1268
582.830	1458
582.877	1174
582.885	1120
582.941	1334
582.950	1284
582.996	1217
583.023	1268
583.052	1370
583.095	1460
583.107	1466
583.162	2212
583.168	2313
583.218	3028
583.240	2341
583.273	1353
583.313	899
583.328	825
583.384	2176
583.385	2160
583.439	1264
583.458	1428
583.494	1934
583.531	1680
583.549	1590
583.603	1673
583.605	1668
583.660	1570
583.676	1642
583.715	1780
583.748	1925
583.770	2165
583.820	2201
583.825	2184
583.881	2043
583.893	1994
583.936	1857
583.965	1577
583.991	1275
584.038	1708
584.046	1812
584.101	1633
584.110	1760
584.156	2379
584.183	2166
584.211	1891
584.255	1853
584.266	1873
584.321	2433
584.328	2366
584.376	1793
584.400	2222
584.431	2760
584.472	2104
584.486	1866
584.541	3033
584.545	3010
584.596	2598
584.617	2533
584.651	2729
584.689	3120
584.706	3097
584.761	2398
584.762	2397
584.816	2891
584.834	3128
584.871	3417
584.906	2804
584.926	2539
584.978	2958
584.980	2976
585.035	3677
585.051	3950
585.090	4579
585.123	4804
585.145	5053
585.195	4894
585.200	4923
585.254	6914
585.267	7828
585.309	11206
585.340	12995
585.364	13432
585.412	8474
585.419	7741
585.473	6717
585.484	6430
585.528	6632
585.556	8250
585.583	10599
585.628	14091
585.637	15517
585.692	31421
585.700	33436
585.747	39045
585.772	32220
585.801	19837
585.845	9063
585.856	7855
585.910	5988
585.917	5815
585.965	5689
585.989	5522
586.019	5489
586.061	5738
586.074	5740
586.128	5041
586.133	5093
586.183	6122
586.205	6208
586.237	6182
586.277	6178
586.292	6238
586.346	6225
586.349	6269
586.401	7069
586.421	6979
586.455	6810
586.493	7185
586.509	7393
586.564	7587
586.565	7594
586.618	8428
586.637	8612
586.672	8582
586.709	8482
586.727	8476
586.781	8466
586.781	8473
586.835	9127
586.853	9313
586.889	9860
586.925	10004
586.944	9815
586.996	9874
586.998	9905
587.052	10712
587.068	10986
587.106	11542
587.140	11763
587.161	11913
587.212	12698
587.215	12752
587.269	13416
587.284	13597
587.323	13976
587.356	14325
587.377	14599
587.427	15894
587.431	16010
587.485	16638
587.499	16970
587.539	17820
587.571	18353
587.593	19215
587.643	21330
587.648	21461
587.702	22282
587.715	22668
587.755	24567
587.786	26001
587.810	26930
587.858	28862
587.864	29236
587.917	32707
587.930	33590
587.971	36661
588.001	38977
588.025	41028
588.073	45762
588.079	46546
588.133	53047
588.145	54746
588.187	60942
588.217	65212
588.241	69866
588.288	79490
588.295	80999
588.348	94960
588.360	98072
588.402	111382
588.431	121215
588.456	130833
588.503	152474
588.510	156550
588.564	192406
588.575	201084
588.617	242662
588.646	274935
588.671	315536
588.718	402436
588.725	421951
588.778	587912
588.789	625169
588.832	816260
588.861	950411
588.886	1011781
588.932	1039883
588.939	1027588
588.993	912570
589.004	907401
589.047	986649
589.075	975739
589.100	851554
589.147	616481
589.154	593752
589.207	444594
589.218	418011
589.261	384203
589.290	368913
589.314	383470
589.361	421290
589.368	436882
589.421	582889
589.433	618100
589.475	801713
589.504	920127
589.528	942750
589.576	920853
589.582	912930
589.635	871841
589.647	846776
589.689	621421
589.718	469591
589.742	388878
589.790	247406
589.795	239588
589.849	175156
589.861	161167
589.902	134592
589.932	115641
589.955	106479
590.004	88160
590.009	86992
590.062	75232
590.075	72241
590.115	65555
590.146	60549
590.168	57470
590.218	50544
590.222	50136
590.275	44646
590.289	43258
590.328	40553
590.360	38079
590.381	37121
590.431	35064
590.435	34957
590.488	32459
590.503	31771
590.541	29716
590.574	27768
590.594	27078
590.645	25427
590.647	25405
590.700	23918
590.716	23491
590.753	22860
590.787	22161
590.806	21771
590.859	20856
590.859	20860
590.912	18914
590.930	18516
590.965	18283
591.001	17826
591.018	17912
591.071	17979
591.072	17947
591.124	16459
591.143	15993
591.177	15851
591.214	15444
591.230	15344
591.283	15246
591.285	15205
591.336	14313
591.356	13999
591.389	14311
591.427	14518
591.442	14153
591.495	12714
591.498	12583
591.547	12638
591.569	12692
591.600	12157
591.640	11270
591.653	11246
591.706	11134
591.711	11099
591.759	11354
591.782	11469
591.811	11296
591.853	10983
591.864	10958
591.917	10647
591.924	10588
591.969	10670
591.995	10689
592.022	10168
592.066	9222
592.075	9350
592.127	10044
592.137	10158
592.180	10319
592.208	10372
592.233	10201
592.279	9822
592.285	9845
592.338	9884
592.350	9878
592.390	9484
592.421	9159
592.443	9062
592.491	8786
592.495	8774
592.548	8444
592.562	8341
592.600	8566
592.633	8741
592.653	8633
592.704	8277
592.705	8323
592.775	8256
592.846	8076
592.916	8831
592.987	9321
593.058	8400
593.128	7775
593.199	7578
593.270	7430
593.341	7273
593.411	7428
593.482	6916
593.553	7664
593.623	7140
593.694	7146
593.764	7501
593.835	6126
593.906	6748
593.976	7093
594.047	6878
594.117	6710
594.188	7423
594.258	6986
594.329	6832
594.399	6707
594.470	6933
594.540	6386
594.611	6258
594.681	6721
594.751	6037
594.822	6589
594.892	6980
594.963	6737
595.033	6532
595.103	6472
595.174	6204
595.244	6713
595.314	6843
595.384	6169
595.455	6836
595.525	6469
595.595	6904
595.665	7573
595.736	6284
595.806	6853
595.876	6610
595.946	6627
596.016	6639
596.087	7313
596.157	6765
596.227	6739
596.297	6767
596.367	6680
596.437	7415
596.507	8219
596.577	7351
596.647	7641
596.717	8119
596.787	7110
596.857	8131
596.927	7620
596.997	7825
597.067	9571
597.137	10563
597.207	9600
597.277	7725
597.347	7448
597.417	7373
597.487	8224
597.557	7870
597.626	7956
597.696	7468
597.766	7963
597.836	6856
597.906	7480
597.975	7674
598.045	6531
598.115	6865
598.185	7757
598.254	8908
598.324	9198
598.394	8870
598.464	8750
598.533	8461
598.603	7677
598.672	8147
598.742	8278
598.812	7824
598.881	8306
598.951	7767
599.020	7726
599.090	8838
599.159	7694
599.229	7640
599.299	7822
599.368	8678
599.437	8001
599.507	7799
599.576	7834
599.646	8979
599.715	10186
599.785	6663
599.854	6576
599.924	6043
599.993	6561
600.062	6329
600.132	6870
600.201	7535
600.270	9010
600.340	8947
600.409	8570
600.478	8623
600.547	8253
600.617	8074
600.686	6446
600.755	6068
600.824	6785
600.894	4908
600.963	5658
601.032	5263
601.101	5813
601.170	5644
601.239	5530
601.308	4915
601.378	5720
601.447	5081
601.516	4645
601.585	5073
601.654	5876
601.723	5024
601.792	5152
601.861	5661
601.930	10086
601.999	6093
602.068	5193
602.137	6184
602.206	5464
602.275	5393
602.343	6080
602.412	6346
602.481	6233
602.550	5732
602.619	5246
602.688	5810
602.756	5786
602.825	6442
602.894	6935
602.963	5577
603.032	6015
603.100	5937
603.169	6360
603.238	6831
603.307	6798
603.375	6425
603.444	6111
603.513	6421
603.581	6513
603.650	6658
603.719	6732
603.787	6542
603.856	6815
603.924	6484
603.993	6587
604.061	6296
604.130	7775
604.198	8307
604.267	8229
604.335	8016
604.404	7494
604.472	7885
604.541	7642
604.609	8494
604.678	8854
604.746	8522
604.815	8362
604.883	8573
604.951	8371
605.020	9331
605.088	9103
605.156	8467
605.225	9322
605.293	9243
605.361	9478
605.429	9010
605.498	9784
605.566	9921
605.634	10366
605.702	9782
605.771	11006
605.839	11105
605.907	10286
605.975	10486
606.043	10837
606.111	10488
606.180	11972
606.248	14736
606.316	14699
606.384	9161
606.452	11586
606.520	10781
606.588	10909
606.656	9834
606.724	9938
606.792	9814
606.860	8766
606.928	8288
606.996	8278
607.064	7751
607.132	8079
607.200	7890
607.267	8320
607.335	8089
607.403	8205
607.471	7596
607.539	8133
607.607	8800
607.674	7407
607.742	7825
607.810	6618
607.878	8199
607.946	8327
608.013	7756
608.081	7339
608.149	7996
608.216	8060
608.284	8687
608.352	7535
608.419	7024
608.487	9073
608.555	7489
608.622	9210
608.690	8858
608.757	10078
608.825	9756
608.893	9960
608.960	8840
609.028	9011
609.095	9349
609.163	7998
609.230	8136
609.298	7155
609.365	7606
609.432	8327
609.500	9084
609.567	10679
609.635	11191
609.702	12819
609.769	11486
609.837	9472
609.904	8118
609.971	7281
610.039	11446
610.106	14111
610.173	27537
610.241	66186
610.308	37596
610.375	14349
610.442	8246
610.509	8424
610.577	9577
610.644	8661
610.711	8655
610.778	8909
610.845	9242
610.912	11054
610.980	13613
611.047	21482
611.114	13978
611.181	10708
611.248	8947
611.315	10778
611.382	9577
611.449	10242
611.516	11696
611.583	11380
611.650	10692
611.717	11639
611.784	10205
611.851	12417
611.918	13548
611.984	16809
612.051	27874
612.118	62320
612.185	159567
612.252	87245
612.319	18967
612.386	14530
612.452	12964
612.519	12053
612.586	11726
612.653	12918
612.719	13325
612.786	12063
612.853	11391
612.919	10758
612.986	12152
613.053	10610
613.120	9068
613.186	8618
613.253	9877
613.319	9488
613.386	9555
613.453	8937
613.519	10403
613.586	10525
613.652	13314
613.719	11710
613.785	10943
613.852	10772
613.918	11275
613.985	15777
614.051	26156
614.118	61515
614.184	53610
614.250	13814
614.317	11075
614.383	10008
614.449	10345
614.516	10218
614.582	10396
614.648	10399
614.715	9623
614.781	9299
614.847	10523
614.914	9291
614.980	8999
615.046	9261
615.112	10365
615.179	10668
615.245	12016
615.311	16027
615.377	25695
615.443	27289
615.509	13960
615.575	12687
615.642	11385
615.708	12095
615.774	13718
615.840	15047
615.906	19877
615.972	33576
616.038	68804
616.104	110195
616.170	219465
616.236	162288
616.302	30420
616.368	19955
616.434	12460
616.500	13903
616.565	13884
616.631	17270
616.697	13879
616.763	15469
616.829	23107
616.895	39608
616.961	36045
617.026	14605
617.092	10026
617.158	10582
617.224	10303
617.289	9519
617.355	8160
617.421	8447
617.487	8931
617.552	8887
617.618	7443
617.684	7647
617.749	10041
617.815	7947
617.880	6776
617.946	8556
618.012	8629
618.077	7239
618.143	7614
618.208	7332
618.274	8649
618.339	7916
618.405	5144
618.470	8275
618.536	5900
618.601	6700
618.667	5726
618.732	6070
618.798	6204
618.863	6637
618.928	5452
618.994	6690
619.059	6796
619.124	7915
619.190	5942
619.255	5071
619.320	5479
619.386	5636
619.451	4650
619.516	5654
619.581	6186
619.647	5494
619.712	5870
619.777	6085
619.842	5194
619.907	4949
619.972	5802
620.038	5935
620.103	5635
620.168	4253
620.233	5992
620.298	5100
620.363	6344
620.428	6357
620.493	5737
620.558	5922
620.623	6336
620.688	6440
620.753	5360
620.818	5903
620.883	5689
620.948	6892
621.013	4898
621.078	5821
621.143	4274
621.207	7958
621.272	6430
621.337	5614
621.402	5983
621.467	6434
621.532	5304
621.596	6000
621.661	5865
621.726	5882
621.791	5283
621.855	6590
621.920	6379
621.985	4965
622.049	6655
622.114	5382
622.179	6414
622.243	5792
622.308	5815
622.373	7073
622.437	6291
622.502	6257
622.566	5472
622.631	4027
622.695	6991
622.760	6113
622.824	5987
622.889	6087
622.953	4902
623.018	8838
623.082	7445
623.147	6469
623.211	6205
623.276	6734
623.340	4939
623.404	6067
623.469	5867
623.533	6138
623.597	5361
623.662	5470
623.726	4479
623.790	4148
623.854	4427
623.919	5243
623.983	4999
624.047	5397
624.111	5146
624.176	5058
624.240	3992
624.304	6333
624.368	4775
624.432	5476
624.496	5768
624.560	6214
624.625	5375
624.689	5618
624.753	5486
624.817	6153
624.881	4657
624.945	5420
625.009	4196
625.073	5660
625.137	3839
625.201	6144
625.265	5979
625.329	5713
625.393	5097
625.456	4695
625.520	4859
625.584	5476
625.648	5281
625.712	4960
625.776	5959
625.839	6597
625.903	3933
625.967	3756
626.031	5737
626.095	5929
626.158	4900
626.222	3115
626.286	4501
626.349	2427
626.413	1493
626.477	4832
626.540	3325
626.604	2375
626.668	4665
626.731	2723
626.795	2529
626.858	2573
626.922	2416
626.986	3358
627.049	1188
627.113	3376
627.176	3145
627.240	2681
627.303	3459
627.366	2488
627.430	2718
627.493	2759
627.557	1640
627.620	4487
627.684	2156
627.747	3396
627.810	1380
627.874	2940
627.937	1164
628.000	4233
628.064	2283
628.127	585
628.190	1700
628.253	2825
628.317	1035
628.380	2162
628.443	1393
628.506	1091
628.569	2083
628.632	394
628.696	2195
628.759	1016
628.822	1153
628.885	1259
628.948	1308
629.011	1630
629.074	1257
629.137	1405
629.200	493
629.263	1863
629.326	176
629.389	1120
629.452	1569
629.515	1176
629.578	1029
629.641	1165
629.704	846
629.767	1725
629.830	2016
629.892	1241
629.955	621
630.018	2884
630.081	634
630.144	1822
630.207	455
630.269	2927
630.332	286
630.395	1046
630.458	994
630.520	-510
630.583	1437
630.646	1829
630.708	643
630.771	166
630.834	2164
630.896	567
630.959	1039
631.021	841
631.084	430
631.146	1605
631.209	1937
631.272	-446
631.334	1802
631.397	429
631.459	-51
631.522	1684
631.584	893
631.646	1254
631.709	1600
631.771	1318
631.834	791
631.896	1739
631.958	893
632.021	1690
632.083	-323
632.145	940
632.208	513
632.270	1805
632.332	621
632.395	290
632.457	1189
632.519	-15
632.581	2632
632.643	-285
632.706	537
632.768	33
632.830	1627
632.892	305
632.954	196
633.016	1326
633.078	542
633.141	1306
633.203	361
633.265	786
633.327	859
633.389	164
633.451	1572
633.513	1388
633.575	1115
633.637	369
633.698	959
633.760	2122
633.822	1580
633.884	1493
633.946	1414
634.008	991
634.070	2026
634.132	4072
634.193	1748
634.255	1873
634.317	1473
634.379	2174
634.441	1163
634.502	85
634.564	1673
634.626	1207
634.687	1189
634.749	826
634.811	1522
634.873	690
634.934	633
634.996	1138
635.057	119
635.119	692
635.181	185
635.242	1551
635.304	-928
635.365	3242
635.427	-155
635.488	581
635.550	-459
635.611	906
635.673	-781
635.734	2301
635.796	386
635.857	2525
635.918	1629
635.980	1979
636.041	362
636.102	1280
636.164	2313
636.225	1940
636.286	-841
636.348	1839
636.409	217
636.470	740
636.531	993
636.593	-75
636.654	1006
636.715	432
636.776	354
636.838	-36
636.899	1641
636.960	660
637.021	730
637.082	359
637.143	438
637.204	47
637.265	-950
637.326	72
637.387	1867
637.448	-946
637.509	370
637.570	557
637.631	1557
637.692	-795
637.753	-685
637.814	322
637.875	802
637.936	1155
637.997	82
638.058	-686
638.119	741
638.179	-215
638.240	-505
638.301	541
638.362	-42
638.423	-77
638.483	1152
638.544	-1020
638.605	751
638.666	-813
638.726	572
638.787	1479
638.848	60
638.908	273
638.969	555
639.030	436
639.090	-940
639.151	-86
639.211	189
639.272	955
639.332	2384
639.393	253
639.453	-804
639.514	-206
639.574	-229
639.635	341
639.695	59
639.756	-333
639.816	1269
639.877	629
639.937	1646
639.997	2116
640.058	-1134
640.118	-1425
640.178	569
640.239	20
640.299	-352
640.359	-409
640.420	-41
640.480	324
640.540	645
640.600	44
640.661	226
640.721	187
640.781	2119
640.841	209
640.901	726
640.961	1394
641.021	881
641.082	-109
641.142	426
641.202	1267
641.262	-977
641.322	766
641.382	-1181
641.442	-72
641.502	285
641.562	147
641.622	-341
641.682	-71
641.742	379
641.802	185
641.861	866
641.921	-164
641.981	1284
642.041	901
642.101	-39
642.161	-1310
642.221	-1411
642.280	452
642.340	-328
642.400	-550
642.460	752
642.519	-591
642.579	732
642.639	1225
642.698	-2180
642.758	1706
642.818	-345
642.877	-1451
642.937	71
642.997	777
643.056	1228
643.116	-2145
643.175	131
643.235	-124
643.294	-177
643.354	154
643.414	811
643.473	883
643.532	1328
643.592	2012
643.651	4950
643.711	12084
643.770	25738
643.830	64616
643.889	137602
643.948	26524
644.008	2703
644.067	507
644.126	130
644.186	436
644.245	1015
644.304	-937
644.363	1749
644.423	-919
644.482	634
644.541	887
644.600	-1988
644.659	466
644.719	-525
644.778	2001
644.837	3836
644.896	9628
644.955	22949
645.014	6473
645.073	2388
645.132	201
645.191	-294
645.250	-257
645.309	1373
645.368	-2
645.427	700
645.486	384
645.545	3774
645.604	-1002
645.663	655
645.722	17
645.781	179
645.840	1021
645.898	293
645.957	3379
646.016	3926
646.075	10442
646.134	20822
646.192	63292
646.251	86410
646.310	8984
646.369	1322
646.427	1627
646.486	-791
646.545	682
646.603	-108
646.662	-315
646.721	-47
646.779	-936
646.838	-842
646.896	977
646.955	479
647.014	2340
647.072	4387
647.131	13827
647.189	4876
647.248	-541
647.306	-1
647.365	354
647.423	-1611
647.481	633
647.540	-1640
647.598	-225
647.657	-370
647.715	950
647.773	-1375
647.832	631
647.890	-1899
647.948	-1335
648.007	247
648.065	-1327
648.123	-967
648.181	1433
648.240	2999
648.298	847
648.356	-142
648.414	-63
648.472	-172
648.531	-533
648.589	-598
648.647	-65
648.705	-680
648.763	101
648.821	242
648.879	-509
648.937	-753
648.995	-205
649.053	-1222
649.111	1384
649.169	2991
649.227	6893
649.285	16710
649.343	46603
649.401	19888
649.459	5751
649.516	6296
649.574	6377
649.632	22705
649.690	25467
649.748	5681
649.806	6500
649.863	13497
649.921	10880
649.979	5011
650.037	742
650.094	-1417
650.152	236
650.210	-824
650.268	98
650.325	305
650.383	-94
650.440	-130
650.498	72
650.556	-1042
650.613	-859
650.671	-719
650.728	-318
650.786	-1175
650.843	-738
650.901	-2110
650.958	-124
651.016	-344
651.073	-230
651.131	-790
651.188	-1088
651.246	31
651.303	-1332
651.360	-299
651.418	-1276
651.475	-558
651.532	-926
651.590	-249
651.647	-1163
651.704	-590
651.762	-826
651.819	-950
651.876	-664
651.933	-1105
651.990	-137
652.048	-1520
652.105	-1328
652.162	-470
652.219	-1298
652.276	-856
652.333	-13
652.390	-1234
652.448	-305
652.505	-409
652.562	-43
652.619	833
652.676	3198
652.733	4124
652.790	170
652.847	-2037
652.904	-462
652.961	-1646
653.017	-1324
653.074	-1077
653.131	-853
653.188	-1463
653.245	-930
653.302	-1072
653.359	-1070
653.415	-933
653.472	-1177
653.529	-208
653.586	-1500
653.642	-814
653.699	-1292
653.756	-1798
653.813	-1830
653.869	-26
653.926	-1472
653.983	-1321
654.039	32
654.096	-563
654.152	-245
654.209	-1448
654.266	-1182
654.322	-1499
654.379	-1026
654.435	-275
654.492	-148
654.548	-1473
654.605	-558
654.661	49
654.717	-1202
654.774	-828
654.830	-930
654.887	-1041
654.943	-679
655.000	-778
655.056	-505
655.112	-938
655.168	-2237
655.225	-1213
655.281	-313
655.337	-1185
655.394	-1213
655.450	-1728
655.506	-1104
655.562	-1778
655.618	443
655.675	-1549
655.731	-926
655.787	-1183
655.843	-588
655.899	-1475
655.955	42
656.011	-1066
656.067	-1786
656.123	-571
656.179	-1074
656.235	298
656.291	-2045
656.347	-309
656.403	-1186
656.459	-1420
656.515	-638
656.571	-1250
656.627	-1083
656.683	-1091
656.739	-884
656.795	-929
656.850	-428
656.906	-355
656.962	-51
657.018	-1820
657.074	-1142
657.129	-521
657.185	-700
657.241	374
657.297	-760
657.352	-825
657.408	-1325
657.464	-372
657.519	-759
657.575	-1501
657.630	-801
657.686	-869
657.742	-1662
657.797	-980
657.853	-1282
657.908	-489
657.964	-1665
658.019	-936
658.075	-1170
658.130	-623
658.186	-1417
658.241	-1000
658.297	-1306
658.352	-994
658.407	-907
658.463	-1410
658.518	-1528
658.573	-1193
658.629	-1504
658.684	-1760
658.739	-707
658.795	-2130
658.850	-858
658.905	-1308
658.960	-1196
659.016	-1817
659.071	-2368
659.126	-605
659.181	-520
659.236	-170
659.291	436
659.346	-194
659.401	-622
659.457	456
659.512	2118
659.567	999
659.622	-692
659.677	-1064
659.732	-1905
659.787	-1070
659.842	-1687
659.897	-942
659.952	-961
660.007	-1802
660.061	-1399
660.116	-1217
660.171	-1779
660.226	-1897
660.281	-147
660.336	-1785
660.391	-132
660.445	-1140
660.500	-246
660.555	-1740
660.610	-1677
660.664	-1314
660.719	-1117
660.774	-1095
660.828	-553
660.883	-900
660.938	-365
660.992	-2038
661.047	-758
661.101	-1237
661.156	-906
661.211	-2123
661.265	-1318
661.320	-1666
661.374	-1282
661.429	-2246
661.483	-985
661.538	-1348
661.592	-684
661.647	-1375
661.701	-484
661.755	-1254
661.810	-1134
661.864	-1316
661.919	-1208
661.973	-1240
662.027	-1102
662.081	-1693
662.136	-1699
662.190	-1451
662.244	-1349
662.299	-1030
662.353	-1383
662.407	-1819
662.461	-1884
662.515	-1250
662.569	-1580
662.624	-820
662.678	-1606
662.732	-1372
662.786	-889
662.840	-1020
662.894	-1987
662.948	-1330
663.002	-1228
663.056	-1686
663.110	-1951
663.164	-1526
663.218	-1551
663.272	-761
663.326	-1196
663.380	-783
663.434	-1435
663.488	-1789
663.542	-1261
663.595	-1606
663.649	-1259
663.703	-685
663.757	-760
663.811	-1840
663.864	-1433
663.918	-1526
663.972	-1170
664.026	-582
664.079	-1822
664.133	-1259
664.187	-1613
664.240	-1355
664.294	-1846
664.348	-744
664.401	-778
664.455	-1014
664.508	-1255
664.562	-930
664.615	-1349
664.669	-1621
664.722	-1199
664.776	-1119
664.829	-691
664.883	-1732
664.936	-1683
664.990	-1347
665.043	-947
665.097	-1842
665.150	-135
665.203	-1537
665.257	-883
665.310	-1175
665.363	-1418
665.417	-1473
665.470	-1434
665.523	-1497
665.576	-1934
665.630	-1186
665.683	-1236
665.736	-1180
665.789	-1060
665.842	-1350
665.895	-1386
665.949	-1858
666.002	-1019
666.055	-1825
666.108	-1183
666.161	-1534
666.214	-1990
666.267	-1475
666.320	-733
666.373	-1360
666.426	-934
666.479	-1078
666.532	-1900
666.585	-2008
666.638	-1282
666.691	-1317
666.744	-1538
666.796	-1956
666.849	-1484
666.902	-894
666.955	-1683
667.008	-1592
667.060	-2469
667.113	-1692
667.166	-1386
667.219	-1475
667.271	-1104
667.324	-1077
667.377	-876
667.430	-342
667.482	-496
667.535	-670
667.587	-802
667.640	-1587
667.693	-1307
667.745	-1898
667.798	-1021
667.850	-1623
667.903	-1027
667.955	-1930
668.008	-1488
668.060	-1742
668.113	-1070
668.165	-1792
668.218	-1244
668.270	-883
668.322	-1563
668.375	-1746
668.427	-779
668.479	-1587
668.532	-1226
668.584	-1716
668.636	-1080
668.689	-1468
668.741	-1757
668.793	-1279
668.845	-1326
668.898	-780
668.950	-1391
669.002	-1212
669.054	-1172
669.106	-1929
669.158	-626
669.211	-839
669.263	-1577
669.315	-430
669.367	-501
669.419	-1429
669.471	-736
669.523	-242
669.575	105
669.627	-1018
669.679	-1683
669.731	-1297
669.783	-586
669.835	-1012
669.886	-656
669.938	-655
669.990	-1039
670.042	-1575
670.094	-963
670.146	-1660
670.197	-865
670.249	-1316
670.301	-995
670.353	-35
670.404	-291
670.456	1428
670.508	2931
670.560	6256
670.611	13977
670.663	24551
670.715	66639
670.766	100262
670.818	21040
670.869	1268
670.921	905
670.972	-767
671.024	-1148
671.075	-1527
671.127	-1106
671.178	-1425
671.230	-1397
671.281	-1167
671.333	-291
671.384	-2057
671.436	-2042
671.487	-680
671.538	-1030
671.590	-811
671.641	-211
671.692	2015
671.744	4396
671.795	1672
671.846	-410
671.897	-1121
671.949	-1104
672.000	-1679
672.051	-1486
672.102	-225
672.153	-1663
672.204	-1280
672.256	-592
672.307	-1667
672.358	-1271
672.409	-1413
672.460	-1905
672.511	-1654
672.562	-1938
672.613	-1457
672.664	-1598
672.715	-1107
672.766	-2074
672.817	-1059
672.868	-1518
672.919	-1471
672.970	-1692
673.021	-1875
673.071	-2247
673.122	-2311
673.173	-1652
673.224	-1837
673.275	-2289
673.326	-1300
673.376	-1066
673.427	-1918
673.478	-2026
673.528	-1451
673.579	-1709
673.630	-1695
673.680	-1156
673.731	-1234
673.782	-2431
673.832	-2773
673.883	-1420
673.934	-1683
673.984	-1988
674.035	-1071
674.085	-2326
674.136	-1139
674.186	-2229
674.237	-1227
674.287	-2578
674.338	-2646
674.388	-1631
674.438	-1808
674.489	-972
674.539	-2299
674.589	-2335
674.640	-1291
674.690	-1236
674.740	-2481
674.791	-1320
674.841	-2105
674.891	-1939
674.942	-611
674.992	-1179
675.042	-2460
675.092	-1448
675.142	-2151
675.193	-2116
675.243	-2203
675.293	-1443
675.343	-1563
675.393	-2352
675.443	-1451
675.493	-1819
675.543	-2068
675.593	-2259
675.643	-1498
675.693	-1434
675.743	-2435
675.793	-1760
675.843	-2320
675.893	-1756
675.943	-1081
675.993	-2227
676.043	-1435
676.093	-1595
676.142	-2395
676.192	-1644
676.242	-1546
676.292	-1973
676.341	-1561
676.391	-2131
676.441	-1459
676.491	-848
676.540	-2238
676.590	-1371
676.640	-1576
676.689	-2027
676.739	-1991
676.789	-1321
676.838	-2054
676.888	-1423
676.937	-1432
676.987	-1622
677.037	-2301
677.086	-2166
677.136	-1375
677.185	-1651
677.235	-2236
677.284	-1340
677.333	-1477
677.383	-2539
677.432	-1521
677.482	-992
677.531	-946
677.580	-1690
677.630	-2557
677.679	-1399
677.728	-1826
677.778	-1176
677.827	-1550
677.876	-2080
677.925	-2017
677.975	-1659
678.024	-1467
678.073	-1417
678.122	-1698
678.171	-2133
678.220	-2499
678.269	-1475
678.319	-1756
678.368	-1526
678.417	-1694
678.466	-2042
678.515	-1935
678.564	-1848
678.613	-1881
678.662	-2186
678.711	-1767
678.760	-1708
678.809	-2104
678.857	-2376
678.906	-1805
678.955	-1683
679.004	-1837
679.053	-2140
679.102	-2681
679.151	-1719
679.199	-2347
679.248	-1411
679.297	-2640
679.346	-1398
679.394	-1847
679.443	-1896
679.492	-1531
679.540	-1709
679.589	-1921
679.638	-1685
679.686	-2051
679.735	-1610
679.784	-2245
679.832	-2402
679.881	-1302
679.929	-2106
679.978	-1521
680.026	-1380
680.075	-1711
680.123	-1988
680.172	-2346
680.220	-2183
680.268	-2033
680.317	-1581
680.365	-1535
680.414	-2006
680.462	-1082
680.510	-1865
680.559	-1623
680.607	-2605
680.655	-1537
680.703	-2115
680.752	-2946
680.800	-2484
680.848	-1464
680.896	-1558
680.945	-1166
680.993	-2060
681.041	-1717
681.089	-2191
681.137	-1675
681.185	-1818
681.233	-1702
681.258	-2210
681.281	-2696
681.329	-1870
681.377	-2598
681.380	-2522
681.425	-1248
681.473	-1398
681.502	-1272
681.521	-1196
681.569	-1290
681.617	-2519
681.624	-2439
681.665	-1981
681.713	-2360
681.745	-2302
681.761	-2281
681.809	-2258
681.857	-1448
681.867	-1499
681.904	-1711
681.952	-1736
681.989	-1665
682.000	-1651
682.048	-1025
682.096	-2655
682.111	-2378
682.143	-1805
682.191	-1426
682.233	-1861
682.239	-1932
682.286	-1306
682.334	-2176
682.354	-2215
682.382	-2279
682.430	-1860
682.476	-2063
682.477	-2074
682.525	-1984
682.572	-2212
682.598	-2254
682.620	-2294
682.667	-1466
682.715	-1252
682.720	-1287
682.763	-1712
682.810	-1692
682.841	-1726
682.857	-1737
682.905	-1624
682.952	-1406
682.963	-1495
683.000	-1830
683.047	-1442
683.085	-1477
683.095	-1487
683.142	-772
683.190	-1559
683.206	-1553
683.237	-1606
683.284	-1058
683.328	-1552
683.332	-1599
683.379	-1344
683.426	-1733
683.449	-1907
683.473	-2009
683.521	-1607
683.568	-1543
683.571	-1496
683.615	-1062
683.662	-1124
683.693	-1682
683.709	-1988
683.757	-1416
683.804	-1148
683.814	-1069
683.851	-834
683.898	-1350
683.936	-1529
683.945	-1560
683.992	-1870
684.039	-1261
684.057	-1312
684.086	-1442
684.133	-1051
684.179	-1279
684.180	-1291
684.227	-407
684.274	-893
684.300	-550
684.321	-296
684.368	-1182
684.415	-951
684.422	-913
684.462	-729
684.509	-1463
684.543	-1165
684.556	-1037
684.603	-1413
684.649	-975
684.665	-1073
684.696	-1330
684.743	-1116
684.786	-676
684.790	-638
684.837	-724
684.883	-704
684.908	-967
684.930	-1226
684.977	-638
685.023	-667
685.029	-726
685.070	-1218
685.117	-1260
685.150	-1228
685.164	-1215
685.210	-1436
685.257	-892
685.272	-916
685.303	-901
685.350	-1045
685.393	-627
685.396	-609
685.443	-521
685.490	-666
685.514	-960
685.536	-1197
685.583	-883
685.629	-1046
685.636	-1032
685.675	-899
685.722	-933
685.757	-1043
685.768	-1120
685.815	-716
685.861	-727
685.878	-712
685.908	-638
685.954	-1092
686.000	-974
686.000	-972
686.047	-953
686.093	-838
686.121	-526
686.139	-325
686.185	-401
686.232	-403
686.242	-382
686.278	-380
686.324	-363
686.363	-453
686.370	-460
686.416	-346
686.463	-259
686.484	-353
686.509	-454
686.555	-212
686.601	-17
686.606	-52
686.647	-482
686.693	-454
686.727	-611
686.739	-666
686.785	-674
686.831	-315
686.848	-498
686.877	-756
686.923	-685
686.969	-645
686.969	-646
687.015	-488
687.061	-986
687.090	-180
687.107	280
687.153	-218
687.199	-350
687.211	-512
687.245	-869
687.291	-301
687.332	-435
687.336	-457
687.382	-113
687.428	-325
687.453	-426
687.474	-515
687.520	-21
687.565	-408
687.574	-406
687.611	-345
687.657	103
687.695	-34
687.702	-10
687.748	491
687.794	902
687.816	930
687.839	614
687.885	331
687.931	158
687.937	114
687.976	87
688.022	-126
688.058	5
688.067	31
688.113	-628
688.158	-465
688.179	-497
688.204	-433
688.249	-705
688.295	-529
688.300	-448
688.340	60
688.386	-179
688.421	-414
688.431	-473
688.477	-104
688.522	-141
688.542	7
688.567	297
688.613	-225
688.658	712
688.663	676
688.703	149
688.749	23
688.784	4
688.794	32
688.839	-174
688.884	-92
688.905	110
688.930	328
688.975	-126
689.020	138
689.026	82
689.065	-353
689.110	-378
689.146	-187
689.155	-60
689.201	443
689.246	324
689.267	524
689.291	510
689.336	214
689.381	-190
689.388	-186
689.426	5
689.471	-25
689.509	383
689.516	452
689.561	75
689.606	206
689.630	98
689.651	35
689.696	235
689.741	253
689.750	330
689.785	621
689.830	96
689.871	173
689.875	177
689.920	124
689.965	306
689.992	334
690.010	505
690.054	480
690.099	830
690.112	931
690.144	700
690.189	399
690.233	-213
690.233	-211
690.278	347
690.323	468
690.354	693
690.367	720
690.412	184
690.457	439
690.474	482
690.501	645
690.546	424
690.590	683
690.595	685
690.635	667
690.680	323
690.716	266
690.724	336
690.769	971
690.813	2020
690.836	2118
690.857	2316
690.902	2674
690.946	3130
690.957	3375
690.991	5295
691.035	7217
691.077	9510
691.080	9488
691.124	7968
691.168	6837
691.198	6034
691.213	5542
691.257	4341
691.301	2379
691.318	1811
691.346	1677
691.390	1493
691.434	1381
691.439	1311
691.478	899
691.522	748
691.559	250
691.567	199
691.611	1169
691.655	649
691.680	758
691.699	748
691.743	702
691.787	615
691.800	400
691.831	189
691.875	601
691.919	958
691.921	958
691.964	716
692.008	631
692.041	413
692.052	430
692.096	270
692.139	288
692.162	616
692.183	871
692.227	285
692.271	459
692.282	482
692.315	751
692.359	942
692.402	1267
692.403	1274
692.447	907
692.490	1448
692.523	1136
692.534	1071
692.578	1294
692.622	976
692.643	1299
692.666	1560
692.709	1153
692.753	1270
692.763	1215
692.797	1177
692.840	1442
692.884	1238
692.884	1244
692.928	1368
692.971	1595
693.004	1559
693.015	1517
693.059	1312
693.102	1287
693.124	1199
693.146	1249
693.189	1273
693.233	1530
693.245	1594
693.276	1640
693.320	1789
693.363	1621
693.365	1596
693.407	1538
693.450	2113
693.485	2405
693.493	2524
693.537	3096
693.580	3590
693.605	3952
693.624	4614
693.667	5921
693.710	7505
693.725	8006
693.753	11382
693.797	16517
693.840	22147
693.845	22722
693.883	20465
693.926	17721
693.966	15276
693.970	14907
694.013	10780
694.056	6855
694.086	3852
694.099	3625
694.142	3218
694.185	2698
694.206	2401
694.229	2322
694.272	2308
694.315	2415
694.326	2320
694.358	2099
694.401	2098
694.444	2043
694.446	2029
694.487	1895
694.530	1751
694.566	1496
694.573	1485
694.616	1816
694.659	1678
694.686	1773
694.702	1797
694.745	1613
694.787	1556
694.806	1611
694.830	1794
694.873	1723
694.916	1844
694.926	1858
694.959	1943
695.002	1990
695.044	2115
695.046	2112
695.087	2069
695.130	1734
695.166	1768
695.172	1786
695.215	1687
695.258	1655
695.286	1520
695.301	1522
695.343	1602
695.386	1741
695.406	1657
695.428	1452
695.471	1316
695.514	1192
695.526	1102
695.556	1171
695.599	1373
695.641	1576
695.646	1596
695.684	1846
695.726	2078
695.766	2143
695.769	2122
695.811	1711
695.854	1310
695.886	1168
695.896	1277
695.938	1298
695.981	1584
696.005	1750
696.023	1807
696.065	1900
696.108	2022
696.125	1945
696.150	1881
696.192	2149
696.235	2166
696.245	2174
696.277	2225
696.319	2324
696.361	2448
696.365	2437
696.404	2430
696.446	2371
696.485	2457
696.488	2485
696.530	2724
696.572	2747
696.604	2925
696.614	2909
696.656	2568
696.698	2545
696.724	2345
696.740	2277
696.783	2115
696.825	2078
696.844	1980
696.867	1894
696.909	1868
696.951	1638
696.964	1614
696.992	1727
697.034	1771
697.076	1896
697.083	1887
697.118	1953
697.160	2083
697.202	2281
697.203	2274
697.244	2332
697.286	2406
697.323	2333
697.327	2340
697.369	2429
697.411	2470
697.442	2450
697.453	2404
697.494	2264
697.536	2106
697.562	1936
697.578	1925
697.620	2001
697.661	1913
697.682	1928
697.703	2119
697.744	2364
697.786	2814
697.801	2904
697.828	3024
697.869	3219
697.911	3396
697.921	3433
697.952	2970
697.994	2295
698.035	1711
698.040	1626
698.077	1994
698.118	2363
698.160	2764
698.160	2754
698.201	2774
698.243	2728
698.279	2773
698.284	2789
698.325	2748
698.367	2733
698.399	2690
698.408	2666
698.449	2527
698.491	2373
698.518	2276
698.532	2330
698.573	2427
698.614	2570
698.638	2612
698.656	2688
698.697	2867
698.738	3037
698.757	3102
698.779	2999
698.820	2786
698.862	2575
698.877	2480
698.903	2503
698.944	2531
698.985	2556
698.996	2555
699.026	2374
699.067	2104
699.116	1776
699.235	2141
699.354	2993
699.474	2456
699.593	3228
699.713	2372
699.832	1812
699.951	2740
700.070	2947
700.190	2290
700.309	1905
700.428	2138
700.547	3260
700.667	2690
700.786	2919
700.905	2253
701.024	1700
701.143	2874
701.262	1756
701.381	2857
701.500	2330
701.619	2436
701.738	1909
701.857	2689
701.976	1750
702.095	2425
702.214	2247
702.333	2590
702.452	1994
702.571	2159
702.690	2691
702.809	2409
702.928	1459
703.047	2452
703.165	2558
703.284	1934
703.403	2635
703.522	1908
703.640	3052
703.759	2556
703.878	2271
703.997	2682
704.115	1776
704.234	2939
704.353	2510
704.471	1300
704.590	2112
704.708	3169
704.827	2226
704.946	2527
705.064	1385
705.183	1687
705.301	2319
705.420	3550
705.538	2894
705.656	3296
705.775	6947
705.893	24080
706.012	31557
706.130	3781
706.249	2100
706.367	3002
706.485	1885
706.604	1741
706.722	2056
706.840	3469
706.958	5450
707.077	2975
707.195	2487
707.313	2650
707.431	1426
707.549	1960
707.668	1436
707.786	2414
707.904	1812
708.022	1312
708.140	2147
708.258	1440
708.376	2469
708.494	1799
708.612	1875
708.730	2419
708.848	2946
708.966	2106
709.084	2064
709.202	2206
709.320	1418
709.438	2035
709.556	1539
709.674	1996
709.791	1410
709.909	1873
710.027	2553
710.145	1896
710.263	1456
710.380	1275
710.498	2282
710.616	1959
710.733	1399
710.851	1649
710.969	1927
711.086	1445
711.204	2333
711.322	2249
711.439	1525
711.557	1660
711.674	2173
711.792	1653
711.909	4398
712.027	6600
712.144	1903
712.262	2381
712.379	1089
712.497	2115
712.614	2323
712.732	1661
712.849	1567
712.966	1643
713.084	1778
713.201	2044
713.318	2648
713.436	1672
713.553	1158
713.670	2265
713.787	2010
713.905	1779
714.022	2430
714.139	1186
714.256	2462
714.373	2729
714.490	5130
714.608	15248
714.725	67878
714.842	67934
714.959	4491
715.076	2181
715.193	2214
715.310	1483
715.427	1370
715.544	1985
715.661	1683
715.778	1698
715.895	1177
716.011	1211
716.128	1418
716.245	1442
716.362	2082
716.479	1146
716.596	1847
716.713	1553
716.829	2029
716.946	1974
717.063	970
717.180	1837
717.296	1913
717.413	1471
717.530	1633
717.646	2138
717.763	1726
717.880	1111
717.996	1785
718.113	1362
718.229	864
718.346	995
718.462	1394
718.579	2185
718.695	2460
718.812	2502
718.928	1735
719.045	513
719.161	1801
719.277	1376
719.394	2041
719.510	2770
719.626	1519
719.743	1351
719.859	2177
719.975	3888
720.092	16478
720.208	36030
720.324	5227
720.440	915
720.557	1087
720.673	2847
720.789	2247
720.905	2259
721.021	1574
721.137	1160
721.253	1309
721.369	923
721.486	994
721.602	870
721.718	1809
721.834	700
721.950	1912
722.066	428
722.181	1139
722.297	1077
722.413	879
722.529	1436
722.645	1439
722.761	1812
722.877	1311
722.993	1186
723.108	1459
723.224	1783
723.340	1000
723.456	1863
723.571	1239
723.687	-418
723.803	1736
723.918	1460
724.034	1074
724.150	738
724.265	1480
724.381	2105
724.497	1252
724.612	702
724.728	883
724.843	1208
724.959	787
725.074	1182
725.190	1282
725.305	1546
725.421	695
725.536	1002
725.651	793
725.767	795
725.882	1966
725.997	1053
726.113	684
726.228	1369
726.343	615
726.459	286
726.574	1078
726.689	87
726.804	622
726.920	1052
727.035	640
727.150	559
727.265	628
727.380	1331
727.495	1599
727.610	1478
727.725	2662
727.841	3476
727.956	15321
728.071	8997
728.186	1387
728.301	449
728.416	1398
728.531	1341
728.645	1135
728.760	1348
728.875	1396
728.990	1291
729.105	1431
729.220	1091
729.335	1182
729.449	679
729.564	1027
729.679	1070
729.794	802
729.908	1726
730.023	648
730.138	1025
730.253	485
730.367	1838
730.482	1145
730.596	1316
730.711	767
730.826	2093
730.940	2013
731.055	463
731.169	966
731.284	1581
731.398	543
731.513	1245
731.627	1359
731.742	1438
731.856	567
731.970	1277
732.085	1534
732.199	1741
732.313	2495
732.428	5570
732.542	17830
732.656	10358
732.771	1745
732.885	967
732.999	956
733.113	1588
733.227	1887
733.342	1403
733.456	1523
733.570	425
733.684	265
733.798	813
733.912	584
734.026	146
734.140	978
734.254	920
734.368	288
734.482	1337
734.596	384
734.710	1301
734.824	1220
734.938	1037
735.052	-313
735.166	1394
735.280	1425
735.393	1032
735.507	1638
735.621	494
735.735	724
735.849	804
735.962	1377
736.076	901
736.190	738
736.303	1077
736.417	709
736.531	844
736.644	491
736.758	331
736.872	1794
736.985	902
737.099	638
737.212	482
737.326	1595
737.439	1398
737.553	294
737.666	857
737.780	106
737.893	-20
738.007	222
738.120	-152
738.233	638
738.347	771
738.460	951
738.573	556
738.687	516
738.800	1309
738.913	560
739.026	617
739.140	1990
739.253	2203
739.366	282
739.479	732
739.592	177
739.705	833
739.818	867
739.932	495
740.045	1354
740.158	839
740.271	892
740.384	341
740.497	673
740.610	1057
740.723	386
740.836	834
740.949	991
741.062	1133
741.174	643
741.287	883
741.400	828
741.513	1280
741.626	901
741.739	1642
741.851	855
741.964	733
742.077	896
742.189	866
742.302	1113
742.415	1175
742.527	-337
742.640	1095
742.753	555
742.865	350
742.978	612
743.090	1032
743.203	-63
743.316	1110
743.428	240
743.541	678
743.653	697
743.766	469
743.878	759
743.990	166
744.103	1102
744.215	237
744.327	313
744.440	843
744.552	1618
744.664	-214
744.777	704
744.889	-404
745.001	1227
745.113	951
745.226	230
745.338	716
745.450	-69
745.562	64
745.674	417
745.786	493
745.898	132
746.010	1200
746.122	797
746.234	654
746.347	599
746.459	478
746.570	921
746.682	473
746.794	1339
746.906	718
747.018	-35
747.130	430
747.242	311
747.354	-501
747.466	883
747.577	606
747.689	1110
747.801	582
747.913	196
748.024	319
748.136	653
748.248	-123
748.359	650
748.471	-156
748.583	538
748.694	1149
748.806	2439
748.918	844
749.029	1003
749.141	35
749.252	1359
749.364	278
749.475	636
749.587	752
749.698	399
749.809	403
749.921	395
750.032	564
750.144	941
750.255	248
750.366	564
750.478	382
750.589	273
750.700	460
750.811	971
750.923	638
751.034	797
751.145	1674
751.256	215
751.367	85
751.479	554
751.590	547
751.701	263
751.812	280
751.923	341
752.034	278
752.145	975
752.256	800
752.367	241
752.478	206
752.589	-172
752.700	1008
752.811	-110
752.922	324
753.032	-277
753.143	387
753.254	881
753.365	400
753.476	315
753.586	454
753.697	263
753.808	227
753.919	210
754.029	517
754.140	304
754.251	-29
754.361	428
754.472	-92
754.582	37
754.693	164
754.804	759
754.914	458
755.025	102
755.135	92
755.246	6
755.356	-373
755.466	1281
755.577	668
755.687	1039
755.798	930
755.908	26
756.018	402
756.129	739
756.239	673
756.349	326
756.460	-121
756.570	693
756.680	298
756.790	409
756.900	213
757.011	538
757.121	583
757.231	197
757.341	450
757.451	18
757.561	-650
757.671	208
757.781	-1096
757.891	1153
758.001	363
758.111	438
758.221	1100
758.331	616
758.441	130
758.551	357
758.661	750
758.771	94
758.880	377
758.990	278
759.100	-685
759.210	672
759.320	-11
759.429	364
759.539	521
759.649	82
759.758	651
759.868	695
759.978	-410
760.087	806
760.197	779
760.307	847
760.416	1026
760.526	-726
760.635	966
760.745	157
760.854	-81
760.964	747
761.073	1339
761.182	714
761.292	365
761.401	342
761.511	-2
761.620	627
761.729	630
761.839	-271
761.948	436
762.057	-423
762.166	886
762.276	-486
762.385	1427
762.494	635
762.603	295
762.712	489
762.822	295
762.931	949
763.040	1000
763.149	709
763.258	1856
763.367	1277
763.476	1943
763.585	1985
763.694	1401
763.803	1929
763.912	2397
764.021	1216
764.130	1845
764.238	1547
764.347	1906
764.456	1535
764.565	2344
764.674	2596
764.783	2547
764.891	2881
765.000	4358
765.109	4168
765.217	4867
765.326	5774
765.435	7008
765.543	9338
765.652	11200
765.761	14537
765.869	23889
765.978	36557
766.086	62311
766.195	118938
766.303	257013
766.412	421949
766.520	359415
766.629	204878
766.737	87269
766.846	47948
766.954	30130
767.062	23004
767.171	20037
767.279	13111
767.387	9971
767.496	8093
767.604	6959
767.712	5898
767.820	5597
767.928	5153
768.037	4651
768.145	4139
768.253	3972
768.361	2275
768.469	3253
768.577	3683
768.685	4607
768.793	4286
768.901	4110
769.009	5627
769.117	6785
769.225	9055
769.333	14589
769.441	22905
769.549	43316
769.657	99315
769.765	250170
769.873	346478
769.981	204733
770.088	68809
770.196	30993
770.304	18900
770.412	12938
770.519	9788
770.627	6830
770.735	5346
770.842	4725
770.950	3649
771.058	3201
771.165	3153
771.273	2586
771.380	3042
771.488	2622
771.595	1471
771.703	2027
771.810	2702
771.918	1128
772.025	1660
772.133	1824
772.240	828
772.348	1453
772.455	2013
772.562	416
772.670	171
772.777	1600
772.884	801
772.991	355
773.099	828
773.206	368
773.313	393
773.420	828
773.528	-304
773.635	462
773.742	1195
773.849	722
773.956	303
774.063	1056
774.170	586
774.277	1092
774.384	23
774.491	209
774.598	622
774.705	536
774.812	503
774.919	869
775.026	424
775.133	836
775.239	-149
775.346	-189
775.453	-150
775.560	-236
775.667	-8
775.773	-571
775.880	822
775.987	120
776.093	403
776.200	-151
776.307	61
776.413	156
776.520	-154
776.627	542
776.733	-307
776.840	-576
776.946	758
777.053	556
777.159	1562
777.266	-1162
777.372	1614
777.478	-84
777.585	858
777.691	-158
777.798	470
777.904	564
778.010	2639
778.117	872
778.223	484
778.329	-293
778.435	-340
778.542	150
778.648	-729
778.754	-924
778.860	-389
778.966	444
779.072	-175
779.178	-23
779.284	-432
779.391	-942
779.497	-848
779.603	1017
779.708	-1184
779.815	1229
779.920	4812
780.026	10453
780.132	762
780.238	-563
780.344	-485
780.450	513
780.556	54
780.661	-415
780.767	-330
780.873	-103
780.979	330
781.085	-153
781.190	519
781.296	-314
781.402	-801
781.507	-527
781.613	-164
781.719	-516
781.824	335
781.930	402
782.035	-474
782.141	-256
782.246	-1195
782.352	-534
782.457	385
782.563	-664
782.668	-904
782.773	-388
782.879	-637
782.984	-65
783.090	-519
783.195	42
783.300	-821
783.405	-370
783.511	-438
783.616	745
783.721	-902
783.826	-419
783.932	426
784.037	520
784.142	-184
784.247	-1211
784.352	-464
784.457	-662
784.562	-373
784.667	-415
784.772	-645
784.877	-156
784.982	-454
785.087	-266
785.192	-3
785.297	-496
785.402	-283
785.507	-238
785.611	-560
785.716	-238
785.821	-592
785.926	-807
786.031	-388
786.135	-226
786.240	-381
786.345	-1911
786.450	-429
786.554	-948
786.659	-994
786.763	-1137
786.868	60
786.973	432
787.077	-305
787.182	-696
787.286	-919
787.391	-566
787.495	-569
787.600	-461
787.704	-1603
787.809	-146
787.913	-612
788.017	-334
788.122	-1450
788.226	-324
788.330	-544
788.435	-745
788.539	572
788.643	-1366
788.747	-429
788.852	-402
788.956	-1067
789.060	-363
789.164	280
789.268	-1077
789.372	-742
789.476	-875
789.580	-745
789.684	-1480
789.788	237
789.892	-1941
789.996	85
790.100	26
790.204	-929
790.308	-1304
790.412	-880
790.516	289
790.620	-368
790.724	-736
790.828	-184
790.931	-829
791.035	648
791.139	-607
791.242	-1231
791.346	25
791.450	-1652
791.554	-449
791.657	-913
791.761	-70
791.864	38
791.968	-381
792.072	-528
792.175	-1125
792.279	-521
792.382	252
792.486	-792
792.589	-394
792.693	38
792.796	-1061
792.899	504
793.003	9
793.106	-1193
793.209	-800
793.313	164
793.416	-2458
793.519	696
793.623	-282
793.726	-805
793.829	-319
793.932	-496
794.035	-1491
794.138	75
794.242	131
794.345	-1090
794.448	-420
794.551	-1430
794.654	2831
794.757	4585
794.860	-820
794.963	-794
795.066	-1614
795.169	570
795.272	-984
795.375	-72
795.477	-761
795.580	-391
795.683	-1744
795.786	-832
795.889	-2527
795.991	-495
796.094	628
796.197	-1582
796.300	293
796.402	-1062
796.505	-1130
796.608	-1391
796.710	40
796.813	-815
796.915	-1286
797.018	281
797.120	-233
797.223	-1943
797.326	234
797.428	-912
797.530	-619
797.633	-958
797.735	-664
797.838	-1195
797.940	-417
798.042	-565
798.145	-805
798.247	-165
798.349	-1409
798.452	5
798.554	-1829
798.656	-1662
798.758	3
798.860	-876
798.962	-1441
799.065	-619
799.167	-1486
799.269	429
799.371	-1205
799.473	-1093
799.575	-1328
799.677	-1625
799.779	769
799.881	-1794
799.983	-335
800.085	-864
800.187	-640
800.289	-1695
800.390	-899
800.492	-932
800.594	-143
800.696	-586
800.798	-647
800.899	-1125
801.001	-1035
801.103	-141
801.205	-794
801.306	-476
801.408	-1889
801.509	-566
801.611	-819
801.713	-11
801.814	-1532
801.916	-1082
802.017	-1059
802.119	-1756
802.220	-745
802.322	-1973
802.423	1755
802.525	-1462
802.626	-372
802.727	-846
802.829	-211
802.930	-2577
803.031	1178
803.133	-1250
803.234	-404
803.335	-50
803.436	-1066
803.538	-829
803.639	-1307
803.740	-798
803.841	-1662
803.942	-260
804.043	-219
804.144	-1845
804.245	-1143
804.346	-1572
804.447	-790
804.548	-836
804.649	-94
804.750	-763
804.851	-860
804.952	-1601
805.053	-684
805.154	-1411
805.255	-17
805.355	-1309
805.456	-934
805.557	-672
805.658	-2327
805.758	-309
805.859	-1322
805.960	-690
806.061	-1108
806.161	-1007
806.262	-46
806.362	-1161
806.463	-384
806.564	-333
806.664	-1236
806.765	-1025
806.865	-451
806.966	-1727
807.066	-1523
807.166	-573
807.267	304
807.367	-1501
807.468	-891
807.568	-1747
807.668	492
807.769	717
807.869	-1333
807.969	-1323
808.069	-1491
808.170	-1529
808.270	-768
808.370	-349
808.470	-1171
808.570	-1721
808.670	-802
808.770	-793
808.870	-1152
808.970	-39
809.070	-789
809.170	-1221
809.271	-681
809.370	-1152
809.470	-452
809.570	-1488
809.670	-1705
809.770	-753
809.870	-418
809.970	-820
810.070	-903
810.169	-409
810.269	-2075
810.369	460
810.469	-876
810.568	-1184
810.668	-1647
810.768	-1507
810.867	-314
810.967	-864
811.066	-508
811.166	-1577
811.265	203
811.365	-1159
811.464	-493
811.564	-775
811.663	-1502
811.763	-1517
811.862	-348
811.962	-225
812.061	-659
812.160	-909
812.260	-1269
812.359	-545
812.458	-768
812.557	-223
812.657	-1182
812.756	-295
812.855	-1500
812.954	-1615
813.053	-563
813.153	-1169
813.252	-2306
813.351	-961
813.450	-946
813.549	-471
813.648	-569
813.747	-1050
813.846	220
813.945	-1502
814.044	-930
814.143	-509
814.242	-419
814.341	-1227
814.439	-471
814.538	-716
814.637	-1174
814.736	-612
814.835	-604
814.933	-803
815.032	-340
815.131	-649
815.229	-1103
815.328	-1093
815.427	-1248
815.525	366
815.624	-268
815.722	-1143
815.821	205
815.919	-996
816.018	-1018
816.116	153
816.215	-235
816.313	-413
816.412	-264
816.510	-973
816.609	799
816.707	265
816.805	-578
816.904	-849
817.002	137
817.100	697
817.198	1017
817.296	275
817.395	765
817.493	2873
817.591	2246
817.689	3855
817.787	5384
817.885	10989
817.983	22028
818.081	50158
818.179	119690
818.277	286576
818.375	234174
818.473	62625
818.571	23908
818.669	14568
818.767	12775
818.865	12063
818.963	15550
819.061	23908
819.158	42067
819.256	92663
819.354	211317
819.452	412640
819.549	268041
819.647	80852
819.745	32344
819.842	18478
819.940	10834
820.038	8645
820.135	6970
820.233	5276
820.330	3286
820.428	1782
820.525	3259
820.623	1769
820.720	1331
820.818	1196
820.915	1517
821.012	1251
821.110	265
821.207	1121
821.304	-703
821.402	127
821.499	952
821.596	1713
821.693	175
821.791	351
821.888	-51
821.985	665
822.082	-1145
822.179	123
822.276	-759
822.373	-1238
822.470	-688
822.567	-1112
822.664	-1032
822.761	-201
822.858	-376
822.955	-203
823.052	5
823.149	-688
823.246	-1060
823.343	-724
823.440	-23
823.536	-1030
823.633	-1372
823.730	-744
823.827	-839
823.923	-1051
824.020	311
824.117	-1048
824.213	-1883
824.310	110
824.407	-1059
824.503	-73
824.600	44
824.696	-1611
824.793	-489
824.889	-1031
824.986	-675
825.082	-1111
825.179	-735
825.275	-1154
825.371	-734
825.468	1
825.564	-1448
825.660	-596
825.757	-1079
825.853	-731
825.949	-2296
826.045	-1013
826.142	-1768
826.238	-567
826.334	-1077
826.430	-1213
826.526	-14
826.622	-1192
826.718	-775
826.814	-1848
826.910	-361
827.006	-1079
827.102	-719
827.198	-168
827.294	-937
827.390	-1597
827.486	-574
827.582	-2252
827.678	-1309
827.774	-944
827.869	-2061
827.965	-537
828.061	-1807
828.157	-872
828.252	-1348
828.348	-2115
828.444	-325
828.539	-2371
828.635	-1662
828.731	-237
828.826	-2477
828.922	-1464
829.017	-1222
829.113	-678
829.208	-1346
829.304	-1387
829.399	-57
829.495	-2232
829.590	-495
829.685	-1579
829.781	-1139
829.876	-1508
829.971	-1680
830.066	-1062
830.162	-1042
830.257	-1111
830.352	-1370
830.447	-786
830.543	-1224
830.638	-2033
830.733	-606
830.828	-1768
830.923	-1023
831.018	-1396
831.113	-1030
831.208	-1833
831.303	-1377
831.398	-2207
831.493	-1556
831.588	-1370
831.683	-2411
831.778	-1770
831.873	-922
831.967	-1049
832.062	-1332
832.157	-2175
832.252	-345
832.346	-1393
832.441	-671
832.536	-596
832.631	528
832.725	-69
832.820	-1453
832.914	-1412
833.009	-1533
833.104	-628
833.198	-747
833.293	-1560
833.387	-1530
833.482	-2097
833.576	-1676
833.670	-865
833.765	-1423
833.859	-1672
833.954	-785
834.048	-1012
834.142	-1307
834.237	-1401
834.331	-1231
834.425	-1011
834.519	-2041
834.613	-101
834.708	-1418
834.802	-1416
834.896	-2018
834.990	-1880
835.084	-915
835.178	-1359
835.272	-2098
835.366	-1587
835.460	-591
835.554	-1350
835.648	-1267
835.742	-1597
835.836	-1515
835.930	-2220
836.024	-1065
836.117	-705
836.211	-874
836.305	-1406
836.399	-1418
836.493	-1936
836.586	-645
836.680	-2352
836.774	-1328
836.867	17
836.961	-1866
837.055	-1436
837.148	-932
837.242	-961
837.335	-1725
837.429	-1354
837.522	-1223
837.616	-986
837.709	-891
837.803	-2204
837.896	-1502
837.989	-1573
838.083	-1445
838.176	-1486
838.269	-2431
838.363	-511
838.456	-1208
838.549	-910
838.642	-1850
838.735	-392
838.829	-205
838.922	-1514
839.015	-1393
839.108	-1724
839.201	-572
839.294	-349
839.387	-1794
839.480	-2616
839.573	-759
839.666	-1587
839.759	-1960
839.852	-1251
839.945	-1759
840.038	-1398
840.131	-1252
840.223	-1176
840.316	-237
840.409	-668
840.502	-2015
840.594	-697
840.687	-1938
840.780	-1168
840.873	-2044
840.965	-1800
841.058	-642
841.150	-975
841.243	-1073
841.336	-1668
841.428	-1897
841.521	-1404
841.613	-2617
841.706	-1789
841.798	-1693
841.890	-1304
841.983	-2409
842.075	-230
842.167	-594
842.260	-1109
842.352	-926
842.444	-2012
842.537	-1246
842.629	-1444
842.721	-1479
842.813	-1059
842.905	-2484
842.997	-1266
843.090	-1697
843.182	-1385
843.274	-1396
843.366	-544
843.458	-1629
843.550	-803
843.642	-832
843.734	-1102
843.826	-1422
843.918	-731
844.009	-1137
844.101	-1953
844.193	-2011
844.285	-2060
844.377	-1363
844.469	-1300
844.560	-1980
844.652	-1408
844.744	-800
844.835	-1439
844.927	-1311
845.019	-1417
845.110	-1787
845.202	-1729
845.293	-1321
845.385	-1943
845.476	-1735
845.568	-1795
845.659	-1723
845.751	-923
845.842	-1882
845.934	-1253
846.025	-2102
846.116	-1153
846.208	-1323
846.299	-1557
846.390	-859
846.482	-1453
846.573	-1359
846.664	-1435
846.755	-2245
846.846	-821
846.937	-2570
847.029	-1469
847.120	-2321
847.211	-1368
847.302	-255
847.393	-3370
847.484	-807
847.575	-1706
847.666	-1639
847.757	-1428
847.847	-1482
847.938	-1048
848.029	-1196
848.120	-1775
848.211	-1319
848.302	-1789
848.392	-1293
848.483	-1124
848.574	-2175
848.664	-1586
848.755	-567
848.846	-1022
848.936	-1408
849.027	-1688
849.118	-1695
849.208	-2010
849.299	-1105
849.389	-1289
849.480	-1502
849.570	-951
849.661	802
849.751	2283
849.841	-545
849.932	-1503
850.022	-1465
850.112	-1023
850.203	-1166
850.293	-1503
850.383	-1839
850.474	-1663
850.564	-2577
850.654	-1253
850.744	-1762
850.834	-1595
850.924	-2145
851.014	-1393
851.104	-2558
851.194	-1272
851.284	-1312
851.374	-1988
851.464	-779
851.554	-1470
851.644	-2036
851.734	-1591
851.824	-2029
851.914	-1561
852.004	-515
852.094	-2100
852.183	-1568
852.273	-1422
852.363	-1685
852.452	-1655
852.542	-1107
852.632	-1298
852.721	-1594
852.811	-1572
852.901	-1087
852.990	-1555
853.080	-690
853.169	-1647
853.259	-2072
853.348	-1402
853.438	-1502
853.527	-1430
853.617	-687
853.706	-306
853.795	-92
853.885	3789
853.974	8073
854.063	16343
854.152	26136
854.242	7627
854.331	78
854.420	-1791
854.509	-1452
854.598	-1433
854.687	-1266
854.777	-847
854.866	-1576
854.955	-1025
855.044	-2045
855.133	-2346
855.222	-1470
855.311	-1700
855.400	-1118
855.488	-1208
855.577	-1578
855.666	-630
855.755	-51
855.844	-806
855.933	46
856.021	-1083
856.110	-1102
856.199	-1932
856.288	-1162
856.376	-1047
856.465	-2028
856.554	-1257
856.642	-1890
856.731	-975
856.819	-1262
856.908	-1785
856.996	-887
857.085	-2104
857.173	-1618
857.262	-1583
857.350	-947
857.438	-998
857.527	-1159
857.615	-1562
857.703	-1278
857.792	-1590
857.880	-1587
857.968	-2056
858.056	-1133
858.145	-414
858.233	-1544
858.321	-2015
858.409	-905
858.497	-1845
858.585	-2272
858.673	-1569
858.761	-1796
858.849	-1171
858.937	-1877
859.025	-2042
859.113	-590
859.201	-1514
859.289	-1564
859.377	-1688
859.465	-1361
859.552	-1911
859.640	-1567
859.728	-1143
859.816	-1538
859.903	-1712
859.991	-2548
860.079	-1985
860.166	-1911
860.254	-1496
860.342	-1642
860.429	-1407
860.517	-1586
860.604	-908
860.692	-1102
860.779	-1765
860.867	-1067
860.954	-2362
861.042	-1296
861.129	-2055
861.216	-1831
861.304	-1732
861.391	-1326
861.478	-2167
861.565	-2214
861.653	-654
861.740	-1916
861.827	-1471
861.914	-1260
862.001	-2005
862.089	-1676
862.176	-1144
862.263	-2194
862.350	-1210
862.437	-1811
862.524	-2020
862.611	-1654
862.698	-1483
862.785	-914
862.871	-2100
862.958	-2158
863.045	-1572
863.132	-1558
863.219	-1998
863.306	-2608
863.392	-1112
863.479	-1499
863.566	-1540
863.652	-1056
863.739	-1801
863.826	-1581
863.912	-1115
863.999	-2556
864.086	-2120
864.172	-2114
864.259	-1830
864.345	-2056
864.432	-1414
864.518	-1293
864.604	-2036
864.691	-1573
864.777	-1950
864.863	-1176
864.950	-1228
865.036	-1217
865.122	-1300
865.209	-827
865.295	-1158
865.381	-1112
865.467	-1460
865.553	-1283
865.639	-1344
865.726	-704
865.812	739
865.898	3168
865.984	4201
866.070	10818
866.156	12424
866.242	1089
866.328	-608
866.414	-1550
866.499	-1102
866.585	-1302
866.671	-1491
866.757	-1157
866.843	-1933
866.928	-906
867.014	-1662
867.100	-1072
867.186	-1997
867.271	-1413
867.357	-1623
867.442	-1432
867.528	-1418
867.614	-1789
867.699	-1758
867.785	-1347
867.870	-1165
867.956	-1624
868.041	-932
868.127	-1769
868.212	-1492
868.297	-773
868.383	-1081
868.468	-393
868.553	-393
868.639	-716
868.724	-799
868.809	-864
868.894	-953
868.979	-2176
869.065	-1635
869.150	-2200
869.235	-2131
869.320	-1160
869.405	-2333
869.490	-1557
869.575	-1566
869.660	-2044
869.745	-718
869.830	-2101
869.915	-1723
870.000	-1067
870.085	-1746
870.169	-1478
870.254	-1662
870.339	-1650
870.424	-1482
870.509	-312
870.593	-1334
870.678	-772
870.763	-1143
870.847	-1626
870.932	-1621
871.016	-620
871.101	-1645
871.186	-1224
871.270	-1735
871.355	-2141
871.439	-2052
871.523	-1466
871.608	-1637
871.692	-1688
871.777	-1063
871.861	-1788
871.945	-1455
872.030	-930
872.114	-1605
872.198	-1827
872.282	-1410
872.367	-1003
872.451	-1980
872.535	-1045
872.619	-1139
872.703	-1463
872.787	-1835
872.871	-816
872.955	-1415
873.039	-1740
873.123	-1945
873.207	-1387
873.291	-1540
873.375	-1392
873.459	-2006
873.543	-1959
873.627	-1367
873.711	-1562
873.794	-905
873.878	-1198
873.962	-1397
874.045	-1207
874.129	-1258
874.137	-1271
874.213	-1397
874.245	-1578
874.296	-1869
874.352	-1894
874.380	-1912
874.460	-1080
874.464	-1048
874.547	-1859
874.568	-1727
874.631	-1316
874.676	-1649
874.714	-1917
874.784	-1219
874.798	-1091
874.881	-599
874.892	-698
874.965	-1346
874.999	-1368
875.048	-1403
875.107	-2058
875.131	-2329
875.215	-1125
875.215	-1126
875.298	-1581
875.323	-1413
875.381	-975
875.430	-1214
875.465	-1411
875.538	-1220
875.548	-1187
875.631	-1666
875.646	-1578
875.714	-1192
875.753	-947
875.798	-660
875.861	-1203
875.881	-1384
875.964	-798
875.968	-816
876.047	-1075
876.076	-901
876.130	-580
876.183	-1257
876.213	-1659
876.291	-585
876.296	-508
876.379	-1361
876.398	-1424
876.462	-1630
876.506	-1563
876.545	-1494
876.613	-576
876.628	-382
876.711	-1414
876.721	-1400
876.794	-1271
876.828	-953
876.877	-504
876.935	-976
876.960	-1174
877.043	-807
877.043	-809
877.125	-1050
877.150	-1006
877.208	-944
877.258	-1075
877.291	-1130
877.365	-855
877.374	-823
877.456	-733
877.472	-721
877.539	-773
877.579	-1240
877.622	-1627
877.687	-1164
877.704	-1076
877.787	-1016
877.794	-1022
877.869	-948
877.901	-1082
877.952	-1338
878.008	-1198
878.034	-1110
878.115	-1069
878.117	-1066
878.199	-1338
878.222	-1207
878.282	-1091
878.329	-1054
878.364	-813
878.437	-376
878.447	-396
878.529	-1462
878.544	-1464
878.611	-949
878.651	-969
878.694	-1122
878.758	-937
878.776	-893
878.858	-1047
878.865	-1025
878.941	-761
878.972	-1067
879.023	-1527
879.078	-1387
879.105	-1252
879.185	-1231
879.187	-1233
879.269	-809
879.292	-903
879.351	-1031
879.399	-1134
879.433	-1347
879.506	-1226
879.516	-1167
879.598	-869
879.613	-833
879.680	-704
879.720	-629
879.762	-742
879.827	-1091
879.844	-1107
879.926	-1278
879.933	-1253
880.007	-896
880.040	-821
880.089	-728
880.147	-738
880.171	-840
880.253	-521
880.254	-525
880.335	-1142
880.360	-1086
880.417	-270
880.467	428
880.499	725
880.574	1212
880.580	1176
880.662	-260
880.680	-436
880.744	-645
880.787	-755
880.825	-754
880.893	-794
880.907	-835
880.989	-1108
881.000	-1075
881.070	-898
881.106	-1188
881.152	-1316
881.213	-1046
881.233	-985
881.315	-991
881.319	-965
881.396	-298
881.426	-180
881.478	-374
881.532	-787
881.559	-817
881.639	-1017
881.641	-1025
881.722	-569
881.745	-699
881.803	-849
881.852	-835
881.885	-744
881.958	-547
881.966	-604
882.047	-903
882.064	-1098
882.129	-1304
882.171	-1169
882.210	-962
882.277	-907
882.291	-867
882.372	-321
882.383	-295
882.454	-506
882.489	-535
882.535	-512
882.596	-559
882.616	-605
882.697	-449
882.702	-465
882.778	-552
882.808	-543
882.859	-556
882.914	-616
882.940	-611
883.020	-836
883.021	-832
883.102	-599
883.127	-549
883.183	-775
883.233	-913
883.264	-900
883.339	-920
883.345	-892
883.426	-591
883.445	-524
883.507	-617
883.551	-782
883.587	-860
883.657	-542
883.668	-457
883.749	-669
883.763	-588
883.830	-482
883.869	-667
883.910	-743
883.975	-469
883.991	-457
884.072	-748
884.081	-798
884.152	-326
884.187	-17
884.233	-134
884.292	-236
884.314	-254
884.394	-296
884.398	-323
884.475	-787
884.504	-873
884.555	-758
884.610	-672
884.636	-696
884.716	-640
884.716	-634
884.797	-506
884.821	-454
884.877	-602
884.927	-997
884.958	-945
885.033	-631
885.038	-609
885.118	-140
885.139	-77
885.199	-314
885.244	-439
885.279	-491
885.350	-504
885.359	-447
885.439	-302
885.456	-283
885.520	-764
885.561	-921
885.600	-622
885.667	-141
885.680	-132
885.760	-401
885.773	-386
885.840	117
885.878	350
885.920	130
885.984	-320
886.000	-352
886.080	-605
886.089	-644
886.160	-822
886.195	-752
886.240	-149
886.300	460
886.320	349
886.400	-110
886.406	-138
886.480	-189
886.511	-283
886.560	-281
886.616	-335
886.640	-297
886.720	-6
886.722	-3
886.800	-296
886.827	-469
886.879	-505
886.932	-527
886.959	-465
887.038	-248
887.039	-247
887.119	-394
887.143	-504
887.198	-377
887.248	-150
887.278	-259
887.354	-774
887.358	-744
887.437	-190
887.459	21
887.517	-236
887.564	-484
887.596	-409
887.669	-385
887.676	-381
887.755	-324
887.774	-298
887.835	-448
887.880	-588
887.914	-525
887.985	-433
887.994	-453
888.073	-705
888.090	-756
888.153	-628
888.195	-526
888.232	-507
888.300	-428
888.311	-340
888.391	149
888.405	241
888.470	-294
888.510	-644
888.549	-460
888.615	-122
888.628	-81
888.708	120
888.720	147
888.787	-126
888.825	-292
888.866	-196
888.930	-57
888.945	4
889.024	306
889.035	347
889.103	-353
889.140	-760
889.182	-443
889.245	51
889.261	-115
889.340	-909
889.349	-1002
889.419	9
889.454	527
889.498	274
889.559	-89
889.577	-136
889.656	-350
889.664	-371
889.735	-317
889.768	-295
889.814	-134
889.873	83
889.978	-253
890.083	792
890.187	-549
890.292	580
890.397	244
890.501	317
890.606	-269
890.710	412
890.815	-553
890.919	996
891.024	-176
891.128	203
891.233	-21
891.337	101
891.442	-205
891.546	-344
891.650	-135
891.755	263
891.859	385
891.963	637
892.068	-282
892.172	52
892.276	-213
892.380	-186
892.484	460
892.589	156
892.693	-256
892.797	-685
892.901	731
893.005	-577
893.109	470
893.213	382
893.317	-882
893.421	3
893.525	-253
893.629	-24
893.733	-534
893.837	52
893.941	-202
894.045	397
894.148	-859
894.252	811
894.356	-333
894.460	600
894.564	-120
894.667	-555
894.771	-738
894.875	-720
894.978	-242
895.082	-426
895.186	97
895.289	166
895.393	45
895.496	328
895.600	-423
895.703	-512
895.807	369
895.910	215
896.014	-613
896.117	238
896.221	-282
896.324	-236
896.427	319
896.531	178
896.634	344
896.737	-402
896.840	-631
896.944	-211
897.047	-384
897.150	137
897.253	-177
897.356	63
897.460	-891
897.563	213
897.666	-951
897.769	-344
897.872	-47
897.975	-518
898.078	-419
898.181	-323
898.284	-255
898.387	-216
898.490	-55
898.593	-46
898.695	-917
898.798	-617
898.901	252
899.004	582
899.107	-3
899.209	-800
899.312	42
899.415	19
899.518	306
899.620	-160
899.723	-210
899.826	477
899.928	148
900.031	-472
900.133	-1006
900.236	110
900.338	-927
900.441	547
900.543	-399
900.646	-592
900.748	-816
900.851	-542
900.953	-367
901.055	63
901.158	-740
901.260	-760
901.362	362
901.465	-907
901.567	-144
901.669	-153
901.771	-610
901.873	177
901.976	-197
902.078	-738
902.180	-918
902.282	-71
902.384	-971
902.486	-125
902.588	-1261
902.690	-32
902.792	845
902.894	-916
902.996	-779
903.098	-96
903.200	-889
903.302	-158
903.404	-452
903.505	-406
903.607	-301
903.709	-740
903.811	-436
903.913	-364
904.014	-31
904.116	36
904.218	-386
904.319	-927
904.421	621
904.523	251
904.624	-873
904.726	334
904.827	-540
904.929	-314
905.030	-866
905.132	-332
905.233	-737
905.335	-468
905.436	139
905.537	-488
905.639	-378
905.740	-1188
905.841	-679
905.943	371
906.044	-398
906.145	86
906.247	-21
906.348	-715
906.449	482
906.550	297
906.651	75
906.752	382
906.854	-1492
906.955	-264
907.056	-119
907.157	224
907.258	-728
907.359	-491
907.460	-481
907.561	-785
907.662	-807
907.762	-990
907.863	-432
907.964	-714
908.065	1001
908.166	-726
908.267	-626
908.367	-386
908.468	-660
908.569	-936
908.670	-916
908.770	193
908.871	-1082
908.971	-1183
909.072	-517
909.173	-802
909.273	-207
909.374	-1035
909.474	-402
909.575	367
909.675	-901
909.776	284
909.876	-604
909.977	-168
910.077	-639
910.177	-608
910.278	-955
910.378	23
910.478	-804
910.579	-244
910.679	-856
910.779	-519
910.879	-948
910.980	-334
911.080	-924
911.180	-732
911.280	-268
911.380	-127
911.480	-874
911.580	-681
911.680	-398
911.780	-1033
911.880	-196
911.980	-469
912.080	-875
912.180	-318
912.280	-1103
912.380	-381
912.480	-583
912.580	-627
912.679	-926
912.779	704
912.879	-1051
912.979	202
913.078	-716
913.178	-491
913.278	-273
913.377	-583
913.477	-1190
913.577	-204
913.676	-98
913.776	-88
913.875	-615
913.975	-958
914.074	-365
914.174	-898
914.273	-904
914.373	55
914.472	-316
914.572	-565
914.671	-947
914.770	-693
914.870	-211
914.969	-514
915.068	-556
915.167	-475
915.267	-724
915.366	-267
915.465	-259
915.564	-650
915.663	-511
915.763	-632
915.862	285
915.961	-367
916.060	-1387
916.159	-753
916.258	-1497
916.357	-2
916.456	-646
916.555	-29
916.654	-688
916.752	-822
916.851	-472
916.950	-452
917.049	-664
917.148	8
917.247	-771
917.345	-993
917.444	-1190
917.543	-776
917.642	-786
917.740	-383
917.839	-1628
917.937	-298
918.036	453
918.135	-439
918.233	-675
918.332	-511
918.430	-540
918.529	-1098
918.627	-1075
918.726	-885
918.824	-380
918.923	-751
919.021	-1099
919.119	-1211
919.218	-1120
919.316	521
919.414	-1249
919.512	-998
919.611	-902
919.709	-1204
919.807	-765
919.905	-100
920.003	-274
920.102	-719
920.200	-678
920.298	-898
920.396	-563
920.494	-191
920.592	-715
920.690	-326
920.788	-788
920.886	-554
920.984	-1454
921.082	-1783
921.180	-536
921.277	-402
921.375	-1241
921.473	-185
921.571	-1250
921.669	85
921.766	-773
921.864	-176
921.962	-273
922.060	-547
922.157	-620
922.255	-793
922.352	-1232
922.450	925
922.548	-1444
922.645	-652
922.743	-437
922.840	-790
922.938	-225
923.035	-512
923.133	-210
923.230	-1458
923.327	170
923.425	-271
923.522	-712
923.619	114
923.717	-1068
923.814	-309
923.911	26
924.008	-513
924.106	-484
924.203	-623
924.300	-398
924.397	-49
924.494	1033
924.591	-552
924.688	-1539
924.786	-317
924.883	-492
924.979	-377
925.077	-337
925.173	-500
925.270	4
925.367	-344
925.464	-540
925.561	-484
925.658	-1396
925.755	133
925.852	-1169
925.948	-126
926.045	156
926.142	-178
926.239	-489
926.335	154
926.432	-409
926.529	-532
926.625	-238
926.722	-181
926.818	-518
926.915	-41
927.011	-1304
927.108	-527
927.204	-612
927.301	-699
927.397	89
927.494	-1196
927.590	-1088
927.687	-777
927.783	-704
927.879	-700
927.976	-1059
928.072	-607
928.168	-823
928.264	-148
928.361	-1519
928.457	-357
928.553	-173
928.649	-400
928.745	-1322
928.841	-973
928.937	-470
929.033	-760
929.129	81
929.225	-1178
929.321	-229
929.417	-1120
929.513	-560
929.609	-333
929.705	-1629
929.801	-1527
929.897	-702
929.993	-713
930.089	-1204
930.184	-564
930.280	-857
930.376	-874
930.471	-926
930.567	-705
930.663	-627
930.758	-1460
930.854	-547
930.950	-391
931.045	-1434
931.141	-389
931.236	-844
931.332	-337
931.427	-1099
931.523	-674
931.618	-672
931.714	-1021
931.809	-951
931.905	-1072
932.000	-967
932.095	-1375
932.191	-545
932.286	-279
932.381	-774
932.476	-379
932.572	-710
932.667	-597
932.762	-1773
932.857	-711
932.952	-824
933.047	-1005
933.142	-1268
933.237	-1267
933.332	-1127
933.427	-926
933.522	-1266
933.617	-1225
933.712	-577
933.807	-1381
933.902	-1353
933.997	-401
934.092	-1364
934.187	-639
934.282	-1253
934.376	-637
934.471	-781
934.566	-1107
934.661	-209
934.755	-736
934.850	-1378
934.945	-1208
935.039	-397
935.134	-1493
935.228	-1469
935.323	-514
935.417	-1300
935.512	-1717
935.606	-903
935.701	-1423
935.795	-239
935.890	-548
935.984	-830
936.079	-217
936.173	-703
936.267	-863
936.362	-866
936.456	-1332
936.550	-1344
936.644	-787
936.738	-1626
936.833	-184
936.927	-963
937.021	-260
937.115	-1057
937.209	-1630
937.303	-905
937.397	-1076
937.491	-1183
937.585	-399
937.679	-1551
937.773	-756
937.867	-1608
937.961	-64
938.055	-729
938.149	-569
938.243	-949
938.337	-1702
938.430	-1007
938.524	-780
938.618	-353
938.712	-668
938.805	-814
938.899	-1293
938.993	-820
939.086	-1303
939.180	-721
939.274	-200
939.367	-883
939.461	-1174
939.554	-1817
939.648	-1023
939.741	-1597
939.835	-1278
939.928	-659
940.022	-104
940.115	-1169
940.208	-912
940.302	-1209
940.395	-944
940.488	-2702
940.582	24
940.675	-1257
940.768	-804
940.861	-1446
940.954	-531
941.048	-1208
941.141	-952
941.234	-578
941.327	-705
941.420	-940
941.513	-712
941.606	-1089
941.699	205
941.792	-889
941.885	-938
941.978	-1496
942.071	-1284
942.164	-1309
942.257	-212
942.349	-1179
942.442	-1588
942.535	-1658
942.628	-516
942.721	-1259
942.813	-2019
942.906	-668
942.999	-1243
943.091	-1780
943.184	-1035
943.277	-1175
943.369	-880
943.462	-1496
943.554	-1191
943.647	-2074
943.739	-890
943.832	-679
943.924	-1706
944.017	-499
944.109	-2006
944.201	-981
944.294	-695
944.386	-1209
944.478	-1194
944.571	-750
944.663	-976
944.755	-715
944.847	-1536
944.940	-872
945.032	-1501
945.124	-2017
945.216	-506
945.308	-1698
945.400	-917
945.492	-787
945.584	-1621
945.676	-1012
945.768	-1267
945.860	-552
945.952	-823
946.044	-849
946.136	-1476
946.228	-1577
946.320	-1027
946.412	-809
946.503	-1650
946.595	-629
946.687	-1462
946.779	-1639
946.870	-405
946.962	-1868
947.054	-581
947.145	-1301
947.237	-721
947.329	-2113
947.420	-1659
947.512	-1235
947.603	-1804
947.695	-515
947.786	-1395
947.878	-1787
947.969	-1550
948.061	-586
948.152	-1131
948.243	-1816
948.335	-1491
948.426	-1887
948.517	-1430
948.609	-1114
948.700	-936
948.791	-2135
948.882	-1165
948.973	-1490
949.065	-1995
949.156	-924
949.247	-1418
949.338	-1094
949.429	-1349
949.520	-92
949.611	-2440
949.702	-830
949.793	-1223
949.884	-795
949.975	-1424
950.066	-1541
950.157	-1683
950.247	-848
950.338	-1230
950.429	-1868
950.520	-1687
950.611	-1949
950.701	-940
950.792	-1899
950.883	-812
950.973	-1846
951.064	-1631
951.155	-1547
951.245	-879
951.336	-1147
951.427	-1824
951.517	-1464
951.608	-927
951.698	-1841
951.788	-504
951.879	-1033
951.969	-1555
952.060	-898
952.150	-1761
952.240	-652
952.331	-2540
952.421	-451
952.511	-2036
952.602	-445
952.692	-1961
952.782	-988
952.872	-1190
952.962	-1558
953.052	-1425
953.143	-1693
953.233	-1478
953.323	-1114
953.413	-1756
953.503	-887
953.593	-1371
953.683	-1417
953.773	-1769
953.863	-1552
953.953	-1729
954.042	-1356
954.132	-635
954.222	-1731
954.312	-1453
954.402	-668
954.492	-1503
954.581	-1001
954.671	-699
954.761	-1546
954.850	-312
954.940	-1193
955.030	-1132
955.119	-1721
955.209	-1339
955.298	-1405
955.388	-1016
955.477	-391
955.567	-956
955.656	-523
955.746	-1321
955.835	-1695
955.925	-1279
956.014	-1459
956.103	-1524
956.193	-1340
956.282	-1146
956.371	-979
956.461	-2107
956.550	-1308
956.639	-1842
956.728	-1743
956.817	-528
956.906	-2068
956.995	-1653
957.085	-1683
957.174	-1293
957.263	-1257
957.352	-1258
957.441	-1444
957.530	-340
957.619	-1103
957.708	-1625
957.796	-1473
957.885	-1393
957.974	-1620
958.063	-796
958.152	-2117
958.241	-988
958.329	-1359
958.418	-1404
958.507	-1384
958.596	-112
958.684	-2132
958.773	-501
958.861	-1822
958.950	-1231
959.039	-2011
959.127	-1630
959.216	-1374
959.304	-874
959.393	-1463
959.481	-388
959.570	-1333
959.658	-856
959.746	-1043
959.835	-227
959.923	-1465
960.011	-1520
960.100	-700
960.188	-1491
960.276	-1497
960.365	-2184
960.453	-1720
960.541	-1664
960.629	-1508
960.717	-2036
960.805	-1858
960.893	-662
960.981	-2396
961.069	-429
961.158	-1701
961.245	-904
961.333	-1209
961.421	-2037
961.509	-1703
961.597	-1192
961.685	-1773
961.773	-1307
961.861	-1867
961.949	-700
962.036	-1529
962.124	-817
962.212	-1961
962.299	-2455
962.387	-1153
962.475	-822
962.562	-2192
962.650	-1015
962.738	-802
962.825	-1291
962.913	-1690
963.000	-1570
963.088	-1563
963.175	-1223
963.263	-1538
963.350	-1337
963.438	-1583
963.525	-1718
963.612	-600
963.700	-1895
963.787	-1079
963.874	-1544
963.962	-1552
964.049	-701
964.136	-1585
964.223	-2295
964.310	-1580
964.398	-1490
964.485	-2397
964.572	-1551
964.659	-1740
964.746	-932
964.833	-1543
964.920	-1573
965.007	-1260
965.094	-980
965.181	-1944
965.268	-2071
965.355	-2174
965.441	-1793
965.528	-2903
965.615	-1359
965.702	-1265
965.789	-1507
965.875	-2203
965.962	-1643
966.049	-2593
966.136	-1148
966.222	-2333
966.309	-736
966.395	-2372
966.482	-1414
966.569	-1728
966.655	-1480
966.742	-1834
966.828	-1594
966.915	-2336
967.001	-2028
967.087	-1741
967.174	-2156
967.260	-2058
967.347	-1090
967.433	-2690
967.519	-864
967.605	-2226
967.692	-1625
967.778	-1168
967.864	-1721
967.950	-2154
968.036	-1986
968.123	-1054
968.209	-1334
968.295	-2514
968.381	372
968.467	-1468
968.553	-3019
968.639	-408
968.725	-2581
968.811	-970
968.897	-1557
968.983	-1481
969.069	-2251
969.154	-1060
969.240	-638
969.326	-2340
969.412	-1881
969.497	-1558
969.583	-1584
969.669	-1454
969.755	-2122
969.840	-2011
969.926	-611
970.012	-2627
970.097	-845
970.183	-1928
970.268	-949
970.354	-2650
970.439	-2258
970.525	-1434
970.610	-2590
970.696	-1131
970.781	-1984
970.866	-2190
970.952	-764
971.037	-2289
971.122	-1392
971.208	-2083
971.293	-1234
971.378	-2742
971.463	-1303
971.549	-1403
971.634	-1977
971.719	-1899
971.804	-2050
971.889	-1257
971.974	-2121
972.059	-2061
972.144	-1701
972.229	-1781
972.314	-2091
972.399	-1625
972.484	-2347
972.569	-1661
972.654	-2433
972.739	-296
972.824	-2070
972.908	-1205
972.993	-2163
973.078	-2449
973.163	-826
973.247	-864
973.332	-2785
973.417	-227
973.501	-2448
973.586	-1790
973.671	-1626
973.755	-2392
973.840	-1279
973.924	-1175
974.009	-1587
974.093	-2190
974.178	-873
974.262	-1804
974.346	-1943
974.431	-1984
974.515	-1945
974.600	-2401
974.684	-1318
974.768	-1964
974.852	-400
974.937	-2203
975.021	-1158
975.105	-2149
975.189	-1929
975.273	-1539
975.358	-2211
975.442	-1775
975.526	-1150
975.610	-2158
975.694	-2546
975.778	-625
975.862	-1328
975.946	-3053
976.030	-219
976.114	-1865
976.198	-1622
976.281	-2241
976.365	-1584
976.449	-2476
976.533	-1007
976.617	-2613
976.700	-1932
976.784	-1113
976.868	-1723
976.951	-2045
977.035	-2209
977.119	-1843
977.202	-1777
977.286	-1358
977.369	-1438
977.453	-1931
977.536	-1690
977.620	-1819
977.703	-1757
977.787	-2031
977.870	-1271
977.953	-1325
978.037	-2842
978.120	-1054
978.203	-2756
978.287	-2270
978.370	-1613
978.453	-1685
978.536	-2257
978.620	-318
978.703	-1833
978.786	-2227
978.869	-1995
978.952	-2568
979.035	-421
979.118	-2057
979.201	-1698
979.284	-1322
979.367	-1595
979.450	-1243
979.533	-1953
979.616	-1587
979.699	-1807
979.782	-1502
979.865	-1886
979.948	-1969
980.030	-1742
980.113	-1932
980.196	-2846
980.279	-2173
980.361	-1912
980.444	-1971
980.526	-1533
980.609	-1574
980.692	-2754
980.774	-899
980.857	-2553
980.939	-1036
981.022	-2671
981.104	-2873
981.187	-1713
981.269	-1569
981.352	-1420
981.434	-2128
981.516	-2593
981.599	-1313
981.681	-1246
981.763	-1876
981.846	-2007
981.928	-2476
982.010	-2536
982.092	-2737
982.174	-819
982.256	-2141
982.339	-1915
982.421	-1292
982.503	-844
982.585	-2294
982.667	-1234
982.749	-1476
982.831	-1433
982.913	-2680
982.995	-1134
983.077	-1978
983.158	-876
983.240	-3301
983.322	-861
983.404	-703
983.486	-2273
983.568	-1623
983.649	-1347
983.731	-1326
983.813	-1539
983.894	-1830
983.976	-924
984.058	-2391
984.139	-647
984.221	-2891
984.302	-1606
984.384	-2111
984.465	-2257
984.547	-1840
984.628	-2522
984.710	-1044
984.791	-1229
984.872	-2527
984.954	-1297
985.035	-2169
985.116	-2142
985.198	-1775
985.279	-767
985.360	-2060
985.441	-1407
985.522	-1563
985.604	-2075
985.685	-3235
985.766	-1323
985.847	-406
985.928	-1464
986.009	-1797
986.090	-1362
986.171	-1474
986.252	-1469
986.333	-1244
986.414	-1252
986.495	-1517
986.576	-1624
986.656	-2049
986.737	-882
986.818	-1926
986.899	-1818
986.980	-2424
987.060	-1141
987.141	-1704
987.222	-1761
987.302	-1878
987.383	-1482
987.464	-1964
987.544	-1109
987.625	-975
987.705	-1438
987.786	-980
987.866	-971
987.947	-2254
988.027	-1739
988.108	-2340
988.188	-1865
988.268	-1536
988.349	-2509
988.429	-2313
988.509	-1060
988.589	-1512
988.670	-2954
988.750	-512
988.830	-1076
988.910	-1036
988.990	-1980
989.070	-1839
989.151	-1561
989.231	-2385
989.311	-1374
989.391	-1469
989.471	-1445
989.551	-1957
989.631	-1851
989.711	-926
989.791	-1792
989.870	-2275
989.950	-1084
990.030	-2427
990.110	-1818
990.190	-2322
990.269	-2313
990.349	-1497
990.429	-1528
990.509	-624
990.588	-2173
990.668	-1752
990.747	-1761
990.827	-1537
990.907	-1692
990.986	-1959
991.066	-1660
991.145	-2298
991.225	-1691
991.304	-1675
991.383	-981
991.463	-2509
991.542	-1858
991.622	-1888
991.701	-2729
991.780	-1371
991.859	-1780
991.939	-770
992.018	-1325
992.097	-1799
992.176	-1711
992.256	-2529
992.335	-1811
992.414	-902
992.493	-2108
992.572	-1484
992.651	-801
992.730	-2410
992.809	-1188
992.888	-2488
992.967	-1949
993.046	-1799
993.125	-2522
993.203	-2006
993.282	-2536
993.361	-1877
993.440	-1257
993.519	-2425
993.597	-1427
993.676	-2545
993.755	-1219
993.834	-2065
993.912	-2144
993.991	-812
994.069	-2195
994.148	-2279
994.226	-1978
994.305	-1895
994.384	-1950
994.462	-476
994.540	-2661
994.619	-1831
994.697	-1926
994.776	-1921
994.854	-1425
994.932	-1709
995.011	-1008
995.089	-1705
995.167	-1820
995.245	-2181
995.324	-2581
995.402	-868
995.480	-2431
995.558	-1724
995.636	-2416
995.714	-2315
995.792	-963
995.870	-1783
995.948	-1565
996.026	-1806
996.104	-3634
996.182	-1382
996.260	-1667
996.338	-1783
996.416	-2139
996.494	-2204
996.572	-929
996.649	-2169
996.727	-1734
996.805	-1444
996.883	-2048
996.960	-1863
997.038	-1433
997.116	-1874
997.193	-2397
997.271	-1375
997.348	-1545
997.426	-1944
997.504	-2858
997.581	-1587
997.658	-769
997.736	-2559
997.813	-1944
997.891	-1407
997.968	-2146
998.046	-2313
998.123	-1660
998.200	-1245
998.277	-1799
998.355	-2052
998.432	-1973
998.509	-1689
998.586	-1232
998.663	-1477
998.741	-1120
998.818	-1926
998.895	-2507
998.972	-1624
999.049	-1760
999.126	-2249
999.203	-662
999.280	-2314
999.357	-2104
999.434	-2005
999.511	-2064
999.587	-928
999.664	-2180
999.741	-1431
999.818	-1278
999.895	-1709
999.971	-2075
1000.048	-2264
1000.125	-915
1000.202	-2582
1000.278	-2471
1000.355	-1660
1000.431	-2152
1000.508	-2552
1000.584	-1207
1000.661	-2134
1000.738	-2233
1000.814	-1902
1000.890	-1343
1000.967	-2574
1001.043	-1590
1001.120	-3101
1001.196	-2427
1001.272	-2552
1001.349	-1544
1001.425	-1631
1001.501	-1773
1001.577	-2059
1001.654	-1515
1001.730	-2202
1001.806	-1575
1001.882	-2723
1001.958	-1374
1002.034	-1917
1002.110	-1589
1002.186	-2739
1002.262	-1740
1002.338	-2350
1002.414	-942
1002.490	-1131
1002.566	-2244
1002.642	-1761
1002.718	-1243
1002.794	-2946
1002.870	-2962
1002.945	-1986
1003.021	-1486
1003.097	-1510
1003.173	-1282
1003.248	-2861
1003.324	-2479
1003.400	-1999
1003.475	-3225
1003.551	-1652
1003.626	-1989
1003.702	-2458
1003.777	-1821
1003.853	-2847
1003.928	-1988
1004.004	-1897
1004.079	-752
1004.155	-1977
1004.230	-2745
1004.305	-1797
1004.381	-2347
1004.456	-1712
1004.531	-1726
1004.607	-2359
1004.682	-1741
1004.757	-2668
1004.832	-2387
1004.907	-1871
1004.982	-1360
1005.057	-2017
1005.133	-2623
1005.208	-1755
1005.283	-2235
1005.358	-1965
1005.433	-1532
1005.508	-2086
1005.583	-2861
1005.657	-2128
1005.732	-1910
1005.807	-2457
1005.882	-2037
1005.957	-2097
1006.032	-1915
1006.106	-2407
1006.181	-2468
1006.256	-1416
1006.331	-2502
1006.405	-2506
1006.480	-1963
1006.554	-2914
1006.629	-1593
1006.704	-1976
1006.778	-2821
1006.853	-1533
1006.927	-2021
1007.002	-2158
1007.076	-2296
1007.150	-3041
1007.225	-1681
1007.299	-1370
1007.373	-2031
1007.448	-2428
1007.522	-1400
1007.596	-2243
1007.671	-2415
1007.745	-2186
1007.819	-2410
1007.893	-2709
1007.967	-1662
1008.041	-3102
1008.115	-2120
1008.190	-2074
1008.264	-2044
1008.338	-2619
1008.412	-2788
1008.486	-1804
1008.560	-2602
1008.633	-2349
1008.707	-2612
1008.781	-1674
1008.855	-1532
1008.929	-2166
1009.003	-2517
1009.076	-1777
1009.150	-2217
1009.224	-2374
1009.298	-2744
1009.371	-2856
1009.445	-1442
1009.519	-2280
1009.592	-3351
1009.666	-2726
1009.739	-1862
1009.813	-2752
1009.886	-1657
1009.960	-3709
1010.033	-1861
1010.107	-1806
1010.180	-2446
1010.253	-2569
1010.327	-2307
1010.400	-1796
1010.473	-1788
1010.547	-1124
1010.620	-2802
1010.693	-1837
1010.766	-2276
1010.840	-2431
1010.913	-1528
1010.986	-2547
1011.059	-1913
1011.132	-2258
1011.205	-2096
1011.278	-2326
1011.351	-2351
1011.424	-2439
1011.497	-2370
1011.570	-2831
1011.643	-2494
1011.716	-2755
1011.789	-1236
1011.862	-2136
1011.934	-1602
1012.007	-2856
1012.080	-2164
1012.153	-2663
1012.225	-1465
1012.298	-3007
1012.371	-2389
1012.443	-1831
1012.516	-3300
1012.588	-2593
1012.661	-2345
1012.733	-2400
1012.806	-1836
1012.879	-2483
1012.951	-2748
1013.023	-2419
1013.096	-1491
1013.168	-2446
1013.241	-1862
1013.313	-2535
1013.385	-2840
1013.458	-2516
1013.530	-2056
1013.602	-2772
1013.674	-2193
1013.746	-2601
1013.819	-2694
1013.891	-2543
1013.963	-2499
1014.035	-2610
1014.107	-1774
1014.179	-1530
1014.251	-1913
1014.323	-2336
1014.395	-2360
1014.467	-2440
1014.539	-1563
1014.611	-3069
1014.683	-1697
1014.754	-2118
1014.826	-2886
1014.898	-2236
1014.970	-2457
1015.042	-1560
1015.113	-2418
1015.185	-2280
1015.257	-2710
1015.328	-2199
1015.400	-2429
1015.471	-2592
1015.543	-3311
1015.615	-2086
1015.686	-1906
1015.757	-1731
1015.829	-2574
1015.901	-1798
1015.972	-1917
1016.043	-2611
1016.115	-2690
1016.186	-2165
1016.257	-2486
1016.328	-2467
1016.400	-1230
1016.471	-2617
1016.542	-2896
1016.613	-2246
1016.685	-2531
1016.756	-2587
1016.827	-2383
1016.898	-2043
1016.969	-1910
1017.040	-3448
1017.111	-1517
1017.182	-2947
1017.253	-2461
1017.324	-2152
1017.395	-2585
1017.466	-2874
1017.537	-1985
1017.608	-2041
1017.678	-1711
1017.749	-3076
1017.820	-2364
1017.891	-2715
1017.961	-2390
1018.032	-2181
1018.103	-1974
1018.173	-1682
1018.244	-1993
1018.315	-3429
1018.385	-1690
1018.456	-2630
1018.526	-2642
1018.597	-2603
1018.667	-1951
1018.738	-2265
1018.808	-2018
1018.878	-2579
1018.949	-2155
1019.019	-2395
1019.089	-2396
1019.160	-2756
1019.230	-2614
1019.300	-2119
1019.371	-3112
1019.441	-1646
1019.511	-2531
1019.581	-2587
1019.651	-2456
1019.721	-2768
1019.791	-1899
1019.861	-2481
1019.931	-1933
1020.001	-2531
1020.071	-1716
1020.141	-2667
1020.211	-2464
1020.281	-2789
1020.351	-2418
1020.421	-2056
1020.491	-1847
1020.560	-2679
1020.630	-2108
1020.700	-2775
1020.770	-2296
1020.839	-2417
1020.909	-2227
1020.979	-2726
1021.048	-1961
1021.118	-1915
1021.187	-2383
1021.257	-2245
1021.326	-1933
1021.396	-3001
1021.465	-1888
1021.535	-2080
1021.604	-3634
1021.674	-2542
1021.743	-1810
1021.812	-2617
1021.882	-2302
1021.951	-2088
1022.020	-1735
1022.089	-2743
1022.159	-1605
1022.228	-2756
1022.297	-2672
1022.366	-2669
1022.435	-1899
1022.504	-2928
1022.573	-2955
1022.642	-2314
1022.711	-2170
1022.781	-1838
1022.849	-1901
1022.918	-1756
1022.987	-2476
1023.056	-2485
1023.125	-2174
1023.194	-2690
1023.263	-1789
1023.331	-2481
1023.400	-2619
1023.469	-2830
1023.538	-1259
1023.606	-2687
1023.675	-2510
1023.744	-2961
1023.812	-2720
1023.881	-3176
1023.949	-1750
1024.018	-2454
1024.086	-2327
1024.155	-2659
1024.223	-2141
1024.292	-2547
1024.360	-1794
1024.429	-2646
1024.497	-2821
1024.565	-2674
1024.634	-2825
1024.702	-2104
1024.770	-2165
1024.838	-2445
1024.907	-2182
1024.975	-2673
1025.043	-1115
1025.111	-2708
1025.179	-1401
1025.247	-2804
1025.315	-2176
1025.383	-2398
1025.451	-1410
1025.519	-2162
1025.587	-2502
1025.655	-2837
1025.723	-2402
1025.791	-1736
1025.859	-2278
1025.927	-2463
1025.995	-1917
1026.062	-2532
1026.130	-2476
1026.198	-2367
1026.266	-2684
1026.333	-2240
1026.401	-1239
1026.469	-1946
1026.536	-2079
1026.604	-2024
1026.671	-2483
1026.739	-2295
1026.806	-2039
1026.874	-2043
1026.941	-2299
1027.009	-2704
1027.076	-2705
1027.144	-1891
1027.211	-2867
1027.278	-2684
1027.345	-2278
1027.413	-2041
1027.480	-2448
1027.547	-2280
1027.614	-2186
1027.682	-2818
1027.749	-2095
1027.816	-2646
1027.883	-2275
1027.950	-2764
1028.017	-2342
1028.084	-1591
1028.151	-3600
1028.218	-2856
1028.285	-2376
1028.352	-1662
1028.419	-1737
1028.486	-2947
1028.553	-2111
1028.619	-2838
1028.686	-2652
1028.753	-2351
1028.820	-2462
1028.886	-1984
1028.953	-2597
1029.020	-2374
1029.086	-2482
1029.153	-2514
1029.220	-2586
1029.286	-2270
1029.353	-2144
1029.419	-3025
1029.486	-2597
1029.552	-2572
1029.619	-1799
1029.685	-2622
1029.751	-2622
1029.818	-1614
1029.884	-3304
1029.951	-1357
1030.017	-2704
1030.083	-3101
1030.149	-2374
1030.216	-2812
1030.282	-2249
1030.348	-2814
1030.414	-3151
1030.480	-2560
1030.546	-1885
1030.612	-2153
1030.678	-2545
1030.744	-1766
1030.810	-2113
1030.876	-2219
1030.942	-2670
1031.008	-3020
1031.074	-2727
1031.140	-2517
1031.206	-2401
1031.272	-2357
1031.337	-2901
1031.403	-2067
1031.469	-2727
1031.534	-3553
1031.600	-1710
1031.666	-2672
1031.731	-2455
1031.797	-3192
1031.863	-2990
1031.928	-2627
1031.994	-2598
1032.059	-1920
1032.125	-2764
1032.190	-2937
1032.256	-3257
1032.321	-3052
1032.386	-2881
1032.452	-2481
1032.517	-1831
1032.582	-2519
1032.647	-2644
1032.713	-2276
1032.778	-2587
1032.843	-2538
1032.908	-2665
1032.974	-2576
1033.039	-2574
1033.104	-2809
1033.169	-2845
1033.234	-2202
1033.299	-2525
1033.364	-2338
1033.429	-2481
1033.494	-2130
1033.559	-3018
1033.624	-2081
1033.688	-1752
1033.753	-3142
1033.818	-2947
1033.883	-2638
1033.948	-2456
1034.013	-2694
1034.077	-1832
1034.142	-2703
1034.207	-2719
1034.271	-2480
1034.336	-2800
1034.400	-2993
1034.465	-2209
1034.530	-2558
1034.594	-2888
1034.658	-2964
1034.723	-2737
1034.787	-2969
1034.852	-1704
1034.916	-3349
1034.981	-2913
1035.045	-2636
1035.109	-3807
1035.173	-2408
1035.238	-3163
1035.302	-2838
1035.366	-1451
1035.430	-2537
1035.495	-2631
1035.559	-1925
1035.623	-2808
1035.687	-3158
1035.751	-2178
1035.815	-2832
1035.879	-2274
1035.943	-2204
1036.007	-2674
1036.071	-2923
1036.135	-2528
1036.198	-2729
1036.262	-2993
1036.326	-2270
1036.390	-2495
1036.454	-3080
1036.517	-2261
1036.581	-3069
1036.645	-2620
1036.709	-3057
1036.772	-2598
1036.836	-3190
1036.900	-1578
1036.963	-2780
1037.026	-2734
1037.090	-2953
1037.154	-2852
1037.217	-1858
1037.280	-2807
1037.344	-3078
1037.407	-2449
1037.471	-2165
1037.534	-2439
1037.597	-2909
1037.661	-2553
1037.724	-2754
1037.787	-2791
1037.850	-2757
1037.913	-3206
1037.977	-2324
1038.040	-3145
1038.103	-2274
1038.166	-3246
1038.229	-2848
1038.292	-3202
1038.355	-2814
1038.418	-2757
1038.481	-2577
1038.544	-2597
1038.607	-2954
1038.670	-2769
1038.732	-3288
1038.795	-2920
1038.858	-3100
1038.921	-2968
1038.984	-2544
1039.046	-2809
1039.109	-3069
1039.172	-2287
1039.234	-2540
1039.297	-2443
1039.360	-2799
1039.422	-2609
1039.485	-2780
1039.547	-3615
1039.610	-2577
1039.672	-2335
1039.734	-2724
1039.797	-2418
1039.859	-2203
1039.922	-2620
1039.984	-2613
1040.046	-1873
1040.109	-2513
1040.171	-2821
1040.233	-2429
1040.295	-2539
1040.358	-2690
1040.420	-2656
1040.482	-2931
1040.544	-2930
1040.606	-2697
1040.668	-3355
1040.730	-2634
1040.792	-3084
1040.854	-2193
1040.916	-2517
1040.978	-3144
1041.040	-1074
1041.102	-1927
1041.164	-2878
1041.225	-3060
1041.287	-2103
1041.349	-3245
1041.411	-2851
1041.472	-2601
1041.534	-3191
1041.596	-2906
1041.657	-1869
1041.719	-2581
1041.781	-2670
1041.842	-3538
1041.904	-3669
1041.965	-2821
1042.027	-2253
1042.088	-2750
1042.150	-2004
1042.211	-2732
1042.272	-3192
1042.334	-2762
1042.395	-2752
1042.456	-3406
1042.518	-2341
1042.579	-2544
1042.640	-2285
1042.701	-2241
1042.763	-2814
1042.824	-3384
1042.885	-3081
1042.946	-2865
1043.007	-2287
1043.068	-2610
1043.129	-2481
1043.190	-2841
1043.251	-2193
1043.312	-2623
1043.373	-2304
1043.434	-2247
1043.495	-2224
1043.556	-2985
1043.616	-1869
1043.677	-2372
1043.738	-2839
1043.799	-2092
1043.859	-2234
1043.920	-2220
1043.981	-3130
1044.041	-1438
1044.102	-2729
1044.162	-2745
1044.223	-2915
1044.284	-2609
1044.344	-2518
1044.405	-2359
1044.465	-1871
1044.525	-2158
1044.586	-2178
1044.646	-2396
1044.707	-1674
1044.767	-2526
1044.827	-2300
1044.887	-2465
1044.948	-2535
1045.008	-2194
1045.068	-2481
1045.128	-2479
1045.188	-2497
1045.249	-1977
1045.309	-2579
1045.369	-2044
1045.429	-2184
1045.489	-2017
1045.549	-2466
1045.609	-2794
1045.669	-1992
1045.729	-2074
1045.789	-1671
1045.848	-1988
1045.908	-2368
1045.968	-1807
1046.028	-2155
1046.088	-2602
1046.147	-1967
1046.207	-1893
1046.267	-1580
1046.326	-2022
1046.386	-1809
1046.446	-1942
1046.505	-2220
1046.565	-1368
1046.624	-1469
1046.684	-1137
1046.743	-832
1046.803	-304
1046.862	-263
1046.922	0
