'Start Wavelength	183.907
'End Wavelength	1046.922
'Gate Delay	5.000
'Gate Width (ms)	1.050
'Laser Output Level	0.000
'X Position	0.000
'Y Position	0.000
'Z Position	0.000
'Grid Point Number	1.000
'Shot Number	100.000
183.907	383.000
183.977	626.000
184.047	288
184.116	942
184.186	334
184.256	429
184.325	471
184.395	130
184.465	787
184.534	320
184.604	226
184.674	938
184.743	-765
184.813	378
184.883	-540
184.952	357
185.022	644
185.092	315
185.161	-621
185.231	1307
185.301	-220
185.370	1430
185.440	-466
185.509	116
185.579	678
185.649	652
185.718	304
185.788	856
185.857	-275
185.927	97
185.996	-224
186.066	304
186.136	-604
186.205	222
186.275	191
186.344	455
186.414	-528
186.483	29
186.553	450
186.622	1074
186.692	786
186.761	-588
186.831	521
186.900	538
186.970	649
187.039	1149
187.109	768
187.178	431
187.248	-100
187.317	357
187.387	-307
187.456	1104
187.526	-354
187.595	946
187.664	351
187.734	545
187.803	999
187.873	702
187.942	896
188.012	51
188.081	-703
188.150	327
188.220	391
188.289	1151
188.358	51
188.428	433
188.497	-175
188.567	-51
188.636	-74
188.705	247
188.775	305
188.844	-550
188.913	1058
188.983	131
189.052	-89
189.121	428
189.191	221
189.260	1184
189.329	1047
189.399	868
189.468	571
189.537	459
189.606	417
189.676	738
189.745	356
189.814	517
189.883	-296
189.953	335
190.022	158
190.091	2381
190.161	3203
190.230	1395
190.299	-262
190.368	471
190.437	379
190.507	869
190.576	661
190.645	73
190.714	54
190.783	-384
190.853	1087
190.922	452
190.991	45
191.060	703
191.129	-503
191.198	1164
191.268	-77
191.337	589
191.406	264
191.475	466
191.544	1211
191.613	248
191.682	14
191.752	450
191.821	-831
191.890	1011
191.959	128
192.028	712
192.097	340
192.166	1151
192.235	-491
192.304	1682
192.373	302
192.442	247
192.511	563
192.580	909
192.650	57
192.719	536
192.788	1562
192.857	1513
192.926	1236
192.995	620
193.064	88
193.133	2599
193.202	1218
193.271	2048
193.340	1189
193.409	2302
193.478	2042
193.547	2184
193.615	3209
193.684	3026
193.753	1597
193.822	1855
193.891	697
193.960	1137
194.029	471
194.098	1498
194.167	276
194.236	1268
194.305	307
194.374	1001
194.443	744
194.512	1501
194.580	1335
194.649	892
194.718	1280
194.787	953
194.856	136
194.925	1557
194.994	418
195.062	1270
195.131	625
195.200	661
195.269	715
195.338	935
195.407	829
195.475	657
195.544	1902
195.613	1080
195.682	1463
195.751	1594
195.819	159
195.888	1146
195.957	1952
196.026	1239
196.094	1174
196.163	1303
196.232	1307
196.301	829
196.369	790
196.438	1154
196.507	547
196.576	1263
196.644	608
196.713	1320
196.782	329
196.850	1427
196.919	582
196.988	1207
197.056	1103
197.125	1144
197.194	416
197.262	995
197.331	877
197.400	632
197.468	-448
197.537	399
197.606	1240
197.674	2084
197.743	3006
197.812	1362
197.880	3275
197.949	2256
198.017	2350
198.086	1888
198.155	1132
198.223	1514
198.292	2780
198.360	1856
198.429	838
198.497	1389
198.566	1448
198.635	3827
198.703	1359
198.772	1553
198.840	3211
198.909	3395
198.977	1149
199.046	1261
199.114	1324
199.183	733
199.251	1203
199.320	851
199.388	1241
199.457	1481
199.525	812
199.594	722
199.662	530
199.731	1045
199.799	294
199.867	1495
199.936	1398
200.004	1266
200.073	686
200.141	1884
200.210	748
200.278	936
200.346	1248
200.415	1767
200.483	2418
200.552	1697
200.620	345
200.688	1081
200.757	778
200.825	1042
200.893	758
200.962	1549
201.030	767
201.098	1122
201.167	811
201.235	1016
201.303	676
201.372	1512
201.440	1403
201.508	1543
201.577	361
201.645	1181
201.713	1034
201.781	785
201.850	1126
201.918	1758
201.986	442
202.055	1632
202.123	638
202.191	566
202.259	605
202.327	1588
202.396	1493
202.464	1234
202.532	881
202.600	3325
202.669	2240
202.737	2026
202.805	1092
202.873	1308
202.941	1173
203.009	1560
203.078	493
203.146	1107
203.214	795
203.282	415
203.350	1837
203.418	803
203.487	1337
203.555	1507
203.623	1104
203.691	1715
203.759	1537
203.827	787
203.895	555
203.963	860
204.031	1339
204.099	817
204.168	1454
204.236	1854
204.304	859
204.372	1225
204.440	1373
204.508	1555
204.576	1387
204.644	1193
204.712	249
204.780	1221
204.848	1476
204.916	1139
204.984	1394
205.052	1691
205.120	1225
205.188	2601
205.256	1696
205.324	1750
205.392	1470
205.460	2554
205.528	1992
205.596	1627
205.664	692
205.732	1268
205.799	3658
205.867	6832
205.935	1109
206.003	2213
206.071	1078
206.139	1457
206.207	1056
206.275	2413
206.343	1015
206.411	1759
206.478	1527
206.546	2010
206.614	1366
206.682	1304
206.750	441
206.818	1716
206.885	2815
206.953	735
207.021	1932
207.089	1766
207.157	1528
207.225	1329
207.292	1203
207.360	1271
207.428	1433
207.496	1638
207.563	1416
207.631	1749
207.699	1273
207.767	1366
207.834	988
207.902	1968
207.970	1628
208.038	2308
208.105	1639
208.173	1114
208.241	2015
208.309	3093
208.376	1957
208.444	3455
208.512	1656
208.579	1366
208.647	1625
208.715	2400
208.782	1189
208.850	2142
208.918	1034
208.985	1870
209.053	1237
209.120	901
209.188	1385
209.256	1419
209.323	571
209.391	2170
209.459	2164
209.526	2485
209.594	2419
209.661	1651
209.729	827
209.796	2295
209.864	1013
209.932	1399
209.999	2745
210.067	2428
210.134	1218
210.202	1877
210.269	2209
210.337	2216
210.404	1706
210.472	1738
210.539	881
210.607	1484
210.674	2237
210.742	2337
210.809	1200
210.877	2166
210.944	2487
211.012	1041
211.079	2371
211.146	2544
211.214	2236
211.281	3615
211.349	2284
211.416	1767
211.484	1922
211.551	1836
211.618	2433
211.686	2555
211.753	809
211.821	2425
211.888	2153
211.955	2088
212.023	1525
212.090	1973
212.157	1171
212.225	2713
212.292	3174
212.359	6672
212.427	16836
212.494	8776
212.561	3031
212.629	3012
212.696	1873
212.763	2271
212.831	1458
212.898	2958
212.965	1349
213.032	2075
213.100	1966
213.167	2120
213.234	2139
213.301	2711
213.369	1822
213.436	2030
213.503	2376
213.570	2369
213.638	2099
213.705	1089
213.772	1129
213.839	2148
213.906	2839
213.973	1495
214.041	1909
214.108	2785
214.175	1565
214.242	1507
214.309	1738
214.376	2422
214.444	2212
214.511	3106
214.578	1822
214.645	2610
214.712	2762
214.779	1870
214.846	1828
214.913	3462
214.980	3219
215.048	2804
215.115	3511
215.182	3252
215.249	1864
215.316	1796
215.383	2316
215.450	1299
215.517	1181
215.584	2507
215.651	1190
215.718	2025
215.785	2309
215.852	1896
215.919	2185
215.986	2643
216.053	1598
216.120	1213
216.187	1652
216.254	2199
216.321	1518
216.388	2159
216.455	2659
216.522	2155
216.589	1895
216.656	4122
216.722	3908
216.789	3456
216.856	3834
216.923	4070
216.990	2971
217.057	2798
217.124	2915
217.191	3487
217.258	4102
217.324	5519
217.391	7244
217.458	4719
217.525	3514
217.592	3503
217.659	1829
217.725	2986
217.792	3107
217.859	3384
217.926	1926
217.993	996
218.059	2154
218.126	2146
218.193	1811
218.260	1246
218.327	1158
218.393	2101
218.460	933
218.527	2357
218.594	1733
218.660	3793
218.727	3320
218.794	1407
218.860	2251
218.927	1104
218.994	793
219.061	1764
219.127	1522
219.194	3289
219.261	1850
219.327	592
219.394	988
219.461	726
219.527	294
219.594	2287
219.661	1323
219.727	757
219.794	1434
219.860	559
219.927	1093
219.994	2116
220.060	4022
220.127	3035
220.193	2855
220.260	2213
220.326	3724
220.393	6207
220.460	10284
220.526	6782
220.593	3664
220.659	5031
220.726	3856
220.792	8953
220.859	8955
220.925	10277
220.992	17146
221.058	16504
221.125	14277
221.191	10958
221.258	4431
221.324	3235
221.391	2382
221.457	1971
221.524	2315
221.590	2535
221.657	9911
221.723	7930
221.789	6505
221.856	6665
221.922	2763
221.989	2807
222.055	1637
222.121	296
222.188	2788
222.254	1842
222.321	996
222.387	1540
222.453	1085
222.520	1666
222.586	942
222.652	1237
222.719	1269
222.785	1087
222.851	558
222.918	2139
222.984	824
223.050	438
223.116	-1030
223.183	1860
223.249	176
223.315	885
223.382	919
223.448	1593
223.514	256
223.580	496
223.647	275
223.713	572
223.779	588
223.845	895
223.911	1281
223.978	803
224.044	870
224.110	799
224.176	759
224.242	1018
224.309	207
224.375	1285
224.441	537
224.507	893
224.573	95
224.639	1701
224.705	126
224.772	2326
224.838	761
224.904	2230
224.970	825
225.036	710
225.102	146
225.168	1769
225.234	1634
225.300	1087
225.366	465
225.432	704
225.499	103
225.565	919
225.631	1066
225.697	1423
225.763	1710
225.829	2825
225.895	1773
225.961	3319
226.027	3140
226.093	1333
226.159	2943
226.225	5412
226.291	13226
226.357	24329
226.423	11867
226.489	5942
226.554	3760
226.620	3507
226.686	3516
226.752	6208
226.818	9982
226.884	30089
226.950	28778
227.016	10261
227.082	5038
227.148	3857
227.214	3253
227.279	2884
227.345	1594
227.411	1738
227.477	1489
227.543	4223
227.609	4116
227.674	2709
227.740	349
227.806	2657
227.872	1097
227.938	1523
228.003	1877
228.069	1619
228.135	1116
228.201	1471
228.267	1937
228.332	1386
228.398	2086
228.464	1970
228.530	947
228.595	1810
228.661	-26
228.727	1525
228.792	2713
228.858	1106
228.924	741
228.990	3562
229.055	952
229.121	2539
229.187	372
229.252	1124
229.318	632
229.384	1139
229.449	1388
229.515	61
229.581	-65
229.646	2839
229.712	1212
229.777	2237
229.843	3697
229.909	2674
229.974	2153
230.040	2207
230.105	1650
230.171	893
230.236	2347
230.302	4971
230.368	2762
230.433	2326
230.499	1490
230.564	2607
230.630	904
230.695	1767
230.761	1677
230.826	468
230.892	2874
230.957	1128
231.023	734
231.088	734
231.154	719
231.219	1367
231.284	1570
231.350	2085
231.415	732
231.481	1593
231.546	1224
231.612	1159
231.677	736
231.742	136
231.808	2281
231.873	918
231.939	-237
232.004	1916
232.069	2474
232.135	878
232.200	1054
232.265	1215
232.331	681
232.396	1086
232.461	130
232.527	789
232.592	627
232.657	902
232.723	1986
232.788	2291
232.853	1709
232.918	1188
232.984	267
233.049	1104
233.114	1649
233.179	3313
233.245	3956
233.310	6107
233.375	767
233.440	1810
233.506	1162
233.571	1452
233.636	1374
233.701	2106
233.766	1753
233.832	4701
233.897	1419
233.962	167
234.027	2203
234.092	1153
234.157	1497
234.222	789
234.288	2761
234.353	10885
234.418	9092
234.483	4166
234.548	1843
234.613	1633
234.678	2038
234.743	1623
234.808	9850
234.873	7037
234.938	3065
235.004	2184
235.069	1220
235.134	841
235.199	1753
235.264	1834
235.329	13
235.394	1593
235.459	1868
235.524	1757
235.589	2104
235.654	1813
235.719	406
235.784	1733
235.849	1807
235.913	4826
235.978	5802
236.043	8250
236.108	2720
236.173	1919
236.238	3337
236.303	2804
236.368	1512
236.433	4407
236.498	6861
236.563	5379
236.627	8303
236.692	36461
236.757	31722
236.822	12033
236.887	7352
236.952	6763
237.017	3817
237.081	5942
237.146	5347
237.211	15086
237.276	34044
237.341	62373
237.405	28659
237.470	10466
237.535	6498
237.600	4386
237.664	3097
237.729	3155
237.794	3677
237.859	11537
237.923	6891
237.988	4198
238.053	5164
238.118	5569
238.182	14005
238.247	16289
238.312	5263
238.376	4260
238.441	1800
238.506	4077
238.570	952
238.635	2844
238.700	1898
238.764	1163
238.829	5565
238.893	8959
238.958	3833
239.023	2966
239.087	1255
239.152	2994
239.216	1363
239.281	2287
239.346	1932
239.410	2336
239.475	2047
239.539	13999
239.604	13381
239.668	3398
239.733	1596
239.797	2934
239.862	7045
239.926	11611
239.991	5318
240.055	1753
240.120	977
240.184	1300
240.249	799
240.313	1620
240.378	2246
240.442	7412
240.507	14932
240.571	4272
240.635	4915
240.700	8713
240.764	2472
240.829	2686
240.893	482
240.957	2156
241.022	6619
241.086	14576
241.151	5541
241.215	1028
241.279	2981
241.344	7040
241.408	3650
241.472	1527
241.537	1782
241.601	1971
241.665	64
241.730	1314
241.794	2288
241.858	496
241.922	1178
241.987	1529
242.051	827
242.115	34
242.179	1708
242.244	1642
242.308	1213
242.372	2101
242.436	1413
242.501	1873
242.565	421
242.629	762
242.693	2123
242.757	748
242.822	1608
242.886	2349
242.950	2254
243.014	1374
243.078	1513
243.142	2047
243.206	1659
243.271	2681
243.335	1610
243.399	4220
243.463	15189
243.527	56601
243.591	18023
243.655	5610
243.719	1785
243.783	3334
243.847	4137
243.911	7855
243.975	5994
244.040	3006
244.104	3732
244.168	1830
244.232	2414
244.296	4657
244.360	5952
244.424	3441
244.488	2406
244.552	2164
244.615	245
244.679	1673
244.743	969
244.807	2012
244.871	1758
244.935	2352
244.999	-193
245.063	938
245.127	2870
245.191	4176
245.255	4001
245.319	2677
245.383	1122
245.446	3348
245.510	1703
245.574	2093
245.638	2248
245.702	784
245.766	6050
245.829	4288
245.893	1171
245.957	1329
246.021	2720
246.085	2404
246.149	2093
246.212	7164
246.276	12129
246.340	4750
246.404	3087
246.467	3965
246.531	3232
246.595	4310
246.659	2931
246.722	1466
246.786	2746
246.850	3394
246.913	4852
246.977	1224
247.041	1636
247.104	2432
247.168	2519
247.232	5399
247.295	15463
247.359	8328
247.423	2616
247.486	5536
247.550	3898
247.614	1765
247.677	3325
247.741	3244
247.804	2281
247.868	3667
247.932	4430
247.995	14132
248.059	5050
248.122	1917
248.186	4098
248.249	5274
248.313	21314
248.376	24921
248.440	16296
248.503	4973
248.567	5759
248.630	4930
248.694	6307
248.757	9442
248.821	25225
248.884	14816
248.948	11576
249.011	19864
249.075	28875
249.138	25699
249.202	8464
249.265	5371
249.328	7922
249.392	5570
249.455	4581
249.519	2984
249.582	3952
249.645	6173
249.709	5151
249.772	3586
249.835	2880
249.899	4882
249.962	4404
250.025	3145
250.089	9104
250.152	13904
250.215	6349
250.279	4558
250.342	5050
250.405	4822
250.468	5027
250.532	6086
250.595	9576
250.658	41099
250.721	81665
250.785	25199
250.848	11152
250.911	6865
250.974	6504
251.038	7793
251.101	17641
251.164	9715
251.227	8427
251.290	8384
251.354	13708
251.417	61876
251.480	67172
251.543	36869
251.606	117508
251.669	94043
251.732	30384
251.795	24458
251.859	26679
251.922	73781
251.985	45062
252.048	14817
252.111	9177
252.174	7764
252.237	13211
252.300	31949
252.363	35933
252.426	97134
252.489	39536
252.552	16826
252.615	9284
252.678	10584
252.741	23805
252.804	35810
252.867	97778
252.930	52480
252.993	23148
253.056	13578
253.119	8577
253.182	7465
253.245	14474
253.308	11744
253.371	8154
253.434	7509
253.497	6898
253.559	14793
253.622	9910
253.685	10089
253.748	10329
253.811	6076
253.874	8353
253.937	6412
254.000	4742
254.062	8231
254.125	15487
254.188	10269
254.251	9820
254.314	5658
254.376	7528
254.439	9109
254.502	7389
254.565	9370
254.628	17286
254.690	9238
254.753	5131
254.816	3866
254.878	4584
254.941	10714
255.004	12717
255.067	5510
255.129	3408
255.192	2925
255.255	972
255.317	3210
255.380	2406
255.443	1673
255.505	1215
255.568	1104
255.631	1053
255.693	1696
255.756	829
255.819	2738
255.881	1621
255.944	2163
256.006	1517
256.069	1836
256.132	1199
256.194	3299
256.257	10926
256.319	8010
256.382	7051
256.444	3713
256.507	2782
256.569	2559
256.632	3160
256.694	5417
256.757	16045
256.819	57788
256.882	22217
256.944	7679
257.007	4996
257.069	4722
257.132	2963
257.194	3950
257.257	2637
257.319	2857
257.381	3657
257.444	12136
257.506	60270
257.569	71297
257.631	23874
257.693	12216
257.756	6392
257.818	5660
257.880	3560
257.943	3997
258.005	2477
258.067	1988
258.130	1802
258.192	3061
258.254	6088
258.317	4943
258.379	3258
258.441	8196
258.503	8922
258.566	12635
258.628	21083
258.690	4727
258.753	4487
258.815	5506
258.877	2507
258.939	2677
259.001	1854
259.064	2055
259.126	2055
259.188	4477
259.250	2370
259.312	2472
259.375	6183
259.437	5431
259.499	2393
259.561	1177
259.623	1772
259.685	1516
259.747	2303
259.809	12107
259.872	27231
259.934	39324
259.996	34321
260.058	7678
260.120	3272
260.182	2594
260.244	2552
260.306	2123
260.368	2734
260.430	1309
260.492	2334
260.554	7144
260.616	5509
260.678	13204
260.740	27248
260.802	6366
260.864	4233
260.926	1799
260.988	2921
261.050	3430
261.112	4182
261.174	22020
261.236	24523
261.298	6182
261.359	9586
261.421	17112
261.483	3402
261.545	3652
261.607	1298
261.669	2626
261.731	4862
261.793	16124
261.854	5697
261.916	3683
261.978	2104
262.040	3007
262.102	2238
262.164	4748
262.225	4583
262.287	2788
262.349	3961
262.411	5126
262.472	3013
262.534	4922
262.596	16779
262.658	5853
262.719	1724
262.781	4376
262.843	14452
262.904	7933
262.966	3930
263.028	4925
263.090	25956
263.151	87615
263.213	26181
263.275	8740
263.336	4234
263.398	3873
263.459	1311
263.521	1615
263.583	4832
263.644	4397
263.706	1655
263.767	1146
263.829	1345
263.891	1186
263.952	867
264.014	877
264.075	654
264.137	3592
264.198	3031
264.260	676
264.321	1314
264.383	3176
264.444	7029
264.506	2428
264.567	1828
264.629	2947
264.690	3239
264.752	2871
264.813	1909
264.875	804
264.936	1231
264.998	771
265.059	604
265.120	2325
265.182	3034
265.243	27240
265.305	30393
265.366	6749
265.427	3304
265.489	3044
265.550	-200
265.611	1763
265.673	1784
265.734	788
265.795	1847
265.857	1881
265.918	1078
265.979	6145
266.040	45955
266.102	42404
266.163	9410
266.224	4914
266.286	2358
266.347	1487
266.408	1932
266.469	2215
266.530	1851
266.592	1695
266.653	2968
266.714	5832
266.775	1660
266.836	772
266.898	41
266.959	2070
267.020	652
267.081	2033
267.142	250
267.203	1244
267.264	10
267.326	2519
267.387	1066
267.448	647
267.509	811
267.570	1474
267.631	412
267.692	670
267.753	1636
267.814	1184
267.875	1832
267.936	6918
267.997	2267
268.058	2308
268.119	1297
268.180	937
268.241	37
268.302	947
268.363	80
268.424	1071
268.485	1228
268.546	1103
268.607	377
268.668	354
268.729	384
268.790	756
268.851	74
268.912	3441
268.972	4897
269.033	1584
269.094	684
269.155	1371
269.216	342
269.277	1431
269.338	19
269.398	1015
269.459	367
269.520	1787
269.581	2357
269.642	3207
269.702	1031
269.763	1259
269.824	737
269.885	2090
269.945	3090
270.006	913
270.067	397
270.128	238
270.188	-292
270.249	326
270.310	49
270.370	1639
270.431	1229
270.492	879
270.553	390
270.613	3132
270.674	5966
270.734	2958
270.795	2002
270.856	2135
270.916	1454
270.977	907
271.038	1616
271.098	1493
271.159	2040
271.219	3120
271.280	993
271.340	1493
271.401	1527
271.462	6209
271.522	3371
271.583	1910
271.643	1427
271.704	2362
271.764	1393
271.825	3451
271.885	17893
271.946	31926
272.006	8217
272.066	10797
272.127	25800
272.187	7580
272.248	3302
272.308	2908
272.369	16865
272.429	11462
272.489	5847
272.550	5603
272.610	5042
272.671	3962
272.731	4269
272.791	8445
272.852	3430
272.912	2344
272.972	1662
273.033	2054
273.093	2769
273.153	4253
273.214	2135
273.274	1966
273.334	8468
273.394	24877
273.455	8500
273.515	7098
273.575	18241
273.635	8685
273.696	9589
273.756	26257
273.816	9963
273.876	4823
273.936	12474
273.997	29188
274.057	6298
274.117	3204
274.177	4250
274.237	25096
274.297	26749
274.358	20517
274.418	17967
274.478	13818
274.538	4571
274.598	4752
274.658	19733
274.718	29435
274.778	11076
274.838	4671
274.898	9298
274.958	39998
275.018	30071
275.078	19425
275.138	6268
275.198	3943
275.258	1927
275.318	3530
275.378	5129
275.438	5917
275.498	4340
275.558	15513
275.618	38205
275.678	18818
275.738	8017
275.798	6338
275.858	1938
275.918	1858
275.978	1535
276.038	2691
276.098	1546
276.157	3659
276.217	12249
276.277	6637
276.337	2916
276.397	2554
276.457	2824
276.517	2061
276.576	1096
276.636	1637
276.696	2812
276.756	7433
276.815	6352
276.875	3365
276.935	2892
276.995	2577
277.055	1084
277.114	1092
277.174	2432
277.234	11212
277.293	4895
277.353	2754
277.413	2096
277.472	2421
277.532	1918
277.592	3244
277.651	9603
277.711	23368
277.771	6911
277.830	22684
277.890	21864
277.950	13488
278.009	53935
278.069	20740
278.128	13957
278.188	23688
278.248	8095
278.307	22564
278.367	17113
278.426	4615
278.486	2981
278.545	2501
278.605	2435
278.664	2129
278.724	2274
278.783	8505
278.843	29690
278.902	9385
278.962	4246
279.021	4009
279.081	7273
279.140	7612
279.199	5096
279.259	5378
279.318	5397
279.378	7015
279.437	11047
279.496	40288
279.556	172131
279.615	167070
279.675	38397
279.734	18183
279.793	20233
279.853	33477
279.912	12668
279.971	7377
280.031	5709
280.090	9669
280.149	19011
280.208	17622
280.268	113711
280.327	151068
280.386	32324
280.445	17415
280.505	12937
280.564	6534
280.623	4495
280.682	6536
280.742	11173
280.801	4586
280.860	2714
280.919	1946
280.978	2103
281.037	2619
281.097	1895
281.156	2817
281.215	1569
281.274	2949
281.333	14694
281.392	14610
281.451	3198
281.510	2948
281.569	2014
281.628	1322
281.688	854
281.747	2223
281.806	1359
281.865	1543
281.924	1064
281.983	1474
282.042	607
282.101	706
282.160	878
282.219	1154
282.278	701
282.337	6296
282.396	5259
282.454	2019
282.513	1398
282.572	9701
282.631	6105
282.690	1514
282.749	1431
282.808	2047
282.867	734
282.926	1835
282.985	1258
283.043	678
283.102	415
283.161	1598
283.220	3905
283.279	15868
283.338	3982
283.396	2285
283.455	1226
283.514	1522
283.573	4165
283.631	2965
283.690	1943
283.749	1043
283.808	2980
283.866	6331
283.925	1304
283.984	2175
284.043	1642
284.101	2411
284.160	1926
284.219	2861
284.277	1983
284.336	4895
284.395	15340
284.453	14957
284.512	4439
284.570	4472
284.629	4172
284.688	4779
284.746	4282
284.805	5093
284.863	6378
284.922	9282
284.981	9763
285.039	12541
285.098	21551
285.156	57093
285.215	186383
285.273	199592
285.332	84045
285.390	37850
285.449	20879
285.507	13128
285.566	10582
285.624	7800
285.683	5577
285.741	5021
285.799	3432
285.858	4317
285.916	4089
285.975	3117
286.033	2336
286.091	2940
286.150	1477
286.208	2751
286.267	1970
286.325	2798
286.383	3699
286.442	3927
286.500	1426
286.558	1916
286.616	1798
286.675	3318
286.733	1531
286.791	2106
286.850	2096
286.908	3214
286.966	5797
287.024	3226
287.083	1008
287.141	1371
287.199	1526
287.257	3002
287.315	1717
287.374	2156
287.432	6162
287.490	5250
287.548	2296
287.606	2594
287.664	2348
287.723	4458
287.781	4228
287.839	2868
287.897	4771
287.955	6721
288.013	9687
288.071	18923
288.129	89208
288.187	312222
288.245	149881
288.303	43821
288.361	21022
288.419	12969
288.477	8240
288.535	7103
288.593	4678
288.651	4775
288.709	2862
288.767	2702
288.825	2390
288.883	1817
288.941	2292
288.999	2505
289.057	1060
289.115	1321
289.173	1001
289.231	2118
289.289	1765
289.346	745
289.404	1651
289.462	3266
289.520	2972
289.578	1794
289.636	878
289.694	1171
289.751	719
289.809	736
289.867	999
289.925	1692
289.983	1219
290.040	1507
290.098	563
290.156	930
290.214	1750
290.271	642
290.329	335
290.387	608
290.444	228
290.502	-79
290.560	416
290.617	493
290.675	643
290.733	890
290.790	849
290.848	1322
290.906	58
290.963	1612
291.021	1469
291.078	1581
291.136	-54
291.194	4246
291.251	12133
291.309	3899
291.366	1205
291.424	286
291.481	707
291.539	622
291.596	433
291.654	409
291.711	160
291.769	1183
291.826	2216
291.884	1670
291.941	488
291.999	-9
292.056	940
292.114	810
292.171	212
292.228	870
292.286	713
292.343	3438
292.401	4578
292.458	3102
292.515	1028
292.573	1822
292.630	1041
292.687	2588
292.745	1154
292.802	1200
292.859	4303
292.917	14611
292.974	9112
293.031	3123
293.089	629
293.146	785
293.203	667
293.260	516
293.318	1606
293.375	1759
293.432	1159
293.489	1201
293.546	607
293.604	2955
293.661	9990
293.718	33256
293.775	15662
293.832	7025
293.889	4247
293.947	3953
294.004	2098
294.061	1988
294.118	3313
294.175	10902
294.232	11468
294.289	5097
294.346	2022
294.403	2152
294.460	2732
294.517	1986
294.574	1695
294.631	725
294.688	1627
294.745	6226
294.802	30926
294.859	29403
294.916	9839
294.973	5930
295.030	3811
295.087	3366
295.144	1645
295.201	2718
295.258	1499
295.315	2080
295.372	11432
295.429	29229
295.486	11606
295.542	4767
295.599	6034
295.656	12377
295.713	10301
295.770	22259
295.827	8833
295.883	3936
295.940	2315
295.997	3946
296.054	4341
296.111	2533
296.167	1825
296.224	623
296.281	830
296.338	1666
296.394	993
296.451	2094
296.508	7331
296.564	17702
296.621	10936
296.678	25039
296.734	42552
296.791	15652
296.848	5781
296.904	4928
296.961	11426
297.018	26074
297.074	22522
297.131	8492
297.187	5242
297.244	5552
297.301	26237
297.357	61159
297.414	23717
297.470	8437
297.527	4071
297.583	3170
297.640	3068
297.696	2719
297.753	1727
297.809	1660
297.866	644
297.922	967
297.979	1360
298.035	1747
298.092	3936
298.148	14153
298.204	15704
298.261	6854
298.317	9972
298.374	34727
298.430	23000
298.486	10301
298.543	6115
298.599	6284
298.656	7073
298.712	10549
298.768	32210
298.824	29960
298.881	9541
298.937	4325
298.993	2651
299.050	3143
299.106	2675
299.162	2605
299.218	3254
299.275	2378
299.331	2265
299.387	5938
299.443	30315
299.500	37081
299.556	14415
299.612	6620
299.668	4912
299.724	5890
299.780	6952
299.837	4169
299.893	5388
299.949	22047
300.005	28770
300.061	23010
300.117	46682
300.173	25268
300.229	8741
300.285	7987
300.341	9346
300.397	5499
300.453	2483
300.510	3332
300.566	2312
300.622	4279
300.678	12619
300.734	23247
300.790	23593
300.845	34556
300.901	20911
300.957	23026
301.013	18894
301.069	7720
301.125	4218
301.181	4780
301.237	3275
301.293	2191
301.349	2343
301.405	2089
301.461	2297
301.516	5066
301.572	3476
301.628	5003
301.684	4660
301.740	8873
301.796	16625
301.851	12213
301.907	15199
301.963	14570
302.019	25648
302.074	90470
302.130	96760
302.186	45936
302.242	17798
302.297	9244
302.353	7228
302.409	14333
302.464	14219
302.520	11410
302.576	28453
302.631	37795
302.687	20334
302.743	9212
302.798	4575
302.854	2467
302.910	2836
302.965	3994
303.021	7492
303.076	7890
303.132	9314
303.187	12230
303.243	5455
303.299	4062
303.354	2332
303.410	2947
303.465	1794
303.521	2347
303.576	2076
303.632	2608
303.687	6931
303.743	29323
303.798	27952
303.853	11657
303.909	5396
303.964	3532
304.020	4398
304.075	6766
304.130	7738
304.186	12506
304.241	13749
304.297	10627
304.352	5144
304.358	4942
304.407	3305
304.449	2958
304.463	2845
304.518	3405
304.539	3006
304.573	2361
304.629	3270
304.630	3291
304.684	4489
304.720	14694
304.739	19809
304.794	35011
304.811	30286
304.850	19100
304.902	8189
304.905	7482
304.960	5102
304.992	4870
305.015	4691
305.071	4682
305.083	4369
305.126	3209
305.173	1775
305.181	1558
305.236	1526
305.264	2133
305.292	2723
305.347	2495
305.354	2688
305.402	3975
305.445	4425
305.457	4500
305.512	6503
305.535	5747
305.567	4799
305.622	4757
305.626	5010
305.678	10315
305.716	23846
305.733	28911
305.788	35790
305.807	30704
305.843	22160
305.897	27898
305.898	27943
305.953	31482
305.988	20910
306.008	15053
306.063	7290
306.078	6358
306.118	4241
306.168	3714
306.173	3664
306.228	2187
306.259	2252
306.283	2390
306.338	1544
306.349	1785
306.393	2569
306.440	4100
306.448	4373
306.503	3526
306.530	3327
306.558	3591
306.613	9213
306.620	9830
306.668	13878
306.711	20970
306.723	22338
306.778	19382
306.801	15186
306.833	10150
306.888	4371
306.892	4262
306.943	3433
306.982	2598
306.997	2225
307.052	2276
307.072	2213
307.107	2342
307.162	3518
307.163	3534
307.217	5013
307.253	5978
307.272	6171
307.327	6762
307.343	6299
307.381	5394
307.434	4086
307.436	4112
307.491	8283
307.524	13344
307.546	15634
307.600	18504
307.614	16691
307.655	10837
307.704	6361
307.710	6042
307.765	5341
307.795	6684
307.819	7773
307.874	12319
307.885	12450
307.929	12047
307.975	10261
307.984	10436
308.038	14906
308.065	18505
308.093	33532
308.148	79433
308.156	92565
308.202	158574
308.246	197015
308.257	195249
308.312	105461
308.336	70912
308.366	48302
308.421	27176
308.426	25817
308.475	16173
308.517	11434
308.530	10068
308.585	8175
308.607	7715
308.639	7524
308.694	7665
308.697	7765
308.748	10994
308.787	15661
308.803	16275
308.857	13700
308.877	12189
308.912	10811
308.967	10316
308.967	10356
309.021	14081
309.058	17090
309.076	21689
309.130	41531
309.148	50352
309.185	106112
309.238	216519
309.239	217061
309.293	244698
309.328	214495
309.348	185442
309.402	85130
309.418	61900
309.457	39245
309.508	22912
309.511	22115
309.566	16863
309.598	15228
309.620	15575
309.674	20921
309.688	22286
309.729	21383
309.778	17288
309.783	16933
309.837	12356
309.868	10423
309.892	10628
309.946	13539
309.959	15064
310.001	19504
310.049	23117
310.055	22642
310.109	14913
310.139	9854
310.163	7440
310.218	4500
310.229	4144
310.272	3667
310.319	3620
310.326	3497
310.381	2615
310.409	2391
310.435	2366
310.489	2217
310.499	2209
310.543	2265
310.589	2240
310.598	2173
310.652	2285
310.679	1996
310.706	1776
310.760	1724
310.769	1709
310.814	1737
310.859	1784
310.868	1754
310.923	1554
310.948	1583
310.977	1841
311.031	2079
311.038	2157
311.085	2131
311.128	1830
311.139	1758
311.193	1619
311.218	1443
311.247	1344
311.301	1358
311.308	1348
311.356	1470
311.398	1690
311.410	1582
311.464	968
311.488	738
311.518	912
311.572	1140
311.578	1176
311.626	1590
311.668	1995
311.680	1944
311.734	1638
311.758	1510
311.788	1427
311.842	1307
311.847	1304
311.896	1845
311.937	2340
311.950	2287
312.004	2084
312.027	2007
312.058	1604
312.112	887
312.117	826
312.165	874
312.207	936
312.297	1457
312.386	1115
312.476	1446
312.566	2152
312.656	1195
312.745	606
312.835	994
312.925	1552
313.015	1504
313.104	1657
313.194	1906
313.284	609
313.374	1732
313.463	1781
313.553	1434
313.643	736
313.732	1172
313.822	159
313.912	1475
314.001	796
314.091	1526
314.180	1084
314.270	1830
314.360	2335
314.449	1262
314.539	823
314.628	1284
314.718	1292
314.808	2406
314.897	891
314.987	1538
315.076	1475
315.166	1598
315.255	1691
315.345	2009
315.434	1131
315.524	1933
315.613	2298
315.703	3595
315.792	8415
315.881	30449
315.971	7500
316.060	3959
316.150	3965
316.239	4228
316.328	2047
316.418	810
316.507	1483
316.597	2287
316.686	1400
316.775	3043
316.865	4085
316.954	1848
317.043	737
317.133	1551
317.222	845
317.311	2048
317.400	823
317.490	2516
317.579	1209
317.668	2402
317.757	4966
317.847	16651
317.936	54861
318.025	12882
318.114	8644
318.203	4360
318.293	2826
318.382	4113
318.471	3035
318.560	5230
318.649	7550
318.738	2090
318.828	1424
318.917	1246
319.006	2122
319.095	4934
319.184	11039
319.273	7011
319.362	3692
319.451	1191
319.540	1411
319.629	3665
319.718	5324
319.807	2280
319.896	4937
319.985	15490
320.074	5225
320.163	1819
320.252	2156
320.341	1757
320.430	857
320.519	2284
320.608	391
320.697	2013
320.786	546
320.875	2340
320.964	3066
321.053	3632
321.142	5195
321.230	5439
321.319	3980
321.408	8946
321.497	3708
321.586	4563
321.675	4329
321.764	4327
321.852	2762
321.941	5182
322.030	2783
322.119	3764
322.207	10370
322.296	6044
322.385	3264
322.474	4504
322.562	12510
322.651	5794
322.740	4590
322.829	5825
322.917	5619
323.006	3768
323.095	2711
323.183	1757
323.272	3290
323.361	7215
323.449	22099
323.538	6231
323.626	14351
323.715	6771
323.804	2435
323.892	12511
323.981	5268
324.069	2094
324.158	6644
324.246	5883
324.335	1664
324.424	3784
324.512	692
324.601	1000
324.689	864
324.778	2439
324.866	3345
324.954	1182
325.043	694
325.131	2284
325.220	4792
325.308	4286
325.397	3862
325.485	2237
325.574	572
325.662	922
325.750	500
325.839	362
325.927	199
326.015	1321
326.104	1969
326.192	3385
326.280	606
326.369	420
326.457	1931
326.545	3292
326.634	486
326.722	1145
326.810	669
326.898	1214
326.987	1263
327.075	2431
327.163	2714
327.251	1192
327.340	106
327.428	1157
327.516	580
327.604	1146
327.692	1003
327.781	1220
327.869	1525
327.957	1183
328.045	1123
328.133	1250
328.221	773
328.309	619
328.397	570
328.485	1246
328.574	1300
328.662	7158
328.750	2685
328.838	906
328.926	898
329.014	542
329.102	1142
329.190	2881
329.278	2211
329.366	383
329.454	272
329.542	374
329.630	20
329.718	194
329.806	265
329.893	1588
329.981	43
330.069	2243
330.157	14108
330.245	42748
330.333	18912
330.421	1875
330.509	1197
330.597	7564
330.684	3299
330.772	1246
330.860	1884
330.948	885
331.036	818
331.123	145
331.211	495
331.299	773
331.387	2099
331.475	2411
331.562	611
331.650	60
331.738	-55
331.825	1474
331.913	469
332.001	682
332.089	592
332.176	1921
332.264	6189
332.352	3303
332.439	723
332.527	980
332.614	264
332.702	1151
332.790	804
332.877	2492
332.965	4828
333.052	845
333.140	1448
333.228	3733
333.315	642
333.403	1198
333.490	3218
333.578	2633
333.665	4330
333.753	1369
333.840	507
333.928	539
334.015	3046
334.103	5560
334.190	16403
334.278	4021
334.365	2480
334.452	2647
334.540	981
334.627	718
334.715	1236
334.802	3666
334.889	27009
334.977	27953
335.064	4674
335.151	1083
335.239	1593
335.326	808
335.413	7601
335.501	8673
335.588	1104
335.675	1349
335.762	184
335.850	1901
335.937	2855
336.024	7173
336.111	29632
336.199	13537
336.286	3114
336.373	1228
336.460	168
336.547	648
336.635	767
336.722	1247
336.809	721
336.896	1467
336.983	3756
337.070	11260
337.157	15600
337.245	15504
337.332	10102
337.419	836
337.506	630
337.593	802
337.680	2659
337.767	7013
337.854	1716
337.941	2523
338.028	4893
338.115	442
338.202	2273
338.289	3112
338.376	15031
338.463	3412
338.550	5115
338.637	4311
338.724	2275
338.811	3322
338.898	741
338.984	-73
339.071	-387
339.158	1216
339.245	2904
339.332	1312
339.419	2680
339.506	2088
339.593	-189
339.679	1169
339.766	-240
339.853	860
339.940	2258
340.027	828
340.113	502
340.200	1855
340.287	369
340.374	973
340.460	2065
340.547	-372
340.634	1715
340.720	7969
340.807	4506
340.894	784
340.980	43
341.067	-387
341.154	483
341.240	1161
341.327	2726
341.414	1368
341.500	-163
341.587	1197
341.674	914
341.760	2853
341.847	1795
341.933	-22
342.020	-54
342.106	-217
342.193	617
342.279	1307
342.366	1272
342.452	2063
342.539	-26
342.625	2586
342.712	7076
342.798	2999
342.885	652
342.971	261
343.058	197
343.144	-172
343.230	87
343.317	889
343.403	608
343.490	401
343.576	282
343.662	798
343.749	-74
343.835	1356
343.921	3195
344.008	33742
344.094	71477
344.180	11481
344.267	3539
344.353	12212
344.439	10747
344.525	3618
344.612	1171
344.698	1019
344.784	-94
344.870	593
344.957	-274
345.043	868
345.129	824
345.215	2274
345.301	398
345.387	602
345.474	-679
345.560	-46
345.646	-271
345.732	668
345.818	393
345.904	-72
345.990	345
346.076	1368
346.162	429
346.249	1691
346.335	-286
346.421	673
346.507	6015
346.593	20048
346.679	2292
346.765	1306
346.851	149
346.937	-574
347.023	451
347.108	568
347.194	-1104
347.280	316
347.366	599
347.452	5914
347.538	27009
347.624	16563
347.710	10469
347.796	1343
347.882	175
347.967	171
348.053	-9
348.139	744
348.225	292
348.311	-208
348.397	294
348.482	2260
348.568	849
348.654	145
348.740	837
348.825	-188
348.911	2507
348.997	13301
349.083	24722
349.168	2059
349.254	1007
349.340	304
349.425	225
349.511	806
349.597	443
349.682	1758
349.768	10684
349.854	4474
349.939	60
350.025	5
350.110	1099
350.196	567
350.282	-856
350.367	532
350.453	513
350.538	797
350.624	47
350.709	279
350.795	-410
350.880	-324
350.966	698
351.051	842
351.137	168
351.222	502
351.308	2290
351.393	8145
351.479	707
351.564	-613
351.649	1152
351.735	625
351.820	192
351.906	-219
351.991	223
352.076	5101
352.162	8379
352.247	1257
352.332	560
352.418	1873
352.503	2149
352.588	11588
352.673	7881
352.759	1301
352.844	405
352.929	368
353.014	-6
353.100	1462
353.185	204
353.270	1951
353.355	2277
353.441	995
353.526	117
353.611	3022
353.696	2335
353.781	1921
353.866	-610
353.952	1303
354.037	1476
354.122	5676
354.207	4629
354.292	1520
354.377	556
354.462	-98
354.547	302
354.632	1238
354.717	323
354.802	-67
354.887	-37
354.972	217
355.057	-6
355.142	-383
355.227	1385
355.312	717
355.397	3090
355.482	9077
355.567	3368
355.652	3878
355.737	3092
355.822	13374
355.907	9705
355.991	2156
356.076	-168
356.161	464
356.246	266
356.331	199
356.416	2264
356.501	32410
356.585	29169
356.670	875
356.755	2361
356.840	3288
356.924	21321
357.009	80946
357.094	24420
357.179	2355
357.263	1225
357.348	2704
357.433	2613
357.517	2036
357.602	1433
357.687	846
357.771	3835
357.856	15526
357.941	7650
358.025	18883
358.110	92714
358.195	36683
358.279	2238
358.364	1766
358.448	8272
358.533	22125
358.617	13605
358.702	16087
358.787	5578
358.871	2473
358.956	1884
359.040	188
359.125	-361
359.209	622
359.294	7276
359.378	11689
359.462	2433
359.547	785
359.631	567
359.716	-207
359.800	276
359.885	1948
359.969	-374
360.053	965
360.138	111
360.222	946
360.306	1995
360.391	1895
360.475	6225
360.559	13219
360.644	7549
360.728	4700
360.812	16621
360.896	47198
360.981	12704
361.065	3950
361.149	1464
361.233	1032
361.318	177
361.402	571
361.486	1900
361.570	364
361.654	1317
361.739	4359
361.823	31715
361.907	48585
361.991	5283
362.075	2496
362.159	4326
362.243	3796
362.327	3095
362.411	8654
362.495	3002
362.580	1507
362.664	778
362.748	-357
362.832	1100
362.916	1807
363.000	12576
363.084	44396
363.168	57417
363.252	10443
363.336	2416
363.420	3523
363.503	9588
363.587	10259
363.671	849
363.755	456
363.839	3160
363.923	375
364.007	2089
364.091	3003
364.175	3193
364.258	19194
364.342	15368
364.426	31920
364.510	15666
364.594	5327
364.677	8413
364.761	39703
364.845	26719
364.929	3920
365.013	2914
365.096	3391
365.180	3166
365.264	4132
365.347	18351
365.431	6335
365.515	438
365.598	-178
365.682	957
365.766	-528
365.849	1111
365.933	925
366.017	1710
366.100	-269
366.184	-573
366.267	1347
366.351	282
366.435	783
366.518	79
366.602	69
366.685	76
366.769	445
366.852	651
366.936	2336
367.019	1232
367.103	126
367.186	2116
367.270	-227
367.353	-534
367.436	1605
367.520	-552
367.603	384
367.687	891
367.770	2482
367.853	2500
367.937	9048
368.020	13572
368.104	1085
368.187	1987
368.270	2776
368.353	1348
368.437	3179
368.520	8921
368.603	5612
368.687	7730
368.770	16248
368.853	2869
368.936	2805
369.020	2152
369.103	531
369.186	-1636
369.269	247
369.352	1417
369.436	2426
369.519	1248
369.602	-1432
369.685	2564
369.768	-3
369.851	630
369.934	-899
370.018	457
370.101	1246
370.184	2915
370.267	1482
370.350	1573
370.433	3772
370.516	18769
370.599	28045
370.682	6029
370.765	7649
370.848	11362
370.931	21730
371.014	7617
371.097	-163
371.180	830
371.263	664
371.346	-927
371.429	1021
371.511	140
371.594	1031
371.677	2202
371.760	3285
371.843	3320
371.926	30372
372.009	71158
372.091	19059
372.174	8645
372.257	25793
372.340	7207
372.423	3168
372.505	3281
372.588	1454
372.671	5731
372.754	21239
372.836	9904
372.919	4407
373.002	6678
373.085	1441
373.167	3440
373.250	8509
373.332	22860
373.415	45000
373.498	97709
373.580	32817
373.663	53833
373.746	68662
373.828	8641
373.911	2895
373.993	1807
374.076	7311
374.159	6520
374.241	5403
374.324	15964
374.406	12493
374.489	26397
374.571	69688
374.654	23228
374.736	11116
374.819	40671
374.901	66635
374.983	67619
375.066	9079
375.148	2389
375.231	6638
375.313	12544
375.395	4537
375.478	699
375.560	1449
375.643	1992
375.725	11038
375.807	53741
375.890	37644
375.972	7205
376.054	4290
376.136	6695
376.219	2763
376.301	13908
376.383	40236
376.465	14473
376.548	5123
376.630	9383
376.712	31089
376.794	13293
376.877	1294
376.959	-130
377.041	1423
377.123	983
377.205	1272
377.287	-591
377.369	923
377.452	415
377.534	885
377.616	1088
377.698	150
377.780	-1013
377.862	1361
377.944	1205
378.026	-636
378.108	624
378.190	297
378.272	460
378.354	-175
378.436	-1117
378.518	-278
378.600	2476
378.682	3415
378.764	9607
378.846	8228
378.928	859
379.010	1322
379.091	1842
379.173	-462
379.255	255
379.337	360
379.419	5125
379.501	17745
379.583	5864
379.664	1237
379.746	2619
379.828	10551
379.910	14037
379.991	13384
380.073	800
380.155	937
380.237	526
380.318	134
380.400	485
380.482	2682
380.564	3263
380.645	2078
380.727	1768
380.809	1813
380.890	1084
380.972	-691
381.053	-145
381.135	1654
381.217	2815
381.298	11198
381.380	4526
381.461	5984
381.543	31780
381.624	37849
381.706	5178
381.787	1575
381.869	3115
381.951	18834
382.032	73820
382.113	43286
382.195	3018
382.276	3838
382.358	8341
382.439	27531
382.521	36902
382.602	63912
382.684	23244
382.765	34169
382.846	31842
382.928	40058
383.009	19990
383.090	14547
383.172	62536
383.253	99683
383.334	33954
383.416	43307
383.497	21128
383.578	6129
383.659	11218
383.741	56002
383.822	158459
383.903	74611
383.984	24240
384.066	45322
384.147	26263
384.228	5053
384.309	2630
384.390	1837
384.471	1789
384.553	1811
384.634	2050
384.715	3282
384.796	1307
384.877	2363
384.958	9796
385.039	10521
385.120	3779
385.201	2983
385.282	1423
385.363	2607
385.444	1713
385.525	4998
385.606	20964
385.687	18529
385.768	2806
385.849	3831
385.930	31566
386.011	58557
386.092	12080
386.173	2164
386.254	1238
386.335	1561
386.416	1231
386.496	5705
386.577	10196
386.658	3347
386.739	1044
386.820	1834
386.901	-42
386.981	1585
387.062	732
387.143	2296
387.224	10934
387.304	10703
387.385	3321
387.466	538
387.547	2468
387.627	1087
387.708	5427
387.789	21515
387.869	28491
387.950	8176
388.031	815
388.111	-723
388.192	2345
388.273	3765
388.353	1563
388.434	2258
388.514	5691
388.595	29608
388.676	33249
388.756	10783
388.837	9620
388.917	5614
388.998	159
389.078	1701
389.159	1087
389.239	182
389.320	3109
389.400	352
389.480	4165
389.561	11037
389.641	5288
389.722	1907
389.802	1806
389.883	5182
389.963	16131
390.043	9406
390.124	1636
390.204	4231
390.284	12006
390.365	8021
390.445	12817
390.525	51898
390.605	47972
390.686	7779
390.766	2622
390.846	2279
390.927	199
391.007	159
391.087	1864
391.167	857
391.247	-463
391.328	2524
391.408	3390
391.488	2116
391.568	-195
391.648	1472
391.728	2802
391.808	3714
391.888	2322
391.969	7548
392.049	10042
392.129	4633
392.209	5814
392.289	16186
392.369	7349
392.449	4416
392.529	3520
392.609	5117
392.689	5660
392.769	16653
392.849	15099
392.929	11688
393.009	23484
393.089	21760
393.169	29419
393.248	117833
393.328	478837
393.408	504804
393.488	112520
393.568	25447
393.648	12796
393.728	7958
393.807	5222
393.887	6215
393.967	5250
394.047	5200
394.127	6182
394.206	11612
394.286	61140
394.366	269354
394.446	272900
394.525	51787
394.605	9826
394.685	6542
394.764	7723
394.844	9983
394.924	7607
395.003	4223
395.083	3457
395.163	3307
395.242	3203
395.322	3834
395.402	2072
395.481	4640
395.561	5319
395.640	13085
395.720	13748
395.799	14972
395.879	13383
395.958	18000
396.038	88638
396.117	356650
396.197	364278
396.276	80025
396.356	17604
396.435	11246
396.515	9800
396.594	11491
396.673	26585
396.753	134070
396.832	431590
396.912	290266
396.991	46858
397.070	12421
397.150	5659
397.229	6537
397.308	5587
397.388	9769
397.467	5440
397.546	2743
397.625	-244
397.705	3926
397.784	2020
397.863	929
397.942	1202
398.022	865
398.101	2262
398.180	8282
398.259	3805
398.338	1753
398.417	685
398.497	1020
398.576	1029
398.655	-555
398.734	1494
398.813	731
398.892	2583
398.971	10205
399.050	3666
399.129	-250
399.208	321
399.287	1242
399.366	-461
399.445	-772
399.524	-93
399.603	-1067
399.682	1424
399.761	2769
399.840	10933
399.919	8424
399.998	-158
400.077	-195
400.156	-1085
400.235	2281
400.313	-704
400.392	-832
400.471	5044
400.550	8136
400.629	418
400.708	843
400.786	-651
400.865	669
400.944	-8
401.023	1956
401.102	301
401.180	-259
401.259	-1049
401.338	-726
401.416	-230
401.495	-300
401.574	162
401.652	-1086
401.731	551
401.810	-1338
401.888	-565
401.967	-435
402.046	-1121
402.124	-479
402.203	-1123
402.281	570
402.360	-928
402.438	1429
402.517	-571
402.596	425
402.674	-669
402.753	-23
402.831	436
402.910	621
402.988	889
403.066	5959
403.145	3877
403.223	2449
403.302	4092
403.380	4020
403.459	2149
403.537	232
403.615	183
403.694	-1276
403.772	367
403.850	-384
403.929	-448
404.007	-839
404.085	1553
404.164	-428
404.242	-1161
404.320	1449
404.398	2894
404.477	8278
404.555	43005
404.633	35742
404.711	4040
404.789	1195
404.868	-56
404.946	-926
405.024	-605
405.102	-127
405.180	-1292
405.258	-914
405.336	-275
405.415	-1113
405.493	441
405.571	285
405.649	-474
405.727	-1102
405.805	585
405.883	-466
405.961	-232
406.039	-1254
406.117	-1862
406.195	661
406.273	6666
406.351	30684
406.429	16748
406.507	70
406.585	-770
406.663	814
406.740	34
406.818	-759
406.896	-1084
406.974	455
407.052	-72
407.130	17217
407.208	23457
407.285	3802
407.363	-1543
407.441	-15
407.519	-392
407.596	1306
407.674	11558
407.752	54887
407.830	41002
407.907	4071
407.985	-938
408.063	-780
408.141	-1369
408.218	628
408.296	-1456
408.373	-508
408.451	334
408.529	-455
408.606	-1288
408.684	-1031
408.762	-939
408.839	-677
408.917	-650
408.994	-1888
409.072	-1918
409.149	-820
409.227	1148
409.304	1001
409.382	649
409.459	565
409.537	1802
409.614	1421
409.692	-523
409.769	712
409.846	914
409.924	2600
410.001	-1218
410.079	653
410.156	286
410.233	231
410.311	-488
410.388	-403
410.465	-264
410.543	-961
410.620	-769
410.697	327
410.775	-783
410.852	-2194
410.929	-504
411.006	1099
411.083	-1227
411.161	229
411.238	35
411.315	-690
411.392	-1250
411.469	-192
411.547	-497
411.624	-2207
411.701	-1168
411.778	469
411.855	182
411.932	-767
412.009	-1257
412.086	-519
412.163	-677
412.240	-187
412.317	-12
412.394	-1023
412.471	-720
412.548	-1253
412.625	-1171
412.702	-420
412.779	497
412.856	-595
412.933	-2356
413.010	-445
413.087	411
413.164	3731
413.241	6153
413.318	149
413.395	-362
413.471	138
413.548	-599
413.625	145
413.702	-684
413.779	-639
413.855	-1098
413.932	-1384
414.009	-2109
414.086	-402
414.162	-761
414.239	-191
414.316	4374
414.393	10696
414.469	2234
414.546	-1140
414.623	-1462
414.699	-1092
414.776	-282
414.853	-655
414.929	-638
415.006	-1294
415.082	-535
415.159	-399
415.236	-494
415.312	439
415.389	310
415.465	138
415.542	-1157
415.618	-1530
415.695	-184
415.771	-688
415.848	-527
415.924	-272
416.000	-1382
416.077	-75
416.153	-1587
416.230	-1502
416.306	-1128
416.383	-1262
416.459	-970
416.535	-1641
416.612	-416
416.688	-1190
416.764	-430
416.841	-1369
416.917	-1074
416.993	-1082
417.069	-189
417.146	-106
417.222	-700
417.298	-132
417.374	-1338
417.451	-325
417.527	-1231
417.603	-282
417.679	-1178
417.755	-358
417.831	-1417
417.908	-924
417.984	-1401
418.060	-1195
418.136	-324
418.212	629
418.288	40
418.364	-848
418.440	-1575
418.516	283
418.592	-486
418.668	210
418.744	1772
418.820	1502
418.896	-676
418.972	-1567
419.048	-706
419.124	1207
419.200	-859
419.276	-702
419.352	-1285
419.428	-659
419.504	-985
419.579	-948
419.655	-503
419.731	-428
419.807	1142
419.883	2506
419.959	1847
420.034	160
420.110	806
420.186	5993
420.262	5440
420.337	-143
420.413	75
420.489	-818
420.565	-666
420.640	-345
420.716	-940
420.792	-917
420.867	-390
420.943	-698
421.019	40
421.094	94
421.170	271
421.245	-1179
421.321	-316
421.397	151
421.472	9294
421.548	30853
421.623	18059
421.699	668
421.774	1044
421.850	190
421.925	1392
422.001	1313
422.076	1440
422.152	440
422.227	2297
422.302	3282
422.378	5018
422.453	11043
422.529	35081
422.604	133474
422.679	247787
422.755	137690
422.830	34621
422.905	11827
422.981	5134
423.056	2888
423.131	2831
423.207	881
423.282	956
423.357	2904
423.432	1117
423.508	1835
423.583	2526
423.658	2643
423.733	-294
423.808	358
423.883	772
423.959	340
424.034	-36
424.109	118
424.184	-1557
424.259	-1214
424.334	-76
424.409	-1193
424.484	-1035
424.559	-716
424.634	-740
424.709	419
424.784	376
424.859	-73
424.934	-246
425.009	4785
425.084	7962
425.159	2833
425.234	-60
425.309	-382
425.384	3027
425.459	5776
425.534	1571
425.609	-1268
425.683	-1264
425.758	-1652
425.833	-593
425.908	134
425.983	2230
426.058	8898
426.132	3395
426.207	-92
426.282	-207
426.357	-796
426.431	-388
426.506	-145
426.581	-1059
426.655	-291
426.730	-829
426.805	-1659
426.879	-43
426.954	-694
427.029	508
427.103	9612
427.178	27111
427.253	12467
427.327	-62
427.402	549
427.476	5421
427.551	3100
427.625	-202
427.700	-431
427.774	-2047
427.849	-1038
427.923	-1797
427.998	-375
428.072	-970
428.147	918
428.221	11459
428.296	41173
428.370	22436
428.444	1462
428.519	220
428.593	-89
428.667	1011
428.742	1315
428.816	3443
428.890	21775
428.965	40928
429.039	10978
429.113	1932
429.188	452
429.262	-1051
429.336	766
429.410	2997
429.485	1882
429.559	378
429.633	332
429.707	44
429.781	1551
429.855	19376
429.930	33299
430.004	11356
430.078	9253
430.152	16421
430.226	62937
430.300	68361
430.374	9277
430.448	1396
430.522	2360
430.596	8337
430.670	10715
430.744	38951
430.818	60132
430.892	12581
430.966	-256
431.040	-571
431.114	-1343
431.188	-832
431.262	-1075
431.336	-1214
431.410	-189
431.484	600
431.557	1959
431.631	-995
431.705	-89
431.779	6544
431.853	37855
431.927	27330
432.000	1516
432.074	-697
432.148	-285
432.222	-904
432.295	-749
432.369	-541
432.443	575
432.516	10028
432.590	32405
432.664	13857
432.737	242
432.811	-1336
432.885	-1244
432.958	-505
433.032	-1335
433.106	-833
433.179	-1535
433.253	-980
433.326	-1833
433.400	-1357
433.473	-34
433.547	-1391
433.620	-652
433.694	-1302
433.767	-167
433.841	-1320
433.914	-1288
433.988	-986
434.061	-539
434.134	-893
434.208	-998
434.281	-1228
434.355	-796
434.428	-1291
434.501	-1289
434.575	-1719
434.648	-1203
434.721	-1195
434.795	-1736
434.868	-1535
434.941	-954
435.014	-2078
435.088	-816
435.161	-86
435.234	323
435.307	-490
435.381	-56
435.454	-1110
435.527	278
435.600	-395
435.673	321
435.746	-873
435.819	-408
435.892	-725
435.966	-803
436.039	-1477
436.112	-973
436.185	-1469
436.258	-1100
436.331	-1630
436.404	-737
436.477	-1516
436.550	-1663
436.623	-414
436.696	-785
436.769	-910
436.842	-505
436.915	-1258
436.987	-696
437.060	-1353
437.133	-1416
437.206	-1863
437.279	-557
437.352	-1377
437.425	-1125
437.498	-1510
437.570	-30
437.643	-331
437.716	-1382
437.789	-1350
437.861	-841
437.934	579
438.007	250
438.080	-2198
438.152	-241
438.225	1945
438.298	18639
438.370	61623
438.443	29237
438.516	2447
438.588	-964
438.661	-1864
438.734	-822
438.806	-441
438.879	-310
438.951	-1839
439.024	192
439.096	-999
439.169	-931
439.241	-1228
439.314	-732
439.386	-1236
439.459	112
439.531	-11
439.604	-412
439.676	-1249
439.749	-1004
439.821	-1105
439.893	-1057
439.966	-1974
440.038	-886
440.110	-1114
440.183	-795
440.255	-1131
440.327	-251
440.400	4843
440.472	29880
440.544	27837
440.617	2305
440.689	249
440.761	906
440.833	1268
440.905	1341
440.978	-853
441.050	-1158
441.122	-337
441.194	-1190
441.266	-981
441.338	-903
441.411	-53
441.483	6076
441.555	15002
441.627	3079
441.699	-585
441.771	-303
441.843	-1081
441.915	-1493
441.987	-1176
442.059	-833
442.131	-206
442.203	760
442.275	-691
442.347	987
442.419	1501
442.491	16406
442.563	47759
442.635	23156
442.706	4286
442.778	3415
442.850	-215
442.922	-352
442.994	-1009
443.066	19
443.137	-445
443.209	208
443.281	79
443.353	3719
443.425	23760
443.496	93220
443.568	100439
443.640	36618
443.711	5117
443.783	474
443.855	-546
443.926	-463
443.998	-771
444.070	131
444.141	-1002
444.213	587
444.285	1508
444.356	-418
444.428	421
444.499	-1088
444.571	-1490
444.642	-974
444.714	-1031
444.785	-199
444.857	624
444.928	1698
445.000	1260
445.071	1853
445.143	1960
445.214	1612
445.285	3087
445.357	12289
445.428	60904
445.500	163682
445.571	106417
445.642	48217
445.714	14047
445.785	5808
445.856	1327
445.928	1840
445.999	866
446.070	276
446.141	-374
446.213	513
446.284	-617
446.355	-589
446.426	-1418
446.497	-919
446.569	-655
446.640	919
446.711	1958
446.782	-304
446.853	88
446.924	533
446.995	-842
447.066	-1155
447.138	-744
447.209	43
447.280	-2181
447.351	-1023
447.422	-1746
447.493	-813
447.564	-684
447.635	1145
447.706	346
447.777	-1069
447.847	-1163
447.918	-1571
447.989	-773
448.060	22
448.131	344
448.202	1073
448.273	935
448.344	-499
448.414	-351
448.485	-555
448.556	-748
448.627	-939
448.698	-151
448.768	-1315
448.839	-552
448.910	-1291
448.981	-95
449.051	-580
449.122	-1307
449.193	-1691
449.263	-1203
449.334	-741
449.405	44
449.475	1145
449.546	1654
449.616	-49
449.687	221
449.758	-628
449.828	-997
449.899	-1001
449.969	-1538
450.040	-1834
450.110	-629
450.181	18
450.251	-548
450.322	-963
450.392	-1169
450.463	-1446
450.533	-1884
450.604	-1504
450.674	-1550
450.744	-554
450.815	-1339
450.885	-936
450.955	-867
451.026	-874
451.096	-1595
451.166	-1261
451.237	-804
451.307	1884
451.377	932
451.447	-976
451.518	-1594
451.588	-1475
451.658	-1416
451.728	280
451.799	702
451.869	3492
451.939	-459
452.009	-1014
452.079	-971
452.149	-165
452.219	-1186
452.289	2054
452.360	2671
452.430	-150
452.500	199
452.570	767
452.640	1697
452.710	5360
452.780	7812
452.850	6211
452.920	7397
452.990	3326
453.060	468
453.129	71
453.199	-188
453.269	2958
453.339	12265
453.409	21628
453.479	14395
453.549	23590
453.619	24121
453.688	12330
453.758	1066
453.828	209
453.898	-232
453.968	-590
454.037	311
454.087	-141
454.107	-337
454.168	-1001
454.177	-1113
454.247	-757
454.249	-748
454.316	-958
454.330	-777
454.386	-106
454.411	199
454.456	562
454.492	1270
454.525	1897
454.574	1341
454.595	1104
454.655	-257
454.665	-494
454.734	-567
454.736	-523
454.804	139
454.817	526
454.873	1814
454.898	2986
454.943	4990
454.979	3428
455.013	2091
455.060	1330
455.082	1045
455.141	639
455.152	746
455.221	4667
455.222	4851
455.291	12721
455.303	15172
455.360	23001
455.384	34852
455.430	50783
455.465	40896
455.499	33917
455.546	14985
455.569	6255
455.627	4425
455.638	4154
455.707	294
455.708	309
455.777	138
455.789	2
455.846	-608
455.869	-525
455.916	-485
455.950	-119
455.985	242
456.031	13
456.054	-146
456.112	-536
456.124	-576
456.193	177
456.193	161
456.262	-762
456.274	-514
456.332	861
456.355	752
456.401	327
456.436	433
456.470	506
456.516	-101
456.540	-364
456.597	-501
456.609	-543
456.678	-226
456.678	-239
456.747	-713
456.759	-776
456.817	-896
456.840	-526
456.886	127
456.920	56
456.955	20
457.001	-12
457.024	-21
457.082	106
457.093	120
457.162	975
457.163	993
457.232	1100
457.243	1098
457.301	1049
457.324	469
457.370	-286
457.405	196
457.439	514
457.485	308
457.508	180
457.566	362
457.577	540
457.646	1516
457.647	1548
457.715	4018
457.727	4404
457.784	6997
457.808	9231
457.853	11058
457.889	12768
457.922	13348
457.969	10388
457.991	10949
458.050	12296
458.060	12514
458.129	21189
458.130	21435
458.198	18562
458.211	16402
458.267	10740
458.292	7748
458.336	4864
458.372	4630
458.405	6687
458.453	10185
458.474	12263
458.533	21077
458.543	21471
458.611	31348
458.614	31557
458.680	21421
458.694	16767
458.749	8201
458.775	5979
458.818	3115
458.855	2593
458.887	2181
458.936	1485
458.955	1239
459.016	755
459.024	759
459.093	2278
459.097	2290
459.162	1511
459.177	1482
459.230	1736
459.257	1898
459.299	2024
459.338	2072
459.368	2042
459.418	1824
459.437	1664
459.499	1727
459.505	1782
459.574	1797
459.579	1787
459.643	1225
459.659	1205
459.711	1445
459.740	1671
459.780	1769
459.820	1552
459.849	1459
459.900	1869
459.917	2054
459.981	1817
459.986	1755
460.054	2316
460.061	2284
460.123	2111
460.141	2132
460.191	2857
460.222	2958
460.260	2472
460.302	2988
460.328	3213
460.382	2894
460.397	3143
460.462	3956
460.465	4258
460.534	11870
460.543	12847
460.602	34782
460.623	43393
460.671	68512
460.703	91057
460.739	75507
460.783	49168
460.808	41774
460.864	9294
460.876	6408
460.944	2622
460.945	2579
461.013	2399
461.024	2409
461.081	2351
461.104	2511
461.150	2482
461.184	2360
461.218	2588
461.264	2580
461.286	2439
461.345	2251
461.355	2192
461.423	1899
461.425	1884
461.491	2064
461.505	2156
461.559	3187
461.585	3830
461.628	5656
461.665	7472
461.696	7683
461.745	8020
461.764	7052
461.825	3408
461.832	3482
461.901	2206
461.905	2244
461.969	1791
461.985	1705
462.037	2559
462.065	2858
462.105	2458
462.145	2181
462.173	2764
462.225	3969
462.241	4183
462.305	5379
462.310	5275
462.378	3750
462.385	3428
462.446	3013
462.465	3091
462.514	2692
462.545	2496
462.582	2654
462.625	2680
462.650	2575
462.705	2573
462.718	2567
462.785	2104
462.786	2114
462.854	3117
462.865	3182
462.922	2966
462.945	3098
462.990	2778
463.025	2400
463.058	2539
463.104	2463
463.126	2196
463.184	1802
463.194	1905
463.262	2152
463.264	2182
463.330	2590
463.344	2554
463.398	2551
463.424	2647
463.466	2314
463.504	2133
463.533	2582
463.583	2987
463.601	2947
463.663	3042
463.669	3077
463.737	3288
463.743	3318
463.805	4887
463.823	5410
463.873	7912
463.903	9444
463.940	9058
463.982	8476
464.008	7338
464.062	4804
464.076	4537
464.142	2492
464.144	2484
464.211	2471
464.221	2532
464.279	2627
464.301	2643
464.347	3385
464.381	3909
464.414	3962
464.461	4010
464.482	4223
464.540	4810
464.550	4874
464.617	5337
464.620	5353
464.685	6334
464.699	6403
464.753	7595
464.779	8330
464.820	9041
464.859	9652
464.888	8635
464.938	6740
464.956	6926
465.018	7425
465.023	7388
465.091	7103
465.098	7040
465.158	7188
465.177	7311
465.226	6881
465.257	6456
465.293	6681
465.336	6910
465.361	7204
465.416	7758
465.428	7917
465.495	9127
465.496	9154
465.563	11092
465.575	11386
465.631	12212
465.654	12656
465.698	9161
465.734	6132
465.765	6052
465.813	5694
465.833	5704
465.893	6075
465.900	6130
465.968	6267
465.972	6283
466.035	6273
466.052	6219
466.102	6689
466.131	6964
466.170	7311
466.210	7609
466.237	7614
466.290	7603
466.304	7633
466.369	7677
466.372	7708
466.439	8212
466.449	8270
466.506	9348
466.528	9732
466.573	11201
466.607	12254
466.641	14717
466.687	18157
466.708	19078
466.766	21504
466.775	20433
466.842	12176
466.845	11759
466.909	10717
466.925	10465
466.977	10172
467.004	10034
467.044	10249
467.083	10414
467.111	11777
467.163	14305
467.178	14485
467.242	15094
467.245	15047
467.312	13498
467.321	13268
467.379	11751
467.400	11167
467.446	11273
467.480	11314
467.559	10495
467.638	9879
467.717	10270
467.796	10412
467.875	12005
467.955	9988
468.034	11792
468.113	18389
468.192	22739
468.271	10232
468.350	11227
468.429	12143
468.508	12646
468.588	9726
468.667	8827
468.746	8550
468.825	8071
468.904	8029
468.983	8738
469.062	10801
469.141	10857
469.220	7529
469.299	8471
469.378	9380
469.456	12648
469.535	10124
469.614	9514
469.693	8709
469.772	10990
469.851	11649
469.930	10101
470.009	9387
470.088	9586
470.166	11533
470.245	15576
470.324	17294
470.403	12048
470.482	9955
470.560	9557
470.639	9637
470.718	10856
470.797	8219
470.875	9024
470.954	9660
471.033	10450
471.111	6582
471.190	7243
471.269	6230
471.347	6472
471.426	7780
471.505	8684
471.583	9688
471.662	8834
471.740	7740
471.819	8657
471.898	7609
471.976	8155
472.055	8161
472.133	8095
472.212	9488
472.290	8999
472.369	6690
472.447	7331
472.526	6493
472.604	7587
472.683	8119
472.761	7171
472.839	7281
472.918	6823
472.996	6745
473.075	7618
473.153	8074
473.231	5852
473.310	7639
473.388	6660
473.466	7365
473.545	10031
473.623	12288
473.701	11285
473.780	6877
473.858	5540
473.936	7396
474.014	6456
474.093	7888
474.171	10553
474.249	10225
474.327	7019
474.405	6289
474.484	7414
474.562	6715
474.640	6540
474.718	7079
474.796	7487
474.874	7800
474.952	6019
475.030	6242
475.108	6450
475.187	8662
475.265	7876
475.343	9751
475.421	9332
475.499	6713
475.577	7772
475.655	7628
475.733	10261
475.811	15739
475.889	12893
475.966	8100
476.044	5579
476.122	6693
476.200	6847
476.278	5979
476.356	4575
476.434	6186
476.512	6616
476.590	7107
476.667	7270
476.745	4244
476.823	5488
476.901	5502
476.979	5570
477.056	5814
477.134	5862
477.212	6306
477.290	5719
477.367	3781
477.445	5098
477.523	4236
477.601	4453
477.678	4624
477.756	5778
477.834	5513
477.911	4857
477.989	5049
478.066	4234
478.144	4804
478.222	4793
478.299	7793
478.377	7074
478.454	4919
478.532	4111
478.609	4025
478.687	6592
478.764	4003
478.842	5846
478.919	5613
478.997	4749
479.074	4354
479.152	4894
479.229	5692
479.307	3034
479.384	3787
479.461	4136
479.539	4245
479.616	4875
479.694	3116
479.771	4991
479.848	4810
479.926	4708
480.003	6022
480.080	3986
480.157	3849
480.235	3766
480.312	2824
480.389	5137
480.467	5189
480.544	5513
480.621	4392
480.698	4518
480.775	3879
480.853	4653
480.930	4082
481.007	4610
481.084	6290
481.161	9154
481.238	6020
481.315	3768
481.392	3645
481.470	3080
481.547	2820
481.624	3236
481.701	2674
481.778	2650
481.855	3538
481.932	5536
482.009	8281
482.086	5542
482.163	3946
482.240	6361
482.317	8656
482.393	5227
482.470	3883
482.547	4661
482.624	3935
482.701	4253
482.778	2796
482.855	3404
482.932	3549
483.009	3662
483.085	4150
483.162	7530
483.239	5741
483.316	3747
483.393	3719
483.469	3738
483.546	4345
483.623	4040
483.699	2512
483.776	4458
483.853	4789
483.930	6598
484.006	13421
484.083	21451
484.160	25371
484.236	43105
484.313	28307
484.389	21808
484.466	19874
484.543	19601
484.619	19063
484.696	20294
484.772	18593
484.849	18983
484.925	16960
485.002	17571
485.078	16844
485.155	17415
485.231	15091
485.308	15655
485.384	16323
485.461	18259
485.537	20422
485.614	22518
485.690	15592
485.766	14748
485.843	15662
485.919	21448
485.995	20471
486.072	13993
486.148	13342
486.224	14198
486.301	13316
486.377	15162
486.453	13965
486.530	17322
486.606	24155
486.682	24324
486.758	23796
486.835	23571
486.911	21023
486.987	28693
487.063	37925
487.139	44928
487.215	33012
487.292	19465
487.368	16998
487.444	18166
487.520	21591
487.596	23806
487.672	39610
487.748	92653
487.824	115297
487.900	31171
487.976	18092
488.052	15878
488.128	17374
488.204	14402
488.280	13156
488.356	16513
488.432	20723
488.508	26122
488.584	15474
488.660	14233
488.736	13243
488.812	13875
488.888	19138
488.964	24948
489.039	46939
489.115	63036
489.191	31065
489.267	13160
489.343	12503
489.418	10638
489.494	12216
489.570	10423
489.646	12242
489.722	11419
489.797	11280
489.873	14330
489.949	20991
490.024	16499
490.100	9956
490.176	11132
490.251	12994
490.327	15600
490.403	9120
490.478	10055
490.554	8246
490.629	8965
490.705	8961
490.781	10646
490.856	7632
490.932	11957
491.007	10636
491.083	10013
491.158	8053
491.234	10740
491.309	15633
491.385	13823
491.460	8170
491.536	9548
491.611	8715
491.686	10321
491.762	14369
491.837	28591
491.913	41456
491.988	61440
492.063	64107
492.139	14381
492.214	10695
492.289	7629
492.365	7927
492.440	9088
492.515	7480
492.590	7888
492.666	6785
492.741	9665
492.816	10525
492.891	7648
492.967	8891
493.042	8164
493.117	9459
493.192	13797
493.267	39319
493.342	134887
493.418	149956
493.493	14916
493.568	6416
493.643	6363
493.718	6751
493.793	9785
493.868	12238
493.943	7650
494.018	5937
494.093	5631
494.168	6096
494.243	6219
494.318	5042
494.393	4797
494.468	5070
494.543	5287
494.618	5807
494.693	4235
494.768	4918
494.842	5166
494.917	5676
494.992	5372
495.067	4734
495.142	4387
495.217	5008
495.292	5457
495.366	6814
495.441	6837
495.516	9266
495.591	17919
495.665	62921
495.740	125585
495.815	29803
495.890	6520
495.964	4120
496.039	7441
496.114	6080
496.188	9953
496.263	7777
496.338	3867
496.412	5094
496.487	7791
496.561	8250
496.636	8370
496.710	6793
496.785	6905
496.860	6981
496.934	5827
497.009	6172
497.083	6495
497.158	6370
497.232	7365
497.307	10053
497.381	8575
497.455	10007
497.530	11257
497.604	10350
497.679	11174
497.753	17717
497.827	21843
497.902	22731
497.976	24427
498.050	48226
498.125	137924
498.199	106124
498.273	36414
498.348	30903
498.422	23829
498.496	19856
498.570	15924
498.645	11404
498.719	8972
498.793	10880
498.867	14581
498.941	19431
499.016	55549
499.090	118013
499.164	26260
499.238	6688
499.312	6183
499.386	8011
499.460	5997
499.534	4852
499.609	6602
499.683	7160
499.757	9873
499.831	23724
499.905	80562
499.979	50664
500.053	9387
500.127	14043
500.201	10071
500.275	5762
500.349	5138
500.422	6047
500.496	11891
500.570	27610
500.644	48243
500.718	65971
500.792	10689
500.866	5252
500.940	5764
501.013	4802
501.087	5159
501.161	10898
501.235	10751
501.309	26022
501.382	60941
501.456	41089
501.530	11800
501.603	16574
501.677	6335
501.751	3278
501.825	6083
501.898	10164
501.972	21885
502.046	9441
502.119	5687
502.193	13155
502.266	23644
502.340	9005
502.413	11583
502.487	18238
502.561	9279
502.634	4630
502.708	5489
502.781	4435
502.855	3533
502.928	2080
503.002	1893
503.075	1157
503.149	2746
503.222	2752
503.295	2010
503.369	4661
503.442	5719
503.516	20072
503.589	40649
503.662	20227
503.736	8327
503.809	20387
503.882	14225
503.956	27115
504.029	26238
504.102	46635
504.175	52962
504.249	12754
504.322	7295
504.395	4269
504.468	3605
504.542	2428
504.615	1434
504.688	2859
504.761	1554
504.834	4108
504.907	6465
504.980	8250
505.053	3945
505.127	3059
505.200	7022
505.273	3029
505.346	1767
505.419	611
505.492	2652
505.565	1073
505.638	2197
505.711	983
505.784	1371
505.857	1651
505.930	2980
506.003	516
506.076	2871
506.149	1818
506.221	1557
506.294	4381
506.367	10244
506.440	30235
506.513	11956
506.586	2803
506.659	1187
506.731	2037
506.804	3558
506.877	4673
506.950	2982
507.022	2614
507.095	1489
507.168	3767
507.241	3394
507.313	1072
507.386	3532
507.459	6273
507.531	2593
507.604	770
507.677	2586
507.749	919
507.822	7041
507.894	12971
507.967	14998
508.040	6225
508.112	6319
508.185	5328
508.257	4446
508.330	8082
508.402	3977
508.475	4687
508.547	5467
508.620	4997
508.692	5356
508.765	4964
508.837	3854
508.909	4296
508.982	3359
509.054	4908
509.127	4453
509.199	3561
509.271	2871
509.344	3741
509.416	3191
509.488	3564
509.560	4281
509.633	4689
509.705	5328
509.777	4229
509.849	7663
509.922	3180
509.994	3869
510.066	5080
510.138	5201
510.210	15907
510.283	11313
510.355	8598
510.427	8479
510.499	7277
510.571	6587
510.643	6367
510.715	11233
510.787	6621
510.859	7353
510.931	7071
511.003	9478
511.076	8008
511.148	5104
511.219	4637
511.291	8028
511.363	7857
511.435	5056
511.507	5495
511.579	4804
511.651	5566
511.723	4345
511.795	4171
511.867	5087
511.939	6180
512.010	8344
512.082	6441
512.154	4579
512.226	6139
512.298	12406
512.369	14437
512.441	11818
512.513	11783
512.585	7695
512.656	8670
512.728	7593
512.800	6492
512.871	7708
512.943	7738
513.015	5817
513.086	7426
513.158	7695
513.230	7541
513.301	10260
513.373	12758
513.444	6773
513.516	5866
513.588	6459
513.659	6461
513.731	8395
513.802	6464
513.874	18241
513.945	22671
514.016	6739
514.088	6136
514.159	5822
514.231	11379
514.302	12948
514.374	9424
514.445	7860
514.516	12384
514.588	7647
514.659	7057
514.730	9135
514.802	11343
514.873	9756
514.944	10786
515.016	8390
515.087	7785
515.158	8357
515.229	10991
515.301	11543
515.372	14710
515.443	6664
515.514	7015
515.585	5549
515.656	7430
515.728	6621
515.799	4903
515.870	6444
515.941	7199
516.012	7241
516.083	10411
516.154	11113
516.225	15008
516.296	12779
516.367	10135
516.438	11267
516.509	14080
516.580	25141
516.651	82454
516.722	220735
516.793	56604
516.864	16686
516.935	14940
517.006	19237
517.077	31763
517.148	87693
517.219	331219
517.289	328236
517.360	47131
517.431	15544
517.502	8683
517.573	9832
517.643	9904
517.714	11432
517.785	11774
517.856	10626
517.926	14157
517.997	16283
518.068	19414
518.138	30796
518.209	59984
518.280	252529
518.350	694154
518.421	141326
518.492	18854
518.562	13777
518.633	14206
518.703	14141
518.774	32199
518.845	76091
518.915	55227
518.986	15513
519.056	13860
519.127	24015
519.197	28957
519.268	38557
519.338	16475
519.408	8690
519.479	12222
519.549	7765
519.620	6809
519.690	5241
519.760	5938
519.831	5321
519.901	4337
519.971	4746
520.042	5476
520.112	4385
520.182	8437
520.253	7803
520.323	6765
520.393	14731
520.463	21917
520.534	14594
520.604	31678
520.674	9172
520.744	12915
520.814	40077
520.885	21383
520.955	14569
521.025	35576
521.095	9990
521.165	5256
521.235	3625
521.305	3334
521.375	3960
521.445	5923
521.515	6342
521.585	7816
521.655	4580
521.725	6364
521.795	5623
521.865	1581
521.935	6634
522.005	3717
522.075	2691
522.145	4698
522.215	2535
522.285	5342
522.355	6927
522.424	11406
522.494	7850
522.564	7506
522.634	21381
522.704	49458
522.774	9919
522.843	4565
522.913	4922
522.983	5395
523.053	3768
523.122	5713
523.192	9001
523.262	33225
523.331	19403
523.401	4536
523.471	3134
523.540	3637
523.610	1698
523.680	2907
523.749	3254
523.819	4016
523.888	2669
523.958	2676
524.027	3148
524.097	3022
524.166	3299
524.236	2825
524.305	5275
524.375	2131
524.444	1870
524.514	3971
524.583	2747
524.653	2374
524.722	5082
524.791	1498
524.861	5346
524.930	1780
524.999	2745
525.069	4327
525.138	3264
525.207	3066
525.277	3609
525.346	3629
525.415	2912
525.484	3977
525.554	3338
525.623	5312
525.692	6061
525.761	5082
525.830	5937
525.900	7245
525.969	12339
526.038	22697
526.107	57386
526.176	145507
526.245	86609
526.314	33534
526.383	82270
526.452	90933
526.522	191647
526.591	125234
526.660	29804
526.729	15994
526.797	23880
526.867	58456
526.935	221306
527.004	402023
527.073	138225
527.142	10361
527.211	6178
527.280	7697
527.349	5937
527.418	2699
527.487	4575
527.555	1885
527.624	1859
527.693	1037
527.762	3782
527.831	1135
527.899	2747
527.968	2219
528.037	1129
528.106	4309
528.174	7355
528.243	3922
528.312	8196
528.380	8623
528.449	920
528.518	2984
528.586	119
528.655	1772
528.723	1737
528.792	961
528.861	1222
528.929	-634
528.998	2936
529.066	85
529.135	1546
529.203	1037
529.272	7
529.340	1511
529.409	2486
529.477	948
529.545	1044
529.614	4941
529.682	2350
529.751	3310
529.819	6637
529.887	2917
529.956	1138
530.024	2509
530.092	1880
530.161	4361
530.229	4991
530.297	1021
530.365	1956
530.434	2086
530.502	447
530.570	1488
530.638	-454
530.707	2268
530.775	3320
530.843	1048
530.911	945
530.979	1028
531.047	543
531.115	1472
531.183	1108
531.252	1143
531.320	682
531.388	354
531.456	1498
531.524	559
531.592	2771
531.660	3686
531.728	1064
531.796	1016
531.864	1665
531.932	1320
532.000	1366
532.067	2799
532.135	2272
532.203	2976
532.271	2552
532.339	9165
532.407	22623
532.475	7265
532.542	4491
532.610	5508
532.678	9158
532.746	48529
532.814	80110
532.881	12715
532.949	3375
533.017	2538
533.084	1297
533.152	1061
533.220	2277
533.287	1816
533.355	1353
533.423	1655
533.490	616
533.558	2269
533.625	2136
533.693	2157
533.761	3055
533.828	3004
533.896	1421
533.963	8190
534.031	8012
534.098	10682
534.166	3077
534.233	697
534.300	3730
534.368	2986
534.435	1738
534.503	3447
534.570	4912
534.637	3713
534.705	4327
534.772	6188
534.840	16366
534.907	75203
534.974	60714
535.041	4569
535.109	2595
535.176	1458
535.243	3020
535.310	2573
535.378	1486
535.445	1524
535.512	2016
535.579	1922
535.646	1171
535.714	2700
535.781	4770
535.848	3572
535.915	4323
535.982	2968
536.049	2086
536.116	4230
536.183	2110
536.250	2379
536.317	2343
536.384	3997
536.451	7262
536.518	6214
536.585	1820
536.652	7243
536.719	8903
536.786	4595
536.853	3770
536.920	8187
536.987	13763
537.053	11813
537.120	50511
537.187	24193
537.254	2844
537.321	2468
537.388	3757
537.454	1849
537.521	2046
537.588	2116
537.654	5182
537.721	4492
537.788	5207
537.855	2952
537.921	3417
537.988	3324
538.055	3865
538.121	2792
538.188	3689
538.254	8354
538.321	14803
538.388	6025
538.454	2996
538.521	2650
538.587	2522
538.654	2229
538.720	2253
538.787	3080
538.853	3284
538.920	4284
538.986	2810
539.053	2776
539.119	3535
539.185	3557
539.252	5801
539.318	6789
539.385	6579
539.451	3646
539.517	5483
539.583	6240
539.650	15521
539.716	27382
539.782	5771
539.849	3251
539.915	3722
539.981	3878
540.047	4663
540.114	2760
540.180	5445
540.246	4201
540.312	7347
540.378	14016
540.444	13690
540.510	17807
540.576	32431
540.643	6806
540.709	1923
540.775	3477
540.841	3330
540.907	5790
540.973	11046
541.039	8524
541.105	7467
541.171	3854
541.237	3445
541.303	5009
541.369	6950
541.435	7308
541.500	13064
541.566	5539
541.632	2567
541.698	2739
541.764	3763
541.830	2498
541.896	2371
541.961	4299
542.027	2831
542.093	3549
542.159	4160
542.224	4123
542.290	8730
542.356	13574
542.421	12773
542.487	5573
542.553	3541
542.618	4205
542.684	3699
542.750	2995
542.815	6162
542.881	8756
542.947	32223
543.012	15222
543.078	2917
543.143	3146
543.209	4672
543.274	3444
543.340	5696
543.405	13625
543.471	13647
543.536	3465
543.602	3419
543.667	2019
543.732	3713
543.798	1963
543.863	3582
543.928	2252
543.994	2241
544.059	2625
544.124	3614
544.190	2617
544.255	3617
544.320	4414
544.386	3830
544.451	7239
544.516	6737
544.581	7266
544.646	23208
544.712	23160
544.777	5132
544.842	3410
544.907	4077
544.972	2696
545.037	4174
545.102	4915
545.168	4106
545.233	4573
545.298	5131
545.363	6146
545.428	6392
545.493	14800
545.558	22212
545.623	6569
545.688	4016
545.753	4865
545.818	4323
545.883	4453
545.947	3997
546.012	4513
546.077	4523
546.142	6342
546.207	5488
546.272	7977
546.337	6675
546.401	5547
546.466	6056
546.531	4229
546.596	6728
546.661	6354
546.725	6478
546.790	6181
546.855	6515
546.919	5296
546.984	7266
547.049	7660
547.113	9422
547.178	9042
547.243	12208
547.307	12846
547.372	14486
547.436	14303
547.501	14332
547.565	16040
547.630	16399
547.695	14783
547.759	14803
547.823	13358
547.888	14375
547.952	14451
548.017	16481
548.081	18241
548.146	16905
548.210	15876
548.274	16829
548.339	16263
548.403	14571
548.468	12852
548.532	13698
548.596	14029
548.660	14444
548.725	16209
548.789	16702
548.853	16676
548.917	15462
548.982	15213
549.046	14546
549.110	12456
549.174	13565
549.238	13888
549.303	16600
549.367	16671
549.431	14971
549.495	14143
549.559	14304
549.623	16616
549.687	19058
549.751	21597
549.815	22781
549.879	22564
549.943	20617
550.007	22855
550.071	21238
550.135	20300
550.199	18267
550.263	17305
550.327	19099
550.391	18664
550.455	20356
550.519	20953
550.582	23694
550.646	28141
550.710	26590
550.774	24679
550.838	24881
550.901	24650
550.965	26967
551.029	28764
551.093	31935
551.156	35780
551.220	47435
551.284	52451
551.347	34986
551.411	33077
551.475	30302
551.538	26272
551.602	23644
551.666	22792
551.729	20357
551.793	21338
551.856	21357
551.920	20377
551.983	21374
552.047	19050
552.110	20955
552.174	20630
552.237	20912
552.301	19169
552.364	18514
552.428	17362
552.491	18613
552.554	19510
552.618	19553
552.681	20371
552.745	20218
552.808	27565
552.871	29411
552.934	21689
552.998	18671
553.061	18465
553.124	18087
553.187	18421
553.251	18767
553.314	19133
553.377	22390
553.440	31264
553.503	64716
553.567	71653
553.630	23088
553.693	19273
553.756	18626
553.819	18569
553.882	16938
553.945	17641
554.008	17577
554.071	16803
554.134	18178
554.197	15875
554.260	16392
554.323	17844
554.386	16968
554.449	17047
554.512	17046
554.575	15881
554.638	17650
554.701	15479
554.764	15975
554.827	14694
554.889	14833
554.952	12602
555.015	13272
555.078	13384
555.141	13977
555.203	14840
555.266	14709
555.329	13098
555.391	12628
555.454	13186
555.517	13045
555.580	12203
555.642	12105
555.705	11525
555.768	11519
555.830	11588
555.893	10188
555.955	10264
556.018	10707
556.080	10632
556.143	10304
556.206	10307
556.268	10888
556.330	10476
556.393	9894
556.455	10146
556.518	10409
556.580	10531
556.643	9551
556.705	8384
556.767	7686
556.830	8822
556.892	9417
556.955	12244
557.017	8531
557.079	7967
557.142	9364
557.204	10392
557.266	17241
557.328	10382
557.391	6253
557.453	6987
557.515	7328
557.577	8969
557.639	8424
557.701	7337
557.764	6939
557.826	7995
557.888	8861
557.950	9848
558.012	12615
558.074	18674
558.136	49417
558.198	88936
558.260	21893
558.322	10175
558.384	12059
558.446	14009
558.508	16330
558.570	22600
558.632	35980
558.694	53463
558.756	88989
558.818	289121
558.880	497726
558.942	105715
559.003	96913
559.065	33460
559.127	16570
559.189	17968
559.251	25586
559.312	45590
559.374	127594
559.436	331946
559.498	94861
559.559	16978
559.621	17403
559.683	25883
559.744	51517
559.806	169363
559.868	173591
559.929	22604
559.991	19773
560.052	37258
560.114	97291
560.176	44822
560.237	61761
560.299	72411
560.360	10556
560.422	4279
560.483	4119
560.545	2940
560.606	4024
560.667	2797
560.729	2586
560.790	2795
560.852	2883
560.913	3839
560.974	3011
561.036	2669
561.097	3381
561.158	3199
561.220	3998
561.281	2340
561.342	3656
561.403	5508
561.465	6483
561.526	18954
561.587	18645
561.648	4041
561.709	3308
561.771	3047
561.832	2392
561.893	3075
561.954	2761
562.015	1721
562.076	2476
562.137	2330
562.198	2882
562.259	2346
562.320	2682
562.381	3283
562.442	5922
562.503	3877
562.564	2453
562.625	2668
562.686	3195
562.747	2993
562.808	2115
562.869	1725
562.930	2725
562.991	2351
563.051	2422
563.112	1775
563.173	2375
563.234	1900
563.294	3290
563.355	2266
563.416	2755
563.477	1694
563.537	1437
563.598	2581
563.659	2760
563.720	2238
563.780	2732
563.841	2844
563.901	2244
563.962	1987
564.023	2442
564.083	2083
564.144	2155
564.204	2793
564.265	2104
564.325	2323
564.386	6005
564.446	3537
564.507	2664
564.567	1907
564.628	1719
564.688	1912
564.749	1517
564.809	2409
564.869	3483
564.930	2565
564.990	3332
565.050	2504
565.111	2303
565.171	1907
565.231	2750
565.292	3116
565.352	1914
565.412	2194
565.472	1842
565.532	2860
565.593	1851
565.653	2479
565.713	2882
565.773	3524
565.833	3897
565.893	6693
565.953	2046
566.013	1751
566.074	2704
566.134	3891
566.194	5311
566.254	4915
566.314	3885
566.374	2614
566.434	2268
566.494	3602
566.554	3056
566.614	3740
566.673	3823
566.733	4319
566.793	3796
566.853	4343
566.913	4047
566.973	5232
567.033	5098
567.092	3554
567.152	4252
567.212	5576
567.272	5020
567.331	5179
567.391	5935
567.451	6074
567.511	7234
567.570	6318
567.630	6006
567.690	5750
567.749	5927
567.809	6890
567.868	8458
567.928	8427
567.988	11503
568.047	14552
568.107	18870
568.166	32137
568.226	56432
568.285	73795
568.345	50893
568.404	34342
568.464	27594
568.523	25411
568.582	26510
568.642	34970
568.701	51461
568.761	85801
568.820	136143
568.879	108410
568.939	64212
568.998	41371
569.057	29639
569.116	21501
569.176	15970
569.235	12187
569.294	10959
569.353	8845
569.413	7399
569.472	6865
569.531	6330
569.590	5798
569.649	5792
569.708	4717
569.767	5445
569.827	6105
569.886	4626
569.945	3669
570.004	3902
570.063	4762
570.122	4419
570.181	4528
570.240	3939
570.299	3287
570.358	3533
570.417	2756
570.475	2967
570.534	4309
570.593	3108
570.652	3710
570.711	2986
570.770	3043
570.829	4655
570.887	4492
570.946	3951
571.005	2158
571.064	2573
571.122	3446
571.181	3205
571.240	2825
571.299	3205
571.357	2693
571.416	2022
571.475	3239
571.533	2951
571.592	2445
571.650	1975
571.709	2514
571.768	3418
571.826	2179
571.885	3148
571.943	1938
572.002	1911
572.060	2362
572.119	1903
572.177	2037
572.236	1922
572.294	1204
572.352	2433
572.411	1900
572.469	827
572.528	1627
572.586	2417
572.644	2173
572.703	3661
572.761	1111
572.819	2032
572.877	1982
572.936	1364
572.994	1930
573.052	1605
573.110	1355
573.169	2414
573.227	1213
573.285	1868
573.343	2645
573.401	2023
573.459	2053
573.517	1940
573.576	2088
573.634	3010
573.692	1657
573.750	1419
573.808	1297
573.866	2035
573.924	2203
573.982	2380
574.040	1225
574.098	1981
574.155	1710
574.213	1861
574.271	1721
574.329	1809
574.387	1250
574.445	936
574.503	1085
574.560	715
574.618	1702
574.676	1106
574.734	1618
574.792	1835
574.849	886
574.907	1841
574.965	656
575.022	327
575.080	1392
575.138	1768
575.195	1149
575.253	1779
575.311	1561
575.368	2148
575.426	79
575.483	1054
575.541	1403
575.598	1245
575.656	1378
575.713	1235
575.771	1251
575.828	977
575.886	1253
575.943	1267
576.001	886
576.058	1189
576.115	1369
576.173	2303
576.230	2594
576.287	2757
576.345	3202
576.402	1112
576.459	807
576.517	1055
576.574	2938
576.631	1389
576.688	1397
576.746	177
576.803	1366
576.860	1126
576.917	1527
576.974	454
577.031	725
577.089	1607
577.146	819
577.203	1164
577.260	1584
577.317	2074
577.374	2409
577.431	1577
577.488	1360
577.545	812
577.602	2770
577.659	1902
577.716	3043
577.773	1969
577.830	1147
577.886	2388
577.943	659
578.000	1671
578.057	1130
578.114	1535
578.171	1135
578.227	1700
578.284	1668
578.341	1506
578.398	1544
578.454	2261
578.511	2470
578.568	2503
578.625	1692
578.681	1543
578.738	999
578.794	1063
578.851	1358
578.908	1774
578.964	1066
579.021	2133
579.077	1726
579.134	2109
579.190	1835
579.247	1300
579.303	1225
579.360	1118
579.416	1827
579.473	1104
579.529	174
579.586	2053
579.642	1163
579.698	679
579.755	2019
579.811	1359
579.867	2164
579.924	1509
579.980	1615
580.036	2727
580.093	760
580.149	2495
580.205	2608
580.261	2187
580.317	2055
580.374	1979
580.430	2135
580.486	2770
580.542	2035
580.598	2455
580.619	2187
580.654	1723
580.692	1862
580.710	1936
580.765	1176
580.767	1151
580.823	1925
580.838	1853
580.879	1652
580.911	1681
580.935	1711
580.984	1889
580.991	1916
581.047	2190
581.057	2206
581.103	2295
581.130	2255
581.159	2212
581.203	1737
581.215	1617
581.270	3412
581.276	3263
581.326	1849
581.349	2056
581.382	2350
581.422	1780
581.438	1536
581.494	1361
581.494	1361
581.550	1564
581.567	1723
581.606	1990
581.640	2096
581.661	2187
581.713	2505
581.717	2534
581.773	2094
581.786	2143
581.829	2261
581.859	2164
581.885	2089
581.932	1713
581.940	1648
581.996	2008
582.004	2177
582.052	3087
582.077	2948
582.107	2830
582.150	2398
582.163	2226
582.219	2614
582.223	2507
582.274	1426
582.296	1898
582.330	2511
582.368	2503
582.386	2597
582.441	1876
582.441	1875
582.497	2409
582.514	2256
582.552	2022
582.587	2868
582.608	3308
582.659	1506
582.663	1378
582.719	2622
582.732	2505
582.774	2099
582.805	2146
582.830	2183
582.877	2876
582.885	2975
582.941	2391
582.950	2458
582.996	2955
583.023	2976
583.052	2989
583.095	2746
583.107	2674
583.162	3239
583.168	3244
583.218	3052
583.240	2808
583.273	2609
583.313	2481
583.328	2476
583.384	3146
583.385	3124
583.439	2101
583.458	2372
583.494	3035
583.531	2710
583.549	2581
583.603	2992
583.605	2994
583.660	2587
583.676	2481
583.715	2378
583.748	2652
583.770	2860
583.820	2388
583.825	2328
583.881	2579
583.893	2505
583.936	2462
583.965	2708
583.991	2752
584.038	2812
584.046	2859
584.101	2836
584.110	2924
584.156	3273
584.183	3172
584.211	2964
584.255	2613
584.266	2609
584.321	3524
584.328	3576
584.376	3811
584.400	3740
584.431	3670
584.472	3260
584.486	3060
584.541	3331
584.545	3347
584.596	3807
584.617	3839
584.651	4024
584.689	4352
584.706	4363
584.761	4422
584.762	4414
584.816	3510
584.834	3662
584.871	4077
584.906	4761
584.926	5006
584.978	4225
584.980	4210
585.035	5251
585.051	5677
585.090	6736
585.123	7011
585.145	7131
585.195	6813
585.200	6818
585.254	8779
585.267	9343
585.309	11298
585.340	12975
585.364	13966
585.412	12751
585.419	12587
585.473	15124
585.484	16010
585.528	20442
585.556	25150
585.583	32619
585.628	52175
585.637	58087
585.692	120182
585.700	128566
585.747	159182
585.772	122191
585.801	63526
585.845	21023
585.856	15740
585.910	9216
585.917	8736
585.965	8307
585.989	8090
586.019	7631
586.061	6846
586.074	6706
586.128	6845
586.133	6864
586.183	7090
586.205	7310
586.237	7679
586.277	7099
586.292	6857
586.346	6923
586.349	6937
586.401	7003
586.421	7064
586.455	7441
586.493	8276
586.509	8671
586.564	9284
586.565	9329
586.618	10897
586.637	10675
586.672	10095
586.709	10127
586.727	10158
586.781	10204
586.781	10199
586.835	8885
586.853	8815
586.889	8886
586.925	8963
586.944	8953
586.996	9237
586.998	9253
587.052	9851
587.068	9885
587.106	9866
587.140	10086
587.161	10205
587.212	10755
587.215	10772
587.269	10789
587.284	10949
587.323	11520
587.356	11628
587.377	11795
587.427	12896
587.431	12969
587.485	13901
587.499	14164
587.539	14856
587.571	15188
587.593	15574
587.643	17341
587.648	17464
587.702	18033
587.715	18354
587.755	19442
587.786	20442
587.810	21211
587.858	22613
587.864	22840
587.917	25627
587.930	26380
587.971	28898
588.001	30791
588.025	32407
588.073	35897
588.079	36358
588.133	41022
588.145	42163
588.187	46535
588.217	50427
588.241	54534
588.288	63010
588.295	64202
588.348	75427
588.360	78117
588.402	88467
588.431	97083
588.456	104940
588.503	122606
588.510	125531
588.564	153223
588.575	160425
588.617	193394
588.646	221254
588.671	252664
588.718	326184
588.725	343388
588.778	500242
588.789	538643
588.832	767416
588.861	945350
588.886	1098522
588.932	1319321
588.939	1317752
588.993	1197031
589.004	1189801
589.047	1120124
589.075	989607
589.100	804271
589.147	497587
589.154	473654
589.207	341391
589.218	319346
589.261	293377
589.290	285390
589.314	298482
589.361	337263
589.368	351890
589.421	499768
589.433	538098
589.475	783243
589.504	966372
589.528	1063884
589.576	1151319
589.582	1130251
589.635	927080
589.647	865962
589.689	550921
589.718	358039
589.742	285589
589.790	171863
589.795	165573
589.849	117822
589.861	108058
589.902	90224
589.932	77994
589.955	71474
590.004	59447
590.009	58546
590.062	49989
590.075	48076
590.115	43124
590.146	39467
590.168	37907
590.218	35112
590.222	34810
590.275	31273
590.289	30332
590.328	28608
590.360	27354
590.381	26475
590.431	24583
590.435	24482
590.488	23078
590.503	22700
590.541	21526
590.574	20560
590.594	20091
590.645	19227
590.647	19185
590.700	18091
590.716	17747
590.753	17056
590.787	16583
590.806	16224
590.859	15444
590.859	15436
590.912	15375
590.930	15392
590.965	14613
591.001	14014
591.018	14018
591.071	13735
591.072	13735
591.124	13362
591.143	13212
591.177	12828
591.214	12587
591.230	12608
591.283	12675
591.285	12672
591.336	12005
591.356	11861
591.389	11981
591.427	11972
591.442	11754
591.495	11081
591.498	11031
591.547	10716
591.569	10584
591.600	10562
591.640	10535
591.653	10487
591.706	10221
591.711	10207
591.759	10293
591.782	10322
591.811	10403
591.853	10458
591.864	10478
591.917	10631
591.924	10646
591.969	10274
591.995	10076
592.022	10233
592.066	10483
592.075	10271
592.127	8958
592.137	8734
592.180	9326
592.208	9663
592.233	9504
592.279	9299
592.285	9371
592.338	10009
592.350	10146
592.390	9342
592.421	8786
592.443	9147
592.491	9918
592.495	9874
592.548	9328
592.562	9184
592.600	9169
592.633	9180
592.653	8885
592.704	8106
592.705	8187
592.775	9988
592.846	8073
592.916	9516
592.987	9597
593.058	9117
593.128	8467
593.199	9068
593.270	9403
593.341	8760
593.411	9186
593.482	9769
593.553	9960
593.623	8755
593.694	9001
593.764	9628
593.835	9566
593.906	9283
593.976	9332
594.047	9421
594.117	9885
594.188	10333
594.258	9929
594.329	9972
594.399	10669
594.470	10617
594.540	10415
594.611	10083
594.681	9801
594.751	10118
594.822	11828
594.892	12068
594.963	11132
595.033	11311
595.103	11774
595.174	12206
595.244	13084
595.314	12457
595.384	10937
595.455	12199
595.525	12528
595.595	12798
595.665	13622
595.736	13150
595.806	12776
595.876	12886
595.946	13622
596.016	13159
596.087	12687
596.157	13867
596.227	13364
596.297	14768
596.367	15397
596.437	16774
596.507	17628
596.577	17310
596.647	17256
596.717	17591
596.787	18131
596.857	16942
596.927	17131
596.997	17882
597.067	18291
597.137	19114
597.207	18891
597.277	18077
597.347	18362
597.417	17173
597.487	17284
597.557	18224
597.626	17777
597.696	18232
597.766	17741
597.836	17544
597.906	15884
597.975	16111
598.045	15694
598.115	17170
598.185	17858
598.254	20036
598.324	22887
598.394	23091
598.464	21490
598.533	20982
598.603	19925
598.672	18608
598.742	19637
598.812	20291
598.881	19576
598.951	20229
599.020	19449
599.090	21507
599.159	21574
599.229	20851
599.299	19565
599.368	21278
599.437	20890
599.507	18671
599.576	18470
599.646	18287
599.715	18003
599.785	17601
599.854	17041
599.924	16548
599.993	16108
600.062	16736
600.132	17202
600.201	18151
600.270	21681
600.340	23287
600.409	21834
600.478	22615
600.547	23368
600.617	20924
600.686	15367
600.755	14065
600.824	13822
600.894	13207
600.963	12947
601.032	14201
601.101	13420
601.170	12046
601.239	11032
601.308	12466
601.378	11650
601.447	12334
601.516	11583
601.585	13146
601.654	12784
601.723	13258
601.792	12917
601.861	13878
601.930	14993
601.999	14953
602.068	13731
602.137	14805
602.206	14124
602.275	14432
602.343	14786
602.412	15279
602.481	14816
602.550	13812
602.619	15623
602.688	16250
602.756	15289
602.825	16251
602.894	16414
602.963	15597
603.032	17489
603.100	16301
603.169	16666
603.238	16364
603.307	17309
603.375	16979
603.444	17991
603.513	17927
603.581	17869
603.650	18533
603.719	17403
603.787	18294
603.856	19175
603.924	18700
603.993	19246
604.061	20729
604.130	22132
604.198	23265
604.267	22273
604.335	23621
604.404	22848
604.472	24011
604.541	23778
604.609	24364
604.678	23703
604.746	23882
604.815	23572
604.883	24198
604.951	25859
605.020	25791
605.088	25746
605.156	26539
605.225	27038
605.293	26794
605.361	26780
605.429	28220
605.498	28594
605.566	30005
605.634	30602
605.702	31154
605.771	32988
605.839	33576
605.907	31543
605.975	30509
606.043	29679
606.111	30355
606.180	30270
606.248	30235
606.316	30242
606.384	27972
606.452	29899
606.520	31410
606.588	31144
606.656	31477
606.724	29919
606.792	28825
606.860	25695
606.928	23103
606.996	22484
607.064	21036
607.132	22356
607.200	23049
607.267	24927
607.335	25365
607.403	25889
607.471	24790
607.539	24683
607.607	25335
607.674	21965
607.742	21145
607.810	20689
607.878	21021
607.946	20702
608.013	23021
608.081	22798
608.149	24441
608.216	23755
608.284	25072
608.352	24720
608.419	23813
608.487	24953
608.555	22844
608.622	24731
608.690	25676
608.757	29303
608.825	30716
608.893	29034
608.960	26830
609.028	25592
609.095	26231
609.163	25569
609.230	23251
609.298	20456
609.365	20925
609.432	23453
609.500	24843
609.567	29491
609.635	35158
609.702	37738
609.769	34979
609.837	26521
609.904	22617
609.971	22763
610.039	28023
610.106	39012
610.173	80804
610.241	197507
610.308	95594
610.375	30614
610.442	24676
610.509	23308
610.577	23720
610.644	22591
610.711	24664
610.778	26047
610.845	25661
610.912	28662
610.980	30296
611.047	32992
611.114	30594
611.181	27773
611.248	26841
611.315	30715
611.382	29486
611.449	30970
611.516	32753
611.583	32235
611.650	33060
611.717	32308
611.784	33743
611.851	34694
611.918	39588
611.984	48392
612.051	77523
612.118	177259
612.185	469459
612.252	259403
612.319	53737
612.386	44162
612.452	38904
612.519	36891
612.586	36599
612.653	36307
612.719	38252
612.786	35999
612.853	33046
612.919	31163
612.986	33957
613.053	31001
613.120	27861
613.186	26501
613.253	29943
613.319	27604
613.386	27819
613.453	28443
613.519	28982
613.586	28467
613.652	31962
613.719	30400
613.785	29675
613.852	28271
613.918	28668
613.985	32066
614.051	38540
614.118	54017
614.184	50534
614.250	30788
614.317	29996
614.383	28427
614.449	29423
614.516	28895
614.582	31079
614.648	28190
614.715	28853
614.781	27843
614.847	27869
614.914	27142
614.980	26079
615.046	27236
615.112	29024
615.179	28782
615.245	29283
615.311	31807
615.377	41311
615.443	41671
615.509	31838
615.575	32001
615.642	30829
615.708	31984
615.774	34776
615.840	38115
615.906	45444
615.972	63567
616.038	119385
616.104	245985
616.170	603175
616.236	466032
616.302	82852
616.368	56723
616.434	39447
616.500	37341
616.565	42963
616.631	52311
616.697	40476
616.763	43323
616.829	68520
616.895	128638
616.961	113446
617.026	43040
617.092	29915
617.158	29574
617.224	28598
617.289	25622
617.355	24431
617.421	22713
617.487	25823
617.552	23189
617.618	21987
617.684	21845
617.749	24786
617.815	21062
617.880	21432
617.946	20691
618.012	22047
618.077	21412
618.143	21572
618.208	21798
618.274	23408
618.339	24416
618.405	18118
618.470	18416
618.536	18182
618.601	18714
618.667	17017
618.732	16459
618.798	16222
618.863	15141
618.928	15138
618.994	16444
619.059	17093
619.124	17120
619.190	16528
619.255	14391
619.320	15292
619.386	15305
619.451	14430
619.516	15202
619.581	15438
619.647	15515
619.712	15517
619.777	14934
619.842	14659
619.907	15426
619.972	15449
620.038	15776
620.103	14088
620.168	13531
620.233	15567
620.298	14806
620.363	15336
620.428	15478
620.493	15679
620.558	16052
620.623	15917
620.688	15590
620.753	16241
620.818	16027
620.883	17132
620.948	16706
621.013	15686
621.078	16321
621.143	15212
621.207	18448
621.272	16859
621.337	14335
621.402	16008
621.467	15449
621.532	15279
621.596	15666
621.661	15286
621.726	15224
621.791	15548
621.855	15331
621.920	15432
621.985	13976
622.049	16310
622.114	15357
622.179	15312
622.243	15764
622.308	16993
622.373	19719
622.437	17052
622.502	15841
622.566	16723
622.631	13916
622.695	16863
622.760	16465
622.824	15441
622.889	15928
622.953	16241
623.018	18864
623.082	19054
623.147	17027
623.211	16481
623.276	15885
623.340	15389
623.404	15242
623.469	14784
623.533	15321
623.597	15221
623.662	15010
623.726	13777
623.790	11857
623.854	11683
623.919	12654
623.983	12633
624.047	12358
624.111	12973
624.176	13888
624.240	13180
624.304	15479
624.368	12755
624.432	13727
624.496	14329
624.560	15648
624.625	14816
624.689	14925
624.753	16075
624.817	15069
624.881	14258
624.945	12534
625.009	12558
625.073	12766
625.137	12765
625.201	14480
625.265	14434
625.329	12825
625.393	12535
625.456	13661
625.520	14932
625.584	14463
625.648	14865
625.712	15790
625.776	18704
625.839	18795
625.903	13341
625.967	10819
626.031	13988
626.095	16628
626.158	13244
626.222	9121
626.286	9906
626.349	8261
626.413	7816
626.477	9144
626.540	8508
626.604	7104
626.668	9273
626.731	7466
626.795	6958
626.858	7861
626.922	7154
626.986	8042
627.049	7325
627.113	7870
627.176	8238
627.240	8124
627.303	8010
627.366	8255
627.430	7836
627.493	8065
627.557	7218
627.620	8395
627.684	7895
627.747	8365
627.810	5460
627.874	7290
627.937	5810
628.000	8486
628.064	6110
628.127	4186
628.190	5609
628.253	5050
628.317	4961
628.380	5072
628.443	4695
628.506	4066
628.569	4523
628.632	3539
628.696	5239
628.759	3589
628.822	4023
628.885	3731
628.948	3604
629.011	3503
629.074	2757
629.137	3139
629.200	2326
629.263	4607
629.326	3118
629.389	2848
629.452	3297
629.515	3904
629.578	2946
629.641	3958
629.704	3216
629.767	3847
629.830	3646
629.892	3315
629.955	3052
630.018	5112
630.081	3280
630.144	4502
630.207	2031
630.269	4740
630.332	3604
630.395	3456
630.458	3595
630.520	1479
630.583	3658
630.646	3454
630.708	2966
630.771	2428
630.834	4785
630.896	3154
630.959	3239
631.021	2867
631.084	3481
631.146	3021
631.209	3993
631.272	2279
631.334	3836
631.397	3508
631.459	2926
631.522	3350
631.584	4458
631.646	4756
631.709	4823
631.771	4333
631.834	4552
631.896	3087
631.958	3151
632.021	4167
632.083	1892
632.145	3476
632.208	2250
632.270	3662
632.332	2766
632.395	1658
632.457	3818
632.519	2614
632.581	4189
632.643	2446
632.706	3032
632.768	1679
632.830	3648
632.892	2880
632.954	2415
633.016	4142
633.078	2934
633.141	2375
633.203	2633
633.265	2860
633.327	3143
633.389	2095
633.451	3856
633.513	2597
633.575	3824
633.637	3186
633.698	3211
633.760	4036
633.822	3569
633.884	3688
633.946	4496
634.008	3700
634.070	4463
634.132	4606
634.193	4925
634.255	5544
634.317	5567
634.379	5874
634.441	4271
634.502	3506
634.564	3688
634.626	3470
634.687	3613
634.749	3276
634.811	3527
634.873	2406
634.934	2992
634.996	3626
635.057	2265
635.119	2100
635.181	2636
635.242	2803
635.304	1911
635.365	4777
635.427	2260
635.488	3654
635.550	2020
635.611	3579
635.673	1962
635.734	4351
635.796	3122
635.857	4549
635.918	3701
635.980	5933
636.041	4304
636.102	6900
636.164	6374
636.225	6667
636.286	3437
636.348	4483
636.409	3984
636.470	2642
636.531	2961
636.593	2080
636.654	3102
636.715	2719
636.776	2332
636.838	1181
636.899	3558
636.960	1837
637.021	2005
637.082	2107
637.143	2786
637.204	1479
637.265	1843
637.326	2591
637.387	2942
637.448	1675
637.509	2200
637.570	1883
637.631	3632
637.692	1397
637.753	926
637.814	1835
637.875	1401
637.936	2778
637.997	1841
638.058	2220
638.119	2111
638.179	1285
638.240	1542
638.301	1737
638.362	1403
638.423	945
638.483	2276
638.544	310
638.605	2789
638.666	1469
638.726	2380
638.787	1932
638.848	1258
638.908	847
638.969	1764
639.030	1049
639.090	396
639.151	429
639.211	1791
639.272	2252
639.332	3259
639.393	2603
639.453	958
639.514	1864
639.574	2133
639.635	1056
639.695	2169
639.756	1601
639.816	1770
639.877	1419
639.937	3871
639.997	2891
640.058	693
640.118	1159
640.178	2618
640.239	1043
640.299	955
640.359	-29
640.420	2448
640.480	2267
640.540	2407
640.600	2960
640.661	2373
640.721	1702
640.781	4581
640.841	2509
640.901	3097
640.961	1966
641.021	2206
641.082	1318
641.142	2489
641.202	2186
641.262	331
641.322	1865
641.382	463
641.442	1104
641.502	830
641.562	1086
641.622	1291
641.682	1695
641.742	1682
641.802	1480
641.861	1871
641.921	638
641.981	2979
642.041	1991
642.101	1336
642.161	270
642.221	1118
642.280	737
642.340	764
642.400	-11
642.460	2286
642.519	1070
642.579	1836
642.639	1356
642.698	-960
642.758	2711
642.818	1664
642.877	595
642.937	1792
642.997	1961
643.056	1637
643.116	589
643.175	2761
643.235	1640
643.294	1282
643.354	1894
643.414	3235
643.473	3649
643.532	5276
643.592	7771
643.651	17087
643.711	32771
643.770	69100
643.830	180020
643.889	391676
643.948	76388
644.008	9589
644.067	5263
644.126	3123
644.186	2631
644.245	3012
644.304	1329
644.363	3287
644.423	415
644.482	2431
644.541	2645
644.600	164
644.659	3085
644.719	3248
644.778	7147
644.837	13381
644.896	30086
644.955	75353
645.014	20767
645.073	4208
645.132	1083
645.191	2482
645.250	992
645.309	3050
645.368	1673
645.427	3060
645.486	5238
645.545	12734
645.604	2470
645.663	2153
645.722	1493
645.781	3083
645.840	3148
645.898	4090
645.957	8108
646.016	12984
646.075	29003
646.134	61843
646.192	177088
646.251	259375
646.310	28438
646.369	6607
646.427	4300
646.486	2072
646.545	2002
646.603	2272
646.662	1977
646.721	1395
646.779	348
646.838	98
646.896	2488
646.955	2998
647.014	6623
647.072	15510
647.131	45163
647.189	18748
647.248	895
647.306	1721
647.365	1083
647.423	-892
647.481	1832
647.540	-465
647.598	931
647.657	344
647.715	1057
647.773	-241
647.832	797
647.890	-1049
647.948	-477
648.007	-44
648.065	218
648.123	-52
648.181	1147
648.240	771
648.298	-673
648.356	163
648.414	1215
648.472	68
648.531	305
648.589	485
648.647	-571
648.705	-636
648.763	343
648.821	585
648.879	-189
648.937	615
648.995	1036
649.053	2241
649.111	4437
649.169	10111
649.227	20156
649.285	46768
649.343	142085
649.401	59538
649.459	7897
649.516	6508
649.574	3459
649.632	12201
649.690	13884
649.748	4704
649.806	3958
649.863	13289
649.921	30983
649.979	18868
650.037	2310
650.094	-1091
650.152	757
650.210	3
650.268	-37
650.325	1361
650.383	1712
650.440	-1028
650.498	299
650.556	-538
650.613	-316
650.671	-115
650.728	21
650.786	-402
650.843	551
650.901	-887
650.958	294
651.016	-186
651.073	-305
651.131	-544
651.188	-1317
651.246	-397
651.303	-893
651.360	323
651.418	-643
651.475	-234
651.532	-518
651.590	-337
651.647	-1315
651.704	-56
651.762	-64
651.819	1155
651.876	-1246
651.933	-967
651.990	407
652.048	-1795
652.105	-740
652.162	147
652.219	-1068
652.276	38
652.333	-612
652.390	-819
652.448	-479
652.505	-711
652.562	-1177
652.619	-151
652.676	276
652.733	2126
652.790	-405
652.847	-1269
652.904	-655
652.961	-1557
653.017	-1371
653.074	-449
653.131	-354
653.188	-1056
653.245	-316
653.302	-500
653.359	-287
653.415	-25
653.472	-831
653.529	-25
653.586	-1555
653.642	-1026
653.699	-495
653.756	-880
653.813	-1356
653.869	307
653.926	-1067
653.983	-1270
654.039	-896
654.096	-914
654.152	319
654.209	-1869
654.266	-156
654.322	-1021
654.379	-631
654.435	262
654.492	-1063
654.548	-339
654.605	-943
654.661	890
654.717	-1109
654.774	-219
654.830	-233
654.887	-250
654.943	-862
655.000	820
655.056	-636
655.112	-777
655.168	-887
655.225	-1041
655.281	-745
655.337	-740
655.394	-623
655.450	-654
655.506	-596
655.562	-301
655.618	-626
655.675	-401
655.731	146
655.787	-971
655.843	317
655.899	-1140
655.955	180
656.011	-843
656.067	-1322
656.123	110
656.179	-373
656.235	1479
656.291	-1712
656.347	850
656.403	-711
656.459	-542
656.515	-486
656.571	-400
656.627	-864
656.683	-656
656.739	-364
656.795	-657
656.850	-930
656.906	-150
656.962	669
657.018	-1166
657.074	-630
657.129	-299
657.185	637
657.241	2445
657.297	502
657.352	-623
657.408	-1660
657.464	400
657.519	-908
657.575	-1430
657.630	-926
657.686	-801
657.742	-876
657.797	-560
657.853	-842
657.908	-265
657.964	-1038
658.019	374
658.075	-1328
658.130	-561
658.186	-2110
658.241	-177
658.297	-1696
658.352	-703
658.407	-891
658.463	-1692
658.518	-1291
658.573	-289
658.629	-2047
658.684	-1459
658.739	-767
658.795	-1233
658.850	-1186
658.905	-1004
658.960	-1194
659.016	-1321
659.071	-1359
659.126	-486
659.181	-1466
659.236	509
659.291	-185
659.346	-1640
659.401	-598
659.457	-72
659.512	-737
659.567	280
659.622	-880
659.677	-1323
659.732	-1940
659.787	-605
659.842	-1691
659.897	-1145
659.952	-466
660.007	-767
660.061	-903
660.116	-1814
660.171	-1303
660.226	-4
660.281	-107
660.336	-1655
660.391	-465
660.445	-1677
660.500	-799
660.555	-1213
660.610	-1473
660.664	-520
660.719	-1747
660.774	-85
660.828	-860
660.883	-637
660.938	-406
660.992	-1926
661.047	-870
661.101	-1316
661.156	-1209
661.211	-2101
661.265	-972
661.320	-199
661.374	-1368
661.429	-1218
661.483	-207
661.538	-1927
661.592	-1163
661.647	-1447
661.701	-198
661.755	-727
661.810	-908
661.864	-814
661.919	-2080
661.973	-897
662.027	-1296
662.081	-1111
662.136	-1847
662.190	-861
662.244	-779
662.299	-883
662.353	-1151
662.407	-1958
662.461	-1570
662.515	-979
662.569	-1803
662.624	-1323
662.678	-1564
662.732	-1120
662.786	-2043
662.840	-617
662.894	-827
662.948	-1429
663.002	-1331
663.056	-745
663.110	-2193
663.164	-1600
663.218	-776
663.272	-494
663.326	-512
663.380	-1482
663.434	-776
663.488	-1305
663.542	-1472
663.595	-606
663.649	-551
663.703	-887
663.757	-1325
663.811	-1000
663.864	-1597
663.918	-1470
663.972	-1812
664.026	-1498
664.079	-1943
664.133	-493
664.187	-734
664.240	-1381
664.294	-940
664.348	-530
664.401	-455
664.455	-1446
664.508	-1108
664.562	-1199
664.615	-1092
664.669	-2100
664.722	-408
664.776	-1951
664.829	-1506
664.883	-1462
664.936	-1845
664.990	-1062
665.043	-1274
665.097	-1514
665.150	-464
665.203	-1134
665.257	-1609
665.310	-1556
665.363	-662
665.417	-1033
665.470	-1457
665.523	-1177
665.576	-1316
665.630	-927
665.683	-1158
665.736	-815
665.789	-2114
665.842	-1697
665.895	-655
665.949	-746
666.002	-1170
666.055	-1373
666.108	-42
666.161	-783
666.214	-1566
666.267	-718
666.320	-884
666.373	-1353
666.426	-1281
666.479	-1369
666.532	-1156
666.585	-695
666.638	-1313
666.691	-1226
666.744	-1143
666.796	-1343
666.849	-875
666.902	-906
666.955	-1667
667.008	-1374
667.060	-1220
667.113	-1665
667.166	-1667
667.219	-657
667.271	-1232
667.324	-1556
667.377	-917
667.430	-877
667.482	-1143
667.535	-612
667.587	-1173
667.640	-776
667.693	-1361
667.745	-945
667.798	58
667.850	-1271
667.903	-1606
667.955	-1269
668.008	-1655
668.060	-1220
668.113	-1774
668.165	-1140
668.218	-1354
668.270	-453
668.322	-1785
668.375	-1734
668.427	-591
668.479	-672
668.532	-1326
668.584	-1188
668.636	-1299
668.689	-1592
668.741	-1784
668.793	-588
668.845	-2135
668.898	-779
668.950	-752
669.002	-1215
669.054	-1491
669.106	-1772
669.158	-708
669.211	-563
669.263	-813
669.315	-192
669.367	-730
669.419	-828
669.471	-781
669.523	-173
669.575	1718
669.627	176
669.679	-1370
669.731	-484
669.783	-745
669.835	-41
669.886	-438
669.938	-474
669.990	-1151
670.042	-1442
670.094	-1336
670.146	-1175
670.197	-1228
670.249	-297
670.301	-1349
670.353	-715
670.404	-675
670.456	-719
670.508	1099
670.560	2512
670.611	4187
670.663	8610
670.715	25306
670.766	40900
670.818	8923
670.869	667
670.921	-795
670.972	-292
671.024	-1324
671.075	-1144
671.127	-906
671.178	-1129
671.230	-1602
671.281	-1131
671.333	-1196
671.384	-1198
671.436	-914
671.487	80
671.538	744
671.590	1817
671.641	3822
671.692	9458
671.744	19434
671.795	9664
671.846	290
671.897	-444
671.949	-751
672.000	-504
672.051	-807
672.102	-532
672.153	-1871
672.204	-788
672.256	-698
672.307	-1274
672.358	-1084
672.409	-1344
672.460	-1107
672.511	-1105
672.562	-643
672.613	-1983
672.664	-1052
672.715	-1016
672.766	-1080
672.817	-1175
672.868	-1323
672.919	-757
672.970	-1386
673.021	-1657
673.071	-1743
673.122	-1521
673.173	-1683
673.224	-1352
673.275	-1071
673.326	-1156
673.376	-788
673.427	-1178
673.478	-1622
673.528	-1101
673.579	-2599
673.630	-1486
673.680	-405
673.731	-1467
673.782	-1489
673.832	-1420
673.883	-1229
673.934	-1760
673.984	-1961
674.035	-890
674.085	-1471
674.136	-1657
674.186	-1478
674.237	-1720
674.287	-1318
674.338	-978
674.388	-1654
674.438	-1352
674.489	-1516
674.539	-1326
674.589	-1938
674.640	-1296
674.690	-2199
674.740	-1403
674.791	-1784
674.841	-1655
674.891	-1805
674.942	-1136
674.992	-1606
675.042	-1140
675.092	-1425
675.142	-1954
675.193	-1153
675.243	-1667
675.293	-1532
675.343	-1528
675.393	-2079
675.443	-1939
675.493	-1304
675.543	-1353
675.593	-1908
675.643	-1595
675.693	-1088
675.743	-1713
675.793	-1123
675.843	-2746
675.893	-1556
675.943	-1627
675.993	-1510
676.043	-2135
676.093	-1465
676.142	-2002
676.192	-1385
676.242	-1457
676.292	-1995
676.341	-1419
676.391	-1748
676.441	-1840
676.491	-2650
676.540	-2046
676.590	-1680
676.640	-1735
676.689	-1801
676.739	-1582
676.789	-2491
676.838	-1520
676.888	-2298
676.937	-1489
676.987	-1967
677.037	-1649
677.086	-1658
677.136	-1254
677.185	-1520
677.235	-1501
677.284	-1626
677.333	-1999
677.383	-2237
677.432	-1675
677.482	-1717
677.531	-794
677.580	-2079
677.630	-1155
677.679	-1588
677.728	-1632
677.778	-1213
677.827	-1473
677.876	-1774
677.925	-1884
677.975	-1438
678.024	-1827
678.073	-1563
678.122	-1826
678.171	-2215
678.220	-1352
678.269	-1457
678.319	-2158
678.368	-2174
678.417	-2136
678.466	-512
678.515	-1852
678.564	-1396
678.613	-1824
678.662	-2126
678.711	-1715
678.760	-1946
678.809	-1818
678.857	-1370
678.906	-1510
678.955	-1484
679.004	-1454
679.053	-1119
679.102	-984
679.151	-2053
679.199	-2393
679.248	-1512
679.297	-1694
679.346	-1009
679.394	-1922
679.443	-1606
679.492	-1944
679.540	-2202
679.589	-2329
679.638	-1654
679.686	-1199
679.735	-892
679.784	-1586
679.832	-1838
679.881	-2087
679.929	-2233
679.978	-2557
680.026	-1940
680.075	-1541
680.123	-2329
680.172	-1775
680.220	-2183
680.268	-1221
680.317	-1220
680.365	-1902
680.414	-2518
680.462	-1867
680.510	-1436
680.559	-1314
680.607	-1820
680.655	-2248
680.703	-1782
680.752	-1588
680.800	-2193
680.848	-2197
680.896	-1595
680.945	-1342
680.993	-1433
681.041	-2026
681.089	-1689
681.137	-1831
681.185	-2334
681.233	-1672
681.258	-1821
681.281	-1972
681.329	-1882
681.377	-1546
681.380	-1543
681.425	-1675
681.473	-1946
681.502	-1436
681.521	-1112
681.569	-1742
681.617	-1832
681.624	-1875
681.665	-2235
681.713	-1565
681.745	-1459
681.761	-1422
681.809	-1370
681.857	-1107
681.867	-1042
681.904	-866
681.952	-1994
681.989	-1602
682.000	-1494
682.048	-1659
682.096	-1395
682.111	-1597
682.143	-2071
682.191	-1412
682.233	-1163
682.239	-1139
682.286	-1292
682.334	-1656
682.354	-1722
682.382	-1817
682.430	-1476
682.476	-1163
682.477	-1166
682.525	-1528
682.572	-1363
682.598	-1375
682.620	-1385
682.667	-1298
682.715	-1018
682.720	-970
682.763	-628
682.810	-1166
682.841	-1240
682.857	-1308
682.905	-1183
682.952	-332
682.963	-550
683.000	-1311
683.047	-1606
683.085	-560
683.095	-296
683.142	-1321
683.190	-1577
683.206	-1322
683.237	-853
683.284	-1388
683.328	-1238
683.332	-1236
683.379	-546
683.426	-1050
683.449	-1244
683.473	-1424
683.521	-174
683.568	-1149
683.571	-1091
683.615	-535
683.662	-1009
683.693	-1047
683.709	-1052
683.757	-1423
683.804	-767
683.814	-791
683.851	-906
683.898	194
683.936	-426
683.945	-596
683.992	-370
684.039	-753
684.057	-725
684.086	-705
684.133	14
684.179	22
684.180	18
684.227	-226
684.274	401
684.300	36
684.321	-309
684.368	19
684.415	-110
684.422	-155
684.462	-504
684.509	-1035
684.543	-581
684.556	-416
684.603	-171
684.649	-198
684.665	-236
684.696	-260
684.743	-268
684.786	-228
684.790	-228
684.837	-485
684.883	107
684.908	-67
684.930	-297
684.977	-218
685.023	-739
685.029	-691
685.070	-381
685.117	47
685.150	-297
685.164	-425
685.210	-66
685.257	413
685.272	379
685.303	344
685.350	149
685.393	91
685.396	87
685.443	256
685.490	1280
685.514	765
685.536	192
685.583	79
685.629	182
685.636	166
685.675	62
685.722	224
685.757	323
685.768	368
685.815	-257
685.861	270
685.878	310
685.908	448
685.954	84
686.000	479
686.000	480
686.047	655
686.093	595
686.121	550
686.139	500
686.185	48
686.232	422
686.242	346
686.278	144
686.324	916
686.363	565
686.370	496
686.416	927
686.463	350
686.484	631
686.509	936
686.555	190
686.601	-257
686.606	-191
686.647	497
686.693	254
686.727	424
686.739	447
686.785	990
686.831	476
686.848	602
686.877	810
686.923	1098
686.969	498
686.969	495
687.015	316
687.061	4
687.090	579
687.107	869
687.153	777
687.199	1020
687.211	845
687.245	412
687.291	658
687.332	948
687.336	988
687.382	788
687.428	1340
687.453	1174
687.474	940
687.520	1129
687.565	1168
687.574	1178
687.611	1447
687.657	1255
687.695	1937
687.702	2113
687.748	2770
687.794	3595
687.816	3321
687.839	2516
687.885	2780
687.931	2351
687.937	2255
687.976	1978
688.022	1828
688.058	1338
688.067	1283
688.113	1219
688.158	1490
688.179	1619
688.204	1602
688.249	1115
688.295	1242
688.300	1256
688.340	1654
688.386	2015
688.421	1509
688.431	1332
688.477	1363
688.522	1662
688.542	1471
688.567	1384
688.613	1820
688.658	2024
688.663	2027
688.703	1799
688.749	1264
688.784	1553
688.794	1666
688.839	1266
688.884	1410
688.905	1611
688.930	1853
688.975	2087
689.020	1181
689.026	1203
689.065	1499
689.110	1827
689.146	1790
689.155	1790
689.201	2330
689.246	2446
689.267	2387
689.291	2067
689.336	1748
689.381	1372
689.388	1252
689.426	1060
689.471	1278
689.509	1605
689.516	1665
689.561	1664
689.606	1963
689.630	1833
689.651	1677
689.696	1732
689.741	1781
689.750	1829
689.785	2056
689.830	1965
689.871	2148
689.875	2167
689.920	1611
689.965	2153
689.992	1966
690.010	1864
690.054	1462
690.099	1681
690.112	1703
690.144	1665
690.189	1302
690.233	1256
690.233	1263
690.278	1508
690.323	1702
690.354	1636
690.367	1592
690.412	1854
690.457	1775
690.474	1841
690.501	1900
690.546	1780
690.590	1699
690.595	1695
690.635	1981
690.680	2201
690.716	2236
690.724	2193
690.769	2378
690.813	2404
690.836	2152
690.857	2199
690.902	2647
690.946	3110
690.957	3205
690.991	3710
691.035	4635
691.077	5346
691.080	5355
691.124	5233
691.168	5182
691.198	5161
691.213	4975
691.257	3942
691.301	3258
691.318	3009
691.346	2934
691.390	2857
691.434	2413
691.439	2380
691.478	2471
691.522	2496
691.559	2671
691.567	2691
691.611	2632
691.655	2646
691.680	2491
691.699	2434
691.743	2902
691.787	2753
691.800	2744
691.831	2717
691.875	2790
691.919	3203
691.921	3181
691.964	2684
692.008	2600
692.041	2323
692.052	2319
692.096	2748
692.139	3255
692.162	3322
692.183	3192
692.227	2923
692.271	2550
692.282	2543
692.315	2755
692.359	3012
692.402	3066
692.403	3075
692.447	3062
692.490	2973
692.523	3040
692.534	3076
692.578	3064
692.622	2894
692.643	2951
692.666	2973
692.709	2873
692.753	2451
692.763	2430
692.797	2692
692.840	3137
692.884	3377
692.884	3386
692.928	3155
692.971	2570
693.004	2510
693.015	2645
693.059	2840
693.102	3157
693.124	3243
693.146	3182
693.189	3113
693.233	2801
693.245	2790
693.276	2979
693.320	3121
693.363	3183
693.365	3177
693.407	3329
693.450	3472
693.485	3590
693.493	3665
693.537	3889
693.580	4187
693.605	4306
693.624	4522
693.667	5270
693.710	5572
693.725	5822
693.753	7173
693.797	8925
693.840	10895
693.845	11096
693.883	10555
693.926	9769
693.966	9061
693.970	8918
694.013	7480
694.056	5822
694.086	4557
694.099	4393
694.142	4013
694.185	3638
694.206	3400
694.229	3459
694.272	3737
694.315	3749
694.326	3764
694.358	4059
694.401	4374
694.444	4910
694.446	4914
694.487	4763
694.530	4728
694.566	4457
694.573	4370
694.616	3790
694.659	3269
694.686	3014
694.702	3133
694.745	3236
694.787	3294
694.806	3374
694.830	3356
694.873	3336
694.916	3161
694.926	3110
694.959	3137
695.002	3308
695.044	3188
695.046	3186
695.087	3602
695.130	3657
695.166	3862
695.172	3877
695.215	3724
695.258	3632
695.286	3657
695.301	3750
695.343	3685
695.386	3947
695.406	3945
695.428	3772
695.471	3356
695.514	3067
695.526	2996
695.556	3374
695.599	3877
695.641	4214
695.646	4260
695.684	4364
695.726	4316
695.766	4252
695.769	4262
695.811	4248
695.854	4225
695.886	4123
695.896	4144
695.938	4194
695.981	4252
696.005	4350
696.023	4410
696.065	4352
696.108	4338
696.125	4320
696.150	4354
696.192	4399
696.235	4411
696.245	4420
696.277	4498
696.319	4527
696.361	4604
696.365	4575
696.404	4323
696.446	4117
696.485	4139
696.488	4182
696.530	4256
696.572	4484
696.604	4662
696.614	4719
696.656	4884
696.698	4987
696.724	5108
696.740	5186
696.783	5138
696.825	5278
696.844	5281
696.867	5177
696.909	4918
696.951	4606
696.964	4546
696.992	4498
697.034	4315
697.076	4178
697.083	4117
697.118	4370
697.160	4821
697.202	5138
697.203	5129
697.244	4874
697.286	4610
697.323	4292
697.327	4345
697.369	4736
697.411	5145
697.442	5375
697.453	5398
697.494	5371
697.536	5543
697.562	5518
697.578	5554
697.620	5706
697.661	5785
697.682	5804
697.703	5784
697.744	5687
697.786	5742
697.801	5702
697.828	5973
697.869	6321
697.911	6736
697.921	6813
697.952	6494
697.994	6077
698.035	5565
698.040	5493
698.077	5232
698.118	4745
698.160	4488
698.160	4468
698.201	4719
698.243	4939
698.279	5142
698.284	5172
698.325	5238
698.367	5315
698.399	5395
698.408	5468
698.449	5676
698.491	5879
698.518	5982
698.532	5981
698.573	5968
698.614	5904
698.638	5846
698.656	5867
698.697	5903
698.738	5901
698.757	5881
698.779	5859
698.820	5798
698.862	5706
698.877	5663
698.903	5891
698.944	6212
698.985	6534
698.996	6603
699.026	6444
699.067	6198
699.116	5886
699.235	5211
699.354	5186
699.474	5479
699.593	6111
699.713	6578
699.832	5410
699.951	7303
700.070	6353
700.190	6809
700.309	6582
700.428	5490
700.547	6162
700.667	6058
700.786	6036
700.905	5578
701.024	5074
701.143	4721
701.262	4738
701.381	5230
701.500	5176
701.619	6542
701.738	5130
701.857	5847
701.976	5265
702.095	5717
702.214	6834
702.333	6126
702.452	5409
702.571	5286
702.690	5501
702.809	4815
702.928	5217
703.047	5555
703.165	5715
703.284	5480
703.403	5216
703.522	5522
703.640	6432
703.759	6747
703.878	6954
703.997	4568
704.115	5299
704.234	5324
704.353	5012
704.471	4439
704.590	4819
704.708	4777
704.827	4999
704.946	4209
705.064	4178
705.183	4506
705.301	4079
705.420	5976
705.538	5071
705.656	5714
705.775	5970
705.893	11395
706.012	14805
706.130	5343
706.249	5576
706.367	5005
706.485	5282
706.604	5000
706.722	4960
706.840	7454
706.958	12262
707.077	7816
707.195	4243
707.313	4647
707.431	3702
707.549	4196
707.668	4981
707.786	4357
707.904	4486
708.022	3642
708.140	3971
708.258	4859
708.376	4684
708.494	3946
708.612	4459
708.730	4937
708.848	4413
708.966	5264
709.084	5051
709.202	4650
709.320	4737
709.438	4380
709.556	4908
709.674	4108
709.791	4425
709.909	4125
710.027	4522
710.145	4055
710.263	4086
710.380	4411
710.498	4522
710.616	4117
710.733	4678
710.851	4215
710.969	5230
711.086	3777
711.204	3774
711.322	3785
711.439	4063
711.557	3885
711.674	4212
711.792	3691
711.909	4539
712.027	5593
712.144	3680
712.262	4311
712.379	3987
712.497	4643
712.614	5058
712.732	4248
712.849	4889
712.966	5327
713.084	6481
713.201	5037
713.318	4699
713.436	4597
713.553	4213
713.670	5475
713.787	5547
713.905	5227
714.022	4754
714.139	5417
714.256	8099
714.373	11214
714.490	21890
714.608	63869
714.725	299461
714.842	327362
714.959	17398
715.076	7175
715.193	6309
715.310	5865
715.427	4794
715.544	4033
715.661	4877
715.778	3656
715.895	4612
716.011	4154
716.128	4498
716.245	4614
716.362	4476
716.479	4594
716.596	4893
716.713	4576
716.829	4164
716.946	3404
717.063	4135
717.180	3148
717.296	3389
717.413	2482
717.530	3915
717.646	3444
717.763	2995
717.880	3155
717.996	3269
718.113	3682
718.229	3488
718.346	3828
718.462	3243
718.579	5031
718.695	10708
718.812	6086
718.928	4066
719.045	3768
719.161	3267
719.277	3900
719.394	4286
719.510	4253
719.626	2921
719.743	5190
719.859	8067
719.975	16141
720.092	73649
720.208	188285
720.324	19319
720.440	4802
720.557	5047
720.673	7397
720.789	6859
720.905	10811
721.021	4133
721.137	3013
721.253	3338
721.369	2241
721.486	2833
721.602	4242
721.718	2913
721.834	3356
721.950	3518
722.066	3130
722.181	2385
722.297	2714
722.413	3498
722.529	2948
722.645	2423
722.761	2498
722.877	2034
722.993	3033
723.108	4014
723.224	3724
723.340	2735
723.456	3240
723.571	3318
723.687	1936
723.803	2471
723.918	2422
724.034	2114
724.150	2064
724.265	3232
724.381	4253
724.497	5198
724.612	2171
724.728	2037
724.843	1610
724.959	2776
725.074	4065
725.190	5395
725.305	2374
725.421	2488
725.536	1684
725.651	3298
725.767	2856
725.882	2484
725.997	2316
726.113	3106
726.228	2495
726.343	2175
726.459	1282
726.574	1660
726.689	2539
726.804	2320
726.920	2493
727.035	2888
727.150	2613
727.265	1632
727.380	2062
727.495	3571
727.610	2640
727.725	3009
727.841	3694
727.956	6775
728.071	5369
728.186	2424
728.301	2110
728.416	2370
728.531	3076
728.645	2662
728.760	4037
728.875	4255
728.990	3782
729.105	3059
729.220	3028
729.335	2596
729.449	2321
729.564	2003
729.679	1343
729.794	2495
729.908	2428
730.023	2106
730.138	2206
730.253	1945
730.367	1523
730.482	2343
730.596	2458
730.711	2694
730.826	3865
730.940	3831
731.055	2958
731.169	2914
731.284	2457
731.398	2015
731.513	2144
731.627	2088
731.742	3027
731.856	3122
731.970	3442
732.085	3973
732.199	5207
732.313	9162
732.428	25597
732.542	89625
732.656	55229
732.771	6751
732.885	4299
732.999	3427
733.113	3525
733.227	2733
733.342	2912
733.456	3207
733.570	2262
733.684	2359
733.798	3328
733.912	2873
734.026	1862
734.140	2805
734.254	2250
734.368	3498
734.482	4068
734.596	2126
734.710	2657
734.824	3520
734.938	1694
735.052	2920
735.166	2955
735.280	2134
735.393	2098
735.507	2382
735.621	2682
735.735	3534
735.849	3175
735.962	2708
736.076	2313
736.190	2481
736.303	2997
736.417	4307
736.531	2529
736.644	2481
736.758	1179
736.872	2012
736.985	2011
737.099	1624
737.212	1975
737.326	3290
737.439	2576
737.553	2477
737.666	2021
737.780	2350
737.893	1842
738.007	2191
738.120	1810
738.233	1854
738.347	2249
738.460	2092
738.573	2335
738.687	1942
738.800	1609
738.913	2488
739.026	2812
739.140	2046
739.253	2282
739.366	1951
739.479	2864
739.592	1797
739.705	1991
739.818	2199
739.932	1304
740.045	2580
740.158	2041
740.271	2270
740.384	2017
740.497	3148
740.610	3382
740.723	2380
740.836	2604
740.949	3718
741.062	3809
741.174	2891
741.287	2113
741.400	2503
741.513	2166
741.626	3571
741.739	2938
741.851	2435
741.964	2708
742.077	1725
742.189	2378
742.302	4013
742.415	3011
742.527	2423
742.640	1896
742.753	1904
742.865	1495
742.978	1341
743.090	1594
743.203	1753
743.316	1694
743.428	1424
743.541	663
743.653	917
743.766	1205
743.878	1942
743.990	1143
744.103	1758
744.215	2299
744.327	1383
744.440	2701
744.552	3401
744.664	1925
744.777	1019
744.889	688
745.001	1771
745.113	1219
745.226	955
745.338	1484
745.450	1119
745.562	1848
745.674	1506
745.786	1309
745.898	1594
746.010	1388
746.122	1573
746.234	2007
746.347	799
746.459	1200
746.570	1841
746.682	1827
746.794	3034
746.906	2047
747.018	706
747.130	792
747.242	1276
747.354	1031
747.466	2138
747.577	1662
747.689	485
747.801	1387
747.913	586
748.024	1419
748.136	790
748.248	528
748.359	702
748.471	1524
748.583	-80
748.694	671
748.806	1841
748.918	291
749.029	1034
749.141	1982
749.252	1654
749.364	2202
749.475	3245
749.587	2176
749.698	933
749.809	1343
749.921	1024
750.032	1606
750.144	750
750.255	817
750.366	970
750.478	418
750.589	581
750.700	300
750.811	633
750.923	2378
751.034	4006
751.145	5215
751.256	463
751.367	889
751.479	255
751.590	617
751.701	727
751.812	1182
751.923	1139
752.034	1132
752.145	1215
752.256	954
752.367	952
752.478	341
752.589	645
752.700	1061
752.811	58
752.922	382
753.032	464
753.143	2138
753.254	335
753.365	907
753.476	1966
753.586	480
753.697	331
753.808	1203
753.919	-28
754.029	68
754.140	666
754.251	401
754.361	1250
754.472	573
754.582	1213
754.693	1257
754.804	1354
754.914	920
755.025	73
755.135	-141
755.246	825
755.356	511
755.466	1453
755.577	1250
755.687	419
755.798	839
755.908	798
756.018	-41
756.129	732
756.239	199
756.349	1274
756.460	833
756.570	1239
756.680	1049
756.790	712
756.900	1193
757.011	852
757.121	555
757.231	1077
757.341	699
757.451	1148
757.561	361
757.671	901
757.781	306
757.891	1032
758.001	815
758.111	772
758.221	1212
758.331	1238
758.441	1528
758.551	1285
758.661	1339
758.771	1725
758.880	919
758.990	740
759.100	407
759.210	389
759.320	646
759.429	695
759.539	1391
759.649	1652
759.758	1433
759.868	2467
759.978	1174
760.087	1590
760.197	1284
760.307	1327
760.416	838
760.526	1056
760.635	1654
760.745	1157
760.854	1690
760.964	1603
761.073	2175
761.182	1843
761.292	1546
761.401	1221
761.511	1268
761.620	1124
761.729	326
761.839	1070
761.948	2078
762.057	228
762.166	1468
762.276	76
762.385	2006
762.494	1481
762.603	977
762.712	1047
762.822	780
762.931	926
763.040	585
763.149	857
763.258	452
763.367	1537
763.476	678
763.585	805
763.694	1133
763.803	820
763.912	1305
764.021	2096
764.130	1453
764.238	1012
764.347	1264
764.456	810
764.565	1798
764.674	1998
764.783	1278
764.891	513
765.000	1945
765.109	2223
765.217	1853
765.326	2239
765.435	2664
765.543	3689
765.652	3930
765.761	4938
765.869	7657
765.978	13095
766.086	22844
766.195	46878
766.303	122258
766.412	336521
766.520	287149
766.629	77601
766.737	27652
766.846	15331
766.954	9338
767.062	8606
767.171	6322
767.279	5069
767.387	3837
767.496	3361
767.604	2816
767.712	1960
767.820	1375
767.928	2252
768.037	1193
768.145	2238
768.253	2088
768.361	1487
768.469	1988
768.577	2431
768.685	2247
768.793	2491
768.901	1673
769.009	2397
769.117	2579
769.225	3004
769.333	5269
769.441	9006
769.549	17013
769.657	41173
769.765	139453
769.873	289601
769.981	102919
770.088	20935
770.196	9522
770.304	7798
770.412	4203
770.519	4103
770.627	2646
770.735	1982
770.842	1702
770.950	1439
771.058	952
771.165	2213
771.273	1108
771.380	1830
771.488	1440
771.595	803
771.703	1044
771.810	1019
771.918	1649
772.025	1522
772.133	975
772.240	1208
772.348	1844
772.455	1766
772.562	921
772.670	671
772.777	2176
772.884	323
772.991	876
773.099	1413
773.206	1937
773.313	1553
773.420	1474
773.528	749
773.635	1365
773.742	1906
773.849	1073
773.956	571
774.063	1014
774.170	1317
774.277	734
774.384	1366
774.491	920
774.598	991
774.705	1086
774.812	1583
774.919	1121
775.026	1177
775.133	1274
775.239	744
775.346	899
775.453	1209
775.560	992
775.667	427
775.773	353
775.880	812
775.987	728
776.093	996
776.200	30
776.307	112
776.413	726
776.520	922
776.627	981
776.733	852
776.840	425
776.946	2751
777.053	2090
777.159	5079
777.266	990
777.372	3565
777.478	3367
777.585	2401
777.691	930
777.798	1511
777.904	2116
778.010	2462
778.117	1476
778.223	286
778.329	299
778.435	755
778.542	716
778.648	712
778.754	272
778.860	642
778.966	169
779.072	380
779.178	-173
779.284	654
779.391	-326
779.497	-1042
779.603	2333
779.708	-323
779.815	2654
779.920	6039
780.026	11241
780.132	1334
780.238	261
780.344	660
780.450	741
780.556	134
780.661	-357
780.767	641
780.873	698
780.979	255
781.085	-231
781.190	756
781.296	523
781.402	582
781.507	29
781.613	989
781.719	-260
781.824	275
781.930	1355
782.035	461
782.141	576
782.246	184
782.352	-164
782.457	78
782.563	1014
782.668	45
782.773	-7
782.879	-309
782.984	675
783.090	382
783.195	1916
783.300	1636
783.405	566
783.511	-312
783.616	1244
783.721	513
783.826	675
783.932	848
784.037	574
784.142	1372
784.247	482
784.352	47
784.457	941
784.562	895
784.667	707
784.772	320
784.877	300
784.982	843
785.087	159
785.192	315
785.297	620
785.402	49
785.507	235
785.611	667
785.716	564
785.821	-302
785.926	-546
786.031	-407
786.135	201
786.240	1252
786.345	-871
786.450	789
786.554	50
786.659	-581
786.763	-889
786.868	1013
786.973	1500
787.077	303
787.182	577
787.286	1128
787.391	-223
787.495	-669
787.600	257
787.704	-24
787.809	402
787.913	-709
788.017	255
788.122	-63
788.226	-173
788.330	61
788.435	91
788.539	290
788.643	12
788.747	-176
788.852	542
788.956	-530
789.060	214
789.164	13
789.268	-733
789.372	-44
789.476	650
789.580	-82
789.684	84
789.788	-86
789.892	-735
789.996	1037
790.100	-335
790.204	658
790.308	-439
790.412	-461
790.516	120
790.620	-634
790.724	338
790.828	483
790.931	25
791.035	1793
791.139	590
791.242	-970
791.346	170
791.450	165
791.554	101
791.657	-1100
791.761	493
791.864	613
791.968	-326
792.072	-462
792.175	-29
792.279	-283
792.382	-329
792.486	575
792.589	-452
792.693	540
792.796	-486
792.899	419
793.003	511
793.106	-1279
793.209	1111
793.313	1503
793.416	-665
793.519	1995
793.623	1149
793.726	1727
793.829	-179
793.932	884
794.035	-1142
794.138	1674
794.242	614
794.345	-55
794.448	994
794.551	1055
794.654	3835
794.757	5610
794.860	849
794.963	265
795.066	-665
795.169	939
795.272	-119
795.375	-71
795.477	-1054
795.580	856
795.683	-1366
795.786	-106
795.889	-1198
795.991	530
796.094	416
796.197	-1213
796.300	439
796.402	-469
796.505	-658
796.608	-615
796.710	750
796.813	243
796.915	96
797.018	114
797.120	-98
797.223	-1384
797.326	685
797.428	-554
797.530	96
797.633	-252
797.735	121
797.838	385
797.940	1437
798.042	-212
798.145	-878
798.247	184
798.349	-1936
798.452	787
798.554	-23
798.656	-1681
798.758	831
798.860	-332
798.962	-277
799.065	-1073
799.167	-431
799.269	696
799.371	485
799.473	436
799.575	-1269
799.677	-92
799.779	1360
799.881	-309
799.983	-473
800.085	-261
800.187	233
800.289	-541
800.390	533
800.492	681
800.594	750
800.696	-985
800.798	-3
800.899	-775
801.001	-1312
801.103	-1
801.205	38
801.306	-136
801.408	-659
801.509	-129
801.611	-116
801.713	229
801.814	-161
801.916	-127
802.017	38
802.119	-794
802.220	175
802.322	-2441
802.423	1092
802.525	-1978
802.626	-10
802.727	-292
802.829	521
802.930	-2454
803.031	698
803.133	-245
803.234	-225
803.335	222
803.436	-835
803.538	-288
803.639	-1752
803.740	233
803.841	-856
803.942	68
804.043	450
804.144	-505
804.245	19
804.346	-1393
804.447	-950
804.548	73
804.649	752
804.750	-629
804.851	87
804.952	-176
805.053	-697
805.154	-1206
805.255	390
805.355	-1154
805.456	-161
805.557	-356
805.658	-2082
805.758	649
805.859	262
805.960	-1000
806.061	-1064
806.161	-796
806.262	607
806.362	-889
806.463	-307
806.564	-163
806.664	-193
806.765	290
806.865	361
806.966	-1091
807.066	-906
807.166	-484
807.267	646
807.367	-863
807.468	674
807.568	-1411
807.668	89
807.769	204
807.869	-1218
807.969	-562
808.069	-640
808.170	298
808.270	-693
808.370	-912
808.470	-263
808.570	-1145
808.670	-743
808.770	-130
808.870	-418
808.970	-433
809.070	-600
809.170	-670
809.271	446
809.370	-109
809.470	63
809.570	-1297
809.670	-974
809.770	-215
809.870	-154
809.970	-870
810.070	-239
810.169	-151
810.269	-1426
810.369	414
810.469	-353
810.568	-1478
810.668	-1269
810.768	-730
810.867	-297
810.967	-663
811.066	-1037
811.166	-808
811.265	-806
811.365	-796
811.464	-1257
811.564	99
811.663	-363
811.763	-1869
811.862	-775
811.962	388
812.061	-525
812.160	-928
812.260	-296
812.359	-101
812.458	-1032
812.557	463
812.657	-882
812.756	2
812.855	-859
812.954	-659
813.053	11
813.153	76
813.252	-373
813.351	27
813.450	-1109
813.549	-973
813.648	-711
813.747	-911
813.846	-183
813.945	-1086
814.044	-828
814.143	-665
814.242	526
814.341	-1275
814.439	-496
814.538	88
814.637	-824
814.736	-997
814.835	329
814.933	-664
815.032	340
815.131	-627
815.229	-543
815.328	119
815.427	418
815.525	14
815.624	343
815.722	-528
815.821	170
815.919	34
816.018	-474
816.116	795
816.215	261
816.313	-164
816.412	710
816.510	159
816.609	2195
816.707	292
816.805	727
816.904	-99
817.002	1501
817.100	1958
817.198	1935
817.296	984
817.395	2121
817.493	2845
817.591	2299
817.689	4295
817.787	6162
817.885	10284
817.983	21730
818.081	46853
818.179	120464
818.277	319535
818.375	276255
818.473	63898
818.571	22939
818.669	13952
818.767	11971
818.865	12088
818.963	15254
819.061	23864
819.158	41921
819.256	94479
819.354	228722
819.452	518469
819.549	341483
819.647	84392
819.745	32229
819.842	18246
819.940	12327
820.038	7549
820.135	6605
820.233	6425
820.330	3542
820.428	2861
820.525	4372
820.623	2818
820.720	2010
820.818	1429
820.915	1543
821.012	1315
821.110	-6
821.207	1769
821.304	371
821.402	1125
821.499	1340
821.596	2154
821.693	1232
821.791	1488
821.888	1434
821.985	3277
822.082	2233
822.179	1716
822.276	823
822.373	1054
822.470	491
822.567	616
822.664	-413
822.761	730
822.858	-241
822.955	559
823.052	5
823.149	-443
823.246	399
823.343	82
823.440	64
823.536	-179
823.633	-505
823.730	-469
823.827	323
823.923	706
824.020	170
824.117	-279
824.213	-579
824.310	552
824.407	310
824.503	353
824.600	143
824.696	-833
824.793	193
824.889	-861
824.986	-127
825.082	-588
825.179	247
825.275	-1024
825.371	-986
825.468	147
825.564	-897
825.660	-118
825.757	11
825.853	821
825.949	-1012
826.045	433
826.142	-309
826.238	-324
826.334	281
826.430	-1200
826.526	-57
826.622	-790
826.718	-497
826.814	-837
826.910	506
827.006	-1016
827.102	-574
827.198	71
827.294	-762
827.390	599
827.486	550
827.582	-992
827.678	-793
827.774	-1170
827.869	-1312
827.965	500
828.061	-1474
828.157	-264
828.252	-414
828.348	-648
828.444	516
828.539	-783
828.635	-709
828.731	631
828.826	-1327
828.922	-984
829.017	-800
829.113	301
829.208	-637
829.304	-1651
829.399	666
829.495	-563
829.590	-101
829.685	-1402
829.781	-842
829.876	-836
829.971	-538
830.066	-179
830.162	-868
830.257	-1044
830.352	-1496
830.447	-40
830.543	-870
830.638	-1521
830.733	673
830.828	181
830.923	-422
831.018	-1269
831.113	-389
831.208	-1446
831.303	-1061
831.398	-641
831.493	-591
831.588	-274
831.683	-1304
831.778	-594
831.873	-647
831.967	725
832.062	-1206
832.157	-1703
832.252	360
832.346	-920
832.441	-37
832.536	-148
832.631	1448
832.725	1109
832.820	-227
832.914	-969
833.009	-621
833.104	-146
833.198	542
833.293	-476
833.387	-488
833.482	-734
833.576	-647
833.670	759
833.765	-1105
833.859	-1159
833.954	-445
834.048	-99
834.142	-274
834.237	-888
834.331	-1581
834.425	-106
834.519	-1228
834.613	-548
834.708	-456
834.802	-1030
834.896	-1657
834.990	-567
835.084	-678
835.178	-549
835.272	-999
835.366	-1323
835.460	-564
835.554	282
835.648	-355
835.742	-1201
835.836	-917
835.930	-1356
836.024	-918
836.117	618
836.211	-813
836.305	-645
836.399	-88
836.493	-1712
836.586	-398
836.680	-1041
836.774	-860
836.867	-562
836.961	-1049
837.055	-1247
837.148	-686
837.242	-160
837.335	-1172
837.429	-883
837.522	-1127
837.616	-1143
837.709	-274
837.803	-1317
837.896	-281
837.989	-1375
838.083	-303
838.176	-355
838.269	-941
838.363	-145
838.456	-448
838.549	-173
838.642	-353
838.735	1635
838.829	794
838.922	-1360
839.015	-306
839.108	-1363
839.201	-548
839.294	-705
839.387	-307
839.480	-1941
839.573	-1039
839.666	-1355
839.759	-951
839.852	-774
839.945	-324
840.038	-743
840.131	-1402
840.223	-1390
840.316	-576
840.409	-424
840.502	-807
840.594	-188
840.687	-1636
840.780	-441
840.873	-1005
840.965	-1203
841.058	-269
841.150	99
841.243	-1936
841.336	-593
841.428	-1484
841.521	-985
841.613	-1376
841.706	-1290
841.798	-1012
841.890	-457
841.983	-1155
842.075	-442
842.167	-558
842.260	-756
842.352	-397
842.444	-914
842.537	-23
842.629	368
842.721	-1344
842.813	-606
842.905	-1369
842.997	-1451
843.090	-1074
843.182	-458
843.274	-1399
843.366	1206
843.458	1585
843.550	533
843.642	-859
843.734	-1168
843.826	-1553
843.918	-1431
844.009	-87
844.101	-1012
844.193	-491
844.285	-1361
844.377	-325
844.469	412
844.560	-919
844.652	611
844.744	-174
844.835	-873
844.927	-1441
845.019	-1119
845.110	-1390
845.202	-1117
845.293	-696
845.385	-1712
845.476	-1393
845.568	-66
845.659	-889
845.751	-511
845.842	-1486
845.934	-818
846.025	-1111
846.116	-713
846.208	-818
846.299	-578
846.390	-591
846.482	-691
846.573	-322
846.664	-1192
846.755	-476
846.846	-698
846.937	-2312
847.029	-2375
847.120	-1097
847.211	-1270
847.302	-711
847.393	-1970
847.484	134
847.575	-1410
847.666	-1003
847.757	-1462
847.847	-1530
847.938	227
848.029	-1534
848.120	-1377
848.211	-750
848.302	-1667
848.392	-1434
848.483	-865
848.574	-904
848.664	-1621
848.755	-89
848.846	-588
848.936	-1248
849.027	-793
849.118	-691
849.208	-794
849.299	658
849.389	1691
849.480	3814
849.570	10737
849.661	21227
849.751	41318
849.841	14088
849.932	830
850.022	-884
850.112	-483
850.203	-715
850.293	-863
850.383	-37
850.474	-1137
850.564	-887
850.654	-701
850.744	-1130
850.834	-696
850.924	-637
851.014	-1538
851.104	-767
851.194	-746
851.284	-951
851.374	-270
851.464	-406
851.554	123
851.644	-1038
851.734	-590
851.824	-719
851.914	-477
852.004	122
852.094	-1335
852.183	-1395
852.273	-63
852.363	-776
852.452	-854
852.542	-1132
852.632	-2090
852.721	-201
852.811	-1331
852.901	-76
852.990	-436
853.080	-489
853.169	-997
853.259	237
853.348	-689
853.438	1002
853.527	1842
853.617	1824
853.706	7232
853.795	14236
853.885	37169
853.974	72858
854.063	132718
854.152	224638
854.242	84399
854.331	10929
854.420	2755
854.509	2393
854.598	1526
854.687	601
854.777	449
854.866	146
854.955	-107
855.044	-616
855.133	-315
855.222	-109
855.311	-324
855.400	-887
855.488	-1137
855.577	-1267
855.666	-384
855.755	480
855.844	-647
855.933	-208
856.021	-1622
856.110	-799
856.199	-1771
856.288	-1017
856.376	-1187
856.465	-974
856.554	-751
856.642	-1056
856.731	-710
856.819	-170
856.908	-1210
856.996	-1143
857.085	-1707
857.173	-672
857.262	-1166
857.350	-808
857.438	-382
857.527	-845
857.615	-1121
857.703	-121
857.792	-1384
857.880	-856
857.968	-872
858.056	-994
858.145	-335
858.233	-1417
858.321	-1676
858.409	-707
858.497	-1104
858.585	-1179
858.673	-160
858.761	-1095
858.849	-1028
858.937	-1765
859.025	-1149
859.113	-1236
859.201	-2331
859.289	-449
859.377	-618
859.465	-403
859.552	-1517
859.640	-1631
859.728	-911
859.816	-711
859.903	-575
859.991	-2228
860.079	-573
860.166	-1411
860.254	-972
860.342	-974
860.429	-843
860.517	-1727
860.604	-671
860.692	-927
860.779	-1153
860.867	-807
860.954	-1638
861.042	-774
861.129	-1366
861.216	-1044
861.304	-1046
861.391	-1342
861.478	-1004
861.565	-885
861.653	868
861.740	-1896
861.827	-1724
861.914	-1143
862.001	-1330
862.089	-592
862.176	-1192
862.263	-2289
862.350	-1208
862.437	-827
862.524	-1533
862.611	-1160
862.698	-264
862.785	-778
862.871	-903
862.958	-977
863.045	-917
863.132	-1438
863.219	-168
863.306	-2000
863.392	-510
863.479	-1079
863.566	-1378
863.652	-1468
863.739	-1369
863.826	-729
863.912	-814
863.999	-1446
864.086	-373
864.172	-1597
864.259	-1402
864.345	-1723
864.432	-486
864.518	-752
864.604	-1383
864.691	-951
864.777	-87
864.863	-167
864.950	49
865.036	-1325
865.122	321
865.209	257
865.295	420
865.381	747
865.467	924
865.553	534
865.639	2694
865.726	6547
865.812	16044
865.898	35345
865.984	54122
866.070	101821
866.156	118032
866.242	28910
866.328	4351
866.414	1218
866.499	902
866.585	571
866.671	139
866.757	428
866.843	-230
866.928	-412
867.014	-612
867.100	154
867.186	-729
867.271	-2
867.357	-339
867.442	-612
867.528	-1229
867.614	-303
867.699	-102
867.785	97
867.870	363
867.956	315
868.041	683
868.127	-1310
868.212	162
868.297	-184
868.383	-234
868.468	184
868.553	381
868.639	670
868.724	1875
868.809	1743
868.894	-786
868.979	-1078
869.065	-47
869.150	-1044
869.235	-461
869.320	-1329
869.405	-435
869.490	-1972
869.575	-814
869.660	-2126
869.745	-238
869.830	-953
869.915	-688
870.000	-771
870.085	-845
870.169	5
870.254	-884
870.339	-978
870.424	-1425
870.509	-482
870.593	547
870.678	-740
870.763	-546
870.847	-537
870.932	-1152
871.016	-554
871.101	-903
871.186	-646
871.270	-399
871.355	-2291
871.439	-803
871.523	-1191
871.608	-1016
871.692	-667
871.777	-766
871.861	-631
871.945	-1514
872.030	-325
872.114	-717
872.198	-1321
872.282	-944
872.367	-998
872.451	-841
872.535	-1561
872.619	-1244
872.703	-780
872.787	-1054
872.871	-844
872.955	-352
873.039	-1538
873.123	-1081
873.207	-322
873.291	-1301
873.375	-1014
873.459	-427
873.543	-986
873.627	-965
873.711	-1275
873.794	-405
873.878	-795
873.962	-1390
874.045	-1197
874.129	-605
874.137	-580
874.213	-338
874.245	-806
874.296	-1558
874.352	-1136
874.380	-929
874.460	-1215
874.464	-1228
874.547	-340
874.568	-295
874.631	-163
874.676	-740
874.714	-1226
874.784	-470
874.798	-317
874.881	450
874.892	286
874.965	-839
874.999	-682
875.048	-491
875.107	-808
875.131	-941
875.215	-834
875.215	-833
875.298	-131
875.323	-289
875.381	-617
875.430	-513
875.465	-450
875.538	-839
875.548	-908
875.631	-854
875.646	-939
875.714	-1214
875.753	-1022
875.798	-846
875.861	-999
875.881	-1020
875.964	-259
875.968	-270
876.047	-540
876.076	-593
876.130	-736
876.183	-895
876.213	-918
876.291	-37
876.296	14
876.379	-459
876.398	-511
876.462	-672
876.506	-682
876.545	-731
876.613	-596
876.628	-526
876.711	-175
876.721	-145
876.794	-47
876.828	-400
876.877	-936
876.935	-629
876.960	-458
877.043	-86
877.043	-87
877.125	-447
877.150	-328
877.208	126
877.258	447
877.291	613
877.365	614
877.374	608
877.456	646
877.472	568
877.539	336
877.579	428
877.622	446
877.687	166
877.704	68
877.787	620
877.794	501
877.869	-386
877.901	-134
877.952	29
878.008	-77
878.034	-29
878.115	-78
878.117	-84
878.199	-778
878.222	-655
878.282	-139
878.329	-36
878.364	-75
878.437	43
878.447	75
878.529	-808
878.544	-709
878.611	-351
878.651	-387
878.694	-289
878.758	-494
878.776	-584
878.858	-810
878.865	-786
878.941	-510
878.972	-573
879.023	-549
879.078	-270
879.105	-172
879.185	361
879.187	370
879.269	-449
879.292	-628
879.351	-926
879.399	-804
879.433	-786
879.506	-277
879.516	-200
879.598	-636
879.613	-578
879.680	-282
879.720	-51
879.762	31
879.827	-576
879.844	-676
879.926	-615
879.933	-592
880.007	-102
880.040	-97
880.089	-453
880.147	-309
880.171	-66
880.253	851
880.254	854
880.335	1058
880.360	1268
880.417	2161
880.467	3417
880.499	4251
880.574	5362
880.580	5338
880.662	1475
880.680	958
880.744	-276
880.787	-306
880.825	-226
880.893	-391
880.907	-463
880.989	-100
881.000	-189
881.070	-450
881.106	-313
881.152	-462
881.213	-927
881.233	-844
881.315	-739
881.319	-691
881.396	-220
881.426	-304
881.478	-679
881.532	-505
881.559	-232
881.639	-182
881.641	-189
881.722	-601
881.745	-611
881.803	-512
881.852	-568
881.885	-616
881.958	-514
881.966	-510
882.047	-728
882.064	-613
882.129	-113
882.171	-377
882.210	-431
882.277	-105
882.291	-82
882.372	79
882.383	-4
882.454	-413
882.489	-313
882.535	-269
882.596	-143
882.616	-164
882.697	-121
882.702	-143
882.778	-67
882.808	-82
882.859	-226
882.914	-6
882.940	168
883.020	-189
883.021	-192
883.102	-105
883.127	-247
883.183	-128
883.233	31
883.264	-145
883.339	-681
883.345	-680
883.426	-413
883.445	-356
883.507	-309
883.551	-362
883.587	-278
883.657	-142
883.668	-163
883.749	-432
883.763	-440
883.830	-542
883.869	-483
883.910	-264
883.975	-458
883.991	-487
884.072	-247
884.081	-246
884.152	-335
884.187	-261
884.233	-169
884.292	-427
884.314	-542
884.394	-726
884.398	-725
884.475	-3
884.504	236
884.555	20
884.610	-582
884.636	-681
884.716	-314
884.716	-307
884.797	289
884.821	246
884.877	12
884.927	63
884.958	-77
885.033	-523
885.038	-492
885.118	233
885.139	311
885.199	-151
885.244	-461
885.279	-405
885.350	-80
885.359	-55
885.439	14
885.456	-18
885.520	-43
885.561	58
885.600	-119
885.667	-526
885.680	-463
885.760	12
885.773	66
885.840	261
885.878	390
885.920	397
885.984	252
886.000	239
886.080	325
886.089	321
886.160	368
886.195	459
886.240	173
886.300	-392
886.320	-321
886.400	-22
886.406	1
886.480	-238
886.511	-364
886.560	-78
886.616	102
886.640	76
886.720	334
886.722	328
886.800	342
886.827	435
886.879	-44
886.932	-672
886.959	-353
887.038	768
887.039	765
887.119	-170
887.143	-413
887.198	155
887.248	678
887.278	449
887.354	-245
887.358	-240
887.437	-111
887.459	-126
887.517	207
887.564	578
887.596	436
887.669	-65
887.676	-60
887.755	-18
887.774	14
887.835	312
887.880	484
887.914	186
887.985	-417
887.994	-420
888.073	-565
888.090	-577
888.153	-409
888.195	-332
888.232	53
888.300	834
888.311	683
888.391	-471
888.405	-687
888.470	-116
888.510	205
888.549	197
888.615	269
888.628	266
888.708	118
888.720	104
888.787	49
888.825	-39
888.866	-23
888.930	87
888.945	131
889.024	280
889.035	302
889.103	623
889.140	786
889.182	689
889.245	507
889.261	520
889.340	610
889.349	616
889.419	102
889.454	-157
889.498	80
889.559	411
889.577	336
889.656	3
889.664	-29
889.735	234
889.768	360
889.814	215
889.873	22
889.978	388
890.083	-104
890.187	-169
890.292	439
890.397	1005
890.501	582
890.606	863
890.710	-151
890.815	-378
890.919	829
891.024	200
891.128	-15
891.233	126
891.337	861
891.442	172
891.546	380
891.650	665
891.755	-75
891.859	2047
891.963	595
892.068	91
892.172	802
892.276	72
892.380	293
892.484	432
892.589	168
892.693	436
892.797	-298
892.901	47
893.005	207
893.109	97
893.213	369
893.317	-94
893.421	-128
893.525	76
893.629	-132
893.733	962
893.837	1171
893.941	631
894.045	-166
894.148	324
894.252	-119
894.356	447
894.460	176
894.564	96
894.667	-257
894.771	-45
894.875	-221
894.978	-310
895.082	-97
895.186	-12
895.289	648
895.393	368
895.496	695
895.600	-450
895.703	-424
895.807	214
895.910	169
896.014	351
896.117	380
896.221	-16
896.324	-137
896.427	650
896.531	181
896.634	172
896.737	439
896.840	-206
896.944	-747
897.047	568
897.150	-378
897.253	-846
897.356	293
897.460	-516
897.563	-893
897.666	586
897.769	-1174
897.872	-405
897.975	155
898.078	-784
898.181	322
898.284	-70
898.387	243
898.490	848
898.593	831
898.695	-325
898.798	10
898.901	492
899.004	-96
899.107	-480
899.209	-34
899.312	486
899.415	-777
899.518	210
899.620	298
899.723	631
899.826	646
899.928	76
900.031	521
900.133	-257
900.236	-214
900.338	-403
900.441	-438
900.543	398
900.646	726
900.748	-627
900.851	6
900.953	-357
901.055	-1001
901.158	-430
901.260	218
901.362	181
901.465	-1283
901.567	-155
901.669	802
901.771	-461
901.873	415
901.976	-545
902.078	-201
902.180	-113
902.282	-793
902.384	-18
902.486	-853
902.588	-1171
902.690	-946
902.792	121
902.894	106
902.996	-802
903.098	-159
903.200	168
903.302	771
903.404	-487
903.505	-870
903.607	989
903.709	-396
903.811	710
903.913	-472
904.014	-57
904.116	-797
904.218	58
904.319	-87
904.421	-19
904.523	23
904.624	-340
904.726	-191
904.827	-671
904.929	-393
905.030	509
905.132	-642
905.233	-7
905.335	-1127
905.436	-329
905.537	-702
905.639	115
905.740	-343
905.841	433
905.943	-666
906.044	395
906.145	438
906.247	-764
906.348	506
906.449	377
906.550	-673
906.651	-33
906.752	-366
906.854	-302
906.955	-579
907.056	-659
907.157	-1130
907.258	69
907.359	-248
907.460	-415
907.561	-197
907.662	-742
907.762	862
907.863	-459
907.964	-495
908.065	216
908.166	-274
908.267	411
908.367	-886
908.468	-223
908.569	-72
908.670	102
908.770	162
908.871	218
908.971	-630
909.072	-818
909.173	-493
909.273	-844
909.374	-295
909.474	-361
909.575	-762
909.675	-952
909.776	-367
909.876	-451
909.977	-146
910.077	513
910.177	-692
910.278	-295
910.378	-858
910.478	-559
910.579	-715
910.679	124
910.779	-128
910.879	229
910.980	-802
911.080	-667
911.180	133
911.280	-583
911.380	-1100
911.480	-629
911.580	-418
911.680	-287
911.780	-455
911.880	-554
911.980	-579
912.080	-484
912.180	-339
912.280	-223
912.380	-750
912.480	-544
912.580	-476
912.679	-336
912.779	-485
912.879	-389
912.979	-192
913.078	-639
913.178	-881
913.278	-536
913.377	-69
913.477	-266
913.577	-684
913.676	-145
913.776	-120
913.875	-246
913.975	335
914.074	-641
914.174	-553
914.273	-752
914.373	-108
914.472	-347
914.572	-449
914.671	-914
914.770	-424
914.870	-625
914.969	-390
915.068	-1106
915.167	-61
915.267	-751
915.366	-839
915.465	-99
915.564	-541
915.663	188
915.763	-611
915.862	-295
915.961	-205
916.060	-639
916.159	-883
916.258	-894
916.357	-726
916.456	726
916.555	-1186
916.654	195
916.752	-668
916.851	-71
916.950	-868
917.049	-875
917.148	-731
917.247	311
917.345	-387
917.444	24
917.543	-716
917.642	-133
917.740	-1275
917.839	-1114
917.937	-343
918.036	-651
918.135	-438
918.233	-547
918.332	-621
918.430	-630
918.529	-256
918.627	-694
918.726	-909
918.824	-476
918.923	-741
919.021	-290
919.119	-922
919.218	-332
919.316	-759
919.414	-820
919.512	-1957
919.611	-54
919.709	-1108
919.807	-359
919.905	-498
920.003	29
920.102	-1179
920.200	-879
920.298	-67
920.396	465
920.494	-841
920.592	-3
920.690	-618
920.788	740
920.886	-704
920.984	-225
921.082	-1710
921.180	318
921.277	-691
921.375	-90
921.473	-726
921.571	-707
921.669	-992
921.766	-912
921.864	-1141
921.962	181
922.060	-1137
922.157	-464
922.255	-691
922.352	-362
922.450	187
922.548	-539
922.645	-105
922.743	173
922.840	154
922.938	176
923.035	-218
923.133	554
923.230	249
923.327	-27
923.425	759
923.522	971
923.619	-347
923.717	-437
923.814	-471
923.911	503
924.008	-327
924.106	274
924.203	-310
924.300	-32
924.397	-249
924.494	400
924.591	164
924.688	-213
924.786	-224
924.883	371
924.979	-492
925.077	958
925.173	240
925.270	423
925.367	-140
925.464	420
925.561	48
925.658	315
925.755	165
925.852	-167
925.948	-549
926.045	519
926.142	-615
926.239	328
926.335	-518
926.432	734
926.529	726
926.625	291
926.722	481
926.818	531
926.915	-231
927.011	-630
927.108	-334
927.204	91
927.301	-898
927.397	-412
927.494	313
927.590	-801
927.687	436
927.783	-4
927.879	-552
927.976	54
928.072	-563
928.168	-245
928.264	-411
928.361	-72
928.457	246
928.553	96
928.649	-453
928.745	302
928.841	90
928.937	240
929.033	-993
929.129	-614
929.225	-1156
929.321	-37
929.417	107
929.513	249
929.609	-251
929.705	-452
929.801	113
929.897	-514
929.993	-126
930.089	-17
930.184	-188
930.280	-4
930.376	-428
930.471	-314
930.567	-994
930.663	-204
930.758	-1036
930.854	-333
930.950	-675
931.045	-176
931.141	70
931.236	-155
931.332	111
931.427	-225
931.523	-372
931.618	-336
931.714	-1357
931.809	-422
931.905	-141
932.000	-162
932.095	-69
932.191	179
932.286	-331
932.381	-691
932.476	-330
932.572	-287
932.667	-675
932.762	107
932.857	-1023
932.952	-408
933.047	-594
933.142	-193
933.237	-1080
933.332	-185
933.427	-332
933.522	-214
933.617	-482
933.712	244
933.807	67
933.902	-217
933.997	-702
934.092	-808
934.187	-926
934.282	-1577
934.376	-252
934.471	-389
934.566	-1036
934.661	-309
934.755	-527
934.850	24
934.945	-383
935.039	-362
935.134	-560
935.228	-15
935.323	-303
935.417	-398
935.512	-676
935.606	-1341
935.701	-162
935.795	-75
935.890	-218
935.984	-268
936.079	-959
936.173	324
936.267	-648
936.362	-546
936.456	-21
936.550	-310
936.644	-490
936.738	-358
936.833	-55
936.927	-239
937.021	-655
937.115	-390
937.209	-633
937.303	461
937.397	-644
937.491	-775
937.585	-426
937.679	-453
937.773	-149
937.867	-836
937.961	-542
938.055	-473
938.149	-377
938.243	-481
938.337	-663
938.430	462
938.524	514
938.618	-91
938.712	201
938.805	-324
938.899	-274
938.993	-316
939.086	-466
939.180	244
939.274	-115
939.367	229
939.461	-19
939.554	-665
939.648	-200
939.741	-992
939.835	-305
939.928	-315
940.022	100
940.115	-227
940.208	-12
940.302	-492
940.395	-241
940.488	-1406
940.582	-1064
940.675	-1183
940.768	-628
940.861	-225
940.954	-388
941.048	-1114
941.141	-227
941.234	-237
941.327	382
941.420	604
941.513	-1212
941.606	-693
941.699	168
941.792	-490
941.885	-893
941.978	94
942.071	-615
942.164	-383
942.257	-692
942.349	203
942.442	-5
942.535	-1123
942.628	-511
942.721	-307
942.813	-1579
942.906	384
942.999	-572
943.091	-1199
943.184	-539
943.277	-356
943.369	-457
943.462	-894
943.554	-940
943.647	-932
943.739	-189
943.832	-521
943.924	-1255
944.017	-5
944.109	-1790
944.201	-89
944.294	-829
944.386	-769
944.478	-1107
944.571	-888
944.663	-197
944.755	45
944.847	-653
944.940	-1032
945.032	-1924
945.124	-665
945.216	100
945.308	-909
945.400	-1017
945.492	-876
945.584	-1279
945.676	-844
945.768	64
945.860	-186
945.952	-1206
946.044	-261
946.136	-1220
946.228	-839
946.320	-1245
946.412	-728
946.503	-969
946.595	-496
946.687	-1063
946.779	-261
946.870	-456
946.962	-668
947.054	-682
947.145	-477
947.237	-1115
947.329	212
947.420	-629
947.512	-895
947.603	-685
947.695	-370
947.786	-1005
947.878	-1586
947.969	-17
948.061	-640
948.152	-717
948.243	-118
948.335	-1181
948.426	-1139
948.517	-437
948.609	-492
948.700	-974
948.791	-1397
948.882	-813
948.973	-1094
949.065	-1388
949.156	102
949.247	-1426
949.338	-989
949.429	-1237
949.520	-331
949.611	-690
949.702	-602
949.793	-427
949.884	-98
949.975	-594
950.066	-1012
950.157	-940
950.247	-1024
950.338	-694
950.429	-627
950.520	-1482
950.611	-912
950.701	-1240
950.792	-1101
950.883	-520
950.973	-567
951.064	-644
951.155	-464
951.245	-649
951.336	-174
951.427	-1560
951.517	-110
951.608	-710
951.698	-838
951.788	-1777
951.879	-1081
951.969	-1147
952.060	-492
952.150	-1249
952.240	629
952.331	-2233
952.421	-340
952.511	-1313
952.602	-305
952.692	-648
952.782	-300
952.872	-1301
952.962	-1026
953.052	-998
953.143	-1427
953.233	-547
953.323	-627
953.413	-1035
953.503	-1240
953.593	-863
953.683	-1033
953.773	-1646
953.863	-782
953.953	-446
954.042	-748
954.132	-327
954.222	-517
954.312	-1544
954.402	-1254
954.492	-55
954.581	-927
954.671	-1617
954.761	-1122
954.850	-763
954.940	-1583
955.030	-989
955.119	-1671
955.209	-1028
955.298	-858
955.388	-1171
955.477	-350
955.567	-2125
955.656	-671
955.746	-511
955.835	-854
955.925	-2224
956.014	-583
956.103	-218
956.193	-838
956.282	-485
956.371	78
956.461	-871
956.550	-700
956.639	-728
956.728	-730
956.817	-1345
956.906	-949
956.995	-676
957.085	-1539
957.174	-734
957.263	-616
957.352	-491
957.441	-941
957.530	-1018
957.619	-279
957.708	-1674
957.796	-716
957.885	-1090
957.974	-1783
958.063	-167
958.152	-1845
958.241	-1107
958.329	-687
958.418	-454
958.507	-1120
958.596	-273
958.684	-2280
958.773	-1206
958.861	-864
958.950	-831
959.039	-907
959.127	-566
959.216	-515
959.304	-981
959.393	-1052
959.481	-1533
959.570	-273
959.658	-1150
959.746	-1587
959.835	-1080
959.923	-232
960.011	-1096
960.100	126
960.188	-613
960.276	-861
960.365	-1914
960.453	-1404
960.541	-1635
960.629	-1275
960.717	-1275
960.805	-1566
960.893	-462
960.981	-1120
961.069	-859
961.158	-1649
961.245	235
961.333	-1139
961.421	-1349
961.509	-737
961.597	-707
961.685	-1133
961.773	-1458
961.861	-1579
961.949	76
962.036	-1317
962.124	-816
962.212	-1378
962.299	-1355
962.387	-1058
962.475	-971
962.562	-1612
962.650	-580
962.738	-126
962.825	-1820
962.913	-978
963.000	-1460
963.088	-1828
963.175	-1596
963.263	-1329
963.350	-673
963.438	-1261
963.525	-1687
963.612	-153
963.700	-1422
963.787	827
963.874	-1218
963.962	-1040
964.049	-1252
964.136	-1641
964.223	-1881
964.310	-1475
964.398	-1044
964.485	-1254
964.572	-1009
964.659	-864
964.746	-1627
964.833	-1065
964.920	-683
965.007	-1973
965.094	-551
965.181	-1326
965.268	-1622
965.355	-942
965.441	-1701
965.528	-2277
965.615	-528
965.702	-377
965.789	-1754
965.875	-737
965.962	-934
966.049	-1482
966.136	-926
966.222	-1994
966.309	-828
966.395	-1168
966.482	-931
966.569	-1123
966.655	-1364
966.742	-239
966.828	-1262
966.915	-993
967.001	-1281
967.087	-1756
967.174	-1302
967.260	-1136
967.347	-1784
967.433	-1752
967.519	-371
967.605	-153
967.692	-1178
967.778	-536
967.864	-1168
967.950	-1069
968.036	-2570
968.123	-1201
968.209	-1333
968.295	-2201
968.381	96
968.467	-694
968.553	-2327
968.639	-81
968.725	-2136
968.811	-1234
968.897	-1533
968.983	-1139
969.069	-1826
969.154	-632
969.240	-341
969.326	-1503
969.412	-708
969.497	-704
969.583	-1529
969.669	-488
969.755	-1580
969.840	-1474
969.926	-837
970.012	-1334
970.097	-917
970.183	-578
970.268	-1982
970.354	-848
970.439	-2531
970.525	56
970.610	-1795
970.696	-598
970.781	-999
970.866	-2216
970.952	-1111
971.037	-848
971.122	-985
971.208	-598
971.293	-1551
971.378	-1874
971.463	-1677
971.549	-789
971.634	-1057
971.719	-1402
971.804	-1770
971.889	811
971.974	-1492
972.059	-986
972.144	-753
972.229	-1574
972.314	-1692
972.399	-481
972.484	-1762
972.569	-1134
972.654	-2612
972.739	-918
972.824	-508
972.908	-1304
972.993	-2106
973.078	-1456
973.163	-1532
973.247	-1662
973.332	-2066
973.417	-253
973.501	-1824
973.586	-562
973.671	-1842
973.755	-1329
973.840	-955
973.924	-535
974.009	-649
974.093	-1811
974.178	-271
974.262	-1053
974.346	-1717
974.431	-687
974.515	-1402
974.600	-1329
974.684	-1189
974.768	-2157
974.852	95
974.937	-1855
975.021	-565
975.105	-621
975.189	-1185
975.273	-572
975.358	-1435
975.442	-1733
975.526	-1024
975.610	-2170
975.694	-2216
975.778	-54
975.862	-1577
975.946	-2751
976.030	39
976.114	-2179
976.198	-1375
976.281	-1099
976.365	-978
976.449	-1707
976.533	-1981
976.617	-1406
976.700	-1227
976.784	-1269
976.868	-1595
976.951	-1675
977.035	-1895
977.119	-858
977.202	-1567
977.286	-1395
977.369	-1039
977.453	-754
977.536	-1522
977.620	-2021
977.703	-580
977.787	-1314
977.870	-526
977.953	-67
978.037	-2739
978.120	-139
978.203	-1928
978.287	-987
978.370	-1401
978.453	-1121
978.536	-879
978.620	-557
978.703	-562
978.786	-1677
978.869	-2207
978.952	-1924
979.035	-529
979.118	-1601
979.201	-2106
979.284	-1204
979.367	-1464
979.450	-975
979.533	-1697
979.616	-1651
979.699	-2014
979.782	-1160
979.865	-1582
979.948	-1010
980.030	-1358
980.113	-1597
980.196	-2319
980.279	-1106
980.361	-1471
980.444	-1403
980.526	-1432
980.609	-509
980.692	-1345
980.774	-933
980.857	-2503
980.939	-21
981.022	-1675
981.104	-1616
981.187	-1838
981.269	70
981.352	-838
981.434	-2508
981.516	-2172
981.599	-448
981.681	-652
981.763	-1503
981.846	-539
981.928	-1642
982.010	-1496
982.092	-1651
982.174	-1855
982.256	-1443
982.339	-2163
982.421	-1127
982.503	-999
982.585	-2370
982.667	-2137
982.749	-963
982.831	-1337
982.913	-1160
982.995	-658
983.077	-1692
983.158	-555
983.240	-2313
983.322	-1511
983.404	-799
983.486	-2149
983.568	-1278
983.649	-2026
983.731	-1269
983.813	-2026
983.894	-831
983.976	-2066
984.058	-1578
984.139	-741
984.221	-2679
984.302	-393
984.384	-174
984.465	-2625
984.547	-1083
984.628	-1504
984.710	-784
984.791	-2084
984.872	-1220
984.954	-2228
985.035	-514
985.116	-1932
985.198	-2173
985.279	-1091
985.360	-1740
985.441	-2056
985.522	-787
985.604	-1459
985.685	-2986
985.766	-796
985.847	-229
985.928	-2373
986.009	-2122
986.090	-1512
986.171	-614
986.252	-1371
986.333	-521
986.414	-2189
986.495	-1118
986.576	-1670
986.656	-1263
986.737	-1829
986.818	-2133
986.899	-2317
986.980	-1886
987.060	-736
987.141	-2063
987.222	-1016
987.302	-1661
987.383	-1512
987.464	-1457
987.544	-1104
987.625	-1409
987.705	-1286
987.786	-1319
987.866	-1372
987.947	-2184
988.027	-1536
988.108	-1478
988.188	-1750
988.268	-1682
988.349	-1480
988.429	-1401
988.509	-1292
988.589	-1572
988.670	-2443
988.750	-490
988.830	-2044
988.910	-903
988.990	-1465
989.070	-1462
989.151	-1450
989.231	-1928
989.311	-726
989.391	-1488
989.471	-1810
989.551	-1720
989.631	-1892
989.711	-1213
989.791	-2416
989.870	-1567
989.950	-961
990.030	-1827
990.110	-2017
990.190	-2030
990.269	-1501
990.349	-1905
990.429	-2053
990.509	-959
990.588	-2079
990.668	-881
990.747	-1752
990.827	-475
990.907	-2336
990.986	-1888
991.066	-1961
991.145	-1189
991.225	-1593
991.304	-2137
991.383	-1355
991.463	-1686
991.542	-1585
991.622	-1380
991.701	-1101
991.780	-2038
991.859	-2075
991.939	-1804
992.018	-2081
992.097	-1145
992.176	-1662
992.256	-2153
992.335	-2931
992.414	-1397
992.493	-1154
992.572	-1531
992.651	-1490
992.730	-1855
992.809	-1663
992.888	-2538
992.967	-1682
993.046	-1301
993.125	-2693
993.203	-1830
993.282	-2151
993.361	-1598
993.440	-2438
993.519	-2376
993.597	-1296
993.676	-2582
993.755	-1166
993.834	-1939
993.912	-2747
993.991	-251
994.069	-2693
994.148	-1596
994.226	-2058
994.305	-1625
994.384	-2648
994.462	-802
994.540	-2777
994.619	-1753
994.697	-1300
994.776	-2489
994.854	-1168
994.932	-1513
995.011	-2201
995.089	-2350
995.167	-2703
995.245	-1352
995.324	-3637
995.402	-1193
995.480	-2157
995.558	-1870
995.636	-2554
995.714	-1744
995.792	-1041
995.870	-2360
995.948	-1976
996.026	-1579
996.104	-3335
996.182	-871
996.260	-2379
996.338	-1678
996.416	-2945
996.494	-1697
996.572	-916
996.649	-1536
996.727	-2953
996.805	-1691
996.883	-2585
996.960	-2548
997.038	-2026
997.116	-873
997.193	-2166
997.271	-1026
997.348	-1624
997.426	-2390
997.504	-3002
997.581	-1371
997.658	-1313
997.736	-2815
997.813	-2474
997.891	-1504
997.968	-2869
998.046	-1578
998.123	-1951
998.200	-1223
998.277	-2503
998.355	-1370
998.432	-2943
998.509	-1810
998.586	-1824
998.663	-1274
998.741	-1506
998.818	-2095
998.895	-1737
998.972	-949
999.049	-1568
999.126	-1851
999.203	-1751
999.280	-1872
999.357	-2498
999.434	-2296
999.511	-1640
999.587	-1646
999.664	-2871
999.741	-2127
999.818	-1994
999.895	-3027
999.971	-2322
1000.048	-1282
1000.125	-1451
1000.202	-2246
1000.278	-1759
1000.355	-1594
1000.431	-1825
1000.508	-2094
1000.584	-1618
1000.661	-1694
1000.738	-2820
1000.814	-2077
1000.890	-2023
1000.967	-1841
1001.043	-2246
1001.120	-3254
1001.196	-2115
1001.272	-3417
1001.349	-1562
1001.425	-1494
1001.501	-1535
1001.577	-2211
1001.654	-2384
1001.730	-1845
1001.806	-1893
1001.882	-3159
1001.958	-1754
1002.034	-1934
1002.110	-2098
1002.186	-2114
1002.262	-2521
1002.338	-2866
1002.414	-1397
1002.490	-2114
1002.566	-2690
1002.642	-2292
1002.718	-1746
1002.794	-1716
1002.870	-2275
1002.945	-1810
1003.021	-1997
1003.097	-2850
1003.173	-1651
1003.248	-1968
1003.324	-1791
1003.400	-1857
1003.475	-2647
1003.551	-1498
1003.626	-1690
1003.702	-2244
1003.777	-1604
1003.853	-2071
1003.928	-2286
1004.004	-1819
1004.079	-1196
1004.155	-2420
1004.230	-2735
1004.305	-360
1004.381	-2561
1004.456	-1977
1004.531	-2074
1004.607	-1915
1004.682	-2370
1004.757	-1994
1004.832	-2748
1004.907	-1598
1004.982	-1422
1005.057	-2921
1005.133	-2620
1005.208	-1886
1005.283	-1940
1005.358	-1476
1005.433	-3067
1005.508	-2648
1005.583	-1727
1005.657	-2692
1005.732	-1328
1005.807	-2327
1005.882	-2057
1005.957	-1803
1006.032	-1670
1006.106	-1927
1006.181	-1715
1006.256	-1693
1006.331	-2604
1006.405	-2031
1006.480	-1526
1006.554	-2909
1006.629	-2081
1006.704	-1632
1006.778	-2443
1006.853	-2059
1006.927	-2340
1007.002	-2309
1007.076	-2138
1007.150	-1857
1007.225	-2404
1007.299	-1838
1007.373	-2907
1007.448	-2015
1007.522	-2026
1007.596	-2286
1007.671	-2240
1007.745	-1503
1007.819	-3083
1007.893	-1968
1007.967	-2560
1008.041	-3169
1008.115	-1934
1008.190	-2066
1008.264	-2401
1008.338	-2795
1008.412	-3087
1008.486	-2227
1008.560	-2439
1008.633	-2655
1008.707	-2476
1008.781	-1058
1008.855	-3140
1008.929	-2233
1009.003	-2695
1009.076	-2252
1009.150	-2099
1009.224	-1872
1009.298	-1596
1009.371	-2824
1009.445	-1744
1009.519	-2127
1009.592	-3306
1009.666	-2707
1009.739	-2175
1009.813	-2639
1009.886	-1551
1009.960	-2172
1010.033	-1792
1010.107	-1501
1010.180	-2523
1010.253	-1879
1010.327	-2716
1010.400	-2798
1010.473	-2478
1010.547	-966
1010.620	-2214
1010.693	-1733
1010.766	-3141
1010.840	-2712
1010.913	-2759
1010.986	-3128
1011.059	-1525
1011.132	-1684
1011.205	-1761
1011.278	-2878
1011.351	-2469
1011.424	-2236
1011.497	-2879
1011.570	-2278
1011.643	-2802
1011.716	-2223
1011.789	-1912
1011.862	-2260
1011.934	-1334
1012.007	-3052
1012.080	-1448
1012.153	-2155
1012.225	-1603
1012.298	-2200
1012.371	-2180
1012.443	-1665
1012.516	-3249
1012.588	-1738
1012.661	-1822
1012.733	-2644
1012.806	-2098
1012.879	-2598
1012.951	-2226
1013.023	-2256
1013.096	-2220
1013.168	-1864
1013.241	-1947
1013.313	-2179
1013.385	-2169
1013.458	-2479
1013.530	-2096
1013.602	-2847
1013.674	-2057
1013.746	-2656
1013.819	-3568
1013.891	-2341
1013.963	-3138
1014.035	-1815
1014.107	-2184
1014.179	-1981
1014.251	-2586
1014.323	-1856
1014.395	-2179
1014.467	-2393
1014.539	-1701
1014.611	-2235
1014.683	-2143
1014.754	-2103
1014.826	-2896
1014.898	-2274
1014.970	-3636
1015.042	-1635
1015.113	-2982
1015.185	-2595
1015.257	-3231
1015.328	-2575
1015.400	-2232
1015.471	-1481
1015.543	-2917
1015.615	-2010
1015.686	-1962
1015.757	-2712
1015.829	-1922
1015.901	-2401
1015.972	-2007
1016.043	-2966
1016.115	-2364
1016.186	-1321
1016.257	-2795
1016.328	-2389
1016.400	-1542
1016.471	-2824
1016.542	-2060
1016.613	-2064
1016.685	-2249
1016.756	-2046
1016.827	-2455
1016.898	-2462
1016.969	-1518
1017.040	-2837
1017.111	-2821
1017.182	-2713
1017.253	-2704
1017.324	-2680
1017.395	-3099
1017.466	-2022
1017.537	-3434
1017.608	-2617
1017.678	-1736
1017.749	-2137
1017.820	-1684
1017.891	-2622
1017.961	-2836
1018.032	-2738
1018.103	-2208
1018.173	-2427
1018.244	-3458
1018.315	-2041
1018.385	-1892
1018.456	-1798
1018.526	-2087
1018.597	-1855
1018.667	-2402
1018.738	-2518
1018.808	-2342
1018.878	-1954
1018.949	-2247
1019.019	-2041
1019.089	-2565
1019.160	-1645
1019.230	-3425
1019.300	-1696
1019.371	-2402
1019.441	-1609
1019.511	-1826
1019.581	-2489
1019.651	-1879
1019.721	-2274
1019.791	-2435
1019.861	-2502
1019.931	-2602
1020.001	-1439
1020.071	-2875
1020.141	-3064
1020.211	-2321
1020.281	-1994
1020.351	-3508
1020.421	-2513
1020.491	-1226
1020.560	-1956
1020.630	-2628
1020.700	-2275
1020.770	-2941
1020.839	-2104
1020.909	-2376
1020.979	-1975
1021.048	-2605
1021.118	-2742
1021.187	-2441
1021.257	-2047
1021.326	-1997
1021.396	-2350
1021.465	-2897
1021.535	-2129
1021.604	-2656
1021.674	-1417
1021.743	-2463
1021.812	-2262
1021.882	-2907
1021.951	-2137
1022.020	-1907
1022.089	-2207
1022.159	-2424
1022.228	-1840
1022.297	-2490
1022.366	-2495
1022.435	-2486
1022.504	-1909
1022.573	-2958
1022.642	-2063
1022.711	-1921
1022.781	-1621
1022.849	-2180
1022.918	-1400
1022.987	-2225
1023.056	-2615
1023.125	-2423
1023.194	-2087
1023.263	-2443
1023.331	-1977
1023.400	-2781
1023.469	-2039
1023.538	-2312
1023.606	-3027
1023.675	-2782
1023.744	-2304
1023.812	-2458
1023.881	-2424
1023.949	-2367
1024.018	-2960
1024.086	-2848
1024.155	-2206
1024.223	-2297
1024.292	-1714
1024.360	-2070
1024.429	-2844
1024.497	-2111
1024.565	-2406
1024.634	-2702
1024.702	-2289
1024.770	-2707
1024.838	-2685
1024.907	-2303
1024.975	-1483
1025.043	-2906
1025.111	-2881
1025.179	-2236
1025.247	-2211
1025.315	-2278
1025.383	-2347
1025.451	-2642
1025.519	-3247
1025.587	-1979
1025.655	-2062
1025.723	-1856
1025.791	-1951
1025.859	-2029
1025.927	-1906
1025.995	-2710
1026.062	-2043
1026.130	-1615
1026.198	-2293
1026.266	-3082
1026.333	-1524
1026.401	-1709
1026.469	-2289
1026.536	-1880
1026.604	-2599
1026.671	-2488
1026.739	-2002
1026.806	-1568
1026.874	-2592
1026.941	-2430
1027.009	-2294
1027.076	-2609
1027.144	-1543
1027.211	-2382
1027.278	-2993
1027.345	-2312
1027.413	-2223
1027.480	-2268
1027.547	-1711
1027.614	-1984
1027.682	-1800
1027.749	-2748
1027.816	-2016
1027.883	-2327
1027.950	-2038
1028.017	-2485
1028.084	-1973
1028.151	-2794
1028.218	-1291
1028.285	-2402
1028.352	-1931
1028.419	-2349
1028.486	-1931
1028.553	-1750
1028.619	-1632
1028.686	-1575
1028.753	-2423
1028.820	-2386
1028.886	-2892
1028.953	-2798
1029.020	-2212
1029.086	-2892
1029.153	-1939
1029.220	-3040
1029.286	-1323
1029.353	-1758
1029.419	-2349
1029.486	-1286
1029.552	-2051
1029.619	-2843
1029.685	-2409
1029.751	-2498
1029.818	-1248
1029.884	-2703
1029.951	-1676
1030.017	-2144
1030.083	-1952
1030.149	-2045
1030.216	-2116
1030.282	-2451
1030.348	-2666
1030.414	-1748
1030.480	-2219
1030.546	-2027
1030.612	-2808
1030.678	-2839
1030.744	-2320
1030.810	-2152
1030.876	-2922
1030.942	-3058
1031.008	-1694
1031.074	-2129
1031.140	-2270
1031.206	-2428
1031.272	-1968
1031.337	-2755
1031.403	-959
1031.469	-3397
1031.534	-1842
1031.600	-2588
1031.666	-2633
1031.731	-2214
1031.797	-2414
1031.863	-2679
1031.928	-1899
1031.994	-2788
1032.059	-1999
1032.125	-2609
1032.190	-2256
1032.256	-2639
1032.321	-2602
1032.386	-2007
1032.452	-937
1032.517	-2244
1032.582	-2235
1032.647	-2293
1032.713	-2048
1032.778	-2560
1032.843	-1992
1032.908	-2290
1032.974	-1374
1033.039	-2688
1033.104	-1789
1033.169	-2793
1033.234	-1939
1033.299	-2141
1033.364	-1626
1033.429	-2327
1033.494	-2177
1033.559	-3315
1033.624	-1801
1033.688	-2109
1033.753	-2808
1033.818	-2422
1033.883	-2853
1033.948	-2763
1034.013	-2159
1034.077	-2631
1034.142	-1915
1034.207	-3266
1034.271	-2108
1034.336	-1827
1034.400	-1061
1034.465	-1799
1034.530	-1588
1034.594	-2848
1034.658	-1926
1034.723	-2591
1034.787	-1580
1034.852	-2787
1034.916	-2441
1034.981	-2724
1035.045	-2381
1035.109	-2287
1035.173	-2380
1035.238	-2930
1035.302	-1717
1035.366	-2492
1035.430	-2600
1035.495	-2591
1035.559	-2311
1035.623	-2294
1035.687	-2414
1035.751	-2289
1035.815	-2276
1035.879	-2270
1035.943	-2634
1036.007	-2872
1036.071	-2324
1036.135	-2926
1036.198	-1841
1036.262	-2408
1036.326	-1919
1036.390	-2627
1036.454	-1557
1036.517	-2239
1036.581	-1939
1036.645	-2360
1036.709	-1873
1036.772	-2371
1036.836	-1865
1036.900	-2575
1036.963	-2944
1037.026	-1861
1037.090	-1822
1037.154	-2119
1037.217	-2155
1037.280	-2561
1037.344	-2090
1037.407	-1749
1037.471	-2451
1037.534	-2765
1037.597	-1486
1037.661	-2725
1037.724	-2936
1037.787	-2929
1037.850	-2210
1037.913	-2847
1037.977	-1707
1038.040	-1820
1038.103	-2063
1038.166	-2641
1038.229	-2166
1038.292	-2383
1038.355	-2076
1038.418	-2415
1038.481	-2154
1038.544	-2354
1038.607	-2549
1038.670	-2432
1038.732	-2452
1038.795	-4147
1038.858	-2575
1038.921	-2208
1038.984	-1998
1039.046	-2657
1039.109	-2412
1039.172	-2460
1039.234	-2710
1039.297	-2344
1039.360	-2413
1039.422	-1457
1039.485	-2915
1039.547	-2545
1039.610	-2583
1039.672	-2465
1039.734	-2126
1039.797	-2560
1039.859	-2360
1039.922	-2605
1039.984	-2241
1040.046	-2283
1040.109	-1731
1040.171	-2889
1040.233	-1756
1040.295	-2559
1040.358	-1980
1040.420	-2759
1040.482	-2657
1040.544	-2745
1040.606	-2518
1040.668	-3039
1040.730	-2304
1040.792	-2826
1040.854	-3144
1040.916	-3017
1040.978	-2515
1041.040	-2197
1041.102	-2450
1041.164	-2804
1041.225	-1946
1041.287	-2990
1041.349	-2542
1041.411	-3162
1041.472	-1815
1041.534	-2101
1041.596	-2494
1041.657	-3233
1041.719	-2220
1041.781	-2420
1041.842	-2073
1041.904	-2266
1041.965	-2822
1042.027	-2673
1042.088	-2506
1042.150	-2953
1042.211	-2368
1042.272	-2430
1042.334	-2026
1042.395	-2916
1042.456	-2210
1042.518	-2362
1042.579	-1834
1042.640	-1893
1042.701	-2271
1042.763	-3479
1042.824	-2112
1042.885	-2390
1042.946	-3341
1043.007	-3011
1043.068	-2328
1043.129	-2741
1043.190	-2487
1043.251	-1991
1043.312	-2729
1043.373	-3101
1043.434	-1723
1043.495	-2604
1043.556	-2062
1043.616	-1547
1043.677	-2436
1043.738	-2561
1043.799	-1977
1043.859	-2961
1043.920	-2513
1043.981	-2326
1044.041	-2130
1044.102	-2854
1044.162	-2778
1044.223	-2466
1044.284	-1979
1044.344	-2316
1044.405	-2461
1044.465	-2241
1044.525	-2287
1044.586	-2928
1044.646	-3417
1044.707	-2243
1044.767	-2403
1044.827	-1918
1044.887	-2358
1044.948	-2219
1045.008	-2081
1045.068	-2920
1045.128	-2263
1045.188	-1956
1045.249	-1751
1045.309	-2118
1045.369	-2200
1045.429	-2488
1045.489	-2423
1045.549	-2141
1045.609	-2198
1045.669	-3035
1045.729	-2508
1045.789	-2329
1045.848	-1456
1045.908	-2344
1045.968	-2405
1046.028	-2751
1046.088	-2534
1046.147	-2102
1046.207	-1942
1046.267	-2413
1046.326	-2016
1046.386	-2897
1046.446	-1659
1046.505	-1988
1046.565	-1290
1046.624	-1362
1046.684	-2195
1046.743	-1006
1046.803	-618
1046.862	-268
1046.922	0
