'Start Wavelength	183.907
'End Wavelength	1046.922
'Gate Delay	5.000
'Gate Width (ms)	1.050
'Laser Output Level	0.000
'X Position	0.000
'Y Position	0.000
'Z Position	0.000
'Grid Point Number	1.000
'Shot Number	100.000
183.907	-80.000
183.977	-421.000
184.047	111
184.116	493
184.186	527
184.256	62
184.325	-342
184.395	-321
184.465	456
184.534	558
184.604	-116
184.674	-150
184.743	-352
184.813	500
184.883	-57
184.952	-523
185.022	103
185.092	381
185.161	735
185.231	427
185.301	229
185.370	303
185.440	-536
185.509	165
185.579	-207
185.649	-346
185.718	-581
185.788	456
185.857	-134
185.927	-885
185.996	-123
186.066	215
186.136	430
186.205	661
186.275	-25
186.344	-483
186.414	-120
186.483	-244
186.553	748
186.622	707
186.692	-51
186.761	-33
186.831	201
186.900	-105
186.970	174
187.039	493
187.109	489
187.178	-107
187.248	-39
187.317	282
187.387	61
187.456	361
187.526	668
187.595	356
187.664	512
187.734	-149
187.803	111
187.873	-174
187.942	340
188.012	32
188.081	-106
188.150	-426
188.220	-80
188.289	374
188.358	569
188.428	79
188.497	392
188.567	543
188.636	-495
188.705	448
188.775	-403
188.844	-64
188.913	657
188.983	315
189.052	-135
189.121	-228
189.191	-274
189.260	88
189.329	-212
189.399	-407
189.468	228
189.537	222
189.606	993
189.676	397
189.745	-147
189.814	1047
189.883	-158
189.953	218
190.022	683
190.091	743
190.161	1523
190.230	735
190.299	255
190.368	28
190.437	402
190.507	-493
190.576	-494
190.645	-26
190.714	-680
190.783	-272
190.853	917
190.922	174
190.991	35
191.060	-339
191.129	-233
191.198	556
191.268	338
191.337	-127
191.406	1012
191.475	-88
191.544	35
191.613	556
191.682	-46
191.752	315
191.821	683
191.890	-352
191.959	44
192.028	39
192.097	195
192.166	273
192.235	-70
192.304	439
192.373	158
192.442	-201
192.511	-338
192.580	371
192.650	608
192.719	-116
192.788	282
192.857	109
192.926	-77
192.995	1037
193.064	-221
193.133	1021
193.202	465
193.271	719
193.340	1216
193.409	779
193.478	840
193.547	713
193.615	1566
193.684	960
193.753	404
193.822	1413
193.891	558
193.960	444
194.029	-90
194.098	624
194.167	78
194.236	181
194.305	462
194.374	228
194.443	-210
194.512	562
194.580	503
194.649	345
194.718	-173
194.787	613
194.856	-338
194.925	489
194.994	-402
195.062	208
195.131	334
195.200	499
195.269	710
195.338	1138
195.407	71
195.475	103
195.544	80
195.613	269
195.682	397
195.751	646
195.819	-475
195.888	637
195.957	1480
196.026	461
196.094	482
196.163	-78
196.232	90
196.301	779
196.369	-148
196.438	683
196.507	466
196.576	143
196.644	236
196.713	-100
196.782	-683
196.850	431
196.919	-145
196.988	434
197.056	-281
197.125	481
197.194	951
197.262	391
197.331	-345
197.400	591
197.468	123
197.537	215
197.606	208
197.674	549
197.743	1762
197.812	680
197.880	889
197.949	822
198.017	1698
198.086	620
198.155	186
198.223	257
198.292	1913
198.360	1028
198.429	354
198.497	1040
198.566	831
198.635	1689
198.703	514
198.772	657
198.840	1889
198.909	2151
198.977	653
199.046	191
199.114	622
199.183	525
199.251	440
199.320	49
199.388	139
199.457	249
199.525	375
199.594	72
199.662	277
199.731	1188
199.799	98
199.867	421
199.936	144
200.004	620
200.073	270
200.141	274
200.210	601
200.278	249
200.346	769
200.415	516
200.483	615
200.552	311
200.620	398
200.688	-371
200.757	46
200.825	916
200.893	-35
200.962	384
201.030	-219
201.098	1040
201.167	469
201.235	204
201.303	-191
201.372	211
201.440	447
201.508	495
201.577	220
201.645	433
201.713	222
201.781	4
201.850	974
201.918	132
201.986	167
202.055	945
202.123	217
202.191	-797
202.259	364
202.327	743
202.396	1133
202.464	-19
202.532	-514
202.600	1818
202.669	798
202.737	114
202.805	-450
202.873	127
202.941	72
203.009	-563
203.078	304
203.146	257
203.214	-104
203.282	261
203.350	490
203.418	-165
203.487	434
203.555	182
203.623	-52
203.691	403
203.759	10
203.827	435
203.895	191
203.963	322
204.031	-208
204.099	354
204.168	136
204.236	809
204.304	575
204.372	518
204.440	-33
204.508	496
204.576	82
204.644	868
204.712	-166
204.780	1044
204.848	306
204.916	-62
204.984	386
205.052	255
205.120	262
205.188	568
205.256	-759
205.324	472
205.392	395
205.460	309
205.528	-466
205.596	670
205.664	175
205.732	650
205.799	2524
205.867	3447
205.935	223
206.003	504
206.071	-709
206.139	568
206.207	577
206.275	525
206.343	-31
206.411	453
206.478	313
206.546	662
206.614	-139
206.682	21
206.750	259
206.818	735
206.885	868
206.953	-275
207.021	1035
207.089	582
207.157	-227
207.225	367
207.292	341
207.360	625
207.428	90
207.496	991
207.563	637
207.631	720
207.699	-536
207.767	225
207.834	342
207.902	39
207.970	-483
208.038	660
208.105	251
208.173	393
208.241	616
208.309	1103
208.376	-62
208.444	1539
208.512	335
208.579	-231
208.647	1059
208.715	307
208.782	1066
208.850	637
208.918	104
208.985	241
209.053	727
209.120	1103
209.188	50
209.256	185
209.323	-307
209.391	576
209.459	1111
209.526	679
209.594	-55
209.661	853
209.729	793
209.796	615
209.864	424
209.932	-624
209.999	1449
210.067	480
210.134	-257
210.202	659
210.269	800
210.337	1653
210.404	888
210.472	466
210.539	465
210.607	290
210.674	208
210.742	737
210.809	235
210.877	155
210.944	789
211.012	883
211.079	1822
211.146	793
211.214	-33
211.281	647
211.349	632
211.416	750
211.484	977
211.551	463
211.618	1060
211.686	323
211.753	49
211.821	1045
211.888	360
211.955	483
212.023	675
212.090	675
212.157	831
212.225	497
212.292	2008
212.359	3670
212.427	10887
212.494	5093
212.561	1058
212.629	721
212.696	-229
212.763	1074
212.831	390
212.898	1536
212.965	1041
213.032	904
213.100	795
213.167	947
213.234	1079
213.301	1258
213.369	1088
213.436	483
213.503	857
213.570	516
213.638	495
213.705	503
213.772	364
213.839	538
213.906	1299
213.973	1112
214.041	603
214.108	509
214.175	187
214.242	-241
214.309	1216
214.376	770
214.444	556
214.511	845
214.578	118
214.645	761
214.712	254
214.779	530
214.846	140
214.913	1291
214.980	1034
215.048	2047
215.115	1061
215.182	1231
215.249	1039
215.316	776
215.383	675
215.450	567
215.517	902
215.584	469
215.651	284
215.718	381
215.785	1116
215.852	872
215.919	1320
215.986	1046
216.053	5
216.120	144
216.187	76
216.254	619
216.321	428
216.388	878
216.455	473
216.522	1788
216.589	783
216.656	1244
216.722	1501
216.789	1820
216.856	1243
216.923	1421
216.990	857
217.057	1427
217.124	1272
217.191	1314
217.258	1170
217.324	2869
217.391	2758
217.458	1833
217.525	1650
217.592	1463
217.659	173
217.725	1365
217.792	1401
217.859	2315
217.926	139
217.993	1181
218.059	952
218.126	708
218.193	444
218.260	676
218.327	130
218.393	1047
218.460	-472
218.527	857
218.594	544
218.660	1564
218.727	1604
218.794	-696
218.860	985
218.927	-72
218.994	144
219.061	406
219.127	623
219.194	1642
219.261	507
219.327	-15
219.394	885
219.461	31
219.527	514
219.594	1304
219.661	118
219.727	-421
219.794	363
219.860	-468
219.927	457
219.994	572
220.060	1096
220.127	2135
220.193	1386
220.260	599
220.326	1290
220.393	3741
220.460	4023
220.526	2816
220.593	1006
220.659	2131
220.726	444
220.792	5231
220.859	4000
220.925	5625
220.992	7678
221.058	7848
221.125	6576
221.191	4908
221.258	1282
221.324	1331
221.391	885
221.457	698
221.524	1317
221.590	1733
221.657	6031
221.723	4000
221.789	3356
221.856	3662
221.922	1111
221.989	1521
222.055	672
222.121	119
222.188	1965
222.254	804
222.321	134
222.387	-192
222.453	304
222.520	37
222.586	-296
222.652	-179
222.719	-25
222.785	672
222.851	212
222.918	143
222.984	-177
223.050	-55
223.116	-1464
223.183	1454
223.249	-408
223.315	504
223.382	-132
223.448	564
223.514	-249
223.580	-85
223.647	-109
223.713	3
223.779	88
223.845	314
223.911	219
223.978	-486
224.044	363
224.110	276
224.176	373
224.242	679
224.309	-212
224.375	369
224.441	552
224.507	224
224.573	-430
224.639	272
224.705	62
224.772	437
224.838	-325
224.904	1037
224.970	-88
225.036	274
225.102	264
225.168	511
225.234	44
225.300	196
225.366	909
225.432	709
225.499	462
225.565	620
225.631	-22
225.697	1377
225.763	655
225.829	1325
225.895	958
225.961	1771
226.027	1992
226.093	863
226.159	1185
226.225	2280
226.291	5582
226.357	12482
226.423	5500
226.489	2570
226.554	1046
226.620	1846
226.686	1733
226.752	2877
226.818	4837
226.884	15164
226.950	14159
227.016	5306
227.082	1942
227.148	2090
227.214	1092
227.279	708
227.345	940
227.411	405
227.477	216
227.543	2384
227.609	2277
227.674	459
227.740	420
227.806	892
227.872	-243
227.938	821
228.003	801
228.069	387
228.135	-216
228.201	494
228.267	146
228.332	1008
228.398	-401
228.464	834
228.530	119
228.595	-536
228.661	-1079
228.727	445
228.792	1061
228.858	-200
228.924	-785
228.990	1797
229.055	131
229.121	1048
229.187	359
229.252	230
229.318	-327
229.384	454
229.449	12
229.515	-839
229.581	-424
229.646	1564
229.712	186
229.777	1585
229.843	1556
229.909	1307
229.974	1206
230.040	1586
230.105	198
230.171	675
230.236	1414
230.302	1932
230.368	1097
230.433	653
230.499	882
230.564	690
230.630	-245
230.695	140
230.761	-30
230.826	-190
230.892	1687
230.957	-71
231.023	-385
231.088	737
231.154	-90
231.219	1312
231.284	359
231.350	1234
231.415	-562
231.481	215
231.546	280
231.612	134
231.677	69
231.742	-385
231.808	549
231.873	170
231.939	-1127
232.004	1424
232.069	853
232.135	693
232.200	-509
232.265	1012
232.331	-42
232.396	-266
232.461	632
232.527	-257
232.592	-810
232.657	290
232.723	555
232.788	985
232.853	895
232.918	399
232.984	-471
233.049	637
233.114	567
233.179	1146
233.245	2690
233.310	3910
233.375	-911
233.440	540
233.506	614
233.571	269
233.636	606
233.701	262
233.766	710
233.832	2448
233.897	473
233.962	284
234.027	1505
234.092	823
234.157	583
234.222	120
234.288	1026
234.353	6799
234.418	5239
234.483	2421
234.548	1301
234.613	640
234.678	914
234.743	396
234.808	7146
234.873	3433
234.938	1759
235.004	463
235.069	1301
235.134	-109
235.199	966
235.264	587
235.329	-518
235.394	681
235.459	1762
235.524	299
235.589	1050
235.654	458
235.719	-402
235.784	1575
235.849	434
235.913	3358
235.978	3589
236.043	4206
236.108	1794
236.173	732
236.238	1691
236.303	-306
236.368	-352
236.433	2492
236.498	3559
236.563	3183
236.627	3658
236.692	18595
236.757	15142
236.822	5742
236.887	2482
236.952	3540
237.017	1130
237.081	3083
237.146	2152
237.211	7236
237.276	17997
237.341	32309
237.405	13565
237.470	5057
237.535	3093
237.600	1940
237.664	1500
237.729	1243
237.794	1013
237.859	5924
237.923	3560
237.988	1902
238.053	2613
238.118	2929
238.182	8996
238.247	9177
238.312	2544
238.376	1789
238.441	-535
238.506	2058
238.570	557
238.635	1533
238.700	345
238.764	804
238.829	3138
238.893	4425
238.958	2891
239.023	1672
239.087	1056
239.152	827
239.216	-42
239.281	2109
239.346	940
239.410	778
239.475	136
239.539	8524
239.604	7197
239.668	2381
239.733	652
239.797	1090
239.862	3817
239.926	6977
239.991	3351
240.055	939
240.120	564
240.184	1190
240.249	-284
240.313	821
240.378	724
240.442	4743
240.507	8828
240.571	2681
240.635	3259
240.700	5324
240.764	774
240.829	439
240.893	-590
240.957	1441
241.022	4124
241.086	9356
241.151	2689
241.215	336
241.279	2381
241.344	3674
241.408	1666
241.472	125
241.537	1420
241.601	878
241.665	-140
241.730	154
241.794	1465
241.858	394
241.922	546
241.987	648
242.051	-695
242.115	23
242.179	956
242.244	429
242.308	1359
242.372	584
242.436	762
242.501	769
242.565	-275
242.629	999
242.693	948
242.757	-250
242.822	615
242.886	643
242.950	1435
243.014	695
243.078	800
243.142	1151
243.206	890
243.271	1311
243.335	987
243.399	1434
243.463	8370
243.527	29734
243.591	7595
243.655	2845
243.719	233
243.783	2465
243.847	2354
243.911	3929
243.975	2906
244.040	2038
244.104	1728
244.168	510
244.232	1079
244.296	2494
244.360	2648
244.424	1523
244.488	974
244.552	1797
244.615	-666
244.679	1540
244.743	905
244.807	1355
244.871	234
244.935	1020
244.999	-292
245.063	1138
245.127	1764
245.191	2993
245.255	1898
245.319	1053
245.383	-554
245.446	2563
245.510	630
245.574	815
245.638	1226
245.702	-57
245.766	3459
245.829	2301
245.893	747
245.957	-226
246.021	1110
246.085	1079
246.149	1557
246.212	5228
246.276	6497
246.340	2348
246.404	2122
246.467	2201
246.531	1513
246.595	2286
246.659	2189
246.722	920
246.786	2260
246.850	1678
246.913	2866
246.977	562
247.041	1460
247.104	1454
247.168	1561
247.232	3732
247.295	10117
247.359	5436
247.423	1814
247.486	3001
247.550	2528
247.614	1703
247.677	1963
247.741	974
247.804	839
247.868	1897
247.932	2998
247.995	9647
248.059	3901
248.122	1034
248.186	3039
248.249	3362
248.313	14635
248.376	16915
248.440	9703
248.503	3507
248.567	3488
248.630	3275
248.694	4496
248.757	7114
248.821	16429
248.884	10611
248.948	7707
249.011	13074
249.075	20125
249.138	16895
249.202	5567
249.265	3631
249.328	5381
249.392	3109
249.455	3149
249.519	1983
249.582	1941
249.645	3842
249.709	3068
249.772	1629
249.835	2612
249.899	3405
249.962	2476
250.025	2001
250.089	6034
250.152	9143
250.215	4249
250.279	2402
250.342	3166
250.405	2870
250.468	2259
250.532	3287
250.595	5704
250.658	24691
250.721	47115
250.785	13469
250.848	6719
250.911	4183
250.974	4037
251.038	5076
251.101	10910
251.164	5405
251.227	5925
251.290	5266
251.354	6226
251.417	37064
251.480	37740
251.543	20282
251.606	70335
251.669	52869
251.732	15798
251.795	14854
251.859	15886
251.922	43394
251.985	24597
252.048	8331
252.111	5871
252.174	4598
252.237	9435
252.300	21603
252.363	22437
252.426	59374
252.489	22640
252.552	10481
252.615	4894
252.678	6733
252.741	15196
252.804	21202
252.867	58833
252.930	30703
252.993	14328
253.056	8350
253.119	5501
253.182	4140
253.245	7428
253.308	7315
253.371	4534
253.434	4772
253.497	4528
253.559	9110
253.622	6071
253.685	7103
253.748	6954
253.811	3302
253.874	5272
253.937	4577
254.000	3467
254.062	5444
254.125	9424
254.188	8309
254.251	6991
254.314	3094
254.376	4255
254.439	7260
254.502	5289
254.565	5547
254.628	11991
254.690	5379
254.753	3379
254.816	2433
254.878	2086
254.941	6789
255.004	7408
255.067	2910
255.129	2827
255.192	1692
255.255	244
255.317	1396
255.380	1864
255.443	925
255.505	1616
255.568	-709
255.631	996
255.693	1209
255.756	339
255.819	1638
255.881	836
255.944	263
256.006	346
256.069	305
256.132	437
256.194	1521
256.257	6708
256.319	4107
256.382	3642
256.444	1549
256.507	1631
256.569	1243
256.632	1135
256.694	2782
256.757	8753
256.819	29756
256.882	10063
256.944	3170
257.007	2092
257.069	2638
257.132	1879
257.194	1867
257.257	686
257.319	829
257.381	1131
257.444	6282
257.506	32915
257.569	36442
257.631	13642
257.693	7365
257.756	3116
257.818	2576
257.880	1625
257.943	1976
258.005	265
258.067	886
258.130	913
258.192	1616
258.254	4050
258.317	2026
258.379	1775
258.441	5026
258.503	5320
258.566	7720
258.628	13007
258.690	2719
258.753	2423
258.815	3269
258.877	1549
258.939	952
259.001	1027
259.064	333
259.126	1469
259.188	2673
259.250	1505
259.312	749
259.375	4380
259.437	2966
259.499	2060
259.561	830
259.623	1215
259.685	858
259.747	1614
259.809	7945
259.872	16091
259.934	24438
259.996	21350
260.058	5646
260.120	1950
260.182	1191
260.244	1005
260.306	510
260.368	427
260.430	27
260.492	2064
260.554	4093
260.616	3073
260.678	10625
260.740	16608
260.802	3560
260.864	1734
260.926	1343
260.988	1862
261.050	1339
261.112	2053
261.174	14995
261.236	14760
261.298	3793
261.359	5992
261.421	11544
261.483	1259
261.545	2744
261.607	-270
261.669	1355
261.731	3109
261.793	8915
261.854	3059
261.916	2497
261.978	1129
262.040	1364
262.102	1310
262.164	2972
262.225	2710
262.287	1554
262.349	3113
262.411	3184
262.472	777
262.534	3760
262.596	10876
262.658	3371
262.719	886
262.781	2731
262.843	8451
262.904	3879
262.966	1729
263.028	2605
263.090	15716
263.151	48826
263.213	14481
263.275	5451
263.336	1801
263.398	2082
263.459	512
263.521	532
263.583	3413
263.644	2921
263.706	704
263.767	-141
263.829	932
263.891	38
263.952	347
264.014	133
264.075	175
264.137	1872
264.198	1931
264.260	-770
264.321	581
264.383	1741
264.444	5188
264.506	1540
264.567	25
264.629	2250
264.690	1874
264.752	894
264.813	658
264.875	868
264.936	702
264.998	678
265.059	27
265.120	73
265.182	1472
265.243	13621
265.305	14521
265.366	3110
265.427	652
265.489	914
265.550	-799
265.611	654
265.673	-130
265.734	599
265.795	785
265.857	98
265.918	323
265.979	2663
266.040	24267
266.102	20294
266.163	4957
266.224	2473
266.286	1283
266.347	-231
266.408	1082
266.469	1736
266.530	-373
266.592	111
266.653	1485
266.714	3985
266.775	1124
266.836	204
266.898	-602
266.959	571
267.020	559
267.081	1257
267.142	450
267.203	103
267.264	-93
267.326	873
267.387	-760
267.448	-574
267.509	-151
267.570	-1
267.631	354
267.692	-195
267.753	770
267.814	-254
267.875	2069
267.936	4724
267.997	944
268.058	639
268.119	460
268.180	996
268.241	-220
268.302	-634
268.363	-824
268.424	630
268.485	148
268.546	-633
268.607	115
268.668	-374
268.729	156
268.790	-280
268.851	465
268.912	2150
268.972	3687
269.033	685
269.094	-450
269.155	913
269.216	13
269.277	811
269.338	411
269.398	-263
269.459	-79
269.520	1101
269.581	56
269.642	2117
269.702	411
269.763	463
269.824	-103
269.885	572
269.945	2670
270.006	857
270.067	-422
270.128	-318
270.188	-356
270.249	641
270.310	-340
270.370	1095
270.431	263
270.492	-13
270.553	-361
270.613	2148
270.674	4497
270.734	2257
270.795	373
270.856	1427
270.916	658
270.977	923
271.038	943
271.098	1432
271.159	965
271.219	1806
271.280	838
271.340	1035
271.401	-281
271.462	4329
271.522	1758
271.583	1234
271.643	949
271.704	1118
271.764	599
271.825	2712
271.885	13527
271.946	21934
272.006	5587
272.066	8019
272.127	16264
272.187	4985
272.248	2246
272.308	2067
272.369	11383
272.429	7281
272.489	3459
272.550	3414
272.610	3893
272.671	2561
272.731	2140
272.791	6902
272.852	2382
272.912	1744
272.972	753
273.033	757
273.093	2446
273.153	2022
273.214	1768
273.274	1944
273.334	6674
273.394	17415
273.455	6065
273.515	4527
273.575	12986
273.635	5210
273.696	7131
273.756	17086
273.816	5985
273.876	3180
273.936	8567
273.997	17861
274.057	3865
274.117	2338
274.177	3186
274.237	17925
274.297	18142
274.358	13798
274.418	12803
274.478	9908
274.538	3410
274.598	1985
274.658	13357
274.718	19626
274.778	7220
274.838	3494
274.898	6428
274.958	26242
275.018	19571
275.078	12227
275.138	4212
275.198	1686
275.258	882
275.318	2529
275.378	4392
275.438	5186
275.498	3330
275.558	11063
275.618	23099
275.678	12799
275.738	6229
275.798	4643
275.858	1585
275.918	855
275.978	1394
276.038	1845
276.098	1110
276.157	2218
276.217	10283
276.277	5007
276.337	2894
276.397	1840
276.457	2015
276.517	1022
276.576	458
276.636	832
276.696	1233
276.756	6325
276.815	5170
276.875	1196
276.935	2212
276.995	2238
277.055	569
277.114	1217
277.174	1865
277.234	8709
277.293	2834
277.353	1825
277.413	1420
277.472	753
277.532	623
277.592	2304
277.651	6233
277.711	16630
277.771	4043
277.830	16877
277.890	15647
277.950	10026
278.009	34834
278.069	13192
278.128	10207
278.188	16526
278.248	5122
278.307	16299
278.367	12034
278.426	3196
278.486	2048
278.545	1655
278.605	1240
278.664	747
278.724	862
278.783	5422
278.843	19609
278.902	5413
278.962	2793
279.021	3800
279.081	4762
279.140	5181
279.199	2640
279.259	3282
279.318	3908
279.378	4552
279.437	7362
279.496	27345
279.556	110623
279.615	98407
279.675	24231
279.734	12271
279.793	15058
279.853	24406
279.912	8919
279.971	4194
280.031	3908
280.090	7325
280.149	13799
280.208	11640
280.268	73312
280.327	89742
280.386	19502
280.445	11737
280.505	9579
280.564	4021
280.623	3396
280.682	4595
280.742	9251
280.801	3852
280.860	1026
280.919	1400
280.978	1141
281.037	1277
281.097	1702
281.156	2320
281.215	1119
281.274	1675
281.333	11391
281.392	10097
281.451	1940
281.510	1581
281.569	850
281.628	1258
281.688	847
281.747	1188
281.806	1356
281.865	1378
281.924	238
281.983	841
282.042	35
282.101	19
282.160	982
282.219	368
282.278	664
282.337	5346
282.396	4623
282.454	1234
282.513	859
282.572	9314
282.631	5522
282.690	1865
282.749	374
282.808	2039
282.867	1424
282.926	2671
282.985	651
283.043	339
283.102	341
283.161	1398
283.220	4241
283.279	11638
283.338	3440
283.396	1446
283.455	1642
283.514	1956
283.573	3780
283.631	2839
283.690	1194
283.749	1629
283.808	3590
283.866	5938
283.925	2517
283.984	1723
284.043	2239
284.101	2678
284.160	1300
284.219	2740
284.277	2489
284.336	4056
284.395	14253
284.453	13344
284.512	4095
284.570	5948
284.629	5947
284.688	4246
284.746	4701
284.805	6707
284.863	8333
284.922	10450
284.981	12581
285.039	17224
285.098	27736
285.156	59559
285.215	122897
285.273	118292
285.332	72736
285.390	43774
285.449	26538
285.507	17168
285.566	12416
285.624	9863
285.683	7874
285.741	6080
285.799	5458
285.858	5580
285.916	4228
285.975	3362
286.033	2058
286.091	2555
286.150	2436
286.208	1916
286.267	2957
286.325	2768
286.383	3103
286.442	4159
286.500	2190
286.558	1103
286.616	1508
286.675	2614
286.733	2929
286.791	2159
286.850	1949
286.908	3014
286.966	6027
287.024	2561
287.083	1114
287.141	1407
287.199	2389
287.257	3023
287.315	1697
287.374	2544
287.432	5331
287.490	4727
287.548	2189
287.606	2925
287.664	1094
287.723	3159
287.781	4279
287.839	2989
287.897	3092
287.955	3883
288.013	4957
288.071	11498
288.129	54578
288.187	178908
288.245	83463
288.303	26299
288.361	12769
288.419	7557
288.477	5007
288.535	4172
288.593	2261
288.651	1994
288.709	1637
288.767	1781
288.825	2184
288.883	1723
288.941	2100
288.999	953
289.057	1105
289.115	958
289.173	670
289.231	781
289.289	941
289.346	1437
289.404	1534
289.462	3646
289.520	4406
289.578	2244
289.636	482
289.694	901
289.751	235
289.809	910
289.867	295
289.925	1452
289.983	2526
290.040	699
290.098	341
290.156	1585
290.214	1444
290.271	950
290.329	335
290.387	253
290.444	86
290.502	417
290.560	382
290.617	298
290.675	52
290.733	1128
290.790	1528
290.848	1249
290.906	515
290.963	1256
291.021	1486
291.078	767
291.136	655
291.194	4366
291.251	13621
291.309	4989
291.366	584
291.424	1108
291.481	712
291.539	794
291.596	873
291.654	418
291.711	-45
291.769	1417
291.826	3450
291.884	3081
291.941	550
291.999	651
292.056	1751
292.114	1612
292.171	758
292.228	989
292.286	1234
292.343	3543
292.401	5386
292.458	3587
292.515	1651
292.573	2393
292.630	2409
292.687	2704
292.745	1458
292.802	1651
292.859	6434
292.917	15673
292.974	9692
293.031	2513
293.089	1475
293.146	393
293.203	888
293.260	982
293.318	603
293.375	2679
293.432	1720
293.489	965
293.546	825
293.604	1508
293.661	8168
293.718	26938
293.775	14671
293.832	7268
293.889	4471
293.947	3596
294.004	2576
294.061	3285
294.118	5475
294.175	13214
294.232	15990
294.289	8966
294.346	3135
294.403	2720
294.460	2506
294.517	1816
294.574	1597
294.631	1028
294.688	1893
294.745	5823
294.802	27425
294.859	30419
294.916	12186
294.973	5978
295.030	4672
295.087	3469
295.144	3180
295.201	2414
295.258	2169
295.315	2115
295.372	8900
295.429	22219
295.486	10478
295.542	4124
295.599	9338
295.656	17537
295.713	14251
295.770	19778
295.827	9024
295.883	3719
295.940	2922
295.997	5717
296.054	6330
296.111	3171
296.167	2494
296.224	1262
296.281	1176
296.338	1596
296.394	1207
296.451	1953
296.508	7929
296.564	16274
296.621	12351
296.678	23495
296.734	36470
296.791	16667
296.848	6988
296.904	6816
296.961	13636
297.018	24947
297.074	18840
297.131	7975
297.187	5149
297.244	6228
297.301	21458
297.357	44034
297.414	17414
297.470	6967
297.527	3756
297.583	4419
297.640	3072
297.696	2616
297.753	1530
297.809	1072
297.866	1051
297.922	1539
297.979	493
298.035	1771
298.092	4308
298.148	12731
298.204	14400
298.261	6724
298.317	10123
298.374	30708
298.430	20847
298.486	8989
298.543	5668
298.599	6306
298.656	8927
298.712	11538
298.768	25127
298.824	20134
298.881	8126
298.937	4617
298.993	3222
299.050	3511
299.106	4462
299.162	2596
299.218	3358
299.275	2799
299.331	2548
299.387	6017
299.443	25420
299.500	31349
299.556	13317
299.612	6273
299.668	4752
299.724	6063
299.780	5931
299.837	3606
299.893	5511
299.949	21177
300.005	26322
300.061	22510
300.117	38655
300.173	21967
300.229	8607
300.285	9658
300.341	12184
300.397	6705
300.453	4160
300.510	4366
300.566	4369
300.622	4222
300.678	10622
300.734	22062
300.790	22961
300.845	28786
300.901	18044
300.957	23303
301.013	19597
301.069	8763
301.125	4653
301.181	5669
301.237	4895
301.293	3136
301.349	3533
301.405	4128
301.461	4956
301.516	8322
301.572	7498
301.628	8533
301.684	7657
301.740	11459
301.796	18639
301.851	14755
301.907	19329
301.963	18070
302.019	26586
302.074	72007
302.130	81355
302.186	45863
302.242	20146
302.297	10614
302.353	8609
302.409	15719
302.464	16711
302.520	12348
302.576	28015
302.631	35974
302.687	22535
302.743	10016
302.798	4809
302.854	3494
302.910	4326
302.965	4802
303.021	10203
303.076	10903
303.132	13399
303.187	15268
303.243	8998
303.299	4827
303.354	3488
303.410	3634
303.465	2744
303.521	2534
303.576	2473
303.632	3080
303.687	8590
303.743	25326
303.798	24517
303.853	11872
303.909	5934
303.964	3790
304.020	5380
304.075	10606
304.130	10319
304.186	17962
304.241	20532
304.297	17018
304.352	9524
304.358	9043
304.407	5145
304.449	4700
304.463	4557
304.518	4039
304.539	3895
304.573	3665
304.629	4268
304.630	4307
304.684	6280
304.720	14432
304.739	18542
304.794	31050
304.811	27103
304.850	17707
304.902	7613
304.905	6960
304.960	4842
304.992	4471
305.015	4192
305.071	4605
305.083	4312
305.126	3250
305.173	2865
305.181	2813
305.236	2214
305.264	2506
305.292	2781
305.347	3714
305.354	3931
305.402	5337
305.445	5587
305.457	5624
305.512	6720
305.535	6294
305.567	5777
305.622	5578
305.626	5777
305.678	9871
305.716	20676
305.733	24792
305.788	29329
305.807	25899
305.843	20129
305.897	25318
305.898	25365
305.953	26592
305.988	18563
306.008	14043
306.063	7794
306.078	6958
306.118	5148
306.168	3567
306.173	3407
306.228	2731
306.259	2574
306.283	2539
306.338	2579
306.349	2623
306.393	2734
306.440	3173
306.448	3235
306.503	3384
306.530	3096
306.558	3084
306.613	7779
306.620	8571
306.668	14152
306.711	20434
306.723	21577
306.778	19758
306.801	15662
306.833	10789
306.888	5578
306.892	5414
306.943	3567
306.982	2851
306.997	2570
307.052	2730
307.072	2313
307.107	1626
307.162	3391
307.163	3411
307.217	5160
307.253	6271
307.272	6588
307.327	6392
307.343	6085
307.381	5458
307.434	4328
307.436	4335
307.491	7391
307.524	12130
307.546	14606
307.600	18599
307.614	17045
307.655	11358
307.704	6255
307.710	5878
307.765	5144
307.795	6487
307.819	7427
307.874	10902
307.885	10752
307.929	9671
307.975	8739
307.984	8817
308.038	11331
308.065	13897
308.093	22967
308.148	52086
308.156	60124
308.202	103884
308.246	129042
308.257	127396
308.312	72897
308.336	51841
308.366	38982
308.421	24042
308.426	22978
308.475	14643
308.517	10336
308.530	8978
308.585	7495
308.607	6703
308.639	6054
308.694	6187
308.697	6273
308.748	7819
308.787	11279
308.803	12241
308.857	11680
308.877	10858
308.912	9563
308.967	9027
308.967	9068
309.021	11303
309.058	13876
309.076	16999
309.130	30715
309.148	37124
309.185	74626
309.238	144714
309.239	145087
309.293	163478
309.328	148012
309.348	128246
309.402	62527
309.418	46451
309.457	32033
309.508	19928
309.511	19293
309.566	14995
309.598	14626
309.620	15437
309.674	20270
309.688	21922
309.729	22044
309.778	18482
309.783	18107
309.837	13679
309.868	11386
309.892	11497
309.946	14876
309.959	16716
310.001	21534
310.049	25210
310.055	24756
310.109	16972
310.139	11679
310.163	8930
310.218	5336
310.229	4906
310.272	3748
310.319	3473
310.326	3364
310.381	2551
310.409	2323
310.435	2058
310.489	1770
310.499	1700
310.543	1500
310.589	1419
310.598	1440
310.652	1895
310.679	1952
310.706	1463
310.760	789
310.769	664
310.814	919
310.859	1400
310.868	1354
310.923	736
310.948	742
310.977	1185
311.031	1676
311.038	1797
311.085	1453
311.128	954
311.139	993
311.193	1243
311.218	1376
311.247	1350
311.301	1327
311.308	1332
311.356	1246
311.398	1207
311.410	1171
311.464	1034
311.488	957
311.518	947
311.572	935
311.578	951
311.626	1176
311.668	1444
311.680	1449
311.734	1422
311.758	1403
311.788	989
311.842	296
311.847	248
311.896	1350
311.937	2390
311.950	2281
312.004	1879
312.027	1712
312.058	1546
312.112	1310
312.117	1305
312.165	1193
312.207	1135
312.297	1172
312.386	508
312.476	1198
312.566	2285
312.656	1353
312.745	312
312.835	1632
312.925	1197
313.015	1179
313.104	763
313.194	1526
313.284	874
313.374	1256
313.463	1273
313.553	500
313.643	624
313.732	982
313.822	7
313.912	1384
314.001	491
314.091	1092
314.180	1039
314.270	2004
314.360	1265
314.449	841
314.539	812
314.628	867
314.718	999
314.808	1127
314.897	715
314.987	1229
315.076	846
315.166	1673
315.255	1172
315.345	1041
315.434	1178
315.524	1978
315.613	2167
315.703	2257
315.792	5464
315.881	21480
315.971	5874
316.060	3401
316.150	2812
316.239	2993
316.328	1196
316.418	628
316.507	1069
316.597	2588
316.686	1201
316.775	835
316.865	2337
316.954	2312
317.043	484
317.133	876
317.222	514
317.311	905
317.400	232
317.490	2364
317.579	1475
317.668	1647
317.757	3383
317.847	10969
317.936	36974
318.025	10109
318.114	5511
318.203	3297
318.293	2230
318.382	4306
318.471	2989
318.560	4722
318.649	7154
318.738	1878
318.828	1028
318.917	1233
319.006	2136
319.095	4121
319.184	8735
319.273	6599
319.362	3895
319.451	1124
319.540	1243
319.629	3965
319.718	4362
319.807	2396
319.896	3234
319.985	11880
320.074	4287
320.163	887
320.252	1552
320.341	1583
320.430	465
320.519	2696
320.608	867
320.697	1747
320.786	1467
320.875	1521
320.964	2171
321.053	4523
321.142	5163
321.230	5239
321.319	4031
321.408	8947
321.497	3441
321.586	3990
321.675	3379
321.764	3417
321.852	2552
321.941	5364
322.030	3106
322.119	3567
322.207	9639
322.296	5116
322.385	2383
322.474	3926
322.562	11401
322.651	5646
322.740	4520
322.829	5276
322.917	3897
323.006	3784
323.095	2955
323.183	1674
323.272	1509
323.361	5140
323.449	14835
323.538	4387
323.626	9205
323.715	5896
323.804	1769
323.892	8377
323.981	5156
324.069	2175
324.158	4882
324.246	3606
324.335	1499
324.424	3633
324.512	1750
324.601	1273
324.689	503
324.778	2785
324.866	3192
324.954	1916
325.043	680
325.131	1815
325.220	3506
325.308	3315
325.397	2952
325.485	1924
325.574	1430
325.662	1201
325.750	415
325.839	658
325.927	367
326.015	1172
326.104	748
326.192	2350
326.280	-269
326.369	431
326.457	1557
326.545	2488
326.634	565
326.722	1061
326.810	-174
326.898	1453
326.987	976
327.075	1871
327.163	1905
327.251	701
327.340	956
327.428	854
327.516	-24
327.604	977
327.692	766
327.781	1164
327.869	1303
327.957	1015
328.045	1139
328.133	1693
328.221	262
328.309	1245
328.397	510
328.485	975
328.574	1203
328.662	6188
328.750	2523
328.838	1318
328.926	544
329.014	899
329.102	535
329.190	3165
329.278	1774
329.366	379
329.454	-204
329.542	1085
329.630	-5
329.718	344
329.806	637
329.893	1847
329.981	212
330.069	2134
330.157	8642
330.245	29736
330.333	13554
330.421	1017
330.509	1141
330.597	7922
330.684	3971
330.772	577
330.860	687
330.948	1128
331.036	304
331.123	239
331.211	470
331.299	256
331.387	1052
331.475	1885
331.562	875
331.650	712
331.738	229
331.825	884
331.913	-341
332.001	783
332.089	236
332.176	1556
332.264	2967
332.352	3039
332.439	-24
332.527	902
332.614	283
332.702	1008
332.790	462
332.877	2025
332.965	3634
333.052	1418
333.140	1033
333.228	3314
333.315	846
333.403	797
333.490	2194
333.578	1530
333.665	4289
333.753	2329
333.840	6
333.928	1096
334.015	2221
334.103	3711
334.190	12451
334.278	3027
334.365	1555
334.452	2383
334.540	493
334.627	1220
334.715	1129
334.802	3224
334.889	17223
334.977	17780
335.064	2359
335.151	870
335.239	1305
335.326	1170
335.413	5729
335.501	7652
335.588	327
335.675	803
335.762	427
335.850	1169
335.937	1523
336.024	3909
336.111	19114
336.199	9208
336.286	1765
336.373	1384
336.460	601
336.547	693
336.635	1053
336.722	421
336.809	588
336.896	1325
336.983	2686
337.070	8025
337.157	10954
337.245	10473
337.332	6564
337.419	7
337.506	-112
337.593	1044
337.680	2032
337.767	6450
337.854	1671
337.941	2068
338.028	2706
338.115	679
338.202	1673
338.289	2450
338.376	9312
338.463	2992
338.550	3236
338.637	3186
338.724	1314
338.811	3386
338.898	876
338.984	59
339.071	-84
339.158	1285
339.245	2916
339.332	1945
339.419	2108
339.506	2138
339.593	-870
339.679	596
339.766	438
339.853	272
339.940	2289
340.027	422
340.113	66
340.200	744
340.287	112
340.374	387
340.460	1543
340.547	528
340.634	1813
340.720	8128
340.807	3467
340.894	685
340.980	643
341.067	199
341.154	1226
341.240	1603
341.327	2438
341.414	888
341.500	764
341.587	1146
341.674	325
341.760	2524
341.847	2200
341.933	1284
342.020	-517
342.106	451
342.193	517
342.279	1369
342.366	8
342.452	1666
342.539	507
342.625	2813
342.712	8212
342.798	2724
342.885	774
342.971	-28
343.058	-82
343.144	52
343.230	212
343.317	1596
343.403	172
343.490	-140
343.576	-432
343.662	492
343.749	-247
343.835	945
343.921	2112
344.008	25715
344.094	60490
344.180	10958
344.267	1590
344.353	10719
344.439	10511
344.525	3271
344.612	1079
344.698	1291
344.784	78
344.870	324
344.957	-19
345.043	704
345.129	-293
345.215	1692
345.301	735
345.387	556
345.474	-441
345.560	-290
345.646	-24
345.732	1079
345.818	355
345.904	148
345.990	328
346.076	870
346.162	902
346.249	1015
346.335	-806
346.421	1349
346.507	4151
346.593	19128
346.679	2482
346.765	835
346.851	-41
346.937	260
347.023	1300
347.108	785
347.194	-32
347.280	895
347.366	354
347.452	5101
347.538	22967
347.624	14422
347.710	9838
347.796	530
347.882	260
347.967	425
348.053	-71
348.139	411
348.225	-49
348.311	-283
348.397	-101
348.482	1698
348.568	626
348.654	-188
348.740	542
348.825	-202
348.911	1962
348.997	10246
349.083	21883
349.168	1665
349.254	432
349.340	681
349.425	-463
349.511	346
349.597	-800
349.682	2055
349.768	9463
349.854	3689
349.939	870
350.025	263
350.110	161
350.196	36
350.282	-717
350.367	535
350.453	304
350.538	873
350.624	-221
350.709	680
350.795	-451
350.880	-204
350.966	828
351.051	625
351.137	-57
351.222	996
351.308	2537
351.393	7744
351.479	1516
351.564	-210
351.649	268
351.735	293
351.820	-4
351.906	554
351.991	1
352.076	4988
352.162	6413
352.247	1590
352.332	83
352.418	1856
352.503	2025
352.588	10832
352.673	7937
352.759	1609
352.844	67
352.929	1222
353.014	210
353.100	1222
353.185	1531
353.270	1867
353.355	2487
353.441	1309
353.526	277
353.611	2041
353.696	2095
353.781	2106
353.866	27
353.952	1670
354.037	2170
354.122	5379
354.207	4206
354.292	1711
354.377	8
354.462	827
354.547	226
354.632	1074
354.717	820
354.802	915
354.887	86
354.972	191
355.057	402
355.142	-341
355.227	1350
355.312	1036
355.397	2663
355.482	8560
355.567	3191
355.652	3623
355.737	2521
355.822	12037
355.907	8723
355.991	1984
356.076	-195
356.161	659
356.246	308
356.331	901
356.416	1570
356.501	27200
356.585	25628
356.670	2067
356.755	2567
356.840	2011
356.924	15126
357.009	67107
357.094	22418
357.179	2442
357.263	1299
357.348	2674
357.433	892
357.517	1476
357.602	1014
357.687	598
357.771	2479
357.856	13099
357.941	7471
358.025	14604
358.110	73739
358.195	31042
358.279	2136
358.364	1616
358.448	7522
358.533	22057
358.617	14674
358.702	15667
358.787	4700
358.871	2162
358.956	1652
359.040	194
359.125	-343
359.209	872
359.294	5527
359.378	10231
359.462	2031
359.547	1216
359.631	180
359.716	-403
359.800	636
359.885	897
359.969	-523
360.053	1607
360.138	-719
360.222	631
360.306	2093
360.391	2347
360.475	5983
360.559	11943
360.644	6956
360.728	4980
360.812	13300
360.896	41882
360.981	11520
361.065	3358
361.149	1676
361.233	1376
361.318	-380
361.402	1213
361.486	1110
361.570	166
361.654	1343
361.739	3513
361.823	23699
361.907	42359
361.991	5165
362.075	2308
362.159	3837
362.243	4574
362.327	2083
362.411	6166
362.495	2102
362.580	741
362.664	1052
362.748	-158
362.832	809
362.916	1090
363.000	8651
363.084	30830
363.168	48247
363.252	9079
363.336	1909
363.420	3198
363.503	7705
363.587	8805
363.671	1796
363.755	668
363.839	3315
363.923	613
364.007	1901
364.091	2723
364.175	1564
364.258	14571
364.342	9761
364.426	19464
364.510	8745
364.594	4352
364.677	5349
364.761	33244
364.845	24020
364.929	4683
365.013	2768
365.096	3578
365.180	2398
365.264	3499
365.347	12171
365.431	4526
365.515	207
365.598	515
365.682	1347
365.766	-481
365.849	534
365.933	1140
366.017	1830
366.100	-664
366.184	-335
366.267	374
366.351	-169
366.435	-157
366.518	-524
366.602	247
366.685	-213
366.769	614
366.852	425
366.936	2890
367.019	534
367.103	-51
367.186	1084
367.270	-2
367.353	-1055
367.436	744
367.520	202
367.603	338
367.687	364
367.770	1697
367.853	1776
367.937	7320
368.020	12644
368.104	2314
368.187	2084
368.270	3088
368.353	1129
368.437	3156
368.520	4671
368.603	3564
368.687	6813
368.770	16699
368.853	2521
368.936	1770
369.020	2349
369.103	408
369.186	-535
369.269	458
369.352	1205
369.436	1515
369.519	1065
369.602	-1067
369.685	833
369.768	-460
369.851	326
369.934	-144
370.018	-555
370.101	1882
370.184	2770
370.267	1288
370.350	1016
370.433	3923
370.516	14560
370.599	23034
370.682	4528
370.765	6947
370.848	9345
370.931	20059
371.014	7198
371.097	-331
371.180	632
371.263	0
371.346	-674
371.429	344
371.511	-757
371.594	1107
371.677	1408
371.760	2069
371.843	2000
371.926	21220
372.009	58433
372.091	16635
372.174	7319
372.257	21881
372.340	7269
372.423	2942
372.505	2844
372.588	977
372.671	5542
372.754	19945
372.836	8924
372.919	3214
373.002	5656
373.085	1452
373.167	2024
373.250	7844
373.332	19962
373.415	33097
373.498	79203
373.580	26620
373.663	38584
373.746	54964
373.828	7333
373.911	2489
373.993	1630
374.076	5672
374.159	4555
374.241	4203
374.324	14936
374.406	11032
374.489	18037
374.571	58505
374.654	20828
374.736	9302
374.819	33510
374.901	52842
374.983	56611
375.066	8790
375.148	1445
375.231	4677
375.313	10534
375.395	3540
375.478	350
375.560	99
375.643	804
375.725	8875
375.807	42971
375.890	31391
375.972	4903
376.054	3889
376.136	5145
376.219	1511
376.301	9563
376.383	35045
376.465	13107
376.548	4861
376.630	7080
376.712	26344
376.794	11324
376.877	1382
376.959	-460
377.041	1010
377.123	157
377.205	1491
377.287	-752
377.369	621
377.452	-253
377.534	-231
377.616	-19
377.698	-29
377.780	-463
377.862	238
377.944	419
378.026	-6
378.108	81
378.190	420
378.272	561
378.354	-694
378.436	-1106
378.518	79
378.600	2638
378.682	3028
378.764	9105
378.846	8334
378.928	570
379.010	1081
379.091	1429
379.173	578
379.255	-419
379.337	477
379.419	3973
379.501	15932
379.583	4963
379.664	513
379.746	1605
379.828	10025
379.910	13352
379.991	12963
380.073	998
380.155	857
380.237	547
380.318	788
380.400	-277
380.482	1424
380.564	2337
380.645	1970
380.727	1571
380.809	1844
380.890	768
380.972	-142
381.053	475
381.135	1206
381.217	2512
381.298	11069
381.380	4927
381.461	4540
381.543	26818
381.624	35090
381.706	4692
381.787	2010
381.869	1704
381.951	13589
382.032	58011
382.113	37832
382.195	3007
382.276	3663
382.358	6338
382.439	23907
382.521	31384
382.602	53385
382.684	20325
382.765	28835
382.846	28788
382.928	39322
383.009	21667
383.090	13578
383.172	55260
383.253	92336
383.334	30196
383.416	37813
383.497	20125
383.578	5956
383.659	10865
383.741	47681
383.822	138690
383.903	72108
383.984	21085
384.066	41630
384.147	23617
384.228	4800
384.309	2492
384.390	1855
384.471	1573
384.553	2593
384.634	1626
384.715	3177
384.796	239
384.877	1088
384.958	9411
385.039	11117
385.120	3019
385.201	2295
385.282	362
385.363	1774
385.444	883
385.525	3510
385.606	17879
385.687	17813
385.768	2215
385.849	2742
385.930	23826
386.011	48369
386.092	10815
386.173	1768
386.254	610
386.335	1181
386.416	1064
386.496	5344
386.577	9273
386.658	2756
386.739	415
386.820	1176
386.901	-548
386.981	1184
387.062	-30
387.143	1163
387.224	8791
387.304	10266
387.385	3112
387.466	-198
387.547	1320
387.627	559
387.708	2266
387.789	19424
387.869	26096
387.950	7576
388.031	-156
388.111	-1386
388.192	1315
388.273	2268
388.353	247
388.434	716
388.514	3532
388.595	24515
388.676	31193
388.756	11209
388.837	8533
388.917	4541
388.998	-1106
389.078	642
389.159	100
389.239	-421
389.320	1785
389.400	-13
389.480	3795
389.561	10862
389.641	5392
389.722	726
389.802	921
389.883	4716
389.963	14340
390.043	8712
390.124	378
390.204	2839
390.284	10661
390.365	6500
390.445	7364
390.525	30543
390.605	30447
390.686	5650
390.766	1922
390.846	1919
390.927	-90
391.007	-255
391.087	728
391.167	-101
391.247	-583
391.328	1489
391.408	346
391.488	1339
391.568	-1230
391.648	306
391.728	1591
391.808	2349
391.888	1835
391.969	5813
392.049	9506
392.129	3364
392.209	4170
392.289	14284
392.369	7102
392.449	2816
392.529	1226
392.609	2636
392.689	4135
392.769	13231
392.849	12272
392.929	8001
393.009	18323
393.089	15463
393.169	15620
393.248	62594
393.328	287414
393.408	336784
393.488	74777
393.568	14957
393.648	5942
393.728	4118
393.807	2782
393.887	3631
393.967	2632
394.047	2594
394.127	3405
394.206	6946
394.286	28515
394.366	154006
394.446	177908
394.525	32287
394.605	5461
394.685	3828
394.764	4649
394.844	7139
394.924	4886
395.003	1895
395.083	1644
395.163	2618
395.242	1142
395.322	2161
395.402	-601
395.481	2763
395.561	2620
395.640	8783
395.720	9665
395.799	9730
395.879	7817
395.958	8810
396.038	40900
396.117	204395
396.197	232895
396.276	50272
396.356	9418
396.435	6080
396.515	4545
396.594	5574
396.673	14891
396.753	72736
396.832	266796
396.912	199774
396.991	33984
397.070	7651
397.150	2518
397.229	3055
397.308	3088
397.388	5610
397.467	2939
397.546	1734
397.625	-1283
397.705	2667
397.784	329
397.863	366
397.942	-412
398.022	318
398.101	1534
398.180	6045
398.259	2678
398.338	996
398.417	-334
398.497	295
398.576	363
398.655	-453
398.734	171
398.813	-337
398.892	1411
398.971	7467
399.050	2954
399.129	-980
399.208	-585
399.287	70
399.366	-156
399.445	-510
399.524	-576
399.603	-1651
399.682	476
399.761	2691
399.840	7221
399.919	6943
399.998	-341
400.077	-540
400.156	-1736
400.235	2249
400.313	-520
400.392	27
400.471	3663
400.550	8612
400.629	85
400.708	286
400.786	-1344
400.865	-77
400.944	-447
401.023	2622
401.102	-1139
401.180	-365
401.259	-1271
401.338	-705
401.416	-321
401.495	-91
401.574	-771
401.652	-221
401.731	773
401.810	-1161
401.888	-1426
401.967	-1542
402.046	-499
402.124	735
402.203	-1043
402.281	260
402.360	-1001
402.438	1057
402.517	-753
402.596	-78
402.674	-842
402.753	-440
402.831	-291
402.910	-416
402.988	942
403.066	5824
403.145	3847
403.223	2928
403.302	3923
403.380	4648
403.459	3419
403.537	506
403.615	-640
403.694	-1817
403.772	801
403.850	-509
403.929	-706
404.007	-1249
404.085	675
404.164	-178
404.242	-988
404.320	1045
404.398	3350
404.477	8485
404.555	35430
404.633	33872
404.711	4921
404.789	1285
404.868	-694
404.946	-340
405.024	-534
405.102	-239
405.180	-1346
405.258	-1355
405.336	-433
405.415	-1252
405.493	-444
405.571	433
405.649	-1546
405.727	-1490
405.805	-491
405.883	-576
405.961	-4
406.039	-1052
406.117	-1643
406.195	755
406.273	4374
406.351	26770
406.429	16105
406.507	607
406.585	-1251
406.663	73
406.740	134
406.818	-353
406.896	-851
406.974	477
407.052	73
407.130	13898
407.208	20862
407.285	4010
407.363	-1031
407.441	-226
407.519	-821
407.596	404
407.674	4721
407.752	26607
407.830	22232
407.907	2963
407.985	-1459
408.063	-65
408.141	-2131
408.218	-173
408.296	-1640
408.373	-38
408.451	-824
408.529	-746
408.606	-1313
408.684	-323
408.762	-825
408.839	-1449
408.917	-2294
408.994	-895
409.072	-1402
409.149	-524
409.227	-274
409.304	127
409.382	-454
409.459	-924
409.537	335
409.614	20
409.692	-513
409.769	25
409.846	27
409.924	1850
410.001	-1388
410.079	-305
410.156	422
410.233	-142
410.311	-1250
410.388	-705
410.465	-760
410.543	-1038
410.620	-668
410.697	-210
410.775	-904
410.852	-1368
410.929	-246
411.006	959
411.083	-743
411.161	430
411.238	-25
411.315	-466
411.392	-992
411.469	338
411.547	-876
411.624	-1621
411.701	-998
411.778	62
411.855	107
411.932	-142
412.009	-1446
412.086	15
412.163	-1163
412.240	-884
412.317	-566
412.394	-1072
412.471	-341
412.548	-1044
412.625	-1465
412.702	-609
412.779	-604
412.856	-450
412.933	-1295
413.010	313
413.087	127
413.164	3197
413.241	5903
413.318	651
413.395	327
413.471	654
413.548	-353
413.625	266
413.702	-1725
413.779	-1180
413.855	-834
413.932	-1066
414.009	-1384
414.086	-1031
414.162	-466
414.239	286
414.316	3284
414.393	11010
414.469	2635
414.546	-731
414.623	-1563
414.699	-1167
414.776	-1012
414.853	-1002
414.929	-1149
415.006	-996
415.082	-517
415.159	-903
415.236	-743
415.312	-729
415.389	150
415.465	67
415.542	-277
415.618	-1829
415.695	-429
415.771	-1625
415.848	-1075
415.924	-938
416.000	-1186
416.077	-370
416.153	-2558
416.230	-1287
416.306	-1102
416.383	-612
416.459	-778
416.535	-1325
416.612	-2105
416.688	-1170
416.764	-744
416.841	-1246
416.917	-1312
416.993	-624
417.069	-352
417.146	-696
417.222	-787
417.298	-373
417.374	-901
417.451	-638
417.527	-1189
417.603	-791
417.679	-880
417.755	-383
417.831	-1499
417.908	-783
417.984	-949
418.060	-1638
418.136	150
418.212	97
418.288	-708
418.364	36
418.440	-1954
418.516	375
418.592	-77
418.668	1188
418.744	2171
418.820	2268
418.896	-770
418.972	-1191
419.048	-338
419.124	1099
419.200	119
419.276	-660
419.352	-2141
419.428	-278
419.504	-1391
419.579	-611
419.655	-1345
419.731	-525
419.807	1262
419.883	3042
419.959	2117
420.034	4
420.110	-44
420.186	6095
420.262	5876
420.337	-22
420.413	-1161
420.489	-587
420.565	-115
420.640	-812
420.716	-1
420.792	-1901
420.867	-99
420.943	-1070
421.019	41
421.094	-611
421.170	-1150
421.245	-1194
421.321	-190
421.397	180
421.472	3134
421.548	13617
421.623	9017
421.699	798
421.774	307
421.850	-60
421.925	409
422.001	1160
422.076	471
422.152	1233
422.227	658
422.302	3853
422.378	3551
422.453	7622
422.529	22546
422.604	81355
422.679	162721
422.755	98724
422.830	27975
422.905	10563
422.981	4946
423.056	2908
423.131	1931
423.207	1081
423.282	342
423.357	2470
423.432	951
423.508	1637
423.583	1912
423.658	2561
423.733	-62
423.808	308
423.883	1329
423.959	520
424.034	-81
424.109	880
424.184	-1228
424.259	-128
424.334	-804
424.409	-544
424.484	-835
424.559	-224
424.634	-691
424.709	165
424.784	-209
424.859	427
424.934	-293
425.009	4405
425.084	8511
425.159	2545
425.234	-17
425.309	-820
425.384	2790
425.459	6996
425.534	1669
425.609	-532
425.683	-1346
425.758	-551
425.833	-193
425.908	-353
425.983	1355
426.058	9276
426.132	4058
426.207	-478
426.282	324
426.357	-372
426.431	-1348
426.506	-92
426.581	-705
426.655	-530
426.730	-1087
426.805	-1496
426.879	-749
426.954	-379
427.029	338
427.103	9015
427.178	25190
427.253	12526
427.327	547
427.402	1176
427.476	6118
427.551	4405
427.625	-419
427.700	457
427.774	-1330
427.849	-559
427.923	-1455
427.998	-758
428.072	-1077
428.147	1372
428.221	6652
428.296	26542
428.370	16626
428.444	311
428.519	-334
428.593	590
428.667	265
428.742	1576
428.816	2294
428.890	13846
428.965	29759
429.039	10890
429.113	1271
429.188	814
429.262	-836
429.336	1033
429.410	3100
429.485	2884
429.559	435
429.633	984
429.707	-469
429.781	1545
429.855	13253
429.930	26335
430.004	9761
430.078	8701
430.152	12969
430.226	39288
430.300	47441
430.374	6810
430.448	1165
430.522	2015
430.596	8298
430.670	9036
430.744	26812
430.818	46871
430.892	10585
430.966	270
431.040	-503
431.114	-1644
431.188	-1369
431.262	-498
431.336	-1324
431.410	630
431.484	1404
431.557	2764
431.631	-761
431.705	-498
431.779	2749
431.853	23859
431.927	19735
432.000	2081
432.074	-1314
432.148	-632
432.222	-765
432.295	-677
432.369	-934
432.443	325
432.516	7552
432.590	28576
432.664	12289
432.737	433
432.811	-2052
432.885	-941
432.958	-579
433.032	-1055
433.106	-1205
433.179	-852
433.253	-1366
433.326	-938
433.400	-1176
433.473	-748
433.547	-1968
433.620	-882
433.694	48
433.767	137
433.841	-673
433.914	-1593
433.988	-859
434.061	-1206
434.134	-1142
434.208	-1632
434.281	-1681
434.355	-999
434.428	-1205
434.501	-826
434.575	-1113
434.648	-941
434.721	-1065
434.795	-1275
434.868	-2274
434.941	-989
435.014	-1615
435.088	-778
435.161	-413
435.234	574
435.307	-57
435.381	-201
435.454	-710
435.527	141
435.600	23
435.673	555
435.746	-460
435.819	-867
435.892	-1308
435.966	-621
436.039	-1452
436.112	-777
436.185	-1093
436.258	-956
436.331	-1700
436.404	-1640
436.477	-1728
436.550	-1234
436.623	-1563
436.696	-1300
436.769	-1171
436.842	-585
436.915	-1390
436.987	-324
437.060	-1125
437.133	-316
437.206	-1717
437.279	-553
437.352	-1632
437.425	-622
437.498	-1692
437.570	301
437.643	1012
437.716	-419
437.789	-1255
437.861	252
437.934	2906
438.007	1937
438.080	-1163
438.152	-864
438.225	736
438.298	14796
438.370	51724
438.443	26578
438.516	4711
438.588	149
438.661	-1081
438.734	-586
438.806	-388
438.879	-168
438.951	-321
439.024	1265
439.096	-626
439.169	-1419
439.241	-1023
439.314	-643
439.386	-1671
439.459	-168
439.531	300
439.604	514
439.676	-556
439.749	-696
439.821	-1850
439.893	-1311
439.966	-1025
440.038	-586
440.110	-234
440.183	-877
440.255	-1132
440.327	297
440.400	4578
440.472	26753
440.544	25578
440.617	3211
440.689	865
440.761	1306
440.833	2515
440.905	3095
440.978	-459
441.050	-1189
441.122	-820
441.194	-755
441.266	-987
441.338	-1160
441.411	-79
441.483	6339
441.555	16314
441.627	4848
441.699	-990
441.771	230
441.843	-685
441.915	-947
441.987	-772
442.059	-341
442.131	460
442.203	295
442.275	1083
442.347	2090
442.419	1741
442.491	12568
442.563	39946
442.635	25806
442.706	6908
442.778	5680
442.850	1001
442.922	-176
442.994	21
443.066	738
443.137	221
443.209	397
443.281	1398
443.353	4318
443.425	18842
443.496	70551
443.568	85631
443.640	38740
443.711	7874
443.783	2187
443.855	733
443.926	310
443.998	-35
444.070	441
444.141	319
444.213	1315
444.285	2495
444.356	1760
444.428	112
444.499	-488
444.571	-1322
444.642	-177
444.714	84
444.785	942
444.857	2539
444.928	2671
445.000	2644
445.071	2237
445.143	2976
445.214	3080
445.285	4298
445.357	13328
445.428	47740
445.500	126068
445.571	94865
445.642	51920
445.714	17996
445.785	9720
445.856	4167
445.928	2865
445.999	2900
446.070	2257
446.141	1211
446.213	2261
446.284	381
446.355	218
446.426	-809
446.497	423
446.569	163
446.640	1808
446.711	2408
446.782	284
446.853	572
446.924	844
446.995	-21
447.066	266
447.138	14
447.209	644
447.280	-1709
447.351	-639
447.422	-798
447.493	-971
447.564	603
447.635	1638
447.706	853
447.777	-883
447.847	-665
447.918	-1261
447.989	-413
448.060	1028
448.131	1420
448.202	2973
448.273	1972
448.344	1433
448.414	-63
448.485	336
448.556	-748
448.627	-1222
448.698	-495
448.768	-413
448.839	-566
448.910	569
448.981	849
449.051	800
449.122	-79
449.193	-10
449.263	-737
449.334	-832
449.405	-460
449.475	2834
449.546	1997
449.616	1169
449.687	1056
449.758	568
449.828	-535
449.899	-755
449.969	-1551
450.040	-434
450.110	-210
450.181	159
450.251	-910
450.322	-85
450.392	-737
450.463	-16
450.533	-633
450.604	-180
450.674	-741
450.744	255
450.815	-538
450.885	15
450.955	-867
451.026	-389
451.096	-540
451.166	-5
451.237	1045
451.307	4431
451.377	2669
451.447	-135
451.518	-240
451.588	-1121
451.658	-616
451.728	502
451.799	3047
451.869	7729
451.939	2377
452.009	-344
452.079	-415
452.149	513
452.219	558
452.289	4948
452.360	6513
452.430	1378
452.500	-65
452.570	1923
452.640	2306
452.710	5294
452.780	10859
452.850	10357
452.920	10977
452.990	4970
453.060	1316
453.129	2080
453.199	2016
453.269	5648
453.339	21148
453.409	36695
453.479	22576
453.549	38719
453.619	42117
453.688	26584
453.758	3785
453.828	719
453.898	-257
453.968	136
454.037	-200
454.087	-224
454.107	-254
454.168	-459
454.177	-508
454.247	-22
454.249	-1
454.316	-13
454.330	206
454.386	769
454.411	1378
454.456	1886
454.492	3876
454.525	5620
454.574	3758
454.595	3006
454.655	721
454.665	363
454.734	1359
454.736	1478
454.804	3079
454.817	3950
454.873	5734
454.898	6988
454.943	9070
454.979	6009
455.013	3622
455.060	2916
455.082	2964
455.141	3460
455.152	3862
455.221	12397
455.222	12870
455.291	27604
455.303	30859
455.360	38514
455.384	49580
455.430	54343
455.465	45170
455.499	41495
455.546	20967
455.569	11779
455.627	7893
455.638	7403
455.707	1830
455.708	1848
455.777	945
455.789	974
455.846	961
455.869	977
455.916	993
455.950	840
455.985	550
456.031	1043
456.054	1266
456.112	1226
456.124	1228
456.193	1148
456.193	1128
456.262	1458
456.274	1679
456.332	2587
456.355	2332
456.401	1228
456.436	1174
456.470	1221
456.516	774
456.540	562
456.597	259
456.609	201
456.678	126
456.678	109
456.747	217
456.759	197
456.817	217
456.840	491
456.886	850
456.920	918
456.955	1046
457.001	1078
457.024	1315
457.082	2125
457.093	2193
457.162	3493
457.163	3524
457.232	2147
457.243	2194
457.301	2396
457.324	1950
457.370	1550
457.405	2174
457.439	2493
457.485	1349
457.508	992
457.566	1817
457.577	1957
457.646	2482
457.647	2512
457.715	4508
457.727	4895
457.784	7248
457.808	8798
457.853	10956
457.889	13497
457.922	14517
457.969	13040
457.991	13302
458.050	12971
458.060	12959
458.129	17435
458.130	17636
458.198	18917
458.211	17908
458.267	14400
458.292	11093
458.336	7548
458.372	6743
458.405	7246
458.453	9007
458.474	10432
458.533	17661
458.543	18262
458.611	28492
458.614	28789
458.680	24140
458.694	20445
458.749	12050
458.775	9241
458.818	5585
458.855	4064
458.887	3104
458.936	2609
458.955	2410
459.016	2953
459.024	3050
459.093	3738
459.097	3771
459.162	3967
459.177	4113
459.230	4845
459.257	5059
459.299	4867
459.338	4929
459.368	5005
459.418	4835
459.437	4535
459.499	3905
459.505	3904
459.574	3286
459.579	3272
459.643	2975
459.659	2878
459.711	2966
459.740	3347
459.780	3782
459.820	4044
459.849	4159
459.900	4437
459.917	4530
459.981	4612
459.986	4559
460.054	4358
460.061	4343
460.123	4781
460.141	4852
460.191	5383
460.222	5736
460.260	6289
460.302	7274
460.328	6721
460.382	5352
460.397	5562
460.462	5270
460.465	5455
460.534	11244
460.543	12006
460.602	27789
460.623	33814
460.671	53691
460.703	71035
460.739	58952
460.783	41864
460.808	37298
460.864	11957
460.876	9819
460.944	5053
460.945	4993
461.013	4761
461.024	4719
461.081	5006
461.104	5377
461.150	5047
461.184	4608
461.218	4532
461.264	4441
461.286	4485
461.345	4442
461.355	4463
461.423	5085
461.425	5075
461.491	5418
461.505	5778
461.559	12429
461.585	15227
461.628	21572
461.665	27992
461.696	28446
461.745	29703
461.764	25110
461.825	8562
461.832	8589
461.901	5975
461.905	6004
461.969	4931
461.985	4585
462.037	5066
462.065	5305
462.105	6311
462.145	7409
462.173	10044
462.225	15225
462.241	16672
462.305	22933
462.310	22110
462.378	9597
462.385	7939
462.446	6320
462.465	6002
462.514	5964
462.545	6138
462.582	5767
462.625	5561
462.650	5546
462.705	5173
462.718	5363
462.785	6521
462.786	6565
462.854	8755
462.865	9194
462.922	11227
462.945	12040
462.990	8384
463.025	5227
463.058	5017
463.104	4663
463.126	4569
463.184	4584
463.194	4723
463.262	5724
463.264	5762
463.330	5728
463.344	5690
463.398	6193
463.424	6215
463.466	5922
463.504	6131
463.533	6481
463.583	6634
463.601	6977
463.663	8061
463.669	8297
463.737	11403
463.743	11665
463.805	17780
463.823	19636
463.873	29229
463.903	34837
463.940	33525
463.982	32794
464.008	25881
464.062	10139
464.076	9652
464.142	5971
464.144	5946
464.211	5869
464.221	5957
464.279	6856
464.301	6984
464.347	7378
464.381	7920
464.414	8937
464.461	10246
464.482	11180
464.540	13643
464.550	13544
464.617	12927
464.620	12885
464.685	11311
464.699	10887
464.753	12110
464.779	12699
464.820	12580
464.859	12410
464.888	12076
464.938	11691
464.956	12023
465.018	13089
465.023	13016
465.091	11607
465.098	11452
465.158	11236
465.177	11269
465.226	11614
465.257	11648
465.293	11537
465.336	11283
465.361	12362
465.416	14719
465.428	15628
465.495	20741
465.496	20852
465.563	32809
465.575	34848
465.631	38050
465.654	39504
465.698	24068
465.734	10888
465.765	10151
465.813	8563
465.833	8696
465.893	9737
465.900	9622
465.968	8599
465.972	8497
466.035	9050
466.052	9213
466.102	9621
466.131	9855
466.170	9734
466.210	9509
466.237	10108
466.290	11270
466.304	11075
466.369	10058
466.372	10119
466.439	11475
466.449	11637
466.506	13366
466.528	14027
466.573	20839
466.607	25849
466.641	35917
466.687	49912
466.708	52950
466.766	61086
466.775	56277
466.842	19369
466.845	17576
466.909	13859
466.925	12999
466.977	12691
467.004	12548
467.044	12819
467.083	13070
467.111	14328
467.163	16624
467.178	17212
467.242	19516
467.245	19470
467.312	17752
467.321	17492
467.379	16255
467.400	15758
467.446	17466
467.480	18647
467.559	15868
467.638	14156
467.717	13641
467.796	16630
467.875	18689
467.955	16821
468.034	27403
468.113	57015
468.192	75228
468.271	16485
468.350	13300
468.429	14457
468.508	14357
468.588	13443
468.667	12940
468.746	11400
468.825	12690
468.904	12315
468.983	16643
469.062	25406
469.141	30335
469.220	13198
469.299	13117
469.378	13206
469.456	15769
469.535	14179
469.614	13474
469.693	14863
469.772	20220
469.851	27111
469.930	16930
470.009	14345
470.088	15022
470.166	16674
470.245	24089
470.324	28692
470.403	20940
470.482	16080
470.560	13542
470.639	14380
470.718	18188
470.797	13889
470.875	16215
470.954	21544
471.033	21202
471.111	9498
471.190	9874
471.269	10433
471.347	10375
471.426	11707
471.505	12378
471.583	13606
471.662	12556
471.740	10504
471.819	11990
471.898	10687
471.976	10509
472.055	11565
472.133	13493
472.212	18142
472.290	16599
472.369	11431
472.447	11319
472.526	10760
472.604	13512
472.683	13385
472.761	11878
472.839	12026
472.918	10455
472.996	11060
473.075	13334
473.153	12594
473.231	10224
473.310	12916
473.388	12152
473.466	12527
473.545	14515
473.623	19950
473.701	18462
473.780	11058
473.858	8499
473.936	11868
474.014	10457
474.093	13867
474.171	19842
474.249	27398
474.327	13470
474.405	9075
474.484	10633
474.562	11293
474.640	10593
474.718	11233
474.796	10959
474.874	9492
474.952	9095
475.030	8711
475.108	9305
475.187	11612
475.265	10642
475.343	15001
475.421	15286
475.499	10398
475.577	11930
475.655	17177
475.733	32208
475.811	52901
475.889	48497
475.966	25078
476.044	10714
476.122	12546
476.200	14788
476.278	10992
476.356	9345
476.434	11299
476.512	11705
476.590	15352
476.667	13001
476.745	9443
476.823	11318
476.901	10032
476.979	10636
477.056	9767
477.134	9373
477.212	10021
477.290	9484
477.367	8854
477.445	8463
477.523	9428
477.601	9335
477.678	9035
477.756	12656
477.834	13148
477.911	9109
477.989	9171
478.066	8362
478.144	11186
478.222	11380
478.299	16190
478.377	13035
478.454	8337
478.532	8475
478.609	9892
478.687	10432
478.764	8494
478.842	10502
478.919	12340
478.997	10230
479.074	9174
479.152	10815
479.229	14555
479.307	8514
479.384	7221
479.461	6911
479.539	9500
479.616	11133
479.694	9316
479.771	10591
479.848	11192
479.926	15540
480.003	16533
480.080	9756
480.157	8496
480.235	7170
480.312	8562
480.389	10804
480.467	16968
480.544	18923
480.621	10045
480.698	9831
480.775	10833
480.853	10986
480.930	8810
481.007	9501
481.084	13099
481.161	13917
481.238	10489
481.315	8139
481.392	7306
481.470	7846
481.547	7358
481.624	8547
481.701	8027
481.778	8841
481.855	11109
481.932	16394
482.009	29571
482.086	14633
482.163	9117
482.240	12988
482.317	18258
482.393	12334
482.470	8785
482.547	9712
482.624	8164
482.701	8023
482.778	7316
482.855	8120
482.932	7111
483.009	7587
483.085	9856
483.162	11756
483.239	10106
483.316	7900
483.393	8710
483.469	8762
483.546	10419
483.623	10696
483.699	8687
483.776	8521
483.853	11372
483.930	18584
484.006	44174
484.083	70540
484.160	30918
484.236	43503
484.313	32327
484.389	25201
484.466	22017
484.543	21795
484.619	21815
484.696	24108
484.772	24751
484.849	25630
484.925	20264
485.002	19957
485.078	21489
485.155	20569
485.231	19832
485.308	19115
485.384	21166
485.461	27989
485.537	46975
485.614	48176
485.690	20744
485.766	18853
485.843	23089
485.919	34086
485.995	32152
486.072	16920
486.148	17251
486.224	17221
486.301	18629
486.377	22744
486.453	22241
486.530	21282
486.606	27511
486.682	31069
486.758	38878
486.835	42338
486.911	36972
486.987	63323
487.063	68632
487.139	86898
487.215	55755
487.292	24183
487.368	20556
487.444	23355
487.520	27838
487.596	25549
487.672	37004
487.748	76642
487.824	99508
487.900	36516
487.976	24102
488.052	23002
488.128	27435
488.204	22126
488.280	19680
488.356	25949
488.432	55485
488.508	72810
488.584	24454
488.660	20082
488.736	19767
488.812	20249
488.888	27343
488.964	39962
489.039	94077
489.115	130523
489.191	59132
489.267	19768
489.343	18324
489.418	14703
489.494	14750
489.570	13845
489.646	15805
489.722	14609
489.797	16862
489.873	30133
489.949	62815
490.024	40269
490.100	14718
490.176	16495
490.251	21074
490.327	27998
490.403	14888
490.478	12832
490.554	13064
490.629	12828
490.705	12255
490.781	14845
490.856	14649
490.932	16620
491.007	17464
491.083	15130
491.158	14561
491.234	22722
491.309	46819
491.385	38356
491.460	14758
491.536	16021
491.611	14257
491.686	17878
491.762	26416
491.837	59529
491.913	93888
491.988	135875
492.063	143920
492.139	35761
492.214	21253
492.289	12101
492.365	13774
492.440	15828
492.515	15488
492.590	15210
492.666	12904
492.741	19496
492.816	27144
492.891	15079
492.967	15794
493.042	17200
493.117	21177
493.192	34517
493.267	106528
493.342	369939
493.418	398488
493.493	35023
493.568	14561
493.643	14274
493.718	17498
493.793	24718
493.868	26847
493.943	17694
494.018	12588
494.093	9926
494.168	11828
494.243	10321
494.318	9409
494.393	8645
494.468	8847
494.543	10196
494.618	12363
494.693	10339
494.768	11187
494.842	9152
494.917	9533
494.992	10689
495.067	9132
495.142	9194
495.217	11667
495.292	11135
495.366	13088
495.441	16202
495.516	20788
495.591	38947
495.665	134111
495.740	274126
495.815	73753
495.890	16738
495.964	12240
496.039	15264
496.114	13143
496.188	15234
496.263	14749
496.338	12641
496.412	14248
496.487	16972
496.561	19605
496.636	17529
496.710	13501
496.785	16522
496.860	17541
496.934	13560
497.009	14043
497.083	12970
497.158	13842
497.232	17474
497.307	22216
497.381	16413
497.455	21663
497.530	25572
497.604	17311
497.679	20548
497.753	31358
497.827	35801
497.902	30324
497.976	41157
498.050	111109
498.125	358220
498.199	256785
498.273	48496
498.348	39994
498.422	31964
498.496	31929
498.570	28184
498.645	19554
498.719	18060
498.793	24307
498.867	37206
498.941	55561
499.016	160694
499.090	351580
499.164	72409
499.238	15713
499.312	15978
499.386	20821
499.460	16461
499.534	16501
499.609	19926
499.683	28043
499.757	29335
499.831	77775
499.905	259810
499.979	165993
500.053	33494
500.127	36492
500.201	27401
500.275	16399
500.349	15884
500.422	18566
500.496	32387
500.570	75044
500.644	159726
500.718	229115
500.792	31835
500.866	15934
500.940	20417
501.013	15917
501.087	17445
501.161	33674
501.235	41796
501.309	98433
501.382	240525
501.456	144598
501.530	44742
501.603	71575
501.677	19290
501.751	12119
501.825	17355
501.898	37500
501.972	95443
502.046	38672
502.119	18211
502.193	48555
502.266	100157
502.340	34891
502.413	49360
502.487	80355
502.561	39879
502.634	14125
502.708	13610
502.781	11476
502.855	9564
502.928	7507
503.002	8170
503.075	7859
503.149	8874
503.222	9125
503.295	9987
503.369	13620
503.442	23127
503.516	81879
503.589	174171
503.662	86144
503.736	33584
503.809	83915
503.882	56296
503.956	98011
504.029	65362
504.102	48553
504.175	50145
504.249	18484
504.322	14438
504.395	13442
504.468	8706
504.542	9048
504.615	6663
504.688	7774
504.761	6794
504.834	12002
504.907	15865
504.980	23027
505.053	10355
505.127	14925
505.200	15768
505.273	14444
505.346	8186
505.419	6145
505.492	6921
505.565	5090
505.638	6224
505.711	6352
505.784	4957
505.857	5413
505.930	6888
506.003	5886
506.076	8707
506.149	10979
506.221	11646
506.294	15061
506.367	42645
506.440	123272
506.513	40000
506.586	13794
506.659	6484
506.731	7631
506.804	11566
506.877	15440
506.950	9214
507.022	7960
507.095	9778
507.168	11555
507.241	7692
507.313	7068
507.386	9136
507.459	12588
507.531	6857
507.604	6290
507.677	6199
507.749	5380
507.822	10543
507.894	20651
507.967	20081
508.040	9663
508.112	9556
508.185	9092
508.257	9709
508.330	15838
508.402	9351
508.475	9045
508.547	9040
508.620	10577
508.692	16067
508.765	8366
508.837	6577
508.909	7995
508.982	7774
509.054	10425
509.127	7750
509.199	7285
509.271	6524
509.344	6920
509.416	6370
509.488	8325
509.560	8698
509.633	9395
509.705	10292
509.777	10484
509.849	15615
509.922	9257
509.994	8086
510.066	9331
510.138	8725
510.210	17425
510.283	13319
510.355	12107
510.427	11059
510.499	9375
510.571	9493
510.643	10239
510.715	20332
510.787	13378
510.859	10772
510.931	13407
511.003	18500
511.076	13568
511.148	8689
511.219	10420
511.291	17268
511.363	17043
511.435	9271
511.507	7720
511.579	8525
511.651	9239
511.723	8061
511.795	7830
511.867	8749
511.939	13203
512.010	24325
512.082	14505
512.154	8869
512.226	9969
512.298	15452
512.369	21166
512.441	15774
512.513	16454
512.585	11077
512.656	12855
512.728	13355
512.800	9897
512.871	9587
512.943	10559
513.015	8342
513.086	9989
513.158	11973
513.230	12053
513.301	18692
513.373	18584
513.444	10365
513.516	8255
513.588	9842
513.659	11919
513.731	14707
513.802	13081
513.874	33242
513.945	49820
514.016	12066
514.088	10369
514.159	11646
514.231	16346
514.302	16956
514.374	13175
514.445	12713
514.516	28701
514.588	15262
514.659	13329
514.730	24059
514.802	16534
514.873	11816
514.944	13482
515.016	12369
515.087	14146
515.158	18639
515.229	21967
515.301	11515
515.372	15136
515.443	9956
515.514	9410
515.585	8416
515.656	9330
515.728	8697
515.799	7393
515.870	10180
515.941	10960
516.012	10614
516.083	15318
516.154	16444
516.225	22483
516.296	21003
516.367	17265
516.438	19496
516.509	27924
516.580	50154
516.651	156395
516.722	442208
516.793	122671
516.864	33244
516.935	31548
517.006	36854
517.077	62282
517.148	164679
517.219	540797
517.289	604048
517.360	155416
517.431	38501
517.502	19500
517.573	19178
517.643	17553
517.714	19699
517.785	19546
517.856	19294
517.926	23854
517.997	26798
518.068	33652
518.138	52052
518.209	103078
518.280	380823
518.350	1028120
518.421	268230
518.492	42475
518.562	24926
518.633	23385
518.703	20030
518.774	35122
518.845	59753
518.915	47376
518.986	22831
519.056	25165
519.127	46843
519.197	71755
519.268	138568
519.338	54593
519.408	20712
519.479	28042
519.549	17049
519.620	13591
519.690	9589
519.760	10077
519.831	11368
519.901	10023
519.971	9771
520.042	10225
520.112	13005
520.182	15766
520.253	17678
520.323	15599
520.393	36823
520.463	52355
520.534	39462
520.604	79827
520.674	21754
520.744	32035
520.814	99174
520.885	55291
520.955	51380
521.025	145279
521.095	30663
521.165	11056
521.235	9882
521.305	8381
521.375	9000
521.445	11353
521.515	15013
521.585	18324
521.655	12745
521.725	13740
521.795	10372
521.865	6835
521.935	15856
522.005	9250
522.075	7658
522.145	9955
522.215	10250
522.285	15246
522.355	23806
522.424	41368
522.494	29606
522.564	19624
522.634	47915
522.704	114769
522.774	25876
522.843	11355
522.913	10265
522.983	13142
523.053	9629
523.122	11145
523.192	21003
523.262	71522
523.331	47291
523.401	9747
523.471	7203
523.540	8617
523.610	4932
523.680	6106
523.749	7609
523.819	10023
523.888	7728
523.958	5957
524.027	6667
524.097	7921
524.166	7082
524.236	9034
524.305	8731
524.375	6279
524.444	5241
524.514	8095
524.583	7705
524.653	9543
524.722	10712
524.791	6754
524.861	7637
524.930	5333
524.999	7810
525.069	12107
525.138	8218
525.207	9850
525.277	6563
525.346	7068
525.415	7565
525.484	7673
525.554	8871
525.623	9088
525.692	8100
525.761	8550
525.830	8793
525.900	8994
525.969	15134
526.038	22389
526.107	44835
526.176	108691
526.245	72226
526.314	36790
526.383	68323
526.452	77950
526.522	146155
526.591	120289
526.660	54664
526.729	25381
526.797	33607
526.867	87335
526.935	321166
527.004	354755
527.073	129722
527.142	16348
527.211	10380
527.280	13988
527.349	12508
527.418	5865
527.487	8273
527.555	6323
527.624	5690
527.693	4316
527.762	6580
527.831	4152
527.899	5841
527.968	5869
528.037	4480
528.106	10691
528.174	18959
528.243	13947
528.312	22615
528.380	24244
528.449	6502
528.518	6237
528.586	3424
528.655	5367
528.723	3970
528.792	3809
528.861	4749
528.929	3558
528.998	5548
529.066	4674
529.135	4834
529.203	5314
529.272	3932
529.340	6127
529.409	7260
529.477	4716
529.545	7957
529.614	11399
529.682	11213
529.751	12488
529.819	17655
529.887	9030
529.956	5904
530.024	7545
530.092	6219
530.161	9350
530.229	13966
530.297	6770
530.365	6805
530.434	5195
530.502	4092
530.570	6676
530.638	3357
530.707	6783
530.775	6275
530.843	5006
530.911	4919
530.979	5721
531.047	5001
531.115	5618
531.183	6172
531.252	6362
531.320	5109
531.388	4862
531.456	6491
531.524	3859
531.592	6376
531.660	7451
531.728	5358
531.796	5896
531.864	6084
531.932	6892
532.000	5855
532.067	8114
532.135	7813
532.203	9570
532.271	11212
532.339	22438
532.407	52803
532.475	21927
532.542	11958
532.610	14974
532.678	25086
532.746	105252
532.814	178108
532.881	31583
532.949	9142
533.017	7225
533.084	7005
533.152	5987
533.220	6440
533.287	7409
533.355	6090
533.423	6377
533.490	5456
533.558	6189
533.625	6432
533.693	5574
533.761	7425
533.828	7832
533.896	7694
533.963	20376
534.031	21847
534.098	29336
534.166	10260
534.233	7089
534.300	8335
534.368	8820
534.435	7681
534.503	9096
534.570	13159
534.637	8252
534.705	8016
534.772	10123
534.840	18096
534.907	56512
534.974	49224
535.041	9468
535.109	8768
535.176	5275
535.243	5687
535.310	6345
535.378	5405
535.445	6036
535.512	4786
535.579	5761
535.646	5165
535.714	5787
535.781	7244
535.848	7151
535.915	8113
535.982	8232
536.049	8328
536.116	9266
536.183	7329
536.250	7275
536.317	7123
536.384	11055
536.451	15978
536.518	13785
536.585	9131
536.652	14592
536.719	19460
536.786	11762
536.853	11197
536.920	19020
536.987	28666
537.053	31185
537.120	112680
537.187	58710
537.254	7740
537.321	5773
537.388	7393
537.454	5303
537.521	4502
537.588	5340
537.654	7814
537.721	7364
537.788	7060
537.855	5727
537.921	6460
537.988	6537
538.055	7569
538.121	6747
538.188	8554
538.254	16678
538.321	28424
538.388	13747
538.454	6545
538.521	5957
538.587	5611
538.654	4345
538.720	5534
538.787	5838
538.853	7364
538.920	8188
538.986	8250
539.053	5888
539.119	7930
539.185	6477
539.252	10079
539.318	14802
539.385	9973
539.451	7506
539.517	9653
539.583	13094
539.650	37248
539.716	67432
539.782	11522
539.849	7272
539.915	7394
539.981	8154
540.047	9905
540.114	8399
540.180	8726
540.246	8482
540.312	14858
540.378	29067
540.444	24807
540.510	36655
540.576	78667
540.643	14496
540.709	5798
540.775	7015
540.841	7019
540.907	14008
540.973	23938
541.039	16880
541.105	14515
541.171	6324
541.237	6543
541.303	7993
541.369	10971
541.435	14843
541.500	23522
541.566	10140
541.632	6365
541.698	6230
541.764	5856
541.830	5356
541.896	5206
541.961	6396
542.027	5619
542.093	7698
542.159	8014
542.224	8785
542.290	16376
542.356	26021
542.421	25606
542.487	13520
542.553	9332
542.618	8369
542.684	6524
542.750	7793
542.815	11760
542.881	23157
542.947	77320
543.012	34890
543.078	6149
543.143	5219
543.209	7689
543.274	8166
543.340	11985
543.405	30919
543.471	33254
543.536	6827
543.602	6265
543.667	5425
543.732	6703
543.798	5366
543.863	5884
543.928	4993
543.994	4854
544.059	5570
544.124	6161
544.190	5064
544.255	5624
544.320	7000
544.386	6290
544.451	12497
544.516	12341
544.581	16692
544.646	51888
544.712	53526
544.777	9353
544.842	7785
544.907	7823
544.972	6897
545.037	7647
545.102	8788
545.168	6999
545.233	8850
545.298	9876
545.363	11567
545.428	14641
545.493	31347
545.558	53475
545.623	14513
545.688	7025
545.753	8126
545.818	6451
545.883	8154
545.947	7548
546.012	9035
546.077	8064
546.142	9534
546.207	9478
546.272	13808
546.337	11412
546.401	9407
546.466	8221
546.531	7346
546.596	9655
546.661	8554
546.725	8433
546.790	6667
546.855	7656
546.919	8440
546.984	8503
547.049	10717
547.113	12397
547.178	10094
547.243	12369
547.307	14686
547.372	17149
547.436	16215
547.501	13221
547.565	15345
547.630	18142
547.695	16703
547.759	16779
547.823	14234
547.888	13066
547.952	13665
548.017	15527
548.081	18872
548.146	20374
548.210	17987
548.274	14345
548.339	13512
548.403	13353
548.468	12414
548.532	11570
548.596	12696
548.660	12835
548.725	15742
548.789	17466
548.853	18043
548.917	15302
548.982	19051
549.046	16478
549.110	11625
549.174	11659
549.238	12661
549.303	12428
549.367	14765
549.431	13264
549.495	13013
549.559	13126
549.623	15179
549.687	19124
549.751	23457
549.815	19047
549.879	18586
549.943	15857
550.007	18282
550.071	18388
550.135	21065
550.199	15923
550.263	16763
550.327	17477
550.391	21110
550.455	16970
550.519	17532
550.582	20375
550.646	27046
550.710	24580
550.774	20109
550.838	20738
550.901	21180
550.965	22558
551.029	23794
551.093	27924
551.156	34358
551.220	54387
551.284	49239
551.347	33885
551.411	54722
551.475	42171
551.538	22555
551.602	19244
551.666	18822
551.729	17133
551.793	19248
551.856	21702
551.920	23068
551.983	19814
552.047	19005
552.110	18137
552.174	17829
552.237	18051
552.301	17143
552.364	15950
552.428	15317
552.491	15881
552.554	17561
552.618	17832
552.681	19244
552.745	20668
552.808	34042
552.871	38165
552.934	24931
552.998	21075
553.061	19796
553.124	19227
553.187	20407
553.251	23443
553.314	26076
553.377	36417
553.440	69736
553.503	216786
553.567	230956
553.630	34277
553.693	21303
553.756	17484
553.819	17355
553.882	16777
553.945	16256
554.008	15978
554.071	15730
554.134	16266
554.197	14471
554.260	14636
554.323	17238
554.386	15352
554.449	15242
554.512	16025
554.575	14523
554.638	15272
554.701	15252
554.764	15011
554.827	15064
554.889	12017
554.952	11438
555.015	11904
555.078	12524
555.141	12963
555.203	12321
555.266	12891
555.329	12843
555.391	12076
555.454	13418
555.517	13561
555.580	11732
555.642	11111
555.705	10599
555.768	12272
555.830	11897
555.893	10494
555.955	10600
556.018	10499
556.080	10888
556.143	10939
556.206	10765
556.268	11610
556.330	11750
556.393	11637
556.455	12546
556.518	17102
556.580	15404
556.643	9784
556.705	9951
556.767	9274
556.830	10850
556.892	12823
556.955	19027
557.017	12196
557.079	10515
557.142	10623
557.204	14313
557.266	27024
557.328	17347
557.391	8071
557.453	8229
557.515	9492
557.577	12719
557.639	10937
557.701	8810
557.764	7813
557.826	8375
557.888	9845
557.950	10116
558.012	12625
558.074	17280
558.136	36657
558.198	68109
558.260	20619
558.322	11830
558.384	11561
558.446	14005
558.508	17795
558.570	23972
558.632	42462
558.694	57205
558.756	67895
558.818	195536
558.880	350560
558.942	86467
559.003	73477
559.065	29173
559.127	15825
559.189	17091
559.251	22012
559.312	35968
559.374	86909
559.436	232576
559.498	78536
559.559	16403
559.621	16750
559.683	23400
559.744	43141
559.806	121015
559.868	134316
559.929	22982
559.991	19378
560.052	31669
560.114	73750
560.176	40169
560.237	47832
560.299	61965
560.360	12370
560.422	8998
560.483	8227
560.545	7417
560.606	7058
560.667	6826
560.729	6041
560.790	5843
560.852	6801
560.913	6957
560.974	6337
561.036	6005
561.097	6705
561.158	6822
561.220	8415
561.281	8250
561.342	7412
561.403	11260
561.465	15691
561.526	39712
561.587	37968
561.648	9886
561.709	7304
561.771	7521
561.832	7207
561.893	7172
561.954	6947
562.015	7050
562.076	5843
562.137	6800
562.198	5738
562.259	7647
562.320	6839
562.381	9207
562.442	13001
562.503	8558
562.564	6989
562.625	6150
562.686	6683
562.747	7614
562.808	6818
562.869	6313
562.930	8119
562.991	7218
563.051	6437
563.112	6096
563.173	6528
563.234	6467
563.294	6891
563.355	6156
563.416	8318
563.477	6348
563.537	6899
563.598	7571
563.659	7370
563.720	6720
563.780	7375
563.841	7624
563.901	7581
563.962	6266
564.023	7210
564.083	7144
564.144	7359
564.204	6891
564.265	7484
564.325	9399
564.386	18707
564.446	12468
564.507	6223
564.567	6413
564.628	6154
564.688	6403
564.749	6754
564.809	8046
564.869	9584
564.930	6736
564.990	7537
565.050	6076
565.111	7755
565.171	6697
565.231	6828
565.292	6832
565.352	5575
565.412	7970
565.472	7126
565.532	8172
565.593	6783
565.653	7087
565.713	7961
565.773	8971
565.833	9993
565.893	12733
565.953	7205
566.013	7581
566.074	7778
566.134	11151
566.194	16824
566.254	15689
566.314	9746
566.374	7809
566.434	8534
566.494	7783
566.554	7465
566.614	7994
566.673	9205
566.733	9481
566.793	9401
566.853	9132
566.913	9656
566.973	9794
567.033	10254
567.092	9599
567.152	10139
567.212	9931
567.272	10223
567.331	10283
567.391	10694
567.451	11917
567.511	15034
567.570	13576
567.630	10148
567.690	9628
567.749	10304
567.809	10278
567.868	12607
567.928	12499
567.988	14639
568.047	17597
568.107	20174
568.166	28778
568.226	41308
568.285	54564
568.345	44161
568.404	35918
568.464	31152
568.523	29372
568.582	30243
568.642	35827
568.701	43944
568.761	64219
568.820	92146
568.879	84431
568.939	63306
568.998	45539
569.057	36277
569.116	30125
569.176	24434
569.235	20678
569.294	18138
569.353	16023
569.413	15060
569.472	13092
569.531	12264
569.590	10679
569.649	10956
569.708	10147
569.767	10715
569.827	12492
569.886	10430
569.945	8254
570.004	9307
570.063	9225
570.122	9490
570.181	9338
570.240	10550
570.299	9798
570.358	9405
570.417	7410
570.475	7784
570.534	8688
570.593	8202
570.652	8518
570.711	8613
570.770	7821
570.829	8184
570.887	8036
570.946	9665
571.005	7708
571.064	7881
571.122	8541
571.181	8860
571.240	7400
571.299	5572
571.357	7460
571.416	7833
571.475	8676
571.533	8752
571.592	6997
571.650	7358
571.709	6915
571.768	7517
571.826	7178
571.885	6463
571.943	5313
572.002	6328
572.060	6346
572.119	5631
572.177	5416
572.236	5221
572.294	5295
572.352	6156
572.411	6197
572.469	5195
572.528	7022
572.586	6254
572.644	7443
572.703	8758
572.761	6079
572.819	5597
572.877	5319
572.936	4565
572.994	4956
573.052	4985
573.110	5493
573.169	5609
573.227	5177
573.285	4733
573.343	5106
573.401	5433
573.459	5611
573.517	5250
573.576	5585
573.634	6171
573.692	6519
573.750	5727
573.808	5251
573.866	5898
573.924	7641
573.982	6167
574.040	5512
574.098	5395
574.155	4984
574.213	5221
574.271	5464
574.329	4855
574.387	5187
574.445	5270
574.503	4971
574.560	4887
574.618	4484
574.676	4875
574.734	5159
574.792	6029
574.849	4813
574.907	3865
574.965	4992
575.022	3765
575.080	4515
575.138	5112
575.195	5371
575.253	5181
575.311	6089
575.368	4503
575.426	4554
575.483	4668
575.541	5208
575.598	4850
575.656	4763
575.713	4497
575.771	5075
575.828	4029
575.886	4549
575.943	5095
576.001	4339
576.058	5062
576.115	5991
576.173	6133
576.230	7756
576.287	8633
576.345	6159
576.402	4455
576.459	5257
576.517	5223
576.574	7174
576.631	6063
576.688	5150
576.746	5040
576.803	5040
576.860	4449
576.917	5014
576.974	4740
577.031	5082
577.089	5447
577.146	5291
577.203	5321
577.260	6559
577.317	5966
577.374	7077
577.431	6459
577.488	5601
577.545	6207
577.602	7045
577.659	7636
577.716	10705
577.773	13589
577.830	8314
577.886	7377
577.943	6390
578.000	5163
578.057	6802
578.114	7356
578.171	8307
578.227	8257
578.284	8474
578.341	8630
578.398	7082
578.454	6770
578.511	7849
578.568	7200
578.625	7037
578.681	6093
578.738	5744
578.794	6029
578.851	6017
578.908	5478
578.964	6641
579.021	6163
579.077	5773
579.134	6213
579.190	5998
579.247	4790
579.303	5084
579.360	5485
579.416	5205
579.473	5444
579.529	5345
579.586	5664
579.642	5940
579.698	5687
579.755	5538
579.811	5509
579.867	6214
579.924	6155
579.980	7783
580.036	8823
580.093	9677
580.149	12127
580.205	13359
580.261	10549
580.317	9174
580.374	8101
580.430	9088
580.486	7336
580.542	7758
580.598	7364
580.619	6974
580.654	6304
580.692	6393
580.710	6454
580.765	6659
580.767	6672
580.823	6304
580.838	6405
580.879	6698
580.911	6318
580.935	6054
580.984	5748
580.991	5721
581.047	6448
581.057	6447
581.103	6453
581.130	6788
581.159	7150
581.203	7997
581.215	8239
581.270	6660
581.276	6589
581.326	6032
581.349	6482
581.382	7113
581.422	6633
581.438	6448
581.494	6701
581.494	6695
581.550	6828
581.567	6596
581.606	6067
581.640	6357
581.661	6556
581.713	6171
581.717	6141
581.773	6688
581.786	6345
581.829	5329
581.859	5556
581.885	5708
581.932	5551
581.940	5555
581.996	6210
582.004	6330
582.052	6846
582.077	5965
582.107	4985
582.150	5780
582.163	6026
582.219	6480
582.223	6406
582.274	5557
582.296	5911
582.330	6512
582.368	6856
582.386	7030
582.441	6921
582.441	6924
582.497	7735
582.514	8100
582.552	8962
582.587	10387
582.608	11304
582.659	8351
582.663	8099
582.719	6957
582.732	6645
582.774	5889
582.805	6097
582.830	6266
582.877	6945
582.885	7051
582.941	6893
582.950	7045
582.996	7706
583.023	7374
583.052	7199
583.095	7965
583.107	8120
583.162	9056
583.168	9132
583.218	9889
583.240	9109
583.273	7950
583.313	7708
583.328	7645
583.384	7360
583.385	7349
583.439	6861
583.458	6657
583.494	6358
583.531	6114
583.549	6023
583.603	6526
583.605	6534
583.660	6301
583.676	6239
583.715	6199
583.748	6499
583.770	6729
583.820	6629
583.825	6612
583.881	6731
583.893	6617
583.936	6115
583.965	5950
583.991	5762
584.038	5479
584.046	5476
584.101	6245
584.110	6202
584.156	5891
584.183	6043
584.211	6112
584.255	6151
584.266	6152
584.321	6001
584.328	5941
584.376	5707
584.400	6044
584.431	6462
584.472	6445
584.486	6386
584.541	6679
584.545	6671
584.596	6367
584.617	6350
584.651	6695
584.689	7147
584.706	7135
584.761	7257
584.762	7261
584.816	7399
584.834	7329
584.871	6898
584.906	7006
584.926	7200
584.978	7854
584.980	7883
585.035	8405
585.051	8692
585.090	9110
585.123	9332
585.145	9421
585.195	10231
585.200	10335
585.254	12105
585.267	13195
585.309	16701
585.340	18446
585.364	19578
585.412	15369
585.419	14746
585.473	15772
585.484	16538
585.528	20207
585.556	23622
585.583	28410
585.628	41122
585.637	45085
585.692	86064
585.700	93195
585.747	124564
585.772	100996
585.801	60969
585.845	25305
585.856	19918
585.910	12887
585.917	12427
585.965	11460
585.989	10742
586.019	9785
586.061	9376
586.074	9323
586.128	9409
586.133	9469
586.183	9923
586.205	9831
586.237	9930
586.277	10176
586.292	10047
586.346	9548
586.349	9577
586.401	10140
586.421	10240
586.455	10361
586.493	11025
586.509	11409
586.564	12768
586.565	12893
586.618	17344
586.637	16668
586.672	14887
586.709	13045
586.727	12093
586.781	11991
586.781	11971
586.835	11450
586.853	11224
586.889	10825
586.925	10675
586.944	10622
586.996	11126
586.998	11121
587.052	11767
587.068	11891
587.106	12315
587.140	12339
587.161	12007
587.212	11899
587.215	11913
587.269	12631
587.284	12874
587.323	13169
587.356	13929
587.377	14462
587.427	14452
587.431	14391
587.485	14945
587.499	15033
587.539	15491
587.571	16147
587.593	16567
587.643	17578
587.648	17680
587.702	19026
587.715	19496
587.755	20440
587.786	21271
587.810	21778
587.858	23272
587.864	23403
587.917	25521
587.930	26032
587.971	28046
588.001	29953
588.025	31279
588.073	33881
588.079	34261
588.133	39052
588.145	40335
588.187	44360
588.217	47632
588.241	50566
588.288	57684
588.295	58528
588.348	66837
588.360	69162
588.402	77882
588.431	85527
588.456	92188
588.503	106553
588.510	108774
588.564	133305
588.575	139884
588.617	165613
588.646	188842
588.671	213245
588.718	269482
588.725	280822
588.778	390056
588.789	417979
588.832	582936
588.861	704044
588.886	829336
588.932	1013430
588.939	1016479
588.993	975053
589.004	983088
589.047	890290
589.075	763899
589.100	632623
589.147	398174
589.154	379377
589.207	279621
589.218	264430
589.261	240529
589.290	234405
589.314	241222
589.361	269013
589.368	278260
589.421	377451
589.433	404525
589.475	583904
589.504	714182
589.528	809541
589.576	924051
589.582	904227
589.635	734709
589.647	682864
589.689	443805
589.718	291227
589.742	232952
589.790	143229
589.795	137614
589.849	101092
589.861	94264
589.902	78344
589.932	67450
589.955	61532
590.004	51263
590.009	50273
590.062	43253
590.075	41730
590.115	37710
590.146	35206
590.168	33370
590.218	30039
590.222	29742
590.275	27357
590.289	26768
590.328	24767
590.360	23613
590.381	22671
590.431	20971
590.435	20796
590.488	19131
590.503	18749
590.541	18129
590.574	17909
590.594	17482
590.645	16411
590.647	16316
590.700	15782
590.716	15652
590.753	15099
590.787	14732
590.806	14245
590.859	13309
590.859	13249
590.912	13092
590.930	13125
590.965	12942
591.001	12890
591.018	12481
591.071	11498
591.072	11539
591.124	11112
591.143	11090
591.177	10947
591.214	10856
591.230	10840
591.283	11043
591.285	11098
591.336	10953
591.356	10928
591.389	11031
591.427	11273
591.442	10980
591.495	10035
591.498	10011
591.547	9622
591.569	9528
591.600	9360
591.640	9187
591.653	9201
591.706	9485
591.711	9559
591.759	8822
591.782	8523
591.811	8868
591.853	9457
591.864	9345
591.917	8936
591.924	8928
591.969	8874
591.995	8903
592.022	8620
592.066	8299
592.075	8340
592.127	8898
592.137	9049
592.180	8804
592.208	8667
592.233	8492
592.279	8323
592.285	8197
592.338	7523
592.350	7418
592.390	7590
592.421	7806
592.443	7899
592.491	8214
592.495	8156
592.548	7957
592.562	7946
592.600	7872
592.633	7893
592.653	7773
592.704	7542
592.705	7570
592.775	6834
592.846	7231
592.916	7799
592.987	7608
593.058	7859
593.128	7625
593.199	7654
593.270	7213
593.341	6488
593.411	7501
593.482	7856
593.553	7988
593.623	7053
593.694	7253
593.764	8342
593.835	7792
593.906	7369
593.976	7680
594.047	6830
594.117	7859
594.188	7640
594.258	7642
594.329	7567
594.399	7830
594.470	7603
594.540	8718
594.611	8438
594.681	7780
594.751	7448
594.822	9418
594.892	7779
594.963	9111
595.033	8185
595.103	8602
595.174	9080
595.244	10543
595.314	10620
595.384	9009
595.455	8806
595.525	9748
595.595	9782
595.665	9752
595.736	9486
595.806	10272
595.876	9036
595.946	10202
596.016	9051
596.087	9897
596.157	10232
596.227	10041
596.297	10952
596.367	11178
596.437	12555
596.507	13225
596.577	11967
596.647	13119
596.717	12959
596.787	12570
596.857	13104
596.927	13515
596.997	12155
597.067	13206
597.137	13617
597.207	14130
597.277	12710
597.347	13192
597.417	12308
597.487	12922
597.557	13001
597.626	13583
597.696	13116
597.766	14166
597.836	13065
597.906	11762
597.975	11702
598.045	11775
598.115	11711
598.185	12992
598.254	14172
598.324	15885
598.394	15939
598.464	15408
598.533	15049
598.603	14112
598.672	14444
598.742	14549
598.812	14846
598.881	14821
598.951	14418
599.020	14700
599.090	15727
599.159	16207
599.229	15226
599.299	14571
599.368	14966
599.437	14720
599.507	13728
599.576	14156
599.646	13269
599.715	14228
599.785	11907
599.854	13024
599.924	12343
599.993	12832
600.062	12490
600.132	13803
600.201	14480
600.270	16056
600.340	17056
600.409	16377
600.478	15425
600.547	17002
600.617	15154
600.686	12769
600.755	12186
600.824	10660
600.894	11515
600.963	11302
601.032	11361
601.101	10622
601.170	10773
601.239	10934
601.308	10741
601.378	10993
601.447	10885
601.516	10675
601.585	10960
601.654	11226
601.723	10560
601.792	11156
601.861	11455
601.930	13737
601.999	13487
602.068	12394
602.137	12903
602.206	13482
602.275	13078
602.343	14488
602.412	13624
602.481	13310
602.550	12889
602.619	13349
602.688	14013
602.756	13523
602.825	13987
602.894	14432
602.963	13423
603.032	14104
603.100	13979
603.169	14015
603.238	14065
603.307	15716
603.375	14675
603.444	15013
603.513	14701
603.581	14233
603.650	15340
603.719	15315
603.787	14316
603.856	15109
603.924	15308
603.993	16142
604.061	15877
604.130	17925
604.198	18231
604.267	17856
604.335	17788
604.404	18403
604.472	18636
604.541	19035
604.609	18933
604.678	19696
604.746	18439
604.815	19383
604.883	19114
604.951	20482
605.020	20335
605.088	20130
605.156	20031
605.225	20562
605.293	19557
605.361	19845
605.429	20211
605.498	21114
605.566	21290
605.634	23565
605.702	22821
605.771	23429
605.839	23227
605.907	22498
605.975	22942
606.043	21723
606.111	21034
606.180	23570
606.248	22266
606.316	22470
606.384	21214
606.452	21533
606.520	22680
606.588	21836
606.656	20713
606.724	20961
606.792	19803
606.860	17992
606.928	15287
606.996	16161
607.064	14735
607.132	15364
607.200	16709
607.267	16669
607.335	16868
607.403	18683
607.471	16211
607.539	18120
607.607	16390
607.674	14832
607.742	15035
607.810	15164
607.878	14352
607.946	14621
608.013	16068
608.081	16202
608.149	17044
608.216	16051
608.284	16793
608.352	17579
608.419	16244
608.487	17802
608.555	15867
608.622	17963
608.690	18170
608.757	19602
608.825	20382
608.893	19180
608.960	19230
609.028	18790
609.095	17967
609.163	18511
609.230	16069
609.298	14610
609.365	14560
609.432	16470
609.500	18004
609.567	21092
609.635	22675
609.702	25141
609.769	24017
609.837	18961
609.904	14841
609.971	15611
610.039	19062
610.106	26427
610.173	50520
610.241	126791
610.308	74255
610.375	21878
610.442	16548
610.509	16428
610.577	17119
610.644	16937
610.711	16293
610.778	17651
610.845	17189
610.912	20065
610.980	21104
611.047	22656
611.114	20723
611.181	19753
611.248	18121
611.315	20760
611.382	21082
611.449	21306
611.516	22581
611.583	21652
611.650	21545
611.717	22389
611.784	22498
611.851	24490
611.918	25891
611.984	32851
612.051	49921
612.118	110665
612.185	292119
612.252	193602
612.319	39730
612.386	30744
612.452	26575
612.519	25745
612.586	24796
612.653	24779
612.719	26477
612.786	25251
612.853	23007
612.919	22313
612.986	23817
613.053	21326
613.120	19487
613.186	18352
613.253	20448
613.319	18843
613.386	18930
613.453	20149
613.519	20351
613.586	20310
613.652	23498
613.719	22093
613.785	21283
613.852	20939
613.918	19261
613.985	21813
614.051	25290
614.118	33962
614.184	33254
614.250	20961
614.317	19038
614.383	19818
614.449	21180
614.516	19985
614.582	20652
614.648	19771
614.715	19530
614.781	19236
614.847	18576
614.914	18675
614.980	17846
615.046	18904
615.112	19793
615.179	20264
615.245	19823
615.311	21925
615.377	26684
615.443	27830
615.509	22387
615.575	21707
615.642	20375
615.708	22535
615.774	23042
615.840	25992
615.906	30551
615.972	40895
616.038	74950
616.104	154479
616.170	371237
616.236	335138
616.302	62975
616.368	38573
616.434	28196
616.500	26856
616.565	28138
616.631	36844
616.697	27463
616.763	29272
616.829	44342
616.895	82185
616.961	79778
617.026	31285
617.092	20519
617.158	21032
617.224	20575
617.289	18959
617.355	17148
617.421	16987
617.487	17662
617.552	16804
617.618	15640
617.684	15284
617.749	18632
617.815	15474
617.880	14934
617.946	15263
618.012	15963
618.077	16118
618.143	15079
618.208	15318
618.274	17294
618.339	17108
618.405	12480
618.470	14107
618.536	12986
618.601	13718
618.667	11718
618.732	12130
618.798	11046
618.863	12154
618.928	10513
618.994	11748
619.059	12789
619.124	14586
619.190	11836
619.255	11612
619.320	11302
619.386	11913
619.451	10381
619.516	11638
619.581	10566
619.647	11255
619.712	10862
619.777	11179
619.842	10676
619.907	10453
619.972	11260
620.038	11320
620.103	11125
620.168	9982
620.233	11264
620.298	10154
620.363	10019
620.428	12738
620.493	11695
620.558	12159
620.623	11920
620.688	11683
620.753	11818
620.818	12087
620.883	11313
620.948	12490
621.013	11427
621.078	10672
621.143	9434
621.207	13669
621.272	11597
621.337	10933
621.402	12117
621.467	12438
621.532	11272
621.596	11670
621.661	11368
621.726	11723
621.791	10335
621.855	10912
621.920	10713
621.985	11386
622.049	12074
622.114	11828
622.179	11753
622.243	11591
622.308	10572
622.373	13660
622.437	12302
622.502	12015
622.566	11156
622.631	10196
622.695	11277
622.760	11883
622.824	11204
622.889	11855
622.953	11505
623.018	15087
623.082	14982
623.147	12387
623.211	11621
623.276	11980
623.340	11330
623.404	11283
623.469	10582
623.533	11437
623.597	10409
623.662	10845
623.726	9774
623.790	9525
623.854	7903
623.919	9759
623.983	9184
624.047	9568
624.111	8734
624.176	10035
624.240	9178
624.304	11144
624.368	9982
624.432	10093
624.496	10591
624.560	11388
624.625	12150
624.689	11096
624.753	11059
624.817	10886
624.881	9758
624.945	9387
625.009	8884
625.073	10459
625.137	9145
625.201	11232
625.265	11418
625.329	9539
625.393	10407
625.456	9909
625.520	10529
625.584	11195
625.648	11140
625.712	11500
625.776	15033
625.839	16395
625.903	9291
625.967	8386
626.031	11143
626.095	12619
626.158	9647
626.222	6942
626.286	6668
626.349	7130
626.413	5470
626.477	7319
626.540	5922
626.604	5706
626.668	7053
626.731	6026
626.795	5383
626.858	6115
626.922	5400
626.986	6380
627.049	4911
627.113	5959
627.176	5630
627.240	6221
627.303	5723
627.366	5873
627.430	6062
627.493	5338
627.557	4919
627.620	7795
627.684	5475
627.747	5555
627.810	4146
627.874	5395
627.937	3446
628.000	6878
628.064	5486
628.127	3292
628.190	4783
628.253	4100
628.317	3392
628.380	4467
628.443	3682
628.506	3613
628.569	3974
628.632	2768
628.696	3636
628.759	2807
628.822	3569
628.885	2867
628.948	3378
629.011	3801
629.074	2809
629.137	2488
629.200	2079
629.263	3718
629.326	1819
629.389	3154
629.452	3135
629.515	3150
629.578	2271
629.641	3806
629.704	2352
629.767	2856
629.830	2798
629.892	2945
629.955	1387
630.018	3634
630.081	1991
630.144	3787
630.207	2029
630.269	3935
630.332	2679
630.395	2610
630.458	2528
630.520	1388
630.583	3294
630.646	3245
630.708	2333
630.771	1927
630.834	2793
630.896	2397
630.959	2009
631.021	1997
631.084	2072
631.146	3203
631.209	3240
631.272	2217
631.334	3091
631.397	2834
631.459	2982
631.522	4122
631.584	3239
631.646	3632
631.709	3554
631.771	3947
631.834	3809
631.896	3671
631.958	1658
632.021	3215
632.083	1169
632.145	2771
632.208	1970
632.270	3432
632.332	1612
632.395	1952
632.457	2799
632.519	2008
632.581	2965
632.643	1685
632.706	2234
632.768	1612
632.830	2939
632.892	2981
632.954	2001
633.016	3372
633.078	1012
633.141	2262
633.203	1259
633.265	2089
633.327	2349
633.389	2294
633.451	3100
633.513	2799
633.575	2981
633.637	2173
633.698	2193
633.760	2822
633.822	2413
633.884	2478
633.946	2617
634.008	2186
634.070	3632
634.132	4013
634.193	3490
634.255	4487
634.317	3571
634.379	5027
634.441	3799
634.502	2049
634.564	3303
634.626	2355
634.687	2545
634.749	2719
634.811	2649
634.873	1992
634.934	2019
634.996	2627
635.057	1408
635.119	1683
635.181	1952
635.242	3013
635.304	831
635.365	4407
635.427	1768
635.488	2098
635.550	1540
635.611	2795
635.673	142
635.734	3137
635.796	1662
635.857	3770
635.918	2090
635.980	4304
636.041	3082
636.102	4238
636.164	4128
636.225	5415
636.286	492
636.348	3596
636.409	1932
636.470	2006
636.531	1987
636.593	1669
636.654	2266
636.715	2017
636.776	1873
636.838	1493
636.899	2267
636.960	1415
637.021	1430
637.082	1997
637.143	1485
637.204	900
637.265	769
637.326	2360
637.387	1842
637.448	656
637.509	1726
637.570	1301
637.631	2106
637.692	554
637.753	587
637.814	2186
637.875	1119
637.936	1835
637.997	550
638.058	1238
638.119	2206
638.179	1311
638.240	306
638.301	1326
638.362	831
638.423	1502
638.483	2358
638.544	396
638.605	1694
638.666	45
638.726	1274
638.787	1357
638.848	538
638.908	873
638.969	1080
639.030	1458
639.090	314
639.151	1144
639.211	1475
639.272	2116
639.332	2660
639.393	2275
639.453	463
639.514	981
639.574	890
639.635	810
639.695	1770
639.756	646
639.816	638
639.877	621
639.937	2916
639.997	3799
640.058	382
640.118	867
640.178	2013
640.239	815
640.299	501
640.359	1036
640.420	1023
640.480	1060
640.540	841
640.600	2180
640.661	1680
640.721	696
640.781	3059
640.841	1023
640.901	1667
640.961	1877
641.021	1085
641.082	754
641.142	2568
641.202	2699
641.262	-888
641.322	1647
641.382	-667
641.442	1027
641.502	572
641.562	1351
641.622	-190
641.682	605
641.742	1590
641.802	1267
641.861	1223
641.921	423
641.981	2022
642.041	1317
642.101	673
642.161	-225
642.221	167
642.280	250
642.340	770
642.400	-235
642.460	1555
642.519	224
642.579	2
642.639	1559
642.698	-2202
642.758	2329
642.818	743
642.877	-176
642.937	869
642.997	885
643.056	1481
643.116	91
643.175	1804
643.235	557
643.294	1375
643.354	1930
643.414	1348
643.473	2579
643.532	2118
643.592	4567
643.651	9819
643.711	21132
643.770	40809
643.830	104056
643.889	254187
643.948	61156
644.008	6876
644.067	3265
644.126	1972
644.186	1178
644.245	1934
644.304	-110
644.363	2759
644.423	468
644.482	801
644.541	1628
644.600	-950
644.659	2152
644.719	1937
644.778	4358
644.837	7828
644.896	18993
644.955	47626
645.014	16810
645.073	2520
645.132	997
645.191	1287
645.250	501
645.309	2362
645.368	1132
645.427	2234
645.486	2850
645.545	8785
645.604	1060
645.663	1039
645.722	848
645.781	1521
645.840	2089
645.898	2076
645.957	5989
646.016	7489
646.075	18294
646.134	37588
646.192	102338
646.251	175226
646.310	23856
646.369	3893
646.427	3417
646.486	393
646.545	855
646.603	1855
646.662	1203
646.721	1053
646.779	456
646.838	-139
646.896	2254
646.955	1671
647.014	4725
647.072	8661
647.131	27770
647.189	14316
647.248	1060
647.306	1366
647.365	914
647.423	-491
647.481	1943
647.540	-676
647.598	446
647.657	-635
647.715	427
647.773	-643
647.832	864
647.890	-994
647.948	620
648.007	1036
648.065	-859
648.123	-578
648.181	1343
648.240	411
648.298	-402
648.356	-557
648.414	341
648.472	-75
648.531	943
648.589	184
648.647	256
648.705	-433
648.763	-395
648.821	434
648.879	213
648.937	314
648.995	1283
649.053	1473
649.111	3379
649.169	6361
649.227	12687
649.285	27756
649.343	89393
649.401	47348
649.459	6945
649.516	4620
649.574	2146
649.632	6358
649.690	7950
649.748	2637
649.806	2862
649.863	7701
649.921	19029
649.979	12872
650.037	1669
650.094	-784
650.152	1134
650.210	-291
650.268	627
650.325	154
650.383	825
650.440	-1384
650.498	408
650.556	-1037
650.613	-524
650.671	-539
650.728	59
650.786	-315
650.843	568
650.901	-1333
650.958	264
651.016	-877
651.073	-224
651.131	-639
651.188	-1264
651.246	-86
651.303	-882
651.360	-785
651.418	-860
651.475	570
651.532	-1189
651.590	-240
651.647	-1454
651.704	-927
651.762	-276
651.819	-270
651.876	-810
651.933	-495
651.990	610
652.048	-1481
652.105	-1609
652.162	-494
652.219	-589
652.276	-135
652.333	-187
652.390	-1315
652.448	-107
652.505	-1114
652.562	-169
652.619	-547
652.676	1158
652.733	994
652.790	-250
652.847	-1722
652.904	-644
652.961	-1378
653.017	-910
653.074	266
653.131	-23
653.188	-1589
653.245	-502
653.302	-1079
653.359	-894
653.415	292
653.472	-742
653.529	146
653.586	-1155
653.642	-1022
653.699	82
653.756	-1201
653.813	-868
653.869	-32
653.926	-1358
653.983	-1533
654.039	347
654.096	-1976
654.152	260
654.209	-2140
654.266	934
654.322	-1634
654.379	-109
654.435	-249
654.492	-702
654.548	-518
654.605	-263
654.661	190
654.717	-991
654.774	0
654.830	-163
654.887	-338
654.943	-242
655.000	-372
655.056	-154
655.112	-576
655.168	-1749
655.225	-1089
655.281	-21
655.337	-1182
655.394	-53
655.450	-745
655.506	-462
655.562	-1286
655.618	847
655.675	-1639
655.731	-496
655.787	-1269
655.843	-122
655.899	-1436
655.955	-649
656.011	-523
656.067	-1197
656.123	-169
656.179	-240
656.235	645
656.291	-716
656.347	230
656.403	-477
656.459	-817
656.515	295
656.571	-977
656.627	-34
656.683	-714
656.739	-146
656.795	-1045
656.850	-28
656.906	-243
656.962	280
657.018	-1448
657.074	-151
657.129	-866
657.185	56
657.241	741
657.297	-409
657.352	-1042
657.408	-195
657.464	-334
657.519	-1213
657.575	-1788
657.630	-496
657.686	-737
657.742	-1337
657.797	-1160
657.853	-815
657.908	-395
657.964	-1611
658.019	-561
658.075	168
658.130	-263
658.186	-1615
658.241	-1274
658.297	-1082
658.352	-1130
658.407	-366
658.463	-1362
658.518	-403
658.573	-1214
658.629	-1154
658.684	-1035
658.739	-749
658.795	-1417
658.850	-776
658.905	-822
658.960	87
659.016	-1908
659.071	-132
659.126	-992
659.181	-445
659.236	600
659.291	519
659.346	-604
659.401	-566
659.457	872
659.512	-949
659.567	535
659.622	-896
659.677	-1376
659.732	-1455
659.787	-1246
659.842	-580
659.897	-1460
659.952	-325
660.007	-1287
660.061	-499
660.116	-2053
660.171	-1434
660.226	-208
660.281	248
660.336	-1505
660.391	-191
660.445	-2454
660.500	-893
660.555	-1213
660.610	-1252
660.664	-235
660.719	-1305
660.774	-349
660.828	-114
660.883	-751
660.938	-734
660.992	-1828
661.047	-1146
661.101	-799
661.156	-1049
661.211	-2531
661.265	-1333
661.320	-1410
661.374	-1249
661.429	-1925
661.483	-161
661.538	-2569
661.592	-1401
661.647	-1026
661.701	12
661.755	-1408
661.810	-484
661.864	-1266
661.919	-1190
661.973	-635
662.027	-1459
662.081	-1516
662.136	-1807
662.190	-1132
662.244	-469
662.299	-771
662.353	-935
662.407	-1971
662.461	-1258
662.515	-897
662.569	-1936
662.624	-480
662.678	-1003
662.732	-1598
662.786	-916
662.840	-997
662.894	-1091
662.948	-1963
663.002	-1766
663.056	-1232
663.110	-1468
663.164	-1435
663.218	-721
663.272	-866
663.326	-1130
663.380	-1227
663.434	-1745
663.488	-2472
663.542	-845
663.595	-1386
663.649	-1515
663.703	-1166
663.757	-1147
663.811	-1442
663.864	-870
663.918	-898
663.972	-1278
664.026	-480
664.079	-1183
664.133	-1259
664.187	-1811
664.240	-1521
664.294	-1665
664.348	-775
664.401	-851
664.455	-1486
664.508	-1643
664.562	-1572
664.615	-761
664.669	-1492
664.722	-1286
664.776	-1249
664.829	-827
664.883	-1879
664.936	-1383
664.990	-1675
665.043	-1078
665.097	-1165
665.150	-776
665.203	-1876
665.257	-909
665.310	-565
665.363	-1537
665.417	-1678
665.470	-1122
665.523	-1796
665.576	-646
665.630	-1413
665.683	-2174
665.736	-1769
665.789	-993
665.842	-1929
665.895	-246
665.949	-1112
666.002	-1379
666.055	-1361
666.108	-142
666.161	-1928
666.214	-869
666.267	-838
666.320	-495
666.373	-300
666.426	-1196
666.479	-1861
666.532	-1185
666.585	-967
666.638	43
666.691	-2513
666.744	-358
666.796	-1765
666.849	-1984
666.902	-1261
666.955	-938
667.008	-1479
667.060	-933
667.113	-2367
667.166	-506
667.219	-1541
667.271	-1412
667.324	-1223
667.377	-966
667.430	-884
667.482	-947
667.535	-1145
667.587	-144
667.640	-1154
667.693	-1589
667.745	-595
667.798	540
667.850	-1196
667.903	-1453
667.955	-1390
668.008	-753
668.060	-1663
668.113	-1685
668.165	-807
668.218	-1130
668.270	-1261
668.322	-721
668.375	-1722
668.427	-193
668.479	-1287
668.532	-833
668.584	-1172
668.636	-956
668.689	-1543
668.741	-1162
668.793	-863
668.845	-1524
668.898	-1693
668.950	-1280
669.002	-703
669.054	-1128
669.106	-1336
669.158	-631
669.211	-1612
669.263	-643
669.315	-920
669.367	-177
669.419	-1540
669.471	-428
669.523	-904
669.575	286
669.627	-1250
669.679	-843
669.731	-1357
669.783	-921
669.835	-1264
669.886	-1140
669.938	-1325
669.990	-609
670.042	-1465
670.094	-685
670.146	-893
670.197	-1035
670.249	-1634
670.301	-1038
670.353	72
670.404	-127
670.456	-321
670.508	1167
670.560	2877
670.611	5372
670.663	10199
670.715	29060
670.766	55386
670.818	18121
670.869	1129
670.921	759
670.972	377
671.024	-969
671.075	-1362
671.127	-1267
671.178	-1409
671.230	-912
671.281	-820
671.333	-966
671.384	-1529
671.436	-881
671.487	-11
671.538	141
671.590	1145
671.641	2333
671.692	4906
671.744	12129
671.795	6726
671.846	1421
671.897	-890
671.949	-942
672.000	-1137
672.051	-1467
672.102	-694
672.153	-1582
672.204	-1579
672.256	-1218
672.307	-1458
672.358	-1464
672.409	-1977
672.460	-779
672.511	-1341
672.562	-1287
672.613	-1947
672.664	-1600
672.715	-2050
672.766	-1252
672.817	-1643
672.868	-1156
672.919	-1141
672.970	-2235
673.021	-983
673.071	-2260
673.122	-864
673.173	-559
673.224	-2522
673.275	-819
673.326	-1874
673.376	-828
673.427	-1844
673.478	-685
673.528	-891
673.579	-1583
673.630	-1189
673.680	-1262
673.731	-1872
673.782	-1589
673.832	-1079
673.883	-939
673.934	-1073
673.984	-1096
674.035	-1799
674.085	-1332
674.136	-1493
674.186	-1547
674.237	-1047
674.287	-652
674.338	-1838
674.388	-2391
674.438	-2267
674.489	-716
674.539	-1839
674.589	-981
674.640	-1179
674.690	-1367
674.740	-1554
674.791	-1547
674.841	-2029
674.891	-930
674.942	-1077
674.992	-1499
675.042	-1354
675.092	-1473
675.142	-2116
675.193	-2129
675.243	-2173
675.293	-1348
675.343	-1173
675.393	-1451
675.443	-937
675.493	-1368
675.543	-1889
675.593	-1650
675.643	-1474
675.693	-1424
675.743	-1549
675.793	-1372
675.843	-2005
675.893	-1696
675.943	-1912
675.993	-872
676.043	-1558
676.093	-1036
676.142	-1464
676.192	-1090
676.242	-1255
676.292	-1619
676.341	-1850
676.391	-1902
676.441	-2116
676.491	-1904
676.540	-1595
676.590	-1277
676.640	-1108
676.689	-1091
676.739	-2446
676.789	-1663
676.838	-1703
676.888	-982
676.937	-1771
676.987	-1135
677.037	-1170
677.086	-1687
677.136	-2720
677.185	-1244
677.235	-2276
677.284	-1070
677.333	-1899
677.383	-1749
677.432	-1330
677.482	-1565
677.531	-1665
677.580	-750
677.630	-1753
677.679	-1541
677.728	-1812
677.778	-1798
677.827	-1477
677.876	-1687
677.925	-1182
677.975	-1006
678.024	-1430
678.073	-1548
678.122	-1186
678.171	-1848
678.220	-2139
678.269	-1382
678.319	-1729
678.368	-1002
678.417	-1495
678.466	-975
678.515	-1314
678.564	-1286
678.613	-1884
678.662	-2108
678.711	-1640
678.760	-2348
678.809	-2018
678.857	-1453
678.906	-1712
678.955	-1225
679.004	-1164
679.053	-841
679.102	-1961
679.151	-1412
679.199	-2032
679.248	-1780
679.297	-1941
679.346	-1892
679.394	-1673
679.443	-1303
679.492	-861
679.540	-1544
679.589	-2166
679.638	-1419
679.686	-1787
679.735	-1054
679.784	-2004
679.832	-1730
679.881	-1650
679.929	-1411
679.978	-1990
680.026	-1409
680.075	-1273
680.123	-1281
680.172	-2160
680.220	-1152
680.268	-2085
680.317	-2065
680.365	-2161
680.414	-2594
680.462	-2279
680.510	-1526
680.559	-1141
680.607	-1591
680.655	-2199
680.703	-630
680.752	-1595
680.800	-1250
680.848	-1239
680.896	-1495
680.945	-2002
680.993	-1645
681.041	-1866
681.089	-1159
681.137	-1794
681.185	-1153
681.233	-1941
681.258	-1281
681.281	-672
681.329	-1446
681.377	-1357
681.380	-1365
681.425	-1777
681.473	-1952
681.502	-1577
681.521	-1348
681.569	-1480
681.617	-1693
681.624	-1658
681.665	-1537
681.713	-1316
681.745	-1272
681.761	-1272
681.809	-1498
681.857	-1335
681.867	-1422
681.904	-1776
681.952	-1029
681.989	-1637
682.000	-1844
682.048	-802
682.096	-1755
682.111	-1619
682.143	-1359
682.191	-1718
682.233	-850
682.239	-738
682.286	-1210
682.334	-626
682.354	-803
682.382	-1052
682.430	-624
682.476	-1460
682.477	-1492
682.525	-311
682.572	-943
682.598	-862
682.620	-801
682.667	-944
682.715	-559
682.720	-555
682.763	-654
682.810	-423
682.841	-709
682.857	-884
682.905	-1359
682.952	-1482
682.963	-1343
683.000	-902
683.047	-850
683.085	-139
683.095	36
683.142	-478
683.190	-379
683.206	-382
683.237	-393
683.284	-203
683.328	-276
683.332	-300
683.379	-127
683.426	-536
683.449	-290
683.473	10
683.521	-905
683.568	339
683.571	325
683.615	-144
683.662	-65
683.693	-227
683.709	-297
683.757	-189
683.804	325
683.814	109
683.851	-679
683.898	182
683.936	511
683.945	582
683.992	382
684.039	330
684.057	200
684.086	-23
684.133	574
684.179	501
684.180	487
684.227	704
684.274	872
684.300	629
684.321	383
684.368	296
684.415	939
684.422	826
684.462	128
684.509	-99
684.543	404
684.556	597
684.603	736
684.649	621
684.665	682
684.696	823
684.743	682
684.786	1150
684.790	1182
684.837	359
684.883	1123
684.908	1109
684.930	1024
684.977	695
685.023	296
685.029	365
685.070	815
685.117	146
685.150	527
685.164	705
685.210	512
685.257	1060
685.272	966
685.303	757
685.350	1108
685.393	1245
685.396	1254
685.443	1934
685.490	1389
685.514	1473
685.536	1412
685.583	1742
685.629	1602
685.636	1478
685.675	859
685.722	2035
685.757	1142
685.768	810
685.815	1497
685.861	1501
685.878	1251
685.908	882
685.954	1336
686.000	1191
686.000	1186
686.047	1437
686.093	1622
686.121	1901
686.139	2061
686.185	1263
686.232	1751
686.242	1879
686.278	2151
686.324	1590
686.363	1517
686.370	1520
686.416	950
686.463	1799
686.484	1709
686.509	1608
686.555	1978
686.601	1515
686.606	1495
686.647	1299
686.693	1246
686.727	1511
686.739	1615
686.785	1271
686.831	1848
686.848	1900
686.877	1973
686.923	1863
686.969	1597
686.969	1596
687.015	1336
687.061	1628
687.090	1866
687.107	1958
687.153	2327
687.199	2207
687.211	2036
687.245	1670
687.291	2094
687.332	1775
687.336	1739
687.382	2131
687.428	2291
687.453	2398
687.474	2484
687.520	2174
687.565	2747
687.574	2631
687.611	2130
687.657	2098
687.695	1819
687.702	1840
687.748	2864
687.794	3538
687.816	3604
687.839	3342
687.885	2261
687.931	3237
687.937	3133
687.976	2485
688.022	1861
688.058	1971
688.067	2098
688.113	2157
688.158	2505
688.179	2840
688.204	3155
688.249	2506
688.295	2711
688.300	2724
688.340	2832
688.386	3159
688.421	2707
688.431	2542
688.477	3126
688.522	2555
688.542	2337
688.567	2338
688.613	2605
688.658	3388
688.663	3419
688.703	3236
688.749	3205
688.784	3021
688.794	3002
688.839	2848
688.884	2550
688.905	2650
688.930	2819
688.975	2605
689.020	2329
689.026	2356
689.065	2721
689.110	2834
689.146	2643
689.155	2570
689.201	2847
689.246	2894
689.267	2939
689.291	2970
689.336	2842
689.381	3358
689.388	3175
689.426	2258
689.471	2692
689.509	2438
689.516	2461
689.561	3096
689.606	3658
689.630	3759
689.651	3611
689.696	3286
689.741	3407
689.750	3338
689.785	3304
689.830	3679
689.871	3142
689.875	3070
689.920	2944
689.965	2636
689.992	2816
690.010	3081
690.054	3126
690.099	3440
690.112	3415
690.144	3174
690.189	3198
690.233	2513
690.233	2519
690.278	2982
690.323	3527
690.354	4047
690.367	4117
690.412	3301
690.457	3732
690.474	3512
690.501	3308
690.546	4056
690.590	3464
690.595	3476
690.635	3761
690.680	3556
690.716	3658
690.724	3706
690.769	4045
690.813	4695
690.836	4532
690.857	4696
690.902	5747
690.946	6447
690.957	6716
690.991	8750
691.035	10653
691.077	13562
691.080	13602
691.124	12869
691.168	12435
691.198	11788
691.213	10964
691.257	9182
691.301	6897
691.318	6199
691.346	6044
691.390	4982
691.434	4383
691.439	4342
691.478	4665
691.522	4771
691.559	4441
691.567	4427
691.611	4723
691.655	4781
691.680	4779
691.699	4612
691.743	4739
691.787	4487
691.800	4345
691.831	4263
691.875	4481
691.919	4723
691.921	4710
691.964	4389
692.008	4188
692.041	3980
692.052	4002
692.096	4164
692.139	4397
692.162	4103
692.183	3723
692.227	4033
692.271	3734
692.282	3699
692.315	4024
692.359	4343
692.402	4990
692.403	5006
692.447	4699
692.490	5305
692.523	5347
692.534	5275
692.578	5206
692.622	4640
692.643	4503
692.666	4513
692.709	4599
692.753	4675
692.763	4649
692.797	4699
692.840	4769
692.884	4957
692.884	4973
692.928	4902
692.971	5249
693.004	5178
693.015	5073
693.059	4742
693.102	4529
693.124	4274
693.146	4411
693.189	5050
693.233	5526
693.245	5648
693.276	5724
693.320	5703
693.363	5739
693.365	5725
693.407	5956
693.450	6212
693.485	6156
693.493	6204
693.537	6683
693.580	6964
693.605	7272
693.624	8180
693.667	9905
693.710	12062
693.725	12676
693.753	16080
693.797	21705
693.840	27114
693.845	27720
693.883	26941
693.926	25867
693.966	24798
693.970	24350
694.013	19310
694.056	14151
694.086	10340
694.099	9946
694.142	9280
694.185	8308
694.206	7751
694.229	7601
694.272	7504
694.315	7160
694.326	7062
694.358	6901
694.401	7031
694.444	6739
694.446	6708
694.487	6755
694.530	6954
694.566	7011
694.573	6926
694.616	6199
694.659	5600
694.686	5190
694.702	5251
694.745	5416
694.787	5465
694.806	5469
694.830	5397
694.873	5326
694.916	5132
694.926	5107
694.959	5122
695.002	5091
695.044	4935
695.046	4911
695.087	5196
695.130	5825
695.166	6124
695.172	6117
695.215	5692
695.258	5849
695.286	5603
695.301	5507
695.343	5388
695.386	5209
695.406	5154
695.428	5350
695.471	5422
695.514	5730
695.526	5791
695.556	5913
695.599	6190
695.641	6264
695.646	6272
695.684	6062
695.726	5528
695.766	5324
695.769	5347
695.811	5187
695.854	5234
695.886	5007
695.896	5034
695.938	5375
695.981	5453
696.005	5588
696.023	5741
696.065	6071
696.108	6504
696.125	6523
696.150	6499
696.192	6680
696.235	6712
696.245	6727
696.277	6684
696.319	6545
696.361	6545
696.365	6502
696.404	6406
696.446	6613
696.485	6462
696.488	6475
696.530	6548
696.572	6546
696.604	6487
696.614	6475
696.656	6408
696.698	6328
696.724	6272
696.740	6300
696.783	6272
696.825	6278
696.844	6281
696.867	6402
696.909	6483
696.951	6627
696.964	6638
696.992	6488
697.034	6193
697.076	6015
697.083	5965
697.118	6378
697.160	6754
697.202	7060
697.203	7050
697.244	6895
697.286	6555
697.323	6250
697.327	6296
697.369	6550
697.411	6688
697.442	6833
697.453	6826
697.494	6695
697.536	6583
697.562	6482
697.578	6663
697.620	7071
697.661	7504
697.682	7691
697.703	7936
697.744	8364
697.786	8850
697.801	8943
697.828	8846
697.869	8710
697.911	8648
697.921	8581
697.952	8119
697.994	7543
698.035	6992
698.040	6899
698.077	6705
698.118	6400
698.160	6201
698.160	6180
698.201	6359
698.243	6522
698.279	6683
698.284	6723
698.325	6843
698.367	7035
698.399	7103
698.408	7084
698.449	6899
698.491	6738
698.518	6599
698.532	6761
698.573	7176
698.614	7626
698.638	7836
698.656	7905
698.697	8035
698.738	8160
698.757	8187
698.779	7983
698.820	7545
698.862	7108
698.877	6930
698.903	7186
698.944	7547
698.985	7904
698.996	7981
699.026	7946
699.067	7862
699.116	7739
699.235	7529
699.354	7359
699.474	7975
699.593	7549
699.713	8093
699.832	6838
699.951	8327
700.070	7806
700.190	7064
700.309	7389
700.428	7936
700.547	7354
700.667	7658
700.786	7102
700.905	7264
701.024	6948
701.143	6075
701.262	6664
701.381	7870
701.500	7444
701.619	9247
701.738	6365
701.857	7685
701.976	6631
702.095	6796
702.214	7310
702.333	8696
702.452	7521
702.571	7300
702.690	6839
702.809	6064
702.928	5716
703.047	6342
703.165	6370
703.284	6029
703.403	5652
703.522	6404
703.640	7072
703.759	8063
703.878	9388
703.997	6696
704.115	6041
704.234	5805
704.353	7289
704.471	6113
704.590	5740
704.708	5765
704.827	5463
704.946	5679
705.064	5595
705.183	6056
705.301	5605
705.420	7705
705.538	7388
705.656	6805
705.775	7800
705.893	14723
706.012	18602
706.130	5952
706.249	6921
706.367	6213
706.485	7106
706.604	6196
706.722	7126
706.840	9619
706.958	10243
707.077	8254
707.195	6037
707.313	6094
707.431	5298
707.549	6303
707.668	5802
707.786	6301
707.904	4462
708.022	5422
708.140	5520
708.258	6190
708.376	5869
708.494	5391
708.612	6561
708.730	7280
708.848	6702
708.966	7593
709.084	7182
709.202	6211
709.320	6181
709.438	6303
709.556	6291
709.674	5424
709.791	5496
709.909	5165
710.027	5784
710.145	6206
710.263	5842
710.380	5989
710.498	5561
710.616	6136
710.733	5945
710.851	5832
710.969	6811
711.086	5547
711.204	6091
711.322	5641
711.439	5695
711.557	5768
711.674	5100
711.792	5421
711.909	6496
712.027	6365
712.144	5744
712.262	5637
712.379	5451
712.497	7592
712.614	7168
712.732	6202
712.849	6015
712.966	7473
713.084	8633
713.201	7250
713.318	5684
713.436	6261
713.553	5993
713.670	7512
713.787	7107
713.905	7270
714.022	6898
714.139	6599
714.256	8301
714.373	12164
714.490	22074
714.608	57971
714.725	268067
714.842	349241
714.959	24702
715.076	10228
715.193	7389
715.310	7271
715.427	6253
715.544	7055
715.661	6359
715.778	6157
715.895	5581
716.011	6522
716.128	6109
716.245	5784
716.362	7886
716.479	8589
716.596	6170
716.713	6560
716.829	5053
716.946	5326
717.063	5097
717.180	4728
717.296	5099
717.413	5021
717.530	4781
717.646	5387
717.763	4364
717.880	4127
717.996	4337
718.113	5792
718.229	5136
718.346	4944
718.462	4916
718.579	7669
718.695	13898
718.812	9505
718.928	6508
719.045	5032
719.161	4406
719.277	3800
719.394	4786
719.510	5790
719.626	4561
719.743	5797
719.859	9657
719.975	18112
720.092	68429
720.208	197242
720.324	25915
720.440	6694
720.557	7138
720.673	10652
720.789	10983
720.905	15507
721.021	6964
721.137	5353
721.253	3714
721.369	4289
721.486	4929
721.602	5818
721.718	4231
721.834	3916
721.950	3704
722.066	3776
722.181	3617
722.297	4153
722.413	3889
722.529	4805
722.645	3212
722.761	4357
722.877	3291
722.993	4529
723.108	4464
723.224	4557
723.340	3201
723.456	3917
723.571	3198
723.687	3430
723.803	3639
723.918	3053
724.034	3818
724.150	3522
724.265	4424
724.381	5995
724.497	8496
724.612	2709
724.728	3867
724.843	3029
724.959	3295
725.074	6314
725.190	7549
725.305	3632
725.421	3384
725.536	3399
725.651	3645
725.767	3090
725.882	3364
725.997	3649
726.113	3771
726.228	3289
726.343	3790
726.459	3079
726.574	2984
726.689	3283
726.804	2745
726.920	3421
727.035	2866
727.150	2271
727.265	2608
727.380	3609
727.495	3270
727.610	3899
727.725	3004
727.841	3801
727.956	8078
728.071	7242
728.186	2597
728.301	2256
728.416	3221
728.531	3470
728.645	3091
728.760	3463
728.875	3655
728.990	4040
729.105	3381
729.220	3739
729.335	3902
729.449	2877
729.564	2817
729.679	2946
729.794	2557
729.908	2675
730.023	2879
730.138	2329
730.253	2371
730.367	2323
730.482	3107
730.596	2964
730.711	3592
730.826	3576
730.940	3849
731.055	3579
731.169	2325
731.284	2718
731.398	2483
731.513	2943
731.627	3434
731.742	4326
731.856	3666
731.970	3672
732.085	5038
732.199	6478
732.313	10674
732.428	29202
732.542	90111
732.656	63110
732.771	10934
732.885	5394
732.999	3912
733.113	4111
733.227	4147
733.342	2705
733.456	3339
733.570	3659
733.684	2795
733.798	3597
733.912	3760
734.026	2580
734.140	2804
734.254	2645
734.368	4973
734.482	5656
734.596	2050
734.710	3032
734.824	3478
734.938	2866
735.052	2763
735.166	3932
735.280	3334
735.393	3309
735.507	3656
735.621	2797
735.735	5291
735.849	3519
735.962	2174
736.076	3120
736.190	2442
736.303	3344
736.417	4327
736.531	2095
736.644	2631
736.758	2427
736.872	2433
736.985	2780
737.099	3009
737.212	2389
737.326	1822
737.439	3322
737.553	2077
737.666	3598
737.780	2948
737.893	2234
738.007	2904
738.120	2245
738.233	2334
738.347	2645
738.460	2589
738.573	2469
738.687	3201
738.800	3172
738.913	3979
739.026	4033
739.140	2737
739.253	2802
739.366	2234
739.479	1855
739.592	2114
739.705	2632
739.818	1940
739.932	2467
740.045	2558
740.158	2750
740.271	2588
740.384	2005
740.497	1966
740.610	3339
740.723	3168
740.836	2981
740.949	3578
741.062	4505
741.174	4126
741.287	2729
741.400	2062
741.513	2394
741.626	3781
741.739	2455
741.851	2635
741.964	2282
742.077	2030
742.189	2336
742.302	3171
742.415	2883
742.527	2860
742.640	1830
742.753	2541
742.865	1321
742.978	1948
743.090	2421
743.203	2417
743.316	2023
743.428	1615
743.541	1455
743.653	2127
743.766	1691
743.878	2253
743.990	1840
744.103	2574
744.215	3123
744.327	1427
744.440	3227
744.552	5585
744.664	2447
744.777	1663
744.889	1495
745.001	1634
745.113	1291
745.226	1270
745.338	2755
745.450	1686
745.562	1340
745.674	1142
745.786	1325
745.898	2226
746.010	1508
746.122	1890
746.234	2318
746.347	1954
746.459	2085
746.570	1143
746.682	2112
746.794	2091
746.906	1721
747.018	1104
747.130	1672
747.242	1800
747.354	1300
747.466	2053
747.577	1390
747.689	1979
747.801	1791
747.913	1267
748.024	1006
748.136	1197
748.248	1365
748.359	1938
748.471	1380
748.583	1847
748.694	1824
748.806	2388
748.918	1343
749.029	1541
749.141	2234
749.252	2136
749.364	3028
749.475	5862
749.587	3325
749.698	1623
749.809	1764
749.921	2313
750.032	1520
750.144	823
750.255	1508
750.366	1623
750.478	1515
750.589	1212
750.700	2116
750.811	1714
750.923	2161
751.034	6422
751.145	7664
751.256	1384
751.367	1682
751.479	1139
751.590	1074
751.701	1189
751.812	643
751.923	1302
752.034	1719
752.145	1053
752.256	1384
752.367	1300
752.478	829
752.589	1049
752.700	1421
752.811	881
752.922	1434
753.032	2066
753.143	1597
753.254	1683
753.365	1673
753.476	1636
753.586	1590
753.697	1065
753.808	1698
753.919	685
754.029	1116
754.140	1997
754.251	1118
754.361	902
754.472	1914
754.582	1798
754.693	1670
754.804	1779
754.914	1400
755.025	1189
755.135	1889
755.246	1666
755.356	237
755.466	2065
755.577	1686
755.687	1199
755.798	375
755.908	1299
756.018	647
756.129	938
756.239	1736
756.349	1043
756.460	1581
756.570	1397
756.680	1457
756.790	1070
756.900	1493
757.011	1082
757.121	2350
757.231	1247
757.341	1154
757.451	797
757.561	924
757.671	1462
757.781	360
757.891	2170
758.001	1204
758.111	1310
758.221	1498
758.331	1303
758.441	2682
758.551	2637
758.661	2725
758.771	2088
758.880	1891
758.990	1037
759.100	1782
759.210	1215
759.320	1820
759.429	2197
759.539	1926
759.649	1602
759.758	1894
759.868	2689
759.978	1497
760.087	2474
760.197	2187
760.307	3052
760.416	2290
760.526	2452
760.635	3000
760.745	2597
760.854	2860
760.964	2825
761.073	3280
761.182	2914
761.292	2678
761.401	2488
761.511	1724
761.620	1588
761.729	1983
761.839	1817
761.948	1847
762.057	3204
762.166	2277
762.276	1157
762.385	2483
762.494	1712
762.603	1430
762.712	2117
762.822	2426
762.931	1801
763.040	2254
763.149	2189
763.258	2568
763.367	2685
763.476	3239
763.585	1896
763.694	2799
763.803	2842
763.912	2734
764.021	3112
764.130	3171
764.238	2813
764.347	4003
764.456	3179
764.565	4028
764.674	3940
764.783	4399
764.891	4397
765.000	6329
765.109	6358
765.217	6700
765.326	9041
765.435	9927
765.543	11881
765.652	14857
765.761	19423
765.869	26124
765.978	40512
766.086	65922
766.195	116109
766.303	232134
766.412	404775
766.520	374195
766.629	232975
766.737	104137
766.846	57370
766.954	36807
767.062	27947
767.171	21080
767.279	16091
767.387	12309
767.496	10095
767.604	8663
767.712	6934
767.820	7047
767.928	5485
768.037	5810
768.145	5552
768.253	5599
768.361	5485
768.469	6187
768.577	5675
768.685	6246
768.793	5231
768.901	5600
769.009	7817
769.117	8726
769.225	11613
769.333	17122
769.441	25486
769.549	45560
769.657	92068
769.765	223204
769.873	348697
769.981	229688
770.088	83169
770.196	38728
770.304	23812
770.412	16768
770.519	12487
770.627	10140
770.735	8323
770.842	6985
770.950	5568
771.058	5511
771.165	4946
771.273	4695
771.380	4285
771.488	4367
771.595	3455
771.703	3373
771.810	3276
771.918	2921
772.025	3676
772.133	3280
772.240	2573
772.348	3532
772.455	2741
772.562	1813
772.670	2372
772.777	2389
772.884	1915
772.991	2068
773.099	1311
773.206	868
773.313	1952
773.420	2276
773.528	1547
773.635	1139
773.742	2704
773.849	2157
773.956	1726
774.063	1786
774.170	1753
774.277	1712
774.384	1565
774.491	1548
774.598	2142
774.705	1984
774.812	1195
774.919	1936
775.026	1396
775.133	1820
775.239	1614
775.346	1038
775.453	1238
775.560	1401
775.667	1558
775.773	813
775.880	2245
775.987	1327
776.093	1698
776.200	1220
776.307	1215
776.413	798
776.520	1000
776.627	1594
776.733	957
776.840	181
776.946	2054
777.053	1913
777.159	3477
777.266	1430
777.372	3962
777.478	2497
777.585	2182
777.691	1746
777.798	1146
777.904	1465
778.010	2740
778.117	2303
778.223	950
778.329	549
778.435	829
778.542	585
778.648	1006
778.754	842
778.860	490
778.966	1859
779.072	401
779.178	1139
779.284	688
779.391	1574
779.497	444
779.603	2854
779.708	1047
779.815	3626
779.920	12130
780.026	30666
780.132	5277
780.238	1199
780.344	1084
780.450	1001
780.556	859
780.661	1135
780.767	730
780.873	1043
780.979	1217
781.085	467
781.190	1355
781.296	959
781.402	557
781.507	1175
781.613	77
781.719	1007
781.824	1083
781.930	1308
782.035	309
782.141	604
782.246	1172
782.352	411
782.457	-285
782.563	485
782.668	256
782.773	622
782.879	-446
782.984	1359
783.090	1341
783.195	2878
783.300	2064
783.405	779
783.511	1154
783.616	1232
783.721	436
783.826	276
783.932	432
784.037	222
784.142	486
784.247	263
784.352	804
784.457	237
784.562	-26
784.667	228
784.772	853
784.877	-465
784.982	299
785.087	855
785.192	1149
785.297	557
785.402	105
785.507	1336
785.611	205
785.716	740
785.821	-116
785.926	-202
786.031	-99
786.135	788
786.240	764
786.345	-236
786.450	174
786.554	585
786.659	-628
786.763	-393
786.868	317
786.973	1366
787.077	-236
787.182	787
787.286	681
787.391	430
787.495	-32
787.600	46
787.704	-548
787.809	1249
787.913	472
788.017	971
788.122	494
788.226	697
788.330	-567
788.435	360
788.539	306
788.643	-175
788.747	-146
788.852	-633
788.956	-64
789.060	927
789.164	274
789.268	-22
789.372	-25
789.476	702
789.580	-431
789.684	56
789.788	-229
789.892	583
789.996	1180
790.100	265
790.204	154
790.308	567
790.412	-437
790.516	449
790.620	-66
790.724	-84
790.828	-467
790.931	-1248
791.035	1444
791.139	129
791.242	-233
791.346	1167
791.450	-1077
791.554	170
791.657	-594
791.761	988
791.864	439
791.968	325
792.072	703
792.175	154
792.279	-128
792.382	748
792.486	239
792.589	289
792.693	602
792.796	-431
792.899	1133
793.003	511
793.106	-720
793.209	290
793.313	694
793.416	-660
793.519	885
793.623	1177
793.726	2228
793.829	995
793.932	243
794.035	-855
794.138	923
794.242	1207
794.345	701
794.448	1969
794.551	2183
794.654	8117
794.757	15553
794.860	1917
794.963	250
795.066	-1452
795.169	806
795.272	-369
795.375	413
795.477	-281
795.580	-225
795.683	-1556
795.786	147
795.889	-379
795.991	158
796.094	976
796.197	-516
796.300	529
796.402	30
796.505	226
796.608	-948
796.710	776
796.813	-466
796.915	50
797.018	12
797.120	-88
797.223	-1471
797.326	395
797.428	-471
797.530	499
797.633	-129
797.735	723
797.838	-462
797.940	667
798.042	-462
798.145	138
798.247	-476
798.349	-1265
798.452	237
798.554	41
798.656	-630
798.758	914
798.860	-1161
798.962	236
799.065	286
799.167	-758
799.269	784
799.371	796
799.473	273
799.575	137
799.677	-343
799.779	1400
799.881	1172
799.983	2104
800.085	-365
800.187	-700
800.289	-331
800.390	152
800.492	61
800.594	1219
800.696	-555
800.798	11
800.899	-873
801.001	-491
801.103	-752
801.205	8
801.306	-140
801.408	-945
801.509	154
801.611	230
801.713	-141
801.814	-543
801.916	557
802.017	121
802.119	-1015
802.220	1039
802.322	-1705
802.423	406
802.525	-823
802.626	-211
802.727	33
802.829	486
802.930	-2003
803.031	1202
803.133	-944
803.234	-622
803.335	-283
803.436	-1299
803.538	-35
803.639	-1155
803.740	90
803.841	-1042
803.942	602
804.043	-61
804.144	-827
804.245	-758
804.346	-1046
804.447	-272
804.548	1234
804.649	1661
804.750	-274
804.851	-316
804.952	-1367
805.053	-277
805.154	-998
805.255	553
805.355	-512
805.456	-245
805.557	-997
805.658	-785
805.758	125
805.859	-38
805.960	-633
806.061	-403
806.161	-809
806.262	421
806.362	219
806.463	-60
806.564	-269
806.664	-485
806.765	-728
806.865	-177
806.966	-712
807.066	6
807.166	162
807.267	-419
807.367	-588
807.468	566
807.568	-1185
807.668	567
807.769	114
807.869	-1055
807.969	-314
808.069	305
808.170	-10
808.270	-540
808.370	-449
808.470	758
808.570	-872
808.670	-741
808.770	-130
808.870	-68
808.970	110
809.070	50
809.170	-339
809.271	-386
809.370	-179
809.470	65
809.570	-1030
809.670	-754
809.770	138
809.870	269
809.970	-324
810.070	-330
810.169	685
810.269	-825
810.369	-229
810.469	-106
810.568	-924
810.668	-788
810.768	-344
810.867	72
810.967	-708
811.066	-552
811.166	-413
811.265	-134
811.365	-845
811.464	-412
811.564	-493
811.663	-156
811.763	-1188
811.862	-443
811.962	503
812.061	-547
812.160	-1036
812.260	-368
812.359	-676
812.458	-443
812.557	263
812.657	19
812.756	91
812.855	109
812.954	-982
813.053	308
813.153	-506
813.252	-706
813.351	-219
813.450	290
813.549	-675
813.648	633
813.747	-733
813.846	-11
813.945	-528
814.044	-568
814.143	-297
814.242	659
814.341	-901
814.439	137
814.538	187
814.637	-67
814.736	-475
814.835	307
814.933	16
815.032	-266
815.131	255
815.229	397
815.328	867
815.427	790
815.525	765
815.624	438
815.722	-19
815.821	842
815.919	305
816.018	-770
816.116	1673
816.215	-101
816.313	764
816.412	759
816.510	1113
816.609	2550
816.707	1278
816.805	1538
816.904	624
817.002	1648
817.100	1635
817.198	2811
817.296	2204
817.395	2737
817.493	3511
817.591	3567
817.689	5480
817.787	7933
817.885	12749
817.983	23791
818.081	48895
818.179	114071
818.277	280147
818.375	295046
818.473	93964
818.571	35386
818.669	20270
818.767	18454
818.865	15901
818.963	19467
819.061	26522
819.158	46840
819.256	92669
819.354	204783
819.452	432112
819.549	348474
819.647	122310
819.745	49411
819.842	28689
819.940	18406
820.038	12582
820.135	10353
820.233	7560
820.330	5660
820.428	3874
820.525	4947
820.623	3079
820.720	2695
820.818	2642
820.915	2682
821.012	2261
821.110	163
821.207	1618
821.304	869
821.402	1324
821.499	2137
821.596	1810
821.693	923
821.791	2169
821.888	1685
821.985	3883
822.082	2670
822.179	1595
822.276	588
822.373	1400
822.470	570
822.567	715
822.664	141
822.761	1273
822.858	-579
822.955	1037
823.052	845
823.149	-738
823.246	275
823.343	-74
823.440	100
823.536	-565
823.633	-453
823.730	-235
823.827	619
823.923	822
824.020	769
824.117	-64
824.213	-223
824.310	24
824.407	-23
824.503	-116
824.600	-277
824.696	-1291
824.793	245
824.889	-455
824.986	286
825.082	-442
825.179	486
825.275	-339
825.371	-512
825.468	-91
825.564	-1442
825.660	628
825.757	879
825.853	1159
825.949	-620
826.045	-345
826.142	-426
826.238	-335
826.334	-171
826.430	-253
826.526	-309
826.622	-323
826.718	-459
826.814	-710
826.910	111
827.006	-838
827.102	-855
827.198	-241
827.294	347
827.390	157
827.486	-48
827.582	-1037
827.678	-1007
827.774	-616
827.869	-1208
827.965	651
828.061	-1930
828.157	-812
828.252	417
828.348	-1389
828.444	808
828.539	-1211
828.635	-836
828.731	-218
828.826	-830
828.922	-243
829.017	-842
829.113	9
829.208	-375
829.304	-1138
829.399	541
829.495	-832
829.590	331
829.685	-2270
829.781	598
829.876	-792
829.971	-405
830.066	-1226
830.162	-882
830.257	-380
830.352	-414
830.447	-557
830.543	-74
830.638	-1728
830.733	1169
830.828	-410
830.923	-535
831.018	-211
831.113	-556
831.208	-1295
831.303	-918
831.398	-1008
831.493	-478
831.588	459
831.683	-1429
831.778	-1063
831.873	-614
831.967	215
832.062	-1067
832.157	-1730
832.252	654
832.346	-129
832.441	-46
832.536	-255
832.631	1990
832.725	2358
832.820	-396
832.914	-266
833.009	-1751
833.104	-224
833.198	224
833.293	-1474
833.387	-599
833.482	-1030
833.576	-381
833.670	-273
833.765	-431
833.859	-1143
833.954	-179
834.048	-1190
834.142	-502
834.237	-844
834.331	-1117
834.425	-684
834.519	-1722
834.613	307
834.708	-1419
834.802	-564
834.896	-1163
834.990	-828
835.084	-631
835.178	-854
835.272	-1050
835.366	-1093
835.460	157
835.554	-236
835.648	-903
835.742	-1358
835.836	-755
835.930	-1528
836.024	-842
836.117	-539
836.211	-817
836.305	-23
836.399	429
836.493	-986
836.586	-246
836.680	-870
836.774	-2109
836.867	486
836.961	-1960
837.055	-1885
837.148	-755
837.242	-1189
837.335	-888
837.429	-682
837.522	-1591
837.616	-440
837.709	-390
837.803	-723
837.896	-783
837.989	-665
838.083	-638
838.176	-510
838.269	-301
838.363	-641
838.456	-1180
838.549	-119
838.642	969
838.735	3279
838.829	975
838.922	-1280
839.015	-1302
839.108	-1130
839.201	-139
839.294	-987
839.387	-849
839.480	-1135
839.573	-30
839.666	-1064
839.759	-1144
839.852	-1508
839.945	-917
840.038	-1539
840.131	-1069
840.223	-981
840.316	0
840.409	-1419
840.502	-1728
840.594	-456
840.687	-1468
840.780	-1079
840.873	-1240
840.965	-1283
841.058	137
841.150	181
841.243	-703
841.336	-433
841.428	87
841.521	-1560
841.613	-301
841.706	-797
841.798	-825
841.890	-1034
841.983	-1369
842.075	-809
842.167	-951
842.260	-1044
842.352	-123
842.444	-1092
842.537	547
842.629	116
842.721	-531
842.813	-449
842.905	-1308
842.997	-491
843.090	-1392
843.182	-299
843.274	-346
843.366	1162
843.458	3024
843.550	2607
843.642	-510
843.734	-426
843.826	-679
843.918	-481
844.009	-802
844.101	-1080
844.193	-863
844.285	-1245
844.377	-782
844.469	-193
844.560	-69
844.652	-483
844.744	-521
844.835	-730
844.927	-1218
845.019	-1082
845.110	-7
845.202	-1479
845.293	-5
845.385	-1284
845.476	-929
845.568	307
845.659	-1206
845.751	-668
845.842	-1212
845.934	-577
846.025	-1004
846.116	-563
846.208	-1400
846.299	-1839
846.390	-824
846.482	-748
846.573	-518
846.664	-397
846.755	-104
846.846	453
846.937	-1805
847.029	-1777
847.120	-1075
847.211	-1703
847.302	657
847.393	-1369
847.484	-768
847.575	-1134
847.666	-770
847.757	-795
847.847	-165
847.938	-825
848.029	-1570
848.120	-1523
848.211	-319
848.302	-1115
848.392	-1159
848.483	-472
848.574	-1243
848.664	-1167
848.755	-668
848.846	-943
848.936	-1704
849.027	-819
849.118	-704
849.208	-1158
849.299	-110
849.389	178
849.480	2305
849.570	6457
849.661	12915
849.751	26395
849.841	10299
849.932	449
850.022	-483
850.112	-698
850.203	-220
850.293	-1439
850.383	-1434
850.474	-1695
850.564	-576
850.654	-1010
850.744	-968
850.834	-1866
850.924	-1195
851.014	-871
851.104	-949
851.194	-1206
851.284	-431
851.374	-234
851.464	-1041
851.554	-605
851.644	-1335
851.734	-170
851.824	-328
851.914	-908
852.004	236
852.094	-667
852.183	-1009
852.273	-1194
852.363	-1386
852.452	-699
852.542	-885
852.632	-1236
852.721	-1179
852.811	-1254
852.901	-1153
852.990	-279
853.080	-525
853.169	-1373
853.259	-56
853.348	-325
853.438	19
853.527	108
853.617	1085
853.706	4135
853.795	8053
853.885	22703
853.974	45442
854.063	82015
854.152	148189
854.242	66202
854.331	9585
854.420	2934
854.509	1385
854.598	986
854.687	-106
854.777	-263
854.866	-601
854.955	-370
855.044	-717
855.133	-932
855.222	-993
855.311	-602
855.400	-592
855.488	-760
855.577	-578
855.666	-560
855.755	-493
855.844	-1052
855.933	-529
856.021	-870
856.110	-418
856.199	-2022
856.288	-624
856.376	-1339
856.465	-1459
856.554	-1045
856.642	-1006
856.731	-1314
856.819	-823
856.908	-1348
856.996	-1720
857.085	-1655
857.173	-1275
857.262	-1915
857.350	-750
857.438	-1347
857.527	-764
857.615	-1520
857.703	-445
857.792	-1178
857.880	-1489
857.968	-1135
858.056	-1476
858.145	-729
858.233	-790
858.321	-1879
858.409	-725
858.497	-1347
858.585	-2009
858.673	-1161
858.761	-1366
858.849	-2104
858.937	-1802
859.025	-658
859.113	-1039
859.201	-1615
859.289	-941
859.377	-1280
859.465	-493
859.552	-754
859.640	-930
859.728	-1480
859.816	-689
859.903	-864
859.991	-1500
860.079	-1502
860.166	-1075
860.254	-1823
860.342	-1388
860.429	-1489
860.517	-1492
860.604	-1586
860.692	-671
860.779	-2305
860.867	-745
860.954	-1126
861.042	-1495
861.129	-321
861.216	-1169
861.304	-845
861.391	-1510
861.478	-505
861.565	-302
861.653	-359
861.740	-587
861.827	-1044
861.914	-980
862.001	-1195
862.089	-689
862.176	-1281
862.263	-1298
862.350	-874
862.437	-1373
862.524	-2006
862.611	-1644
862.698	-1401
862.785	-791
862.871	-1553
862.958	-1514
863.045	-982
863.132	-689
863.219	-900
863.306	-1499
863.392	-1200
863.479	-435
863.566	-1403
863.652	-730
863.739	-774
863.826	-843
863.912	-738
863.999	-933
864.086	-1929
864.172	-547
864.259	-1007
864.345	-438
864.432	-786
864.518	-1048
864.604	-1522
864.691	-793
864.777	-1389
864.863	-789
864.950	-1085
865.036	-826
865.122	-778
865.209	-347
865.295	-1267
865.381	-721
865.467	-318
865.553	712
865.639	1329
865.726	4610
865.812	10002
865.898	21703
865.984	35016
866.070	62363
866.156	81574
866.242	23219
866.328	3489
866.414	741
866.499	166
866.585	-87
866.671	-509
866.757	-385
866.843	328
866.928	-559
867.014	-27
867.100	-66
867.186	-395
867.271	-671
867.357	89
867.442	59
867.528	-842
867.614	-788
867.699	-742
867.785	374
867.870	-340
867.956	253
868.041	-609
868.127	-751
868.212	-230
868.297	-619
868.383	-363
868.468	8
868.553	944
868.639	827
868.724	2713
868.809	3452
868.894	34
868.979	-1324
869.065	-570
869.150	-1590
869.235	-1009
869.320	-1624
869.405	-851
869.490	-1619
869.575	-897
869.660	-1186
869.745	-578
869.830	-1561
869.915	-1001
870.000	-1081
870.085	-705
870.169	-1176
870.254	-1490
870.339	-1120
870.424	-1009
870.509	-1700
870.593	-819
870.678	-618
870.763	-1569
870.847	-321
870.932	-1552
871.016	-570
871.101	-1045
871.186	-1216
871.270	-335
871.355	-1146
871.439	-1055
871.523	-753
871.608	-1237
871.692	-224
871.777	-843
871.861	-1351
871.945	-1304
872.030	-557
872.114	-1779
872.198	-1423
872.282	-1529
872.367	-1372
872.451	-549
872.535	-1237
872.619	-1435
872.703	-1940
872.787	-1406
872.871	-469
872.955	-1538
873.039	-1226
873.123	-691
873.207	-11
873.291	-947
873.375	-1126
873.459	-1339
873.543	-769
873.627	-1012
873.711	-970
873.794	-128
873.878	-938
873.962	-1264
874.045	-1227
874.129	-1620
874.137	-1573
874.213	-1099
874.245	-993
874.296	-822
874.352	-1340
874.380	-1593
874.460	-1419
874.464	-1413
874.547	-931
874.568	-1001
874.631	-1211
874.676	-1184
874.714	-1148
874.784	-655
874.798	-564
874.881	92
874.892	-100
874.965	-1430
874.999	-1218
875.048	-915
875.107	-445
875.131	-265
875.215	-496
875.215	-496
875.298	-1295
875.323	-1146
875.381	-734
875.430	-778
875.465	-836
875.538	-631
875.548	-611
875.631	-1218
875.646	-1273
875.714	-1572
875.753	-1365
875.798	-992
875.861	-932
875.881	-941
875.964	-848
875.968	-827
876.047	-556
876.076	-621
876.130	-748
876.183	-267
876.213	52
876.291	-468
876.296	-509
876.379	-727
876.398	-837
876.462	-1213
876.506	-1152
876.545	-1073
876.613	-430
876.628	-304
876.711	-1260
876.721	-1300
876.794	-1494
876.828	-1422
876.877	-1404
876.935	-1250
876.960	-1135
877.043	-689
877.043	-688
877.125	-437
877.150	-382
877.208	-173
877.258	-507
877.291	-759
877.365	-898
877.374	-903
877.456	-193
877.472	-302
877.539	-836
877.579	-533
877.622	-209
877.687	-11
877.704	31
877.787	-489
877.794	-534
877.869	-882
877.901	-917
877.952	-989
878.008	-555
878.034	-377
878.115	-1228
878.117	-1243
878.199	-821
878.222	-870
878.282	-936
878.329	-536
878.364	-332
878.437	-381
878.447	-382
878.529	-1222
878.544	-1205
878.611	-993
878.651	-1169
878.694	-1359
878.758	-680
878.776	-504
878.858	-559
878.865	-539
878.941	-373
878.972	-605
879.023	-983
879.078	-1431
879.105	-1483
879.185	-389
879.187	-378
879.269	-502
879.292	-742
879.351	-1143
879.399	-1082
879.433	-1060
879.506	-1012
879.516	-970
879.598	-646
879.613	-619
879.680	-770
879.720	-765
879.762	-803
879.827	-781
879.844	-713
879.926	-861
879.933	-835
880.007	-737
880.040	-714
880.089	-607
880.147	-243
880.171	-126
880.253	535
880.254	539
880.335	1629
880.360	2004
880.417	2796
880.467	4052
880.499	5030
880.574	6911
880.580	6892
880.662	2185
880.680	1398
880.744	-562
880.787	-694
880.825	-595
880.893	-837
880.907	-868
880.989	-585
881.000	-561
881.070	-585
881.106	-507
881.152	-340
881.213	-402
881.233	-420
881.315	-278
881.319	-268
881.396	-392
881.426	-721
881.478	-892
881.532	-366
881.559	-322
881.639	-847
881.641	-846
881.722	-721
881.745	-598
881.803	-429
881.852	-503
881.885	-558
881.958	-354
881.966	-329
882.047	-817
882.064	-708
882.129	-82
882.171	-111
882.210	-102
882.277	513
882.291	571
882.372	-135
882.383	-220
882.454	-633
882.489	-558
882.535	-425
882.596	-261
882.616	-223
882.697	-813
882.702	-806
882.778	-579
882.808	-712
882.859	-984
882.914	-604
882.940	-403
883.020	-990
883.021	-991
883.102	-669
883.127	-533
883.183	-335
883.233	-674
883.264	-594
883.339	-324
883.345	-359
883.426	-627
883.445	-664
883.507	-644
883.551	-518
883.587	-288
883.657	-291
883.668	-320
883.749	-343
883.763	-370
883.830	-564
883.869	-538
883.910	-337
883.975	-576
883.991	-701
884.072	-375
884.081	-467
884.152	-947
884.187	-690
884.233	-230
884.292	12
884.314	-66
884.394	-634
884.398	-655
884.475	-563
884.504	-524
884.555	-535
884.610	-575
884.636	-546
884.716	-670
884.716	-663
884.797	7
884.821	126
884.877	-172
884.927	-504
884.958	-596
885.033	-614
885.038	-572
885.118	27
885.139	145
885.199	-7
885.244	-256
885.279	-327
885.350	-130
885.359	-97
885.439	294
885.456	298
885.520	-248
885.561	-697
885.600	-682
885.667	-202
885.680	-121
885.760	15
885.773	28
885.840	-282
885.878	-479
885.920	-454
885.984	-244
886.000	-267
886.080	-603
886.089	-617
886.160	-110
886.195	-58
886.240	-389
886.300	-403
886.320	-233
886.400	-186
886.406	-138
886.480	494
886.511	536
886.560	283
886.616	-29
886.640	20
886.720	470
886.722	470
886.800	-13
886.827	-139
886.879	-190
886.932	-361
886.959	-292
887.038	103
887.039	102
887.119	-259
887.143	-407
887.198	151
887.248	696
887.278	592
887.354	248
887.358	240
887.437	-24
887.459	-93
887.517	-5
887.564	131
887.596	92
887.669	-211
887.676	-211
887.755	-144
887.774	-142
887.835	-37
887.880	69
887.914	-74
887.985	-388
887.994	-362
888.073	-144
888.090	-136
888.153	-229
888.195	-223
888.232	-188
888.300	-117
888.311	-77
888.391	116
888.405	143
888.470	-8
888.510	-96
888.549	38
888.615	240
888.628	144
888.708	-412
888.720	-512
888.787	-393
888.825	-327
888.866	-422
888.930	-575
888.945	-575
889.024	-589
889.035	-588
889.103	225
889.140	640
889.182	211
889.245	-430
889.261	-366
889.340	-68
889.349	-36
889.419	377
889.454	583
889.498	292
889.559	-132
889.577	-263
889.656	-833
889.664	-887
889.735	-24
889.768	390
889.814	356
889.873	305
889.978	540
890.083	-66
890.187	217
890.292	-219
890.397	189
890.501	178
890.606	155
890.710	-252
890.815	926
890.919	-325
891.024	-190
891.128	-147
891.233	-5
891.337	-262
891.442	11
891.546	592
891.650	121
891.755	-217
891.859	522
891.963	-386
892.068	1093
892.172	-527
892.276	-63
892.380	558
892.484	-375
892.589	43
892.693	114
892.797	261
892.901	67
893.005	69
893.109	-81
893.213	164
893.317	497
893.421	-139
893.525	-555
893.629	-752
893.733	-457
893.837	-351
893.941	-50
894.045	56
894.148	-473
894.252	645
894.356	385
894.460	505
894.564	-310
894.667	-63
894.771	-495
894.875	116
894.978	-155
895.082	-366
895.186	513
895.289	-203
895.393	3
895.496	75
895.600	3
895.703	-352
895.807	-456
895.910	37
896.014	-451
896.117	-208
896.221	-397
896.324	-589
896.427	123
896.531	-323
896.634	-506
896.737	-132
896.840	-110
896.944	-798
897.047	-175
897.150	256
897.253	-335
897.356	273
897.460	-838
897.563	18
897.666	-264
897.769	-42
897.872	-3
897.975	379
898.078	-376
898.181	-52
898.284	382
898.387	-454
898.490	-325
898.593	112
898.695	-690
898.798	-436
898.901	238
899.004	245
899.107	184
899.209	-22
899.312	12
899.415	-84
899.518	-698
899.620	-472
899.723	-515
899.826	857
899.928	534
900.031	-720
900.133	-444
900.236	-487
900.338	-93
900.441	-217
900.543	44
900.646	-250
900.748	-498
900.851	-236
900.953	31
901.055	265
901.158	207
901.260	227
901.362	55
901.465	-148
901.567	-528
901.669	-604
901.771	-231
901.873	128
901.976	-546
902.078	5
902.180	-769
902.282	-329
902.384	-830
902.486	-91
902.588	22
902.690	173
902.792	-1114
902.894	111
902.996	-268
903.098	-56
903.200	-122
903.302	17
903.404	280
903.505	-550
903.607	-585
903.709	75
903.811	-668
903.913	-553
904.014	-670
904.116	-204
904.218	-457
904.319	-218
904.421	-510
904.523	-391
904.624	-976
904.726	124
904.827	-182
904.929	97
905.030	326
905.132	-233
905.233	-30
905.335	-166
905.436	114
905.537	-79
905.639	-267
905.740	-106
905.841	-227
905.943	-323
906.044	-905
906.145	-1002
906.247	-348
906.348	-566
906.449	-279
906.550	330
906.651	-433
906.752	-26
906.854	-597
906.955	-736
907.056	-692
907.157	-879
907.258	-95
907.359	-205
907.460	-94
907.561	-1034
907.662	300
907.762	41
907.863	-938
907.964	-514
908.065	207
908.166	16
908.267	-36
908.367	-1117
908.468	-96
908.569	-259
908.670	-854
908.770	622
908.871	-134
908.971	-241
909.072	-418
909.173	-735
909.273	-871
909.374	-422
909.474	-152
909.575	79
909.675	-1160
909.776	-365
909.876	-302
909.977	-417
910.077	-183
910.177	-222
910.278	-785
910.378	322
910.478	-1207
910.579	278
910.679	-105
910.779	-169
910.879	706
910.980	-86
911.080	-204
911.180	-423
911.280	93
911.380	155
911.480	151
911.580	-56
911.680	-534
911.780	-196
911.880	-95
911.980	29
912.080	-690
912.180	-411
912.280	-881
912.380	-524
912.480	-171
912.580	-571
912.679	-632
912.779	-595
912.879	26
912.979	-778
913.078	-757
913.178	-619
913.278	-380
913.377	-531
913.477	64
913.577	-121
913.676	-99
913.776	-787
913.875	-408
913.975	49
914.074	-868
914.174	-587
914.273	-923
914.373	118
914.472	-227
914.572	-504
914.671	-689
914.770	-682
914.870	-525
914.969	-818
915.068	-258
915.167	-306
915.267	-807
915.366	-589
915.465	-393
915.564	-102
915.663	18
915.763	-855
915.862	-251
915.961	-935
916.060	-356
916.159	30
916.258	-640
916.357	23
916.456	-187
916.555	-1050
916.654	83
916.752	-635
916.851	170
916.950	-187
917.049	-746
917.148	-295
917.247	-513
917.345	-561
917.444	-988
917.543	-385
917.642	20
917.740	-495
917.839	106
917.937	-188
918.036	50
918.135	-331
918.233	-1040
918.332	-747
918.430	-576
918.529	113
918.627	-68
918.726	-48
918.824	-453
918.923	-512
919.021	215
919.119	-786
919.218	-700
919.316	-407
919.414	-453
919.512	-377
919.611	212
919.709	-582
919.807	-80
919.905	-57
920.003	-248
920.102	-142
920.200	-1202
920.298	-493
920.396	-625
920.494	169
920.592	-1322
920.690	-529
920.788	-698
920.886	278
920.984	-317
921.082	-886
921.180	-530
921.277	-793
921.375	-519
921.473	-640
921.571	-264
921.669	-593
921.766	198
921.864	-295
921.962	-428
922.060	-333
922.157	427
922.255	-20
922.352	-868
922.450	-63
922.548	-276
922.645	-1345
922.743	-1198
922.840	-78
922.938	102
923.035	-518
923.133	69
923.230	-880
923.327	179
923.425	76
923.522	-356
923.619	384
923.717	16
923.814	-324
923.911	-699
924.008	653
924.106	-626
924.203	-391
924.300	293
924.397	26
924.494	172
924.591	-306
924.688	-595
924.786	45
924.883	-816
924.979	-556
925.077	-1286
925.173	-732
925.270	-492
925.367	-168
925.464	152
925.561	-309
925.658	337
925.755	-279
925.852	-53
925.948	174
926.045	86
926.142	171
926.239	-85
926.335	-530
926.432	25
926.529	-698
926.625	338
926.722	-523
926.818	-376
926.915	5
927.011	-549
927.108	-1061
927.204	-264
927.301	8
927.397	191
927.494	-826
927.590	-5
927.687	-779
927.783	-586
927.879	-509
927.976	-129
928.072	-71
928.168	-1072
928.264	-604
928.361	-918
928.457	-690
928.553	-197
928.649	-315
928.745	-847
928.841	516
928.937	437
929.033	167
929.129	-1289
929.225	-267
929.321	-344
929.417	-1097
929.513	-1157
929.609	-560
929.705	-570
929.801	-962
929.897	-887
929.993	-714
930.089	-1199
930.184	-651
930.280	-230
930.376	-445
930.471	-1078
930.567	-604
930.663	-858
930.758	-1553
930.854	-1332
930.950	-93
931.045	-541
931.141	-118
931.236	-266
931.332	-1366
931.427	-164
931.523	-1016
931.618	-533
931.714	-1070
931.809	-1116
931.905	-1009
932.000	-1768
932.095	-1450
932.191	-300
932.286	-200
932.381	-771
932.476	-452
932.572	-678
932.667	-386
932.762	-346
932.857	111
932.952	-899
933.047	-819
933.142	-739
933.237	-334
933.332	-402
933.427	-221
933.522	-657
933.617	-474
933.712	-492
933.807	-920
933.902	-721
933.997	-1280
934.092	-1347
934.187	-1254
934.282	-824
934.376	-460
934.471	-938
934.566	-1002
934.661	-541
934.755	-833
934.850	-1953
934.945	-317
935.039	-652
935.134	-577
935.228	-821
935.323	-1011
935.417	582
935.512	-1022
935.606	-1372
935.701	-1122
935.795	-2078
935.890	-89
935.984	-590
936.079	-1384
936.173	-592
936.267	-483
936.362	-933
936.456	-689
936.550	-241
936.644	-968
936.738	-722
936.833	-845
936.927	-218
937.021	-528
937.115	-452
937.209	-1150
937.303	57
937.397	447
937.491	-686
937.585	-837
937.679	-1972
937.773	-894
937.867	-1169
937.961	-1309
938.055	-649
938.149	-368
938.243	-176
938.337	-1251
938.430	-130
938.524	-449
938.618	-97
938.712	-417
938.805	-840
938.899	-774
938.993	-651
939.086	-386
939.180	-438
939.274	-14
939.367	-1080
939.461	-529
939.554	-1239
939.648	-996
939.741	-450
939.835	-850
939.928	-613
940.022	-415
940.115	-888
940.208	-763
940.302	-404
940.395	-336
940.488	-769
940.582	-183
940.675	-1507
940.768	-567
940.861	-1020
940.954	-133
941.048	-1097
941.141	-1130
941.234	-1025
941.327	-833
941.420	-331
941.513	23
941.606	-848
941.699	-522
941.792	-862
941.885	-687
941.978	-1202
942.071	-625
942.164	-1661
942.257	-1032
942.349	-1678
942.442	-696
942.535	-1705
942.628	177
942.721	-362
942.813	-1804
942.906	-372
942.999	-412
943.091	-2133
943.184	-1140
943.277	-1137
943.369	-420
943.462	-1188
943.554	-872
943.647	-1240
943.739	113
943.832	-886
943.924	-1205
944.017	-967
944.109	-1659
944.201	-625
944.294	-444
944.386	-502
944.478	-1749
944.571	-1064
944.663	-927
944.755	-673
944.847	-1035
944.940	-694
945.032	-1656
945.124	-894
945.216	-128
945.308	-968
945.400	-1163
945.492	-599
945.584	-1673
945.676	-939
945.768	-177
945.860	-391
945.952	-883
946.044	-853
946.136	-785
946.228	-637
946.320	-1723
946.412	-938
946.503	-1572
946.595	-783
946.687	-985
946.779	-1015
946.870	-425
946.962	-530
947.054	-591
947.145	-884
947.237	-1208
947.329	-577
947.420	-289
947.512	16
947.603	-979
947.695	-393
947.786	-1716
947.878	-1295
947.969	-650
948.061	-1413
948.152	-1456
948.243	-1173
948.335	-184
948.426	-1238
948.517	-837
948.609	-507
948.700	-839
948.791	-1192
948.882	-532
948.973	-1126
949.065	-1144
949.156	-1444
949.247	-1406
949.338	-553
949.429	-1243
949.520	-1477
949.611	-1500
949.702	-685
949.793	-1052
949.884	-1151
949.975	-1397
950.066	-1288
950.157	-1351
950.247	-1036
950.338	-679
950.429	-1409
950.520	-426
950.611	-958
950.701	-223
950.792	-1290
950.883	-941
950.973	-736
951.064	-1348
951.155	-1017
951.245	-732
951.336	-530
951.427	-2445
951.517	-946
951.608	-649
951.698	-1123
951.788	-1051
951.879	-1488
951.969	-1298
952.060	-1585
952.150	-1214
952.240	-1210
952.331	-2575
952.421	-159
952.511	-598
952.602	-826
952.692	-866
952.782	-1253
952.872	-1109
952.962	-916
953.052	-1088
953.143	-1491
953.233	-116
953.323	3
953.413	-1360
953.503	-783
953.593	-1707
953.683	-1171
953.773	-2055
953.863	-1194
953.953	-1127
954.042	-1111
954.132	-1096
954.222	-609
954.312	-1036
954.402	-1148
954.492	-486
954.581	-974
954.671	-1637
954.761	-1380
954.850	-1037
954.940	-1403
955.030	-1261
955.119	-1303
955.209	-1094
955.298	-2112
955.388	-963
955.477	-506
955.567	-2212
955.656	-1222
955.746	20
955.835	-1356
955.925	-2198
956.014	-867
956.103	-1368
956.193	-1341
956.282	-179
956.371	-1191
956.461	-601
956.550	-749
956.639	-1187
956.728	-1963
956.817	-1009
956.906	-1169
956.995	-823
957.085	-899
957.174	-1311
957.263	-1080
957.352	-1786
957.441	-1667
957.530	-1354
957.619	-1344
957.708	-1608
957.796	-1509
957.885	-600
957.974	-1286
958.063	-718
958.152	-1612
958.241	-892
958.329	-1460
958.418	-1516
958.507	-2063
958.596	-764
958.684	-1435
958.773	-864
958.861	-2029
958.950	-1094
959.039	-759
959.127	-886
959.216	-38
959.304	-1473
959.393	-1103
959.481	-1476
959.570	-975
959.658	-1963
959.746	-1310
959.835	-1296
959.923	-605
960.011	-925
960.100	-1183
960.188	-1302
960.276	-1037
960.365	-1150
960.453	-818
960.541	-934
960.629	-442
960.717	-1213
960.805	-1668
960.893	-241
960.981	-2006
961.069	-1187
961.158	-1673
961.245	-608
961.333	-1408
961.421	-1726
961.509	-473
961.597	-1678
961.685	-1883
961.773	-1153
961.861	-1733
961.949	-653
962.036	-1784
962.124	-877
962.212	-1117
962.299	-1525
962.387	-1623
962.475	-641
962.562	-1235
962.650	-405
962.738	-1633
962.825	-1371
962.913	-1482
963.000	-1603
963.088	-505
963.175	-1134
963.263	-748
963.350	-1299
963.438	-1682
963.525	-1358
963.612	-496
963.700	-898
963.787	1618
963.874	-916
963.962	-1016
964.049	-422
964.136	-1529
964.223	-1303
964.310	-841
964.398	-1150
964.485	-1761
964.572	-1624
964.659	-1469
964.746	-1304
964.833	-2194
964.920	-1770
965.007	-1499
965.094	-804
965.181	-1452
965.268	-1934
965.355	-1439
965.441	-1454
965.528	-1640
965.615	-1406
965.702	-1175
965.789	-1370
965.875	-545
965.962	-1082
966.049	-1932
966.136	-1383
966.222	-1304
966.309	-419
966.395	-763
966.482	-1003
966.569	-1878
966.655	-1377
966.742	-1735
966.828	-767
966.915	-1668
967.001	-1186
967.087	-1447
967.174	-1253
967.260	-1666
967.347	-1240
967.433	-1621
967.519	-345
967.605	-1680
967.692	-1522
967.778	-1454
967.864	-1357
967.950	-1175
968.036	-1694
968.123	-1251
968.209	-2097
968.295	-2389
968.381	-673
968.467	-914
968.553	-3034
968.639	-893
968.725	-1899
968.811	-868
968.897	-1661
968.983	-1297
969.069	-1681
969.154	-1401
969.240	-353
969.326	-1909
969.412	-1361
969.497	-1719
969.583	-1365
969.669	-688
969.755	-1303
969.840	-1460
969.926	-1128
970.012	-1707
970.097	-872
970.183	-1762
970.268	-1650
970.354	-432
970.439	-1293
970.525	279
970.610	-1471
970.696	-487
970.781	-1150
970.866	-2037
970.952	-379
971.037	-1341
971.122	-1962
971.208	-991
971.293	-1598
971.378	-2487
971.463	-954
971.549	-1596
971.634	-1746
971.719	-1406
971.804	-1486
971.889	-827
971.974	-1066
972.059	-2019
972.144	-445
972.229	-1539
972.314	-1235
972.399	-696
972.484	-1095
972.569	-1215
972.654	-2051
972.739	-583
972.824	-1058
972.908	-740
972.993	-2521
973.078	-2807
973.163	-1057
973.247	-1208
973.332	-2973
973.417	-755
973.501	-1683
973.586	-1761
973.671	-750
973.755	-1000
973.840	-814
973.924	-1122
974.009	-1082
974.093	-1854
974.178	-480
974.262	-1062
974.346	-1086
974.431	-1459
974.515	-1461
974.600	-1371
974.684	-957
974.768	-2022
974.852	-1094
974.937	-1908
975.021	-1655
975.105	-652
975.189	-1150
975.273	-1475
975.358	-2047
975.442	-1965
975.526	-1839
975.610	-2558
975.694	-2093
975.778	-1383
975.862	-548
975.946	-2893
976.030	-442
976.114	-1567
976.198	-1088
976.281	-1630
976.365	-865
976.449	-1424
976.533	-1194
976.617	-1586
976.700	-1061
976.784	-1606
976.868	-2043
976.951	-1283
977.035	-958
977.119	-1185
977.202	-1767
977.286	-870
977.369	-1924
977.453	-300
977.536	-1244
977.620	-1971
977.703	-1336
977.787	-2035
977.870	-1383
977.953	-828
978.037	-2241
978.120	-895
978.203	-1818
978.287	-1693
978.370	-1230
978.453	-2050
978.536	-1117
978.620	-1745
978.703	-1399
978.786	-1575
978.869	-1702
978.952	-2015
979.035	14
979.118	-1823
979.201	-1991
979.284	-1504
979.367	-2266
979.450	-890
979.533	-1934
979.616	-1378
979.699	-1128
979.782	-1651
979.865	-1242
979.948	-1135
980.030	-1752
980.113	-539
980.196	-2257
980.279	-1369
980.361	-1042
980.444	-1584
980.526	-1047
980.609	-921
980.692	-1967
980.774	-1527
980.857	-2159
980.939	-1146
981.022	-1408
981.104	-1733
981.187	-1385
981.269	-838
981.352	-2190
981.434	-2141
981.516	-2282
981.599	-1060
981.681	-1848
981.763	-1580
981.846	-1241
981.928	-1990
982.010	-1250
982.092	-2532
982.174	-645
982.256	-1980
982.339	-1368
982.421	-1078
982.503	-1129
982.585	-2353
982.667	-1276
982.749	-780
982.831	-767
982.913	-1967
982.995	-671
983.077	-2295
983.158	-1293
983.240	-2125
983.322	-2168
983.404	-1293
983.486	-2155
983.568	-1187
983.649	-1733
983.731	-1145
983.813	-1578
983.894	-946
983.976	-2005
984.058	-1409
984.139	-508
984.221	-2126
984.302	-1133
984.384	-1210
984.465	-1998
984.547	-980
984.628	-2126
984.710	-830
984.791	-1519
984.872	-2541
984.954	-1252
985.035	-1941
985.116	-2387
985.198	-1809
985.279	-1204
985.360	-1552
985.441	-1354
985.522	-1447
985.604	-1369
985.685	-2390
985.766	-756
985.847	-528
985.928	-2090
986.009	-1506
986.090	-1600
986.171	-1359
986.252	-1744
986.333	-798
986.414	-1054
986.495	-1031
986.576	-1893
986.656	-1748
986.737	-1316
986.818	-1637
986.899	-2146
986.980	-1836
987.060	-669
987.141	-908
987.222	-1287
987.302	-1590
987.383	-913
987.464	-1423
987.544	-1523
987.625	-1210
987.705	-1278
987.786	-2139
987.866	-1802
987.947	-1706
988.027	-1822
988.108	-1661
988.188	-1193
988.268	-1488
988.349	-1733
988.429	-1629
988.509	-1145
988.589	-1353
988.670	-2406
988.750	-133
988.830	-960
988.910	-1425
988.990	-2051
989.070	-1472
989.151	-1241
989.231	-2105
989.311	-1139
989.391	-1088
989.471	-2245
989.551	-1539
989.631	-1542
989.711	-1003
989.791	-1905
989.870	-2214
989.950	-955
990.030	-1601
990.110	-2112
990.190	-2005
990.269	-1145
990.349	-1231
990.429	-1153
990.509	-1187
990.588	-1941
990.668	-754
990.747	-1952
990.827	-1715
990.907	-1444
990.986	-2201
991.066	-277
991.145	-2222
991.225	-1448
991.304	-2117
991.383	-1418
991.463	-1881
991.542	-1694
991.622	-1663
991.701	-1850
991.780	-1699
991.859	-1644
991.939	-1603
992.018	-1332
992.097	-1466
992.176	-2008
992.256	-1231
992.335	-2396
992.414	-1034
992.493	-1893
992.572	-2239
992.651	-724
992.730	-2318
992.809	-1652
992.888	-2435
992.967	-1663
993.046	-581
993.125	-1652
993.203	-1566
993.282	-1873
993.361	-1686
993.440	-871
993.519	-1804
993.597	-1051
993.676	-1418
993.755	-1037
993.834	-1205
993.912	-1975
993.991	-924
994.069	-1840
994.148	-2403
994.226	-2184
994.305	-1568
994.384	-2254
994.462	-784
994.540	-3059
994.619	-2548
994.697	-1111
994.776	-1696
994.854	-1611
994.932	-2244
995.011	-1498
995.089	-2029
995.167	-1315
995.245	-942
995.324	-2635
995.402	-802
995.480	-2445
995.558	-1399
995.636	-2525
995.714	-2528
995.792	-639
995.870	-2271
995.948	-1554
996.026	-1669
996.104	-2419
996.182	-1399
996.260	-2381
996.338	-1869
996.416	-2487
996.494	-2422
996.572	-775
996.649	-2176
996.727	-2440
996.805	-1985
996.883	-2171
996.960	-2311
997.038	-1842
997.116	-1344
997.193	-2255
997.271	-495
997.348	-1345
997.426	-1380
997.504	-2610
997.581	-887
997.658	-1310
997.736	-2089
997.813	-1898
997.891	-792
997.968	-2308
998.046	-699
998.123	-1998
998.200	-1424
998.277	-2062
998.355	-1320
998.432	-2292
998.509	-1015
998.586	-1469
998.663	-1168
998.741	-1755
998.818	-1352
998.895	-2584
998.972	-1594
999.049	-1619
999.126	-1960
999.203	-865
999.280	-2325
999.357	-2014
999.434	-1552
999.511	-1715
999.587	-541
999.664	-2259
999.741	-2426
999.818	-1710
999.895	-2795
999.971	-1947
1000.048	-1817
1000.125	-760
1000.202	-1774
1000.278	-2465
1000.355	-2135
1000.431	-1536
1000.508	-1816
1000.584	-1534
1000.661	-1072
1000.738	-2463
1000.814	-1619
1000.890	-1513
1000.967	-1529
1001.043	-1420
1001.120	-2596
1001.196	-1676
1001.272	-2478
1001.349	-1777
1001.425	-1800
1001.501	-1423
1001.577	-2247
1001.654	-1345
1001.730	-2940
1001.806	-1869
1001.882	-2582
1001.958	-2036
1002.034	-1866
1002.110	-1728
1002.186	-2496
1002.262	-2051
1002.338	-1901
1002.414	-1525
1002.490	-1058
1002.566	-2329
1002.642	-1753
1002.718	-1437
1002.794	-2428
1002.870	-2375
1002.945	-1897
1003.021	-2269
1003.097	-1807
1003.173	-1821
1003.248	-2177
1003.324	-1687
1003.400	-1666
1003.475	-2488
1003.551	-1128
1003.626	-1368
1003.702	-2354
1003.777	-1696
1003.853	-1933
1003.928	-2931
1004.004	-2340
1004.079	-2011
1004.155	-2290
1004.230	-2108
1004.305	-1365
1004.381	-2449
1004.456	-1668
1004.531	-1022
1004.607	-1757
1004.682	-2459
1004.757	-1513
1004.832	-2518
1004.907	-2573
1004.982	-2338
1005.057	-1844
1005.133	-2561
1005.208	-2372
1005.283	-2606
1005.358	-1605
1005.433	-2668
1005.508	-2092
1005.583	-2201
1005.657	-2219
1005.732	-1710
1005.807	-2780
1005.882	-1830
1005.957	-1753
1006.032	-1313
1006.106	-1933
1006.181	-2735
1006.256	-2035
1006.331	-3399
1006.405	-2680
1006.480	-2215
1006.554	-2811
1006.629	-2573
1006.704	-2375
1006.778	-1872
1006.853	-1717
1006.927	-2292
1007.002	-2417
1007.076	-2086
1007.150	-2375
1007.225	-1874
1007.299	-1956
1007.373	-2462
1007.448	-1962
1007.522	-1179
1007.596	-2148
1007.671	-2107
1007.745	-1372
1007.819	-2716
1007.893	-2863
1007.967	-1888
1008.041	-3198
1008.115	-1832
1008.190	-3097
1008.264	-2205
1008.338	-2685
1008.412	-2461
1008.486	-2363
1008.560	-2433
1008.633	-2528
1008.707	-1985
1008.781	-1462
1008.855	-2605
1008.929	-2223
1009.003	-2683
1009.076	-2579
1009.150	-2255
1009.224	-1791
1009.298	-2195
1009.371	-2858
1009.445	-1952
1009.519	-2429
1009.592	-3230
1009.666	-2439
1009.739	-1099
1009.813	-2416
1009.886	-1535
1009.960	-3128
1010.033	-1542
1010.107	-2131
1010.180	-2906
1010.253	-2264
1010.327	-2562
1010.400	-1490
1010.473	-2819
1010.547	-1641
1010.620	-2729
1010.693	-2825
1010.766	-2942
1010.840	-2397
1010.913	-2244
1010.986	-2414
1011.059	-1989
1011.132	-2333
1011.205	-1766
1011.278	-2782
1011.351	-2308
1011.424	-1971
1011.497	-3184
1011.570	-2392
1011.643	-2258
1011.716	-2699
1011.789	-2390
1011.862	-2253
1011.934	-2269
1012.007	-2627
1012.080	-2309
1012.153	-2024
1012.225	-1405
1012.298	-3225
1012.371	-3341
1012.443	-2105
1012.516	-2339
1012.588	-1841
1012.661	-2110
1012.733	-2588
1012.806	-1886
1012.879	-2064
1012.951	-1337
1013.023	-3190
1013.096	-2502
1013.168	-2495
1013.241	-2285
1013.313	-2068
1013.385	-2840
1013.458	-2104
1013.530	-1692
1013.602	-2766
1013.674	-2104
1013.746	-2820
1013.819	-1570
1013.891	-1999
1013.963	-2403
1014.035	-2505
1014.107	-2078
1014.179	-2221
1014.251	-2509
1014.323	-2782
1014.395	-2261
1014.467	-2027
1014.539	-2271
1014.611	-2009
1014.683	-2234
1014.754	-1997
1014.826	-3137
1014.898	-1809
1014.970	-2627
1015.042	-1788
1015.113	-2146
1015.185	-2405
1015.257	-2748
1015.328	-2197
1015.400	-2684
1015.471	-2884
1015.543	-3213
1015.615	-2326
1015.686	-2529
1015.757	-2691
1015.829	-2652
1015.901	-2995
1015.972	-2514
1016.043	-3241
1016.115	-2253
1016.186	-2053
1016.257	-2131
1016.328	-2371
1016.400	-1430
1016.471	-3002
1016.542	-2956
1016.613	-2340
1016.685	-2245
1016.756	-2095
1016.827	-2238
1016.898	-3012
1016.969	-1427
1017.040	-2431
1017.111	-1896
1017.182	-2791
1017.253	-1767
1017.324	-2191
1017.395	-2248
1017.466	-1805
1017.537	-2231
1017.608	-2190
1017.678	-2440
1017.749	-2502
1017.820	-2902
1017.891	-3617
1017.961	-2649
1018.032	-2330
1018.103	-1541
1018.173	-2451
1018.244	-2827
1018.315	-1754
1018.385	-2734
1018.456	-2786
1018.526	-2878
1018.597	-3560
1018.667	-2528
1018.738	-2841
1018.808	-2034
1018.878	-2316
1018.949	-2149
1019.019	-1873
1019.089	-2504
1019.160	-2141
1019.230	-2693
1019.300	-2150
1019.371	-2452
1019.441	-2068
1019.511	-2481
1019.581	-1555
1019.651	-2244
1019.721	-1979
1019.791	-1827
1019.861	-2388
1019.931	-1633
1020.001	-2102
1020.071	-2166
1020.141	-2243
1020.211	-1546
1020.281	-2374
1020.351	-1848
1020.421	-1769
1020.491	-1478
1020.560	-2658
1020.630	-1974
1020.700	-3031
1020.770	-2468
1020.839	-2699
1020.909	-2273
1020.979	-1966
1021.048	-2173
1021.118	-2786
1021.187	-2670
1021.257	-2371
1021.326	-1506
1021.396	-2193
1021.465	-2198
1021.535	-2186
1021.604	-2732
1021.674	-2401
1021.743	-2374
1021.812	-1677
1021.882	-2953
1021.951	-2156
1022.020	-2460
1022.089	-2035
1022.159	-1743
1022.228	-2652
1022.297	-1904
1022.366	-2002
1022.435	-2622
1022.504	-1821
1022.573	-2282
1022.642	-2360
1022.711	-3218
1022.781	-1899
1022.849	-1758
1022.918	-2038
1022.987	-2521
1023.056	-2479
1023.125	-1985
1023.194	-1884
1023.263	-2718
1023.331	-1938
1023.400	-2444
1023.469	-1787
1023.538	-869
1023.606	-2561
1023.675	-2549
1023.744	-3005
1023.812	-1513
1023.881	-1434
1023.949	-1480
1024.018	-2312
1024.086	-2422
1024.155	-2207
1024.223	-2457
1024.292	-1814
1024.360	-1940
1024.429	-1927
1024.497	-1696
1024.565	-1944
1024.634	-1811
1024.702	-1952
1024.770	-2137
1024.838	-2998
1024.907	-1436
1024.975	-2766
1025.043	-2035
1025.111	-2456
1025.179	-2294
1025.247	-1951
1025.315	-1248
1025.383	-2186
1025.451	-1327
1025.519	-1946
1025.587	-2756
1025.655	-1428
1025.723	-1797
1025.791	-2931
1025.859	-2479
1025.927	-2029
1025.995	-2160
1026.062	-2187
1026.130	-1668
1026.198	-1801
1026.266	-2711
1026.333	-1522
1026.401	-1998
1026.469	-2808
1026.536	-2019
1026.604	-2281
1026.671	-2576
1026.739	-2361
1026.806	-2060
1026.874	-2323
1026.941	-2114
1027.009	-2467
1027.076	-2202
1027.144	-1872
1027.211	-2045
1027.278	-1942
1027.345	-2693
1027.413	-2043
1027.480	-2985
1027.547	-1421
1027.614	-1775
1027.682	-1614
1027.749	-2360
1027.816	-1595
1027.883	-2465
1027.950	-1708
1028.017	-1537
1028.084	-1312
1028.151	-3328
1028.218	-1561
1028.285	-2057
1028.352	-1940
1028.419	-2793
1028.486	-1904
1028.553	-2117
1028.619	-1707
1028.686	-2132
1028.753	-2009
1028.820	-2757
1028.886	-2065
1028.953	-2127
1029.020	-2975
1029.086	-1792
1029.153	-2454
1029.220	-2183
1029.286	-1915
1029.353	-2165
1029.419	-2097
1029.486	-1770
1029.552	-2630
1029.619	-2804
1029.685	-3279
1029.751	-2309
1029.818	-1497
1029.884	-2362
1029.951	-1456
1030.017	-2569
1030.083	-2257
1030.149	-1876
1030.216	-2569
1030.282	-1716
1030.348	-1924
1030.414	-2626
1030.480	-2745
1030.546	-1693
1030.612	-1782
1030.678	-2330
1030.744	-1546
1030.810	-2019
1030.876	-1459
1030.942	-2721
1031.008	-2724
1031.074	-1835
1031.140	-1912
1031.206	-2673
1031.272	-2138
1031.337	-1921
1031.403	-1982
1031.469	-2600
1031.534	-2180
1031.600	-1456
1031.666	-2099
1031.731	-2173
1031.797	-2435
1031.863	-2603
1031.928	-1850
1031.994	-2199
1032.059	-2289
1032.125	-1815
1032.190	-2220
1032.256	-3311
1032.321	-1942
1032.386	-1781
1032.452	-2638
1032.517	-2702
1032.582	-3038
1032.647	-1763
1032.713	-2308
1032.778	-2601
1032.843	-2248
1032.908	-2270
1032.974	-2294
1033.039	-2818
1033.104	-2182
1033.169	-2307
1033.234	-2584
1033.299	-1684
1033.364	-1990
1033.429	-3074
1033.494	-1777
1033.559	-1811
1033.624	-1042
1033.688	-2228
1033.753	-2798
1033.818	-2247
1033.883	-2382
1033.948	-2056
1034.013	-2408
1034.077	-2339
1034.142	-2085
1034.207	-2761
1034.271	-2396
1034.336	-1826
1034.400	-2008
1034.465	-2486
1034.530	-1793
1034.594	-2119
1034.658	-2327
1034.723	-2212
1034.787	-1290
1034.852	-2386
1034.916	-2116
1034.981	-2087
1035.045	-1439
1035.109	-2243
1035.173	-2918
1035.238	-2773
1035.302	-2265
1035.366	-2318
1035.430	-3040
1035.495	-2817
1035.559	-2330
1035.623	-2251
1035.687	-2944
1035.751	-1917
1035.815	-1940
1035.879	-2880
1035.943	-2314
1036.007	-2765
1036.071	-2470
1036.135	-2117
1036.198	-2264
1036.262	-2569
1036.326	-1473
1036.390	-2717
1036.454	-1132
1036.517	-1833
1036.581	-2688
1036.645	-2198
1036.709	-567
1036.772	-2100
1036.836	-1976
1036.900	-2258
1036.963	-2431
1037.026	-2389
1037.090	-2352
1037.154	-2067
1037.217	-2790
1037.280	-1814
1037.344	-2666
1037.407	-2989
1037.471	-2913
1037.534	-1787
1037.597	-2228
1037.661	-2069
1037.724	-1869
1037.787	-1799
1037.850	-1260
1037.913	-1844
1037.977	-1982
1038.040	-2448
1038.103	-2935
1038.166	-2264
1038.229	-2677
1038.292	-2475
1038.355	-2172
1038.418	-2631
1038.481	-2097
1038.544	-2178
1038.607	-2522
1038.670	-2222
1038.732	-2646
1038.795	-2037
1038.858	-2360
1038.921	-1981
1038.984	-2244
1039.046	-2976
1039.109	-3235
1039.172	-2391
1039.234	-1806
1039.297	-2671
1039.360	-2372
1039.422	-1992
1039.485	-2584
1039.547	-2916
1039.610	-2550
1039.672	-2254
1039.734	-1859
1039.797	-2658
1039.859	-2313
1039.922	-2910
1039.984	-1666
1040.046	-2885
1040.109	-2137
1040.171	-2281
1040.233	-2451
1040.295	-2787
1040.358	-2562
1040.420	-3042
1040.482	-2607
1040.544	-2515
1040.606	-2541
1040.668	-2876
1040.730	-2488
1040.792	-2836
1040.854	-2728
1040.916	-1898
1040.978	-2239
1041.040	-1982
1041.102	-2294
1041.164	-2806
1041.225	-2930
1041.287	-2681
1041.349	-2113
1041.411	-1988
1041.472	-2346
1041.534	-2161
1041.596	-2923
1041.657	-2516
1041.719	-2012
1041.781	-2505
1041.842	-2905
1041.904	-2807
1041.965	-2618
1042.027	-2243
1042.088	-2042
1042.150	-2315
1042.211	-2107
1042.272	-2296
1042.334	-2612
1042.395	-2392
1042.456	-2121
1042.518	-2397
1042.579	-2097
1042.640	-2431
1042.701	-2404
1042.763	-2028
1042.824	-2114
1042.885	-2106
1042.946	-2206
1043.007	-3108
1043.068	-2466
1043.129	-2138
1043.190	-2714
1043.251	-1953
1043.312	-2638
1043.373	-2756
1043.434	-1976
1043.495	-2785
1043.556	-2187
1043.616	-2566
1043.677	-2430
1043.738	-2461
1043.799	-2660
1043.859	-2055
1043.920	-1638
1043.981	-2036
1044.041	-2112
1044.102	-2553
1044.162	-2296
1044.223	-2144
1044.284	-1727
1044.344	-2558
1044.405	-2315
1044.465	-1406
1044.525	-2563
1044.586	-2459
1044.646	-2399
1044.707	-2022
1044.767	-2230
1044.827	-2691
1044.887	-2168
1044.948	-1886
1045.008	-2810
1045.068	-3066
1045.128	-1663
1045.188	-2319
1045.249	-1568
1045.309	-1958
1045.369	-1922
1045.429	-2027
1045.489	-2159
1045.549	-2326
1045.609	-2585
1045.669	-1768
1045.729	-2234
1045.789	-2747
1045.848	-2552
1045.908	-1662
1045.968	-1984
1046.028	-2213
1046.088	-2178
1046.147	-1924
1046.207	-2093
1046.267	-2354
1046.326	-1742
1046.386	-1806
1046.446	-1640
1046.505	-1485
1046.565	-1179
1046.624	-1969
1046.684	-1534
1046.743	-1335
1046.803	-1284
1046.862	-114
1046.922	0
