'Start Wavelength	183.907
'End Wavelength	1046.922
'Gate Delay	5.000
'Gate Width (ms)	1.050
'Laser Output Level	0.000
'X Position	0.000
'Y Position	0.000
'Z Position	0.000
'Grid Point Number	1.000
'Shot Number	100.000
183.907	175.000
183.977	60.000
184.047	-99
184.116	979
184.186	514
184.256	663
184.325	-313
184.395	-36
184.465	276
184.534	214
184.604	-645
184.674	181
184.743	-519
184.813	303
184.883	-145
184.952	-31
185.022	28
185.092	538
185.161	68
185.231	-2
185.301	189
185.370	726
185.440	-283
185.509	-497
185.579	557
185.649	627
185.718	364
185.788	1333
185.857	-236
185.927	591
185.996	-731
186.066	-186
186.136	219
186.205	216
186.275	-761
186.344	-167
186.414	-952
186.483	-267
186.553	737
186.622	876
186.692	305
186.761	-33
186.831	303
186.900	281
186.970	675
187.039	855
187.109	861
187.178	655
187.248	-21
187.317	395
187.387	-431
187.456	204
187.526	-150
187.595	575
187.664	224
187.734	324
187.803	563
187.873	979
187.942	568
188.012	83
188.081	-316
188.150	855
188.220	-534
188.289	625
188.358	-321
188.428	771
188.497	-792
188.567	733
188.636	-190
188.705	365
188.775	-366
188.844	-321
188.913	744
188.983	460
189.052	475
189.121	-155
189.191	24
189.260	1631
189.329	596
189.399	30
189.468	156
189.537	307
189.606	359
189.676	520
189.745	697
189.814	1470
189.883	164
189.953	346
190.022	661
190.091	2959
190.161	4309
190.230	2066
190.299	105
190.368	-64
190.437	485
190.507	417
190.576	-344
190.645	1096
190.714	386
190.783	89
190.853	367
190.922	483
190.991	127
191.060	556
191.129	-865
191.198	593
191.268	692
191.337	-60
191.406	288
191.475	658
191.544	-243
191.613	624
191.682	421
191.752	1222
191.821	516
191.890	812
191.959	969
192.028	275
192.097	782
192.166	612
192.235	11
192.304	526
192.373	155
192.442	958
192.511	380
192.580	144
192.650	178
192.719	683
192.788	438
192.857	952
192.926	-265
192.995	737
193.064	823
193.133	2123
193.202	1731
193.271	2946
193.340	1300
193.409	2026
193.478	2049
193.547	2812
193.615	3478
193.684	3922
193.753	1976
193.822	941
193.891	723
193.960	712
194.029	740
194.098	672
194.167	-488
194.236	1298
194.305	636
194.374	763
194.443	124
194.512	352
194.580	1231
194.649	1151
194.718	704
194.787	1090
194.856	-581
194.925	692
194.994	457
195.062	707
195.131	-116
195.200	832
195.269	1356
195.338	1142
195.407	677
195.475	563
195.544	815
195.613	1000
195.682	114
195.751	1281
195.819	896
195.888	1152
195.957	1792
196.026	599
196.094	808
196.163	508
196.232	1124
196.301	432
196.369	690
196.438	723
196.507	1221
196.576	455
196.644	298
196.713	544
196.782	731
196.850	1697
196.919	839
196.988	1070
197.056	133
197.125	1158
197.194	775
197.262	1237
197.331	1052
197.400	847
197.468	411
197.537	782
197.606	1256
197.674	2227
197.743	3493
197.812	1515
197.880	3394
197.949	3234
198.017	3567
198.086	3590
198.155	445
198.223	1676
198.292	5108
198.360	2566
198.429	1309
198.497	1174
198.566	2206
198.635	4796
198.703	1953
198.772	2013
198.840	3626
198.909	5345
198.977	760
199.046	1351
199.114	799
199.183	1169
199.251	1311
199.320	414
199.388	359
199.457	256
199.525	784
199.594	639
199.662	565
199.731	820
199.799	402
199.867	820
199.936	569
200.004	1307
200.073	-520
200.141	1424
200.210	143
200.278	1192
200.346	310
200.415	1075
200.483	1043
200.552	742
200.620	766
200.688	882
200.757	224
200.825	634
200.893	350
200.962	214
201.030	1480
201.098	369
201.167	1147
201.235	1465
201.303	1191
201.372	1576
201.440	535
201.508	2164
201.577	892
201.645	1544
201.713	964
201.781	1057
201.850	1906
201.918	1099
201.986	1417
202.055	1781
202.123	1279
202.191	1256
202.259	794
202.327	1013
202.396	814
202.464	1369
202.532	892
202.600	4434
202.669	2283
202.737	1430
202.805	306
202.873	1560
202.941	1494
203.009	1330
203.078	908
203.146	1846
203.214	826
203.282	706
203.350	1530
203.418	1078
203.487	674
203.555	1364
203.623	1092
203.691	1004
203.759	605
203.827	1753
203.895	1368
203.963	1988
204.031	773
204.099	1121
204.168	1066
204.236	3165
204.304	2044
204.372	1682
204.440	942
204.508	1005
204.576	1098
204.644	1895
204.712	110
204.780	1713
204.848	1260
204.916	1819
204.984	148
205.052	2035
205.120	1062
205.188	895
205.256	1047
205.324	2138
205.392	1050
205.460	2934
205.528	1774
205.596	2054
205.664	1258
205.732	1923
205.799	5035
205.867	9793
205.935	2663
206.003	2982
206.071	1478
206.139	1738
206.207	1879
206.275	1280
206.343	1233
206.411	1346
206.478	1573
206.546	1492
206.614	1283
206.682	1890
206.750	1370
206.818	1725
206.885	2587
206.953	872
207.021	1696
207.089	1917
207.157	1500
207.225	1792
207.292	1145
207.360	2488
207.428	1454
207.496	2134
207.563	1641
207.631	1672
207.699	1253
207.767	2197
207.834	1269
207.902	1916
207.970	517
208.038	1396
208.105	1259
208.173	1940
208.241	2622
208.309	3027
208.376	2111
208.444	3975
208.512	2735
208.579	1269
208.647	1726
208.715	3651
208.782	1904
208.850	1733
208.918	1412
208.985	1998
209.053	1793
209.120	1649
209.188	1127
209.256	1197
209.323	1079
209.391	2084
209.459	2524
209.526	2438
209.594	1137
209.661	2054
209.729	1320
209.796	2743
209.864	2055
209.932	734
209.999	3722
210.067	2279
210.134	2379
210.202	1783
210.269	2723
210.337	3178
210.404	2005
210.472	2175
210.539	2010
210.607	2100
210.674	1771
210.742	2759
210.809	2780
210.877	2858
210.944	2691
211.012	1012
211.079	2577
211.146	2563
211.214	1584
211.281	2439
211.349	2761
211.416	2301
211.484	2997
211.551	1471
211.618	2245
211.686	2534
211.753	1500
211.821	3402
211.888	2318
211.955	2031
212.023	2048
212.090	3388
212.157	2298
212.225	2628
212.292	4884
212.359	9070
212.427	25462
212.494	11927
212.561	4069
212.629	3615
212.696	2976
212.763	2933
212.831	2154
212.898	3406
212.965	1980
213.032	3637
213.100	2172
213.167	2654
213.234	3231
213.301	3248
213.369	3032
213.436	3026
213.503	2668
213.570	2771
213.638	2653
213.705	2809
213.772	1076
213.839	3357
213.906	2692
213.973	2400
214.041	1967
214.108	3334
214.175	2435
214.242	2845
214.309	2645
214.376	2739
214.444	2359
214.511	2618
214.578	2266
214.645	3035
214.712	2474
214.779	3137
214.846	2632
214.913	3764
214.980	3804
215.048	4004
215.115	4001
215.182	3894
215.249	3511
215.316	2277
215.383	3207
215.450	1945
215.517	1424
215.584	2595
215.651	1645
215.718	2097
215.785	2799
215.852	2097
215.919	2146
215.986	2830
216.053	2191
216.120	1937
216.187	1936
216.254	2404
216.321	1725
216.388	2833
216.455	2531
216.522	3179
216.589	2535
216.656	5127
216.722	5449
216.789	5673
216.856	5021
216.923	4667
216.990	3893
217.057	4453
217.124	4578
217.191	3690
217.258	5308
217.324	7349
217.391	9569
217.458	6708
217.525	4998
217.592	3874
217.659	2026
217.725	4778
217.792	3606
217.859	5034
217.926	2285
217.993	2655
218.059	2614
218.126	1851
218.193	1896
218.260	1605
218.327	1572
218.393	1949
218.460	1558
218.527	2553
218.594	1779
218.660	3796
218.727	3891
218.794	2126
218.860	2025
218.927	1709
218.994	1523
219.061	1518
219.127	1436
219.194	3449
219.261	1986
219.327	1089
219.394	1911
219.461	454
219.527	926
219.594	3173
219.661	1831
219.727	838
219.794	1507
219.860	1424
219.927	1995
219.994	3374
220.060	4446
220.127	3803
220.193	2904
220.260	2992
220.326	4389
220.393	9179
220.460	12983
220.526	9470
220.593	5205
220.659	5851
220.726	4374
220.792	12650
220.859	11904
220.925	15249
220.992	22481
221.058	21363
221.125	19067
221.191	13947
221.258	5788
221.324	4602
221.391	3461
221.457	3344
221.524	2454
221.590	3829
221.657	14382
221.723	11051
221.789	9094
221.856	9562
221.922	3883
221.989	3342
222.055	2348
222.121	2011
222.188	3500
222.254	2552
222.321	1221
222.387	1490
222.453	1585
222.520	1372
222.586	1096
222.652	1971
222.719	1319
222.785	1892
222.851	1650
222.918	1505
222.984	1992
223.050	1949
223.116	-188
223.183	2424
223.249	1241
223.315	1053
223.382	1178
223.448	1781
223.514	960
223.580	1029
223.647	734
223.713	873
223.779	1208
223.845	1343
223.911	1017
223.978	1212
224.044	1166
224.110	1141
224.176	1631
224.242	1243
224.309	-37
224.375	1599
224.441	1268
224.507	1218
224.573	-301
224.639	1305
224.705	898
224.772	1280
224.838	756
224.904	1535
224.970	1247
225.036	1594
225.102	461
225.168	2810
225.234	1985
225.300	1224
225.366	1376
225.432	1311
225.499	1501
225.565	1761
225.631	983
225.697	2266
225.763	2734
225.829	3513
225.895	2549
225.961	4538
226.027	3832
226.093	3162
226.159	4990
226.225	7024
226.291	17419
226.357	32636
226.423	16247
226.489	8287
226.554	5162
226.620	5194
226.686	5097
226.752	8452
226.818	14930
226.884	39395
226.950	37321
227.016	14542
227.082	7432
227.148	5000
227.214	3007
227.279	3299
227.345	1899
227.411	2529
227.477	2605
227.543	4684
227.609	5576
227.674	3855
227.740	1567
227.806	2235
227.872	1837
227.938	1807
228.003	2374
228.069	1710
228.135	1542
228.201	2499
228.267	1630
228.332	1765
228.398	1765
228.464	2589
228.530	1131
228.595	2264
228.661	943
228.727	2558
228.792	2853
228.858	1495
228.924	-266
228.990	3922
229.055	1019
229.121	2407
229.187	1301
229.252	1388
229.318	936
229.384	1899
229.449	889
229.515	312
229.581	255
229.646	2206
229.712	1408
229.777	4104
229.843	4824
229.909	2720
229.974	3170
230.040	2736
230.105	1610
230.171	2734
230.236	4001
230.302	8385
230.368	4712
230.433	2604
230.499	1886
230.564	1890
230.630	1359
230.695	2378
230.761	2131
230.826	571
230.892	3503
230.957	1751
231.023	974
231.088	986
231.154	1790
231.219	2424
231.284	1712
231.350	3635
231.415	1070
231.481	1753
231.546	1434
231.612	1829
231.677	817
231.742	-226
231.808	2714
231.873	1116
231.939	-579
232.004	3455
232.069	3367
232.135	1387
232.200	1407
232.265	1431
232.331	811
232.396	1521
232.461	737
232.527	992
232.592	453
232.657	947
232.723	2786
232.788	2456
232.853	2522
232.918	1804
232.984	565
233.049	1394
233.114	2420
233.179	3229
233.245	4085
233.310	6518
233.375	1419
233.440	2040
233.506	1891
233.571	1055
233.636	560
233.701	1089
233.766	2370
233.832	4703
233.897	1650
233.962	556
234.027	3568
234.092	1823
234.157	1508
234.222	1730
234.288	1997
234.353	10691
234.418	10051
234.483	5259
234.548	3552
234.613	2119
234.678	3335
234.743	2515
234.808	10656
234.873	7924
234.938	3599
235.004	2873
235.069	2216
235.134	2143
235.199	1733
235.264	2184
235.329	437
235.394	2289
235.459	2431
235.524	2510
235.589	2066
235.654	2063
235.719	772
235.784	3246
235.849	2113
235.913	5847
235.978	6365
236.043	8015
236.108	3488
236.173	1654
236.238	3953
236.303	2160
236.368	2094
236.433	3916
236.498	7968
236.563	6389
236.627	11302
236.692	45397
236.757	41912
236.822	16033
236.887	9447
236.952	8806
237.017	5121
237.081	7695
237.146	7904
237.211	20605
237.276	45166
237.341	79778
237.405	39205
237.470	13615
237.535	8945
237.600	5352
237.664	4616
237.729	3721
237.794	4142
237.859	14310
237.923	8178
237.988	5364
238.053	5424
238.118	4852
238.182	14361
238.247	17224
238.312	5558
238.376	4983
238.441	2446
238.506	3825
238.570	768
238.635	3889
238.700	1781
238.764	1891
238.829	5938
238.893	10468
238.958	4423
239.023	3400
239.087	1977
239.152	3149
239.216	1690
239.281	1991
239.346	2413
239.410	1995
239.475	1952
239.539	14529
239.604	13295
239.668	5033
239.733	1658
239.797	2829
239.862	7510
239.926	13382
239.991	5921
240.055	2254
240.120	2006
240.184	2116
240.249	1223
240.313	1692
240.378	1826
240.442	7477
240.507	15753
240.571	5385
240.635	5084
240.700	8825
240.764	2510
240.829	2270
240.893	-81
240.957	2691
241.022	6684
241.086	15370
241.151	6375
241.215	1831
241.279	4187
241.344	7269
241.408	3280
241.472	2431
241.537	3596
241.601	2974
241.665	1335
241.730	1515
241.794	2644
241.858	2169
241.922	2033
241.987	2712
242.051	1555
242.115	1061
242.179	1941
242.244	1739
242.308	2606
242.372	2484
242.436	1688
242.501	2178
242.565	586
242.629	1522
242.693	2173
242.757	1287
242.822	1597
242.886	2125
242.950	2183
243.014	1847
243.078	2678
243.142	2252
243.206	2172
243.271	3577
243.335	2684
243.399	5543
243.463	21744
243.527	77559
243.591	25611
243.655	7967
243.719	3461
243.783	4712
243.847	7169
243.911	11233
243.975	7908
244.040	5361
244.104	4423
244.168	2442
244.232	4123
244.296	5979
244.360	8372
244.424	4091
244.488	3093
244.552	2662
244.615	1491
244.679	3096
244.743	2498
244.807	2762
244.871	1851
244.935	2112
244.999	632
245.063	1450
245.127	2276
245.191	6202
245.255	7300
245.319	2811
245.383	1800
245.446	3391
245.510	1178
245.574	2499
245.638	1892
245.702	1343
245.766	6784
245.829	4699
245.893	1792
245.957	2545
246.021	3006
246.085	1912
246.149	3054
246.212	8692
246.276	14119
246.340	5433
246.404	4196
246.467	4438
246.531	4474
246.595	4665
246.659	4078
246.722	2094
246.786	4398
246.850	4392
246.913	5973
246.977	1542
247.041	2745
247.104	3472
247.168	2631
247.232	6976
247.295	19401
247.359	10672
247.423	3533
247.486	6271
247.550	5063
247.614	2705
247.677	3543
247.741	3050
247.804	1924
247.868	4368
247.932	5339
247.995	18150
248.059	6962
248.122	2953
248.186	4143
248.249	7095
248.313	26397
248.376	31775
248.440	19561
248.503	7208
248.567	6093
248.630	6534
248.694	9561
248.757	11704
248.821	30571
248.884	18745
248.948	14243
249.011	23843
249.075	35322
249.138	32836
249.202	11045
249.265	7292
249.328	9063
249.392	5751
249.455	5228
249.519	5001
249.582	4959
249.645	8356
249.709	6722
249.772	4947
249.835	4428
249.899	5888
249.962	4380
250.025	4496
250.089	10827
250.152	17356
250.215	7603
250.279	6531
250.342	6375
250.405	6855
250.468	5555
250.532	7644
250.595	12886
250.658	55209
250.721	110779
250.785	36155
250.848	15952
250.911	9127
250.974	8058
251.038	10093
251.101	21533
251.164	12823
251.227	11614
251.290	11943
251.354	18071
251.417	81549
251.480	93859
251.543	54499
251.606	158715
251.669	134265
251.732	44017
251.795	33103
251.859	35642
251.922	97258
251.985	63839
252.048	20695
252.111	12939
252.174	11648
252.237	17777
252.300	40441
252.363	47773
252.426	127878
252.489	56034
252.552	21188
252.615	12981
252.678	13357
252.741	29996
252.804	48124
252.867	133034
252.930	72085
252.993	30442
253.056	16463
253.119	9926
253.182	8635
253.245	22405
253.308	16700
253.371	10384
253.434	10794
253.497	8021
253.559	17708
253.622	11540
253.685	12039
253.748	13123
253.811	6806
253.874	7787
253.937	8426
254.000	5695
254.062	9836
254.125	18430
254.188	13452
254.251	11831
254.314	5408
254.376	9084
254.439	12496
254.502	9091
254.565	10154
254.628	21750
254.690	10523
254.753	6135
254.816	5198
254.878	4933
254.941	12269
255.004	15220
255.067	6269
255.129	5001
255.192	2839
255.255	2560
255.317	3122
255.380	2565
255.443	1732
255.505	2462
255.568	1806
255.631	2449
255.693	2261
255.756	1282
255.819	2864
255.881	2217
255.944	2381
256.006	2226
256.069	2323
256.132	1727
256.194	3465
256.257	11212
256.319	9073
256.382	6948
256.444	5161
256.507	3042
256.569	2998
256.632	3367
256.694	6738
256.757	19396
256.819	74341
256.882	30344
256.944	10418
257.007	6217
257.069	5600
257.132	3462
257.194	4550
257.257	3524
257.319	3980
257.381	4964
257.444	14615
257.506	77094
257.569	94378
257.631	30767
257.693	15149
257.756	8281
257.818	6918
257.880	3699
257.943	4443
258.005	1736
258.067	2135
258.130	2354
258.192	3053
258.254	7072
258.317	5153
258.379	3602
258.441	9097
258.503	9844
258.566	14238
258.628	22906
258.690	5387
258.753	3970
258.815	6704
258.877	3800
258.939	2785
259.001	3414
259.064	2492
259.126	2409
259.188	5108
259.250	3048
259.312	3609
259.375	6062
259.437	5803
259.499	2761
259.561	2896
259.623	1979
259.685	2066
259.747	3139
259.809	11898
259.872	30447
259.934	41767
259.996	37245
260.058	7712
260.120	2724
260.182	3239
260.244	2037
260.306	1592
260.368	2426
260.430	1745
260.492	2122
260.554	5875
260.616	4622
260.678	15477
260.740	29504
260.802	7878
260.864	4364
260.926	2569
260.988	3676
261.050	2720
261.112	3491
261.174	20888
261.236	25531
261.298	6367
261.359	10031
261.421	18296
261.483	5117
261.545	3765
261.607	709
261.669	2167
261.731	6253
261.793	16631
261.854	6156
261.916	4016
261.978	2277
262.040	2524
262.102	2741
262.164	4773
262.225	5505
262.287	2856
262.349	6066
262.411	6175
262.472	3514
262.534	6297
262.596	17897
262.658	6399
262.719	2631
262.781	4546
262.843	15192
262.904	7891
262.966	5253
263.028	5935
263.090	33268
263.151	115931
263.213	35161
263.275	11406
263.336	5178
263.398	4395
263.459	2373
263.521	3413
263.583	6475
263.644	5168
263.706	1989
263.767	1687
263.829	1116
263.891	1038
263.952	312
264.014	826
264.075	1044
264.137	2534
264.198	2049
264.260	541
264.321	923
264.383	2574
264.444	5273
264.506	1975
264.567	1794
264.629	2013
264.690	-101
264.752	1283
264.813	719
264.875	1110
264.936	1122
264.998	1756
265.059	1054
265.120	1997
265.182	3308
265.243	33844
265.305	41043
265.366	8243
265.427	2988
265.489	2775
265.550	25
265.611	2002
265.673	1619
265.734	1898
265.795	1540
265.857	1039
265.918	2334
265.979	7927
266.040	58074
266.102	56450
266.163	12328
266.224	5852
266.286	3479
266.347	1566
266.408	2072
266.469	2596
266.530	1434
266.592	991
266.653	3002
266.714	6672
266.775	2012
266.836	1761
266.898	1118
266.959	1653
267.020	2016
267.081	2866
267.142	956
267.203	825
267.264	574
267.326	2550
267.387	577
267.448	691
267.509	1407
267.570	599
267.631	325
267.692	523
267.753	934
267.814	1722
267.875	2292
267.936	9356
267.997	2404
268.058	2823
268.119	1025
268.180	1574
268.241	1028
268.302	992
268.363	273
268.424	851
268.485	1517
268.546	398
268.607	636
268.668	319
268.729	744
268.790	934
268.851	737
268.912	4303
268.972	6626
269.033	2703
269.094	507
269.155	1120
269.216	593
269.277	1195
269.338	1264
269.398	688
269.459	1571
269.520	1765
269.581	2569
269.642	3760
269.702	1451
269.763	1536
269.824	499
269.885	2220
269.945	3621
270.006	1033
270.067	48
270.128	503
270.188	-54
270.249	488
270.310	334
270.370	663
270.431	690
270.492	425
270.553	826
270.613	3139
270.674	7498
270.734	3372
270.795	1574
270.856	2616
270.916	1707
270.977	1512
271.038	1326
271.098	2040
271.159	2653
271.219	3322
271.280	1853
271.340	1419
271.401	1762
271.462	6833
271.522	3649
271.583	2321
271.643	1711
271.704	2650
271.764	2006
271.825	5018
271.885	20879
271.946	37844
272.006	9767
272.066	12789
272.127	31801
272.187	9285
272.248	3547
272.308	3477
272.369	19814
272.429	12916
272.489	5801
272.550	5427
272.610	5261
272.671	4157
272.731	4036
272.791	9071
272.852	4422
272.912	4302
272.972	2000
273.033	2082
273.093	3751
273.153	3820
273.214	1757
273.274	2715
273.334	8765
273.394	30185
273.455	9063
273.515	8045
273.575	21458
273.635	9955
273.696	10949
273.756	29756
273.816	11726
273.876	6136
273.936	12481
273.997	29191
274.057	6857
274.117	3589
274.177	4329
274.237	27751
274.297	30923
274.358	20301
274.418	21469
274.478	15989
274.538	5445
274.598	4349
274.658	20747
274.718	30229
274.778	11580
274.838	5607
274.898	9015
274.958	40305
275.018	32544
275.078	21265
275.138	6593
275.198	3674
275.258	2339
275.318	3786
275.378	5199
275.438	5957
275.498	3540
275.558	15483
275.618	38494
275.678	21823
275.738	8336
275.798	6433
275.858	2934
275.918	2235
275.978	2082
276.038	2671
276.098	1349
276.157	3195
276.217	14326
276.277	6378
276.337	4071
276.397	2293
276.457	2366
276.517	2221
276.576	1666
276.636	1662
276.696	2511
276.756	8485
276.815	6876
276.875	3023
276.935	2597
276.995	2928
277.055	1303
277.114	1710
277.174	2715
277.234	12524
277.293	6089
277.353	3404
277.413	2038
277.472	2720
277.532	2705
277.592	2938
277.651	9858
277.711	25078
277.771	8160
277.830	24919
277.890	22875
277.950	14907
278.009	58030
278.069	22344
278.128	14602
278.188	23779
278.248	8834
278.307	24177
278.367	17520
278.426	5738
278.486	3757
278.545	1700
278.605	2551
278.664	2476
278.724	2792
278.783	7826
278.843	33435
278.902	9749
278.962	4204
279.021	4930
279.081	5806
279.140	6600
279.199	4049
279.259	4736
279.318	5869
279.378	6802
279.437	10397
279.496	35626
279.556	157410
279.615	155098
279.675	34747
279.734	17515
279.793	18502
279.853	29147
279.912	12427
279.971	6870
280.031	5834
280.090	9660
280.149	16983
280.208	15046
280.268	102062
280.327	137816
280.386	28097
280.445	16051
280.505	12817
280.564	7067
280.623	4273
280.682	6940
280.742	11333
280.801	5058
280.860	2370
280.919	2872
280.978	1693
281.037	2210
281.097	1800
281.156	2673
281.215	1746
281.274	2381
281.333	15249
281.392	16386
281.451	2977
281.510	3193
281.569	1874
281.628	2428
281.688	1473
281.747	2094
281.806	1139
281.865	1601
281.924	470
281.983	2316
282.042	610
282.101	922
282.160	1050
282.219	1334
282.278	1013
282.337	7465
282.396	4830
282.454	2137
282.513	2256
282.572	10840
282.631	6408
282.690	2003
282.749	496
282.808	2297
282.867	1360
282.926	2506
282.985	1256
283.043	479
283.102	451
283.161	1921
283.220	4080
283.279	15942
283.338	4667
283.396	2729
283.455	1228
283.514	2077
283.573	2853
283.631	2418
283.690	1936
283.749	1085
283.808	2983
283.866	5807
283.925	1335
283.984	1648
284.043	1944
284.101	3050
284.160	1481
284.219	1317
284.277	1765
284.336	3200
284.395	15203
284.453	15030
284.512	4743
284.570	5740
284.629	4102
284.688	4140
284.746	4316
284.805	5013
284.863	6596
284.922	9001
284.981	9271
285.039	12751
285.098	21231
285.156	57474
285.215	190276
285.273	204598
285.332	85271
285.390	37108
285.449	20167
285.507	13108
285.566	8533
285.624	7806
285.683	5862
285.741	5204
285.799	3457
285.858	4230
285.916	3176
285.975	3752
286.033	1874
286.091	2214
286.150	1156
286.208	2362
286.267	2016
286.325	1670
286.383	2972
286.442	3236
286.500	2047
286.558	2280
286.616	545
286.675	2929
286.733	2309
286.791	1574
286.850	2579
286.908	2680
286.966	5698
287.024	3424
287.083	1465
287.141	1435
287.199	1188
287.257	2846
287.315	1934
287.374	2123
287.432	6898
287.490	4877
287.548	2190
287.606	1867
287.664	3006
287.723	3873
287.781	4781
287.839	4031
287.897	4911
287.955	7887
288.013	12213
288.071	23832
288.129	106120
288.187	364726
288.245	177906
288.303	53708
288.361	25371
288.419	14656
288.477	10536
288.535	7068
288.593	4655
288.651	5746
288.709	3594
288.767	3342
288.825	2167
288.883	2156
288.941	1709
288.999	1736
289.057	1074
289.115	1426
289.173	950
289.231	1941
289.289	1318
289.346	1402
289.404	893
289.462	3624
289.520	3610
289.578	1695
289.636	861
289.694	1105
289.751	80
289.809	932
289.867	17
289.925	1985
289.983	2210
290.040	1526
290.098	133
290.156	1373
290.214	915
290.271	1500
290.329	1068
290.387	132
290.444	134
290.502	1238
290.560	178
290.617	285
290.675	150
290.733	359
290.790	846
290.848	973
290.906	-239
290.963	1418
291.021	757
291.078	570
291.136	1180
291.194	3214
291.251	9826
291.309	3252
291.366	946
291.424	982
291.481	471
291.539	34
291.596	241
291.654	430
291.711	262
291.769	303
291.826	2740
291.884	2434
291.941	484
291.999	252
292.056	725
292.114	1688
292.171	-54
292.228	361
292.286	798
292.343	3010
292.401	3372
292.458	2082
292.515	1184
292.573	1867
292.630	720
292.687	1759
292.745	2031
292.802	1337
292.859	2173
292.917	12614
292.974	8522
293.031	2085
293.089	1712
293.146	329
293.203	569
293.260	845
293.318	557
293.375	811
293.432	-540
293.489	837
293.546	342
293.604	1877
293.661	9343
293.718	31981
293.775	13390
293.832	5890
293.889	3146
293.947	3320
294.004	1320
294.061	1898
294.118	3838
294.175	9262
294.232	5199
294.289	2403
294.346	1222
294.403	2470
294.460	1396
294.517	1016
294.574	1078
294.631	927
294.688	991
294.745	5191
294.802	28785
294.859	21796
294.916	6208
294.973	4392
295.030	2599
295.087	2944
295.144	1019
295.201	1229
295.258	1102
295.315	2319
295.372	10146
295.429	27109
295.486	9563
295.542	3818
295.599	3088
295.656	3848
295.713	7481
295.770	20077
295.827	7142
295.883	3280
295.940	2343
295.997	3872
296.054	3746
296.111	2698
296.167	2003
296.224	660
296.281	459
296.338	1251
296.394	977
296.451	1697
296.508	6850
296.564	16213
296.621	8117
296.678	22830
296.734	40976
296.791	12401
296.848	5873
296.904	5060
296.961	10003
297.018	23574
297.074	19186
297.131	6680
297.187	4598
297.244	5547
297.301	25334
297.357	58374
297.414	19989
297.470	6939
297.527	3373
297.583	2859
297.640	1977
297.696	2329
297.753	961
297.809	473
297.866	886
297.922	1803
297.979	713
298.035	323
298.092	2677
298.148	13067
298.204	13474
298.261	5468
298.317	8848
298.374	34026
298.430	21102
298.486	8372
298.543	5086
298.599	3799
298.656	3266
298.712	8356
298.768	36211
298.824	33919
298.881	9504
298.937	5033
298.993	2426
299.050	3709
299.106	2047
299.162	1843
299.218	2282
299.275	1902
299.331	1676
299.387	5639
299.443	28771
299.500	33794
299.556	11941
299.612	4823
299.668	3454
299.724	4651
299.780	6020
299.837	3022
299.893	4058
299.949	19049
300.005	25692
300.061	19296
300.117	40398
300.173	21087
300.229	7093
300.285	6928
300.341	7852
300.397	3964
300.453	1951
300.510	1814
300.566	2223
300.622	2940
300.678	9277
300.734	20839
300.790	20288
300.845	31193
300.901	17404
300.957	19741
301.013	15847
301.069	6083
301.125	3819
301.181	3600
301.237	1952
301.293	1389
301.349	1711
301.405	1390
301.461	949
301.516	1251
301.572	1645
301.628	3406
301.684	3327
301.740	5749
301.796	11637
301.851	8220
301.907	11981
301.963	13087
302.019	23458
302.074	83653
302.130	88495
302.186	37384
302.242	14122
302.297	8552
302.353	6244
302.409	12672
302.464	11957
302.520	9031
302.576	25555
302.631	33283
302.687	16192
302.743	7003
302.798	3885
302.854	3000
302.910	2226
302.965	3141
303.021	5445
303.076	5264
303.132	6644
303.187	8751
303.243	4554
303.299	2661
303.354	1560
303.410	1839
303.465	1361
303.521	1932
303.576	1846
303.632	2229
303.687	5987
303.743	28390
303.798	25331
303.853	9969
303.909	3323
303.964	3661
304.020	3974
304.075	6227
304.130	4957
304.186	9271
304.241	11719
304.297	9037
304.352	4533
304.358	4348
304.407	2847
304.449	2151
304.463	1920
304.518	2101
304.539	2240
304.573	2464
304.629	2261
304.630	2300
304.684	4478
304.720	14037
304.739	18716
304.794	33954
304.811	28939
304.850	16691
304.902	5889
304.905	5226
304.960	4461
304.992	4567
305.015	4541
305.071	4637
305.083	4130
305.126	2344
305.173	1948
305.181	1907
305.236	1567
305.264	1686
305.292	1782
305.347	2397
305.354	2400
305.402	2599
305.445	3737
305.457	4024
305.512	6344
305.535	5525
305.567	4309
305.622	4058
305.626	4292
305.678	12094
305.716	27954
305.733	32745
305.788	35478
305.807	29826
305.843	21875
305.897	30993
305.898	31052
305.953	32599
305.988	20244
306.008	13971
306.063	6381
306.078	5409
306.118	3653
306.168	2590
306.173	2499
306.228	2058
306.259	1953
306.283	1960
306.338	1908
306.349	2177
306.393	3555
306.440	4683
306.448	4764
306.503	4173
306.530	3808
306.558	4282
306.613	7099
306.620	7643
306.668	14652
306.711	25455
306.723	26138
306.778	20826
306.801	15563
306.833	10594
306.888	4836
306.892	4617
306.943	3410
306.982	2962
306.997	2792
307.052	2605
307.072	2349
307.107	2162
307.162	2872
307.163	2871
307.217	2887
307.253	3049
307.272	3201
307.327	3541
307.343	3746
307.381	4186
307.434	3884
307.436	4067
307.491	9789
307.524	14551
307.546	16019
307.600	21000
307.614	19761
307.655	12730
307.704	6484
307.710	6298
307.765	6144
307.795	6987
307.819	7846
307.874	8698
307.885	9076
307.929	11001
307.975	12964
307.984	14185
308.038	23458
308.065	29433
308.093	58069
308.148	131607
308.156	148657
308.202	234660
308.246	292302
308.257	283163
308.312	146927
308.336	93757
308.366	67074
308.421	38082
308.426	35815
308.475	22852
308.517	15366
308.530	14037
308.585	11427
308.607	10773
308.639	10255
308.694	10092
308.697	10067
308.748	10910
308.787	12026
308.803	12172
308.857	12441
308.877	12410
308.912	13519
308.967	16141
308.967	16178
309.021	25612
309.058	32436
309.076	43049
309.130	79853
309.148	94387
309.185	185112
309.238	345516
309.239	346631
309.293	372356
309.328	339531
309.348	290713
309.402	132776
309.418	93536
309.457	63650
309.508	36097
309.511	35396
309.566	30200
309.598	28327
309.620	32060
309.674	45024
309.688	48440
309.729	44306
309.778	35653
309.783	34825
309.837	24258
309.868	18797
309.892	23200
309.946	34995
309.959	38442
310.001	47983
310.049	56976
310.055	54702
310.109	29947
310.139	15921
310.163	12607
310.218	7334
310.229	6321
310.272	4852
310.319	4172
310.326	4072
310.381	3328
310.409	2943
310.435	2965
310.489	2853
310.499	2883
310.543	2960
310.589	2943
310.598	2965
310.652	3213
310.679	3253
310.706	3076
310.760	2788
310.769	2728
310.814	2680
310.859	2822
310.868	2858
310.923	2595
310.948	2719
310.977	3139
311.031	3582
311.038	3655
311.085	3070
311.128	2429
311.139	2547
311.193	3169
311.218	3440
311.247	3177
311.301	2777
311.308	2693
311.356	2284
311.398	2067
311.410	2150
311.464	2442
311.488	2588
311.518	2628
311.572	2599
311.578	2610
311.626	4205
311.668	5478
311.680	5118
311.734	3424
311.758	2638
311.788	2447
311.842	2184
311.847	2150
311.896	3559
311.937	4783
311.950	4755
312.004	4569
312.027	4479
312.058	4149
312.112	3518
312.117	3448
312.165	3061
312.207	2720
312.297	2386
312.386	2569
312.476	2987
312.566	8745
312.656	3990
312.745	2073
312.835	1883
312.925	2314
313.015	2304
313.104	2919
313.194	2278
313.284	3590
313.374	4056
313.463	3919
313.553	2815
313.643	2690
313.732	2571
313.822	1800
313.912	2610
314.001	3827
314.091	3258
314.180	3693
314.270	5166
314.360	5182
314.449	4455
314.539	3013
314.628	2815
314.718	2908
314.808	2896
314.897	2568
314.987	3291
315.076	3962
315.166	6496
315.255	4096
315.345	4863
315.434	3923
315.524	3473
315.613	5766
315.703	8460
315.792	15269
315.881	49658
315.971	14106
316.060	8476
316.150	5929
316.239	4917
316.328	2914
316.418	2258
316.507	3611
316.597	5783
316.686	4141
316.775	3047
316.865	4483
316.954	2079
317.043	2822
317.133	3476
317.222	2353
317.311	3051
317.400	2423
317.490	5717
317.579	6827
317.668	4135
317.757	9102
317.847	26658
317.936	90122
318.025	29337
318.114	16657
318.203	7413
318.293	5866
318.382	5501
318.471	8274
318.560	5505
318.649	7377
318.738	3400
318.828	5298
318.917	4968
319.006	3921
319.095	6331
319.184	14608
319.273	18175
319.362	13925
319.451	4602
319.540	3920
319.629	13766
319.718	19859
319.807	4399
319.896	8897
319.985	20075
320.074	11949
320.163	2393
320.252	2653
320.341	2080
320.430	3733
320.519	8753
320.608	5026
320.697	2726
320.786	3237
320.875	6647
320.964	9271
321.053	15001
321.142	22762
321.230	20474
321.319	15032
321.408	33564
321.497	11285
321.586	12801
321.675	8077
321.764	8667
321.852	6595
321.941	21148
322.030	11568
322.119	12620
322.207	36672
322.296	9781
322.385	5764
322.474	13676
322.562	50578
322.651	18363
322.740	15054
322.829	15667
322.917	7789
323.006	9950
323.095	9899
323.183	3865
323.272	7607
323.361	11134
323.449	15331
323.538	5685
323.626	11725
323.715	5938
323.804	3376
323.892	13117
323.981	12457
324.069	3149
324.158	5200
324.246	4653
324.335	7222
324.424	12090
324.512	4233
324.601	6825
324.689	21238
324.778	38065
324.866	7750
324.954	2608
325.043	3626
325.131	4794
325.220	4947
325.308	4617
325.397	7306
325.485	3552
325.574	1571
325.662	2273
325.750	3919
325.839	2524
325.927	1999
326.015	2757
326.104	2415
326.192	3510
326.280	2407
326.369	2758
326.457	5578
326.545	11111
326.634	4272
326.722	1298
326.810	2851
326.898	2446
326.987	2457
327.075	8946
327.163	6581
327.251	2019
327.340	14094
327.428	20011
327.516	2780
327.604	2347
327.692	2405
327.781	1933
327.869	2212
327.957	2790
328.045	4789
328.133	2075
328.221	1550
328.309	2683
328.397	2934
328.485	3562
328.574	6432
328.662	27450
328.750	8782
328.838	2526
328.926	1791
329.014	1707
329.102	3955
329.190	7950
329.278	6024
329.366	1322
329.454	1753
329.542	1805
329.630	1328
329.718	2407
329.806	3527
329.893	3079
329.981	2746
330.069	6791
330.157	34442
330.245	108026
330.333	49343
330.421	7062
330.509	7873
330.597	33016
330.684	16360
330.772	3144
330.860	1747
330.948	2101
331.036	2409
331.123	855
331.211	1051
331.299	1581
331.387	2531
331.475	5339
331.562	1368
331.650	964
331.738	2110
331.825	1175
331.913	1089
332.001	1188
332.089	1699
332.176	1894
332.264	3700
332.352	3916
332.439	3119
332.527	1985
332.614	764
332.702	1667
332.790	1553
332.877	4541
332.965	6933
333.052	4802
333.140	5002
333.228	13046
333.315	3466
333.403	1872
333.490	2755
333.578	6615
333.665	20111
333.753	8251
333.840	1655
333.928	2166
334.015	3336
334.103	5675
334.190	12778
334.278	4615
334.365	3609
334.452	3771
334.540	2134
334.627	1368
334.715	2922
334.802	5111
334.889	15568
334.977	17781
335.064	5737
335.151	2721
335.239	2502
335.326	1978
335.413	7159
335.501	7971
335.588	2771
335.675	1922
335.762	2188
335.850	3301
335.937	4245
336.024	8398
336.111	21824
336.199	13311
336.286	4352
336.373	2521
336.460	1597
336.547	2315
336.635	2655
336.722	3173
336.809	1028
336.896	3819
336.983	7378
337.070	13081
337.157	13299
337.245	8085
337.332	5902
337.419	1233
337.506	1421
337.593	1559
337.680	2275
337.767	6002
337.854	4427
337.941	4504
338.028	6221
338.115	1296
338.202	2324
338.289	3225
338.376	10244
338.463	3741
338.550	4068
338.637	3542
338.724	2923
338.811	2828
338.898	1941
338.984	947
339.071	1278
339.158	3021
339.245	11753
339.332	5714
339.419	3840
339.506	2653
339.593	496
339.679	1921
339.766	1514
339.853	3877
339.940	10571
340.027	1759
340.113	2606
340.200	4034
340.287	2652
340.374	4613
340.460	9159
340.547	2374
340.634	7184
340.720	32170
340.807	15873
340.894	2262
340.980	1858
341.067	2356
341.154	3242
341.240	5846
341.327	14867
341.414	2990
341.500	2188
341.587	3105
341.674	2731
341.760	9171
341.847	11632
341.933	3053
342.020	1287
342.106	1169
342.193	3731
342.279	7545
342.366	4303
342.452	10544
342.539	4793
342.625	12621
342.712	34905
342.798	12418
342.885	4202
342.971	1619
343.058	1580
343.144	1390
343.230	2395
343.317	1814
343.403	2366
343.490	1540
343.576	933
343.662	1493
343.749	1733
343.835	3208
343.921	7526
344.008	75485
344.094	174978
344.180	31290
344.267	9522
344.353	41485
344.439	35658
344.525	13390
344.612	3975
344.698	3911
344.784	2937
344.870	2268
344.957	1764
345.043	5046
345.129	3930
345.215	8774
345.301	3578
345.387	1613
345.474	1061
345.560	895
345.646	705
345.732	1699
345.818	2799
345.904	2350
345.990	3556
346.076	2284
346.162	1689
346.249	2435
346.335	1350
346.421	3166
346.507	16856
346.593	65515
346.679	11257
346.765	2991
346.851	2919
346.937	2033
347.023	3134
347.108	3990
347.194	2016
347.280	1863
347.366	3165
347.452	17261
347.538	81156
347.624	50528
347.710	34716
347.796	3421
347.882	2197
347.967	1767
348.053	1591
348.139	1149
348.225	2120
348.311	1579
348.397	2237
348.482	3103
348.568	3183
348.654	2293
348.740	3216
348.825	1566
348.911	5855
348.997	35569
349.083	70265
349.168	6951
349.254	2253
349.340	1947
349.425	1735
349.511	3873
349.597	3537
349.682	8911
349.768	40207
349.854	15347
349.939	3034
350.025	1462
350.110	2227
350.196	1940
350.282	260
350.367	1509
350.453	2070
350.538	2100
350.624	3413
350.709	2733
350.795	1552
350.880	1207
350.966	3031
351.051	2228
351.137	1406
351.222	2410
351.308	11856
351.393	32604
351.479	6686
351.564	1140
351.649	3036
351.735	894
351.820	1497
351.906	1665
351.991	2740
352.076	19234
352.162	30590
352.247	4650
352.332	2408
352.418	5156
352.503	7834
352.588	45255
352.673	34524
352.759	7348
352.844	2258
352.929	4112
353.014	6099
353.100	3493
353.185	3912
353.270	9346
353.355	11078
353.441	2484
353.526	1644
353.611	9854
353.696	11037
353.781	6915
353.866	1802
353.952	3255
354.037	9121
354.122	25396
354.207	20630
354.292	7150
354.377	2618
354.462	2021
354.547	4878
354.632	3182
354.717	3053
354.802	3806
354.887	1965
354.972	901
355.057	1410
355.142	753
355.227	2977
355.312	5966
355.397	14900
355.482	39164
355.567	17235
355.652	12135
355.737	12334
355.822	48242
355.907	36356
355.991	4622
356.076	2091
356.161	2459
356.246	1996
356.331	2495
356.416	8680
356.501	87410
356.585	86132
356.670	7852
356.755	6281
356.840	7700
356.924	49002
357.009	208002
357.094	69032
357.179	11092
357.263	6723
357.348	6479
357.433	6235
357.517	6811
357.602	4148
357.687	3373
357.771	4189
357.856	4848
357.941	6519
358.025	39307
358.110	195468
358.195	83372
358.279	9523
358.364	7298
358.448	29399
358.533	83852
358.617	55863
358.702	58472
358.787	19702
358.871	9897
358.956	7468
359.040	2220
359.125	2153
359.209	1967
359.294	2777
359.378	3948
359.462	6607
359.547	4022
359.631	1248
359.716	1758
359.800	1926
359.885	3770
359.969	2524
360.053	2175
360.138	1850
360.222	4496
360.306	10721
360.391	7449
360.475	8521
360.559	21207
360.644	29426
360.728	19594
360.812	44032
360.896	130146
360.981	41538
361.065	15583
361.149	4623
361.233	4545
361.318	3036
361.402	3431
361.486	4070
361.570	2963
361.654	4060
361.739	13908
361.823	82006
361.907	130293
361.991	17332
362.075	8836
362.159	22416
362.243	14643
362.327	12491
362.411	15896
362.495	7247
362.580	3697
362.664	2661
362.748	2106
362.832	4112
362.916	5103
363.000	26257
363.084	94231
363.168	150535
363.252	29490
363.336	7739
363.420	8965
363.503	11997
363.587	10994
363.671	5247
363.755	4341
363.839	8830
363.923	2786
364.007	10957
364.091	9251
364.175	4453
364.258	18692
364.342	26288
364.426	54096
364.510	26509
364.594	11501
364.677	19349
364.761	110798
364.845	77559
364.929	18875
365.013	15600
365.096	12527
365.180	13208
365.264	4726
365.347	13561
365.431	5829
365.515	2974
365.598	2714
365.682	3460
365.766	753
365.849	1878
365.933	2931
366.017	4551
366.100	275
366.184	321
366.267	2239
366.351	1707
366.435	1569
366.518	1235
366.602	827
366.685	1964
366.769	3052
366.852	3822
366.936	8280
367.019	6243
367.103	1354
367.186	2502
367.270	815
367.353	810
367.436	3117
367.520	1041
367.603	4219
367.687	5656
367.770	12753
367.853	7140
367.937	28363
368.020	48592
368.104	9234
368.187	9598
368.270	12824
368.353	9320
368.437	8222
368.520	7553
368.603	11709
368.687	30715
368.770	61090
368.853	12889
368.936	9406
369.020	6586
369.103	3202
369.186	932
369.269	2119
369.352	7774
369.436	9947
369.519	6289
369.602	800
369.685	4375
369.768	2995
369.851	2877
369.934	842
370.018	3137
370.101	10850
370.184	8506
370.267	3604
370.350	5833
370.433	11819
370.516	51877
370.599	70649
370.682	17928
370.765	28597
370.848	39324
370.931	78219
371.014	23670
371.097	3077
371.180	3382
371.263	1883
371.346	582
371.429	2048
371.511	1778
371.594	5090
371.677	8593
371.760	4339
371.843	7540
371.926	60901
372.009	147888
372.091	40529
372.174	26115
372.257	74571
372.340	24779
372.423	9272
372.505	8095
372.588	4392
372.671	22379
372.754	76727
372.836	35303
372.919	6345
373.002	8931
373.085	6847
373.167	10017
373.250	29878
373.332	70263
373.415	98958
373.498	212313
373.580	70163
373.663	102562
373.746	139972
373.828	25155
373.911	9005
373.993	5798
374.076	8153
374.159	8424
374.241	14985
374.324	59806
374.406	39391
374.489	58069
374.571	172702
374.654	64641
374.736	27542
374.819	102928
374.901	152086
374.983	157330
375.066	22545
375.148	4882
375.231	7193
375.313	12895
375.395	8258
375.478	3126
375.560	4243
375.643	6100
375.725	27651
375.807	133864
375.890	83996
375.972	12075
376.054	10027
376.136	6627
376.219	5511
376.301	35896
376.383	117226
376.465	41478
376.548	21343
376.630	29316
376.712	94777
376.794	42728
376.877	4225
376.959	1834
377.041	2747
377.123	1612
377.205	1774
377.287	513
377.369	1554
377.452	2094
377.534	1811
377.616	2045
377.698	1492
377.780	1140
377.862	2511
377.944	3325
378.026	756
378.108	2531
378.190	573
378.272	1555
378.354	585
378.436	1136
378.518	2253
378.600	7765
378.682	11739
378.764	40993
378.846	30977
378.928	5883
379.010	9220
379.091	5262
379.173	1860
379.255	1270
379.337	4068
379.419	18725
379.501	60730
379.583	22639
379.664	4484
379.746	13549
379.828	38048
379.910	54946
379.991	48888
380.073	7277
380.155	3452
380.237	2515
380.318	2272
380.400	3016
380.482	8817
380.564	12590
380.645	10188
380.727	9088
380.809	6605
380.890	3637
380.972	2069
381.053	3046
381.135	4780
381.217	11883
381.298	40294
381.380	17445
381.461	15735
381.543	93355
381.624	117223
381.706	18324
381.787	6129
381.869	7121
381.951	38888
382.032	161189
382.113	98405
382.195	12986
382.276	8862
382.358	24542
382.439	81328
382.521	95303
382.602	153351
382.684	63181
382.765	111057
382.846	119187
382.928	163967
383.009	89304
383.090	60410
383.172	247641
383.253	374028
383.334	120309
383.416	128418
383.497	65829
383.578	24530
383.659	49912
383.741	216526
383.822	564990
383.903	280200
383.984	89012
384.066	151083
384.147	90557
384.228	16478
384.309	11863
384.390	8563
384.471	4987
384.553	6204
384.634	9806
384.715	10346
384.796	4925
384.877	7109
384.958	36660
385.039	45000
385.120	14465
385.201	6319
385.282	5375
385.363	5453
385.444	5752
385.525	12973
385.606	59850
385.687	55628
385.768	8204
385.849	10283
385.930	67501
386.011	124830
386.092	28352
386.173	4510
386.254	2683
386.335	4123
386.416	3539
386.496	21317
386.577	38151
386.658	10089
386.739	4716
386.820	4159
386.901	1282
386.981	3517
387.062	3111
387.143	7276
387.224	39079
387.304	35672
387.385	10177
387.466	3204
387.547	4541
387.627	3161
387.708	14459
387.789	70958
387.869	92251
387.950	23495
388.031	2853
388.111	169
388.192	3151
388.273	4394
388.353	3786
388.434	4136
388.514	13525
388.595	75542
388.676	96861
388.756	39121
388.837	34762
388.917	20976
388.998	1952
389.078	3465
389.159	4097
389.239	2897
389.320	6985
389.400	4162
389.480	13209
389.561	39787
389.641	21088
389.722	6094
389.802	9379
389.883	16182
389.963	52928
390.043	27161
390.124	4243
390.204	12105
390.284	43361
390.365	26852
390.445	27625
390.525	138290
390.605	135742
390.686	25331
390.766	7715
390.846	5439
390.927	2749
391.007	3039
391.087	3456
391.167	2095
391.247	964
391.328	4096
391.408	4536
391.488	2235
391.568	1112
391.648	5406
391.728	8262
391.808	7136
391.888	8507
391.969	20789
392.049	36344
392.129	12277
392.209	16458
392.289	49567
392.369	23588
392.449	6402
392.529	6829
392.609	10061
392.689	14774
392.769	49906
392.849	43743
392.929	23900
393.009	60797
393.089	54434
393.169	50073
393.248	182019
393.328	698704
393.408	745458
393.488	191597
393.568	47324
393.648	23861
393.728	15775
393.807	11656
393.887	10988
393.967	10077
394.047	11567
394.127	13633
394.206	26678
394.286	106894
394.366	459625
394.446	495176
394.525	113277
394.605	25418
394.685	16064
394.764	14995
394.844	15989
394.924	14479
395.003	9466
395.083	8374
395.163	7667
395.242	7074
395.322	8156
395.402	5489
395.481	8200
395.561	10400
395.640	24213
395.720	27432
395.799	21413
395.879	21451
395.958	38583
396.038	161039
396.117	601688
396.197	661056
396.276	180739
396.356	45537
396.435	24986
396.515	20622
396.594	24957
396.673	48555
396.753	199619
396.832	631281
396.912	463082
396.991	98638
397.070	24854
397.150	12732
397.229	10130
397.308	11626
397.388	17752
397.467	10010
397.546	5059
397.625	2798
397.705	6637
397.784	6020
397.863	3625
397.942	2767
398.022	2806
398.101	2967
398.180	8342
398.259	4151
398.338	3582
398.417	3493
398.497	1093
398.576	3016
398.655	467
398.734	2271
398.813	1607
398.892	3040
398.971	7272
399.050	3352
399.129	134
399.208	556
399.287	2509
399.366	758
399.445	729
399.524	1797
399.603	245
399.682	4000
399.761	8742
399.840	10416
399.919	6825
399.998	813
400.077	-327
400.156	-57
400.235	2816
400.313	614
400.392	1800
400.471	19804
400.550	33061
400.629	6839
400.708	2515
400.786	473
400.865	980
400.944	2364
401.023	3869
401.102	402
401.180	889
401.259	-190
401.338	511
401.416	2683
401.495	2063
401.574	1447
401.652	723
401.731	2811
401.810	609
401.888	564
401.967	-291
402.046	157
402.124	2241
402.203	2134
402.281	1791
402.360	353
402.438	2095
402.517	772
402.596	867
402.674	351
402.753	196
402.831	778
402.910	1733
402.988	4249
403.066	17631
403.145	12032
403.223	6369
403.302	13362
403.380	10820
403.459	8674
403.537	3026
403.615	943
403.694	-772
403.772	1368
403.850	-357
403.929	373
404.007	-190
404.085	3292
404.164	1631
404.242	637
404.320	2088
404.398	5352
404.477	22024
404.555	118489
404.633	104338
404.711	12421
404.789	2815
404.868	159
404.946	-148
405.024	1417
405.102	596
405.180	-81
405.258	38
405.336	1961
405.415	26
405.493	1160
405.571	1704
405.649	-521
405.727	-412
405.805	1655
405.883	2042
405.961	1095
406.039	-156
406.117	211
406.195	3621
406.273	24201
406.351	96294
406.429	55061
406.507	3160
406.585	-107
406.663	2081
406.740	3648
406.818	2367
406.896	923
406.974	2351
407.052	6331
407.130	53917
407.208	78754
407.285	14257
407.363	505
407.441	2198
407.519	1633
407.596	3401
407.674	20673
407.752	88241
407.830	67665
407.907	7866
407.985	1319
408.063	1635
408.141	404
408.218	987
408.296	-119
408.373	132
408.451	2956
408.529	2344
408.606	776
408.684	399
408.762	588
408.839	540
408.917	-35
408.994	174
409.072	-578
409.149	572
409.227	2206
409.304	2222
409.382	1899
409.459	1636
409.537	3336
409.614	2683
409.692	1494
409.769	1634
409.846	4244
409.924	5310
410.001	2076
410.079	2250
410.156	1879
410.233	1617
410.311	1848
410.388	867
410.465	1340
410.543	-494
410.620	482
410.697	1400
410.775	1490
410.852	-229
410.929	2234
411.006	2366
411.083	365
411.161	-244
411.238	1182
411.315	-134
411.392	-282
411.469	1384
411.547	1219
411.624	-1286
411.701	268
411.778	1490
411.855	5323
411.932	1519
412.009	-444
412.086	242
412.163	773
412.240	-36
412.317	447
412.394	-242
412.471	780
412.548	333
412.625	76
412.702	722
412.779	2122
412.856	2
412.933	-136
413.010	-177
413.087	3234
413.164	15734
413.241	25045
413.318	4846
413.395	3520
413.471	3817
413.548	1919
413.625	559
413.702	478
413.779	873
413.855	168
413.932	-1022
414.009	-1103
414.086	-831
414.162	218
414.239	1524
414.316	15472
414.393	41334
414.469	13247
414.546	46
414.623	476
414.699	485
414.776	910
414.853	170
414.929	762
415.006	412
415.082	-158
415.159	106
415.236	715
415.312	437
415.389	4025
415.465	4664
415.542	2339
415.618	136
415.695	3314
415.771	1319
415.848	980
415.924	345
416.000	345
416.077	462
416.153	-605
416.230	-1162
416.306	-88
416.383	-464
416.459	-696
416.535	-714
416.612	-145
416.688	-500
416.764	374
416.841	-434
416.917	-49
416.993	471
417.069	809
417.146	1633
417.222	3548
417.298	1065
417.374	-692
417.451	740
417.527	1420
417.603	1431
417.679	860
417.755	626
417.831	-436
417.908	-675
417.984	48
418.060	787
418.136	4764
418.212	6200
418.288	1643
418.364	48
418.440	198
418.516	2563
418.592	1601
418.668	5507
418.744	12065
418.820	7804
418.896	1255
418.972	-708
419.048	487
419.124	4564
419.200	3251
419.276	503
419.352	-490
419.428	-534
419.504	727
419.579	2031
419.655	568
419.731	741
419.807	7535
419.883	15210
419.959	10462
420.034	1540
420.110	4528
420.186	24112
420.262	19327
420.337	2993
420.413	1394
420.489	847
420.565	1134
420.640	677
420.716	903
420.792	-791
420.867	923
420.943	22
421.019	2522
421.094	1691
421.170	480
421.245	-381
421.321	932
421.397	1734
421.472	14500
421.548	50144
421.623	29255
421.699	3869
421.774	2850
421.850	1718
421.925	4353
422.001	3365
422.076	2302
422.152	2680
422.227	4767
422.302	6981
422.378	9520
422.453	17845
422.529	49418
422.604	178159
422.679	326225
422.755	195634
422.830	53000
422.905	18621
422.981	8739
423.056	4926
423.131	3857
423.207	3250
423.282	2565
423.357	7969
423.432	4338
423.508	3665
423.583	11246
423.658	8309
423.733	2272
423.808	2429
423.883	3860
423.959	2553
424.034	1288
424.109	898
424.184	-697
424.259	3
424.334	204
424.409	-386
424.484	187
424.559	608
424.634	99
424.709	818
424.784	2618
424.859	1003
424.934	2925
425.009	15836
425.084	28270
425.159	9400
425.234	405
425.309	-1389
425.384	-141
425.459	-551
425.534	-705
425.609	-803
425.683	-257
425.758	-300
425.833	322
425.908	843
425.983	8980
426.058	30775
426.132	12088
426.207	782
426.282	757
426.357	-579
426.431	-48
426.506	-64
426.581	-5
426.655	-222
426.730	-213
426.805	-183
426.879	175
426.954	3
427.029	3229
427.103	30528
427.178	79364
427.253	33874
427.327	2206
427.402	-649
427.476	-471
427.551	-758
427.625	390
427.700	-279
427.774	-577
427.849	86
427.923	-432
427.998	-821
428.072	-172
428.147	3373
428.221	20420
428.296	63402
428.370	33069
428.444	2026
428.519	779
428.593	192
428.667	404
428.742	1083
428.816	4889
428.890	30865
428.965	53058
429.039	10337
429.113	1283
429.188	-446
429.262	-389
429.336	2318
429.410	11941
429.485	6634
429.559	777
429.633	-164
429.707	614
429.781	3543
429.855	29531
429.930	51854
430.004	14806
430.078	6708
430.152	19405
430.226	89933
430.300	97018
430.374	12558
430.448	2369
430.522	1945
430.596	7197
430.670	13260
430.744	77660
430.818	120078
430.892	22744
430.966	1891
431.040	251
431.114	-957
431.188	-215
431.262	-879
431.336	-876
431.410	834
431.484	3675
431.557	4658
431.631	-55
431.705	819
431.779	10315
431.853	54529
431.927	39684
432.000	3363
432.074	540
432.148	-567
432.222	-697
432.295	-115
432.369	-273
432.443	2087
432.516	28636
432.590	81945
432.664	28675
432.737	1441
432.811	-502
432.885	-480
432.958	471
433.032	-681
433.106	-660
433.179	-886
433.253	-501
433.326	-930
433.400	-1219
433.473	-600
433.547	-929
433.620	-566
433.694	1689
433.767	1307
433.841	-844
433.914	-977
433.988	102
434.061	-852
434.134	-1055
434.208	-1328
434.281	-1806
434.355	-1651
434.428	113
434.501	-1097
434.575	-1166
434.648	-477
434.721	-1038
434.795	-1257
434.868	-748
434.941	-1564
435.014	-613
435.088	-1179
435.161	749
435.234	2519
435.307	2625
435.381	1142
435.454	-60
435.527	858
435.600	1547
435.673	488
435.746	484
435.819	244
435.892	-124
435.966	-1002
436.039	-1663
436.112	-31
436.185	-995
436.258	-1390
436.331	-1505
436.404	-639
436.477	-1449
436.550	-700
436.623	-914
436.696	-1143
436.769	-317
436.842	-796
436.915	-892
436.987	1071
437.060	-73
437.133	-1079
437.206	-1069
437.279	-640
437.352	-868
437.425	-1045
437.498	-626
437.570	2484
437.643	2263
437.716	-761
437.789	-1135
437.861	-57
437.934	190
438.007	-336
438.080	-227
438.152	535
438.225	4545
438.298	44076
438.370	127781
438.443	47964
438.516	3387
438.588	-442
438.661	-479
438.734	-805
438.806	-256
438.879	171
438.951	-609
439.024	-784
439.096	-980
439.169	-158
439.241	-452
439.314	-1101
439.386	-957
439.459	-262
439.531	-185
439.604	-983
439.676	-598
439.749	-1381
439.821	-1083
439.893	-425
439.966	-122
440.038	-835
440.110	197
440.183	-105
440.255	-523
440.327	1332
440.400	13864
440.472	70146
440.544	48250
440.617	3732
440.689	1309
440.761	823
440.833	1590
440.905	-103
440.978	-493
441.050	-278
441.122	90
441.194	-1554
441.266	-216
441.338	-1280
441.411	1600
441.483	19239
441.555	31033
441.627	5578
441.699	-110
441.771	-525
441.843	-106
441.915	-1107
441.987	-621
442.059	-743
442.131	-250
442.203	342
442.275	1035
442.347	1547
442.419	3210
442.491	23078
442.563	58770
442.635	23342
442.706	5193
442.778	3711
442.850	-166
442.922	-726
442.994	116
443.066	1511
443.137	1135
443.209	612
443.281	1395
443.353	5986
443.425	29634
443.496	117783
443.568	111662
443.640	36069
443.711	5601
443.783	1449
443.855	544
443.926	-333
443.998	-222
444.070	-217
444.141	809
444.213	1416
444.285	3117
444.356	573
444.428	-310
444.499	-921
444.571	-659
444.642	-415
444.714	-317
444.785	2090
444.857	734
444.928	235
445.000	648
445.071	1616
445.143	1532
445.214	2523
445.285	3740
445.357	13531
445.428	78429
445.500	196692
445.571	108429
445.642	48903
445.714	11922
445.785	4562
445.856	2124
445.928	3434
445.999	938
446.070	-168
446.141	1186
446.213	2005
446.284	56
446.355	-781
446.426	-371
446.497	-1080
446.569	356
446.640	1808
446.711	2941
446.782	125
446.853	-822
446.924	45
446.995	554
447.066	-392
447.138	-508
447.209	-714
447.280	-414
447.351	-797
447.422	-1393
447.493	-596
447.564	-460
447.635	2586
447.706	858
447.777	-555
447.847	-1242
447.918	-845
447.989	76
448.060	10
448.131	51
448.202	1821
448.273	2539
448.344	-333
448.414	-34
448.485	-448
448.556	-281
448.627	-1056
448.698	-439
448.768	-1630
448.839	-850
448.910	-237
448.981	709
449.051	538
449.122	-555
449.193	81
449.263	-256
449.334	-483
449.405	1294
449.475	4173
449.546	3305
449.616	110
449.687	1110
449.758	-743
449.828	-319
449.899	-520
449.969	-349
450.040	-409
450.110	-60
450.181	344
450.251	-617
450.322	-477
450.392	184
450.463	322
450.533	-913
450.604	-288
450.674	-146
450.744	304
450.815	-394
450.885	0
450.955	-85
451.026	-811
451.096	-1016
451.166	-216
451.237	139
451.307	350
451.377	73
451.447	-1304
451.518	-508
451.588	-782
451.658	564
451.728	65
451.799	462
451.869	1789
451.939	-914
452.009	-1289
452.079	-1278
452.149	120
452.219	-778
452.289	959
452.360	694
452.430	-266
452.500	335
452.570	995
452.640	2342
452.710	4835
452.780	6460
452.850	8154
452.920	10689
452.990	2073
453.060	354
453.129	941
453.199	1078
453.269	2319
453.339	5946
453.409	9611
453.479	8251
453.549	13135
453.619	11709
453.688	5164
453.758	151
453.828	-501
453.898	-190
453.968	-500
454.037	94
454.087	-61
454.107	-132
454.168	-646
454.177	-733
454.247	-709
454.249	-678
454.316	-121
454.330	-113
454.386	-99
454.411	-63
454.456	-88
454.492	368
454.525	798
454.574	645
454.595	559
454.655	-137
454.665	-256
454.734	453
454.736	455
454.804	220
454.817	552
454.873	1895
454.898	2006
454.943	2213
454.979	1065
455.013	-5
455.060	-302
455.082	-404
455.141	622
455.152	926
455.221	3039
455.222	3143
455.291	8961
455.303	12106
455.360	24405
455.384	40851
455.430	68862
455.465	53166
455.499	39577
455.546	16023
455.569	5026
455.627	2497
455.638	2012
455.707	240
455.708	247
455.777	-169
455.789	-72
455.846	304
455.869	304
455.916	337
455.950	470
455.985	536
456.031	-400
456.054	-883
456.112	-343
456.124	-213
456.193	97
456.193	88
456.262	36
456.274	126
456.332	555
456.355	261
456.401	-299
456.436	-245
456.470	-310
456.516	-253
456.540	-157
456.597	-458
456.609	-542
456.678	-405
456.678	-414
456.747	-398
456.759	-382
456.817	-288
456.840	-70
456.886	302
456.920	-265
456.955	-778
457.001	-187
457.024	68
457.082	-55
457.093	-111
457.162	532
457.163	537
457.232	-191
457.243	-132
457.301	41
457.324	-174
457.370	-592
457.405	-157
457.439	205
457.485	4
457.508	24
457.566	472
457.577	543
457.646	991
457.647	1004
457.715	2127
457.727	2482
457.784	4452
457.808	5889
457.853	7349
457.889	8925
457.922	9796
457.969	6340
457.991	5915
458.050	7430
458.060	7651
458.129	13572
458.130	13743
458.198	14850
458.211	13171
458.267	7440
458.292	5221
458.336	2838
458.372	2771
458.405	3886
458.453	5859
458.474	6917
458.533	12539
458.543	12949
458.611	22434
458.614	22473
458.680	14860
458.694	11704
458.749	5186
458.775	4090
458.818	2085
458.855	1473
458.887	1125
458.936	349
458.955	129
459.016	638
459.024	718
459.093	1145
459.097	1136
459.162	460
459.177	444
459.230	764
459.257	1124
459.299	1490
459.338	1654
459.368	1700
459.418	1382
459.437	1213
459.499	1128
459.505	1152
459.574	1471
459.579	1429
459.643	972
459.659	970
459.711	639
459.740	674
459.780	950
459.820	1257
459.849	1377
459.900	908
459.917	772
459.981	683
459.986	673
460.054	965
460.061	990
460.123	1458
460.141	1534
460.191	1690
460.222	1989
460.260	2309
460.302	2762
460.328	2835
460.382	2456
460.397	2594
460.462	2254
460.465	2423
460.534	8030
460.543	8798
460.602	25497
460.623	32093
460.671	49695
460.703	68525
460.739	61913
460.783	44811
460.808	40070
460.864	10374
460.876	6866
460.944	2290
460.945	2232
461.013	1776
461.024	1691
461.081	1634
461.104	1812
461.150	1807
461.184	1586
461.218	1625
461.264	1482
461.286	1329
461.345	1095
461.355	1097
461.423	1290
461.425	1287
461.491	782
461.505	834
461.559	1300
461.585	1247
461.628	1422
461.665	1911
461.696	2106
461.745	2879
461.764	2927
461.825	1465
461.832	1456
461.901	1912
461.905	1966
461.969	1213
461.985	971
462.037	1682
462.065	1955
462.105	958
462.145	268
462.173	518
462.225	912
462.241	950
462.305	1335
462.310	1355
462.378	1567
462.385	1560
462.446	1224
462.465	1063
462.514	1407
462.545	1836
462.582	1685
462.625	1321
462.650	1160
462.705	837
462.718	797
462.785	802
462.786	816
462.854	1402
462.865	1536
462.922	1589
462.945	1637
462.990	1968
463.025	1977
463.058	1882
463.104	1715
463.126	1534
463.184	1375
463.194	1443
463.262	1567
463.264	1584
463.330	1479
463.344	1385
463.398	1792
463.424	2008
463.466	1746
463.504	1560
463.533	1781
463.583	2142
463.601	1950
463.663	1075
463.669	1081
463.737	1495
463.743	1513
463.805	1764
463.823	1910
463.873	2478
463.903	2718
463.940	2550
463.982	2325
464.008	2328
464.062	2384
464.076	2295
464.142	1372
464.144	1359
464.211	951
464.221	960
464.279	1447
464.301	1539
464.347	1930
464.381	2246
464.414	2021
464.461	1748
464.482	1700
464.540	1351
464.550	1370
464.617	1722
464.620	1727
464.685	3603
464.699	4051
464.753	4781
464.779	5171
464.820	5520
464.859	5720
464.888	5211
464.938	4279
464.956	4501
465.018	5134
465.023	5076
465.091	4236
465.098	4160
465.158	3729
465.177	3647
465.226	4239
465.257	4464
465.293	4396
465.336	4327
465.361	4670
465.416	5483
465.428	5349
465.495	4754
465.496	4761
465.563	4870
465.575	4909
465.631	5021
465.654	5140
465.698	5311
465.734	5174
465.765	4782
465.813	4289
465.833	4177
465.893	3819
465.900	3849
465.968	4192
465.972	4202
466.035	4545
466.052	4653
466.102	5152
466.131	5415
466.170	5439
466.210	5437
466.237	5479
466.290	5525
466.304	5634
466.369	6110
466.372	6134
466.439	6540
466.449	6595
466.506	7445
466.528	7751
466.573	7189
466.607	6744
466.641	7438
466.687	8423
466.708	8727
466.766	9573
466.775	9406
466.842	8046
466.845	7974
466.909	7704
466.925	7628
466.977	7428
467.004	7349
467.044	7652
467.083	7945
467.111	8746
467.163	10218
467.178	10398
467.242	11098
467.245	11040
467.312	9560
467.321	9354
467.379	8210
467.400	7776
467.446	7836
467.480	7863
467.559	7055
467.638	6052
467.717	6848
467.796	7397
467.875	7694
467.955	6309
468.034	6788
468.113	7231
468.192	7257
468.271	6352
468.350	6462
468.429	8856
468.508	9006
468.588	5960
468.667	5776
468.746	5709
468.825	5045
468.904	5244
468.983	5734
469.062	5076
469.141	6242
469.220	4973
469.299	5323
469.378	6324
469.456	9047
469.535	8156
469.614	6174
469.693	6145
469.772	6889
469.851	7245
469.930	5966
470.009	6312
470.088	7027
470.166	7977
470.245	8154
470.324	10280
470.403	7380
470.482	6995
470.560	6163
470.639	5190
470.718	6633
470.797	5413
470.875	6202
470.954	5853
471.033	5811
471.111	5574
471.190	5092
471.269	4389
471.347	4532
471.426	5286
471.505	6573
471.583	6881
471.662	7441
471.740	5943
471.819	5538
471.898	4787
471.976	5462
472.055	5127
472.133	5363
472.212	7009
472.290	6087
472.369	5298
472.447	5500
472.526	4482
472.604	6162
472.683	5750
472.761	5376
472.839	4442
472.918	4915
472.996	4266
473.075	5020
473.153	5036
473.231	4070
473.310	5177
473.388	4803
473.466	4742
473.545	6447
473.623	7300
473.701	6971
473.780	6573
473.858	3738
473.936	5991
474.014	4960
474.093	5567
474.171	5919
474.249	5397
474.327	5182
474.405	4646
474.484	4356
474.562	5736
474.640	4197
474.718	5080
474.796	5314
474.874	5247
474.952	4060
475.030	5037
475.108	5909
475.187	7038
475.265	5792
475.343	6413
475.421	5885
475.499	4006
475.577	4376
475.655	4848
475.733	4593
475.811	5097
475.889	4370
475.966	5249
476.044	3721
476.122	3883
476.200	5135
476.278	3430
476.356	3479
476.434	4398
476.512	3394
476.590	4448
476.667	4540
476.745	3407
476.823	4150
476.901	3664
476.979	4103
477.056	4012
477.134	3371
477.212	3682
477.290	3763
477.367	3205
477.445	2633
477.523	2863
477.601	3058
477.678	3606
477.756	2946
477.834	3793
477.911	3620
477.989	4053
478.066	2878
478.144	2979
478.222	3560
478.299	4929
478.377	4236
478.454	3051
478.532	3124
478.609	3180
478.687	4304
478.764	3282
478.842	3239
478.919	2279
478.997	3387
479.074	3396
479.152	2719
479.229	3072
479.307	2225
479.384	3767
479.461	2623
479.539	2721
479.616	2220
479.694	2949
479.771	2469
479.848	2185
479.926	1323
480.003	3077
480.080	3617
480.157	2749
480.235	2913
480.312	3190
480.389	2561
480.467	2344
480.544	2797
480.621	1993
480.698	2735
480.775	2091
480.853	2132
480.930	2259
481.007	2709
481.084	4498
481.161	6157
481.238	3524
481.315	1839
481.392	2350
481.470	1310
481.547	1995
481.624	1666
481.701	1992
481.778	1980
481.855	1354
481.932	2662
482.009	2387
482.086	2640
482.163	2475
482.240	3633
482.317	4088
482.393	3291
482.470	3328
482.547	2447
482.624	1236
482.701	2190
482.778	2692
482.855	2214
482.932	1909
483.009	2651
483.085	3657
483.162	4412
483.239	4376
483.316	1746
483.393	3420
483.469	2159
483.546	2196
483.623	2968
483.699	2107
483.776	2150
483.853	2323
483.930	2798
484.006	3912
484.083	8694
484.160	17443
484.236	29663
484.313	21157
484.389	15212
484.466	14867
484.543	12800
484.619	12675
484.696	13521
484.772	12563
484.849	12225
484.925	12401
485.002	12775
485.078	12694
485.155	10913
485.231	11684
485.308	10712
485.384	11394
485.461	10988
485.537	12187
485.614	11625
485.690	10634
485.766	10531
485.843	10625
485.919	13355
485.995	13317
486.072	9443
486.148	9782
486.224	9759
486.301	10197
486.377	10176
486.453	8575
486.530	11858
486.606	17482
486.682	17346
486.758	14685
486.835	13740
486.911	12533
486.987	16578
487.063	22185
487.139	27772
487.215	22737
487.292	14467
487.368	11426
487.444	12046
487.520	15226
487.596	15029
487.672	25706
487.748	57074
487.824	70265
487.900	20110
487.976	12540
488.052	9710
488.128	10538
488.204	8571
488.280	9482
488.356	8329
488.432	9587
488.508	10896
488.584	9595
488.660	9235
488.736	9343
488.812	10291
488.888	13549
488.964	14988
489.039	27010
489.115	36637
489.191	21179
489.267	9709
489.343	8814
489.418	7972
489.494	8312
489.570	6640
489.646	9800
489.722	7553
489.797	7196
489.873	8099
489.949	9636
490.024	9577
490.100	6650
490.176	7598
490.251	8574
490.327	10700
490.403	6619
490.478	7838
490.554	7338
490.629	6457
490.705	6303
490.781	7222
490.856	6545
490.932	7371
491.007	6929
491.083	7339
491.158	6253
491.234	6712
491.309	6622
491.385	6419
491.460	5852
491.536	7727
491.611	5971
491.686	6863
491.762	9251
491.837	15910
491.913	23817
491.988	32712
492.063	38049
492.139	8210
492.214	6344
492.289	6612
492.365	5817
492.440	6586
492.515	5126
492.590	6054
492.666	4011
492.741	5912
492.816	4972
492.891	5607
492.967	6247
493.042	5338
493.117	6490
493.192	8721
493.267	24864
493.342	84029
493.418	98196
493.493	10329
493.568	4902
493.643	4865
493.718	5341
493.793	5755
493.868	6844
493.943	5775
494.018	5085
494.093	2892
494.168	4478
494.243	4033
494.318	3985
494.393	4192
494.468	3414
494.543	4170
494.618	5053
494.693	2370
494.768	2871
494.842	3608
494.917	3962
494.992	4067
495.067	3151
495.142	3233
495.217	4047
495.292	3821
495.366	4364
495.441	3867
495.516	5705
495.591	9710
495.665	34128
495.740	69486
495.815	22663
495.890	3770
495.964	2401
496.039	6096
496.114	4039
496.188	7815
496.263	6409
496.338	2814
496.412	3115
496.487	4729
496.561	5254
496.636	6182
496.710	4507
496.785	5041
496.860	4086
496.934	4198
497.009	4897
497.083	4882
497.158	4184
497.232	5068
497.307	7033
497.381	6105
497.455	7273
497.530	6618
497.604	7523
497.679	8383
497.753	12723
497.827	16686
497.902	16667
497.976	16309
498.050	17658
498.125	28472
498.199	31658
498.273	29537
498.348	26026
498.422	19979
498.496	16674
498.570	12965
498.645	9896
498.719	7050
498.793	6850
498.867	6327
498.941	6571
499.016	10819
499.090	17015
499.164	8359
499.238	4744
499.312	3892
499.386	6331
499.460	4529
499.534	3474
499.609	4060
499.683	3448
499.757	3347
499.831	5509
499.905	10485
499.979	8400
500.053	4053
500.127	6545
500.201	5801
500.275	3261
500.349	3440
500.422	3693
500.496	5639
500.570	12383
500.644	11779
500.718	11118
500.792	4856
500.866	3243
500.940	2703
501.013	2996
501.087	2659
501.161	5486
501.235	3831
501.309	6093
501.382	9087
501.456	9731
501.530	3659
501.603	3221
501.677	2876
501.751	1112
501.825	4135
501.898	2846
501.972	4101
502.046	2962
502.119	1308
502.193	4795
502.266	4672
502.340	2451
502.413	3005
502.487	3992
502.561	1123
502.634	2296
502.708	3782
502.781	2363
502.855	2931
502.928	1466
503.002	999
503.075	754
503.149	2204
503.222	1302
503.295	963
503.369	2051
503.442	2672
503.516	3496
503.589	5991
503.662	4209
503.736	3372
503.809	4496
503.882	3408
503.956	6609
504.029	11214
504.102	27710
504.175	34774
504.249	7861
504.322	3640
504.395	2304
504.468	2663
504.542	1612
504.615	718
504.688	1675
504.761	222
504.834	3347
504.907	4343
504.980	4461
505.053	2156
505.127	1129
505.200	5022
505.273	1039
505.346	1212
505.419	435
505.492	1837
505.565	865
505.638	1210
505.711	330
505.784	-31
505.857	569
505.930	2792
506.003	590
506.076	2784
506.149	612
506.221	78
506.294	3636
506.367	432
506.440	6085
506.513	4104
506.586	1043
506.659	791
506.731	1418
506.804	2043
506.877	2505
506.950	1335
507.022	2735
507.095	522
507.168	1723
507.241	3275
507.313	1043
507.386	1442
507.459	3431
507.531	1216
507.604	1243
507.677	1935
507.749	766
507.822	3826
507.894	8192
507.967	10020
508.040	6655
508.112	5776
508.185	4067
508.257	2288
508.330	6074
508.402	3338
508.475	2938
508.547	3331
508.620	2818
508.692	2615
508.765	2706
508.837	3572
508.909	3915
508.982	2259
509.054	4886
509.127	2939
509.199	2793
509.271	2700
509.344	3150
509.416	2187
509.488	2331
509.560	2460
509.633	3833
509.705	3824
509.777	2855
509.849	5605
509.922	2502
509.994	2671
510.066	4462
510.138	4343
510.210	12478
510.283	7641
510.355	6623
510.427	6350
510.499	5490
510.571	5493
510.643	5540
510.715	7592
510.787	4462
510.859	5242
510.931	5271
511.003	6686
511.076	6369
511.148	2650
511.219	3574
511.291	4045
511.363	4377
511.435	4164
511.507	3270
511.579	4820
511.651	4699
511.723	4049
511.795	3613
511.867	2683
511.939	3966
512.010	3138
512.082	4443
512.154	2850
512.226	3906
512.298	10130
512.369	9897
512.441	9424
512.513	8553
512.585	4376
512.656	6739
512.728	5525
512.800	4792
512.871	5276
512.943	4473
513.015	3668
513.086	5349
513.158	6125
513.230	4755
513.301	6353
513.373	8963
513.444	4894
513.516	4261
513.588	4285
513.659	6402
513.731	5450
513.802	4220
513.874	11413
513.945	14485
514.016	4254
514.088	4431
514.159	3309
514.231	7579
514.302	9238
514.374	7932
514.445	5151
514.516	7888
514.588	4452
514.659	4369
514.730	5104
514.802	8549
514.873	7782
514.944	9650
515.016	6125
515.087	6212
515.158	5666
515.229	7622
515.301	9109
515.372	14309
515.443	6567
515.514	5241
515.585	3264
515.656	5900
515.728	4712
515.799	3689
515.870	5109
515.941	4915
516.012	4146
516.083	8526
516.154	7000
516.225	8766
516.296	8906
516.367	6319
516.438	6107
516.509	8718
516.580	13976
516.651	46486
516.722	130052
516.793	45581
516.864	10101
516.935	8853
517.006	10371
517.077	16646
517.148	48875
517.219	180415
517.289	210777
517.360	25235
517.431	8423
517.502	4189
517.573	6269
517.643	6735
517.714	7105
517.785	8070
517.856	6580
517.926	8575
517.997	10371
518.068	10372
518.138	17935
518.209	32609
518.280	137282
518.350	404059
518.421	112797
518.492	12549
518.562	7906
518.633	7071
518.703	7482
518.774	20108
518.845	46801
518.915	37056
518.986	10104
519.056	8520
519.127	13082
519.197	15114
519.268	11364
519.338	6687
519.408	5207
519.479	6978
519.549	5349
519.620	5584
519.690	3288
519.760	4064
519.831	2444
519.901	3398
519.971	2602
520.042	2339
520.112	1647
520.182	5652
520.253	4493
520.323	2552
520.393	2372
520.463	4314
520.534	-200
520.604	4939
520.674	2546
520.744	2136
520.814	3002
520.885	4037
520.955	2821
521.025	5262
521.095	2560
521.165	4143
521.235	1422
521.305	1885
521.375	2124
521.445	3958
521.515	3840
521.585	5967
521.655	2645
521.725	5022
521.795	4436
521.865	623
521.935	5396
522.005	1653
522.075	1530
522.145	3487
522.215	1816
522.285	3456
522.355	2005
522.424	3203
522.494	2415
522.564	4610
522.634	12255
522.704	31374
522.774	8374
522.843	3743
522.913	3517
522.983	3624
523.053	1897
523.122	4537
523.192	5523
523.262	18762
523.331	13739
523.401	3766
523.471	1950
523.540	3517
523.610	787
523.680	2379
523.749	1557
523.819	3066
523.888	1284
523.958	1853
524.027	1935
524.097	2707
524.166	1832
524.236	1983
524.305	3706
524.375	820
524.444	611
524.514	3888
524.583	998
524.653	386
524.722	2109
524.791	757
524.861	3536
524.930	1033
524.999	1346
525.069	3302
525.138	1429
525.207	1249
525.277	2132
525.346	2765
525.415	1901
525.484	2608
525.554	1331
525.623	3843
525.692	4113
525.761	3400
525.830	4435
525.900	4762
525.969	7088
526.038	14958
526.107	34828
526.176	92757
526.245	60237
526.314	21081
526.383	49548
526.452	60326
526.522	121311
526.591	86016
526.660	18640
526.729	10163
526.797	14268
526.867	35344
526.935	135492
527.004	262588
527.073	105304
527.142	7196
527.211	3583
527.280	5055
527.349	3992
527.418	1013
527.487	2884
527.555	957
527.624	734
527.693	189
527.762	2241
527.831	213
527.899	1365
527.968	903
528.037	-156
528.106	3008
528.174	4218
528.243	3292
528.312	3532
528.380	5582
528.449	115
528.518	2638
528.586	-594
528.655	998
528.723	77
528.792	153
528.861	-1092
528.929	-902
528.998	1817
529.066	653
529.135	-43
529.203	39
529.272	-292
529.340	701
529.409	1884
529.477	-10
529.545	-1045
529.614	2805
529.682	-817
529.751	158
529.819	2764
529.887	284
529.956	485
530.024	1130
530.092	42
530.161	2537
530.229	3003
530.297	-183
530.365	1340
530.434	729
530.502	-346
530.570	-67
530.638	-753
530.707	1038
530.775	1621
530.843	-186
530.911	399
530.979	100
531.047	86
531.115	551
531.183	995
531.252	677
531.320	533
531.388	-641
531.456	529
531.524	-1746
531.592	1018
531.660	1908
531.728	-1153
531.796	-441
531.864	-455
531.932	816
532.000	-629
532.067	1035
532.135	700
532.203	2104
532.271	548
532.339	4641
532.407	13075
532.475	5359
532.542	2240
532.610	2758
532.678	4341
532.746	28643
532.814	54578
532.881	9104
532.949	1516
533.017	1181
533.084	417
533.152	363
533.220	1075
533.287	149
533.355	-315
533.423	909
533.490	-648
533.558	584
533.625	1222
533.693	1067
533.761	451
533.828	535
533.896	17
533.963	4285
534.031	4747
534.098	6043
534.166	1866
534.233	-143
534.300	1568
534.368	783
534.435	389
534.503	1635
534.570	1351
534.637	1503
534.705	2320
534.772	3470
534.840	7784
534.907	48000
534.974	43301
535.041	2517
535.109	1071
535.176	-153
535.243	1551
535.310	1593
535.378	-106
535.445	1632
535.512	624
535.579	818
535.646	-17
535.714	1228
535.781	2799
535.848	2761
535.915	1886
535.982	1319
536.049	1288
536.116	2010
536.183	221
536.250	1041
536.317	809
536.384	2720
536.451	3777
536.518	4205
536.585	1129
536.652	4698
536.719	5388
536.786	2262
536.853	1973
536.920	5419
536.987	8085
537.053	7306
537.120	31993
537.187	21122
537.254	1173
537.321	1450
537.388	2316
537.454	830
537.521	1151
537.588	1366
537.654	2462
537.721	2325
537.788	3237
537.855	1323
537.921	2082
537.988	1508
538.055	2163
538.121	923
538.188	2709
538.254	4463
538.321	8807
538.388	5223
538.454	2169
538.521	2479
538.587	1168
538.654	1221
538.720	1151
538.787	837
538.853	1494
538.920	2503
538.986	1689
539.053	1838
539.119	1816
539.185	1906
539.252	3815
539.318	4135
539.385	4311
539.451	2251
539.517	3894
539.583	5309
539.650	8917
539.716	18456
539.782	4872
539.849	1506
539.915	2332
539.981	2898
540.047	2575
540.114	2150
540.180	2860
540.246	715
540.312	4233
540.378	9476
540.444	9060
540.510	9856
540.576	22747
540.643	5797
540.709	647
540.775	2137
540.841	1847
540.907	3384
540.973	4911
541.039	5716
541.105	5704
541.171	3342
541.237	1735
541.303	2945
541.369	4844
541.435	5240
541.500	8299
541.566	2418
541.632	1604
541.698	2238
541.764	2945
541.830	1502
541.896	905
541.961	3129
542.027	597
542.093	2189
542.159	2771
542.224	1948
542.290	5926
542.356	8935
542.421	8794
542.487	4437
542.553	2968
542.618	2013
542.684	1449
542.750	2313
542.815	3548
542.881	5571
542.947	20850
543.012	12464
543.078	2046
543.143	1747
543.209	1911
543.274	1550
543.340	3373
543.405	8966
543.471	9785
543.536	3122
543.602	2530
543.667	979
543.732	3259
543.798	1936
543.863	2110
543.928	1207
543.994	1391
544.059	2597
544.124	2000
544.190	1375
544.255	2903
544.320	3132
544.386	1343
544.451	4086
544.516	3455
544.581	4597
544.646	13697
544.712	18740
544.777	3844
544.842	1705
544.907	2091
544.972	1279
545.037	1832
545.102	2910
545.168	1249
545.233	3030
545.298	4093
545.363	2832
545.428	4541
545.493	9621
545.558	15481
545.623	4612
545.688	1834
545.753	2758
545.818	1230
545.883	3131
545.947	2189
546.012	2308
546.077	1613
546.142	3909
546.207	2249
546.272	5508
546.337	4339
546.401	4873
546.466	3419
546.531	1909
546.596	3288
546.661	3756
546.725	3461
546.790	1747
546.855	3629
546.919	2376
546.984	4869
547.049	4043
547.113	5197
547.178	4453
547.243	6404
547.307	7001
547.372	7437
547.436	7432
547.501	7178
547.565	9040
547.630	8749
547.695	8183
547.759	6846
547.823	7400
547.888	8199
547.952	7462
548.017	9203
548.081	11727
548.146	9056
548.210	7983
548.274	8051
548.339	8435
548.403	8146
548.468	7200
548.532	7065
548.596	8064
548.660	7589
548.725	9844
548.789	9552
548.853	9312
548.917	8799
548.982	8531
549.046	7751
549.110	6623
549.174	6738
549.238	8605
549.303	8056
549.367	9750
549.431	8413
549.495	7458
549.559	7696
549.623	9130
549.687	10844
549.751	11537
549.815	11903
549.879	12909
549.943	11130
550.007	12598
550.071	12317
550.135	12189
550.199	9948
550.263	10283
550.327	10293
550.391	11249
550.455	11581
550.519	12034
550.582	13201
550.646	16008
550.710	15061
550.774	13554
550.838	13940
550.901	14358
550.965	15104
551.029	15969
551.093	18626
551.156	20679
551.220	27373
551.284	33401
551.347	20319
551.411	16795
551.475	16048
551.538	15087
551.602	13984
551.666	12820
551.729	11000
551.793	12579
551.856	11524
551.920	11715
551.983	12224
552.047	11617
552.110	12191
552.174	12145
552.237	11926
552.301	11073
552.364	10148
552.428	9705
552.491	10158
552.554	10591
552.618	11866
552.681	12059
552.745	11462
552.808	16964
552.871	20287
552.934	13932
552.998	11105
553.061	11466
553.124	11417
553.187	10855
553.251	11004
553.314	12881
553.377	14353
553.440	19655
553.503	48826
553.567	57721
553.630	14795
553.693	11824
553.756	10799
553.819	11063
553.882	9977
553.945	11123
554.008	10603
554.071	9841
554.134	10437
554.197	9656
554.260	9644
554.323	11060
554.386	9581
554.449	10339
554.512	11695
554.575	9192
554.638	10248
554.701	8806
554.764	9648
554.827	9399
554.889	8027
554.952	8412
555.015	8068
555.078	8510
555.141	7528
555.203	8204
555.266	7823
555.329	8588
555.391	8246
555.454	8400
555.517	7770
555.580	7241
555.642	6879
555.705	6617
555.768	7121
555.830	8119
555.893	6393
555.955	7395
556.018	4889
556.080	6425
556.143	6064
556.206	6119
556.268	5893
556.330	6356
556.393	6825
556.455	6089
556.518	7026
556.580	6388
556.643	5113
556.705	5934
556.767	4730
556.830	5981
556.892	6672
556.955	8559
557.017	6789
557.079	4547
557.142	5494
557.204	6150
557.266	11150
557.328	8902
557.391	4642
557.453	4386
557.515	5247
557.577	5852
557.639	6150
557.701	4992
557.764	3352
557.826	4596
557.888	4896
557.950	6775
558.012	8464
558.074	11942
558.136	32722
558.198	65100
558.260	17330
558.322	7393
558.384	8016
558.446	9735
558.508	10407
558.570	14735
558.632	25577
558.694	37746
558.756	60290
558.818	199152
558.880	372091
558.942	85192
559.003	70298
559.065	25607
559.127	10804
559.189	12572
559.251	18266
559.312	30769
559.374	85776
559.436	239484
559.498	79961
559.559	12502
559.621	11646
559.683	17809
559.744	34938
559.806	117785
559.868	132670
559.929	17153
559.991	13292
560.052	25559
560.114	69735
560.176	34895
560.237	42441
560.299	55380
560.360	7664
560.422	2926
560.483	3276
560.545	2322
560.606	1567
560.667	2069
560.729	2158
560.790	2490
560.852	2884
560.913	2008
560.974	1926
561.036	2270
561.097	1508
561.158	2431
561.220	2875
561.281	2377
561.342	2101
561.403	4387
561.465	5286
561.526	16379
561.587	16656
561.648	2909
561.709	1625
561.771	2093
561.832	1348
561.893	1880
561.954	1643
562.015	1365
562.076	1530
562.137	1501
562.198	1193
562.259	1932
562.320	1960
562.381	3000
562.442	3970
562.503	2087
562.564	1423
562.625	2369
562.686	1430
562.747	1456
562.808	2079
562.869	1756
562.930	1833
562.991	849
563.051	1214
563.112	1727
563.173	1461
563.234	1519
563.294	1602
563.355	1563
563.416	1500
563.477	2180
563.537	2260
563.598	1954
563.659	2099
563.720	1969
563.780	2230
563.841	2461
563.901	2267
563.962	1599
564.023	2071
564.083	1471
564.144	1216
564.204	2258
564.265	1111
564.325	1736
564.386	2778
564.446	2872
564.507	1708
564.567	2341
564.628	1129
564.688	1776
564.749	1501
564.809	2460
564.869	2721
564.930	2142
564.990	3227
565.050	2099
565.111	1142
565.171	2552
565.231	2010
565.292	2879
565.352	1440
565.412	2676
565.472	2131
565.532	3651
565.593	1816
565.653	1880
565.713	3150
565.773	3765
565.833	4048
565.893	5411
565.953	2951
566.013	3662
566.074	3730
566.134	3807
566.194	5309
566.254	5861
566.314	3813
566.374	3400
566.434	3398
566.494	5095
566.554	4151
566.614	4985
566.673	4914
566.733	5092
566.793	5654
566.853	5221
566.913	6038
566.973	7387
567.033	6619
567.092	5705
567.152	7046
567.212	6929
567.272	7734
567.331	7462
567.391	7881
567.451	9426
567.511	10625
567.570	10205
567.630	7590
567.690	8319
567.749	8057
567.809	9398
567.868	11323
567.928	12477
567.988	16419
568.047	20395
568.107	28687
568.166	43313
568.226	74070
568.285	94709
568.345	71692
568.404	53601
568.464	44031
568.523	40708
568.582	43473
568.642	51758
568.701	70438
568.761	114982
568.820	175693
568.879	149900
568.939	98404
568.998	67816
569.057	50786
569.116	38816
569.176	30200
569.235	24894
569.294	21213
569.353	16698
569.413	16492
569.472	13144
569.531	12491
569.590	10534
569.649	9259
569.708	8949
569.767	8614
569.827	7160
569.886	7116
569.945	6161
570.004	7062
570.063	6035
570.122	6763
570.181	5806
570.240	5240
570.299	4647
570.358	4428
570.417	4568
570.475	4032
570.534	4084
570.593	4457
570.652	4474
570.711	4038
570.770	4473
570.829	4973
570.887	4670
570.946	5751
571.005	3480
571.064	3484
571.122	5303
571.181	2835
571.240	2797
571.299	2992
571.357	3985
571.416	3806
571.475	3988
571.533	3341
571.592	2988
571.650	2586
571.709	2226
571.768	2843
571.826	3220
571.885	3647
571.943	2476
572.002	1852
572.060	2226
572.119	2325
572.177	2108
572.236	2622
572.294	2115
572.352	2826
572.411	2170
572.469	2069
572.528	2589
572.586	1941
572.644	3134
572.703	2593
572.761	1946
572.819	2128
572.877	1978
572.936	1766
572.994	2159
573.052	2513
573.110	2722
573.169	2139
573.227	1835
573.285	1712
573.343	2161
573.401	1605
573.459	3010
573.517	2306
573.576	2592
573.634	2782
573.692	2634
573.750	2420
573.808	1935
573.866	2071
573.924	2221
573.982	2394
574.040	2509
574.098	2426
574.155	2385
574.213	1760
574.271	2443
574.329	3107
574.387	1910
574.445	1928
574.503	1916
574.560	1652
574.618	1946
574.676	1372
574.734	1610
574.792	2249
574.849	2509
574.907	2416
574.965	1412
575.022	1488
575.080	2817
575.138	1813
575.195	2039
575.253	1245
575.311	2004
575.368	2169
575.426	1049
575.483	2375
575.541	2461
575.598	1910
575.656	1862
575.713	1849
575.771	2947
575.828	1938
575.886	2020
575.943	2792
576.001	2032
576.058	1631
576.115	2133
576.173	2168
576.230	4079
576.287	3315
576.345	3337
576.402	1913
576.459	2573
576.517	2214
576.574	2333
576.631	2326
576.688	1452
576.746	2435
576.803	1902
576.860	1979
576.917	2543
576.974	1844
577.031	2329
577.089	3024
577.146	2195
577.203	2413
577.260	2630
577.317	2417
577.374	2935
577.431	2940
577.488	3196
577.545	2086
577.602	3593
577.659	2442
577.716	3786
577.773	3609
577.830	2998
577.886	2933
577.943	2520
578.000	1522
578.057	2584
578.114	1877
578.171	1918
578.227	3154
578.284	2118
578.341	2773
578.398	3365
578.454	1986
578.511	3350
578.568	3138
578.625	3034
578.681	2446
578.738	2685
578.794	2047
578.851	3121
578.908	2246
578.964	2678
579.021	2186
579.077	2382
579.134	2479
579.190	2613
579.247	2908
579.303	2377
579.360	2577
579.416	2496
579.473	1694
579.529	2561
579.586	2083
579.642	3043
579.698	2530
579.755	3699
579.811	3553
579.867	2822
579.924	2430
579.980	3085
580.036	3835
580.093	2911
580.149	2723
580.205	3749
580.261	3813
580.317	3518
580.374	3213
580.430	4607
580.486	3274
580.542	3024
580.598	2122
580.619	2558
580.654	3314
580.692	3226
580.710	3182
580.765	2868
580.767	2857
580.823	3726
580.838	3418
580.879	2604
580.911	2775
580.935	2884
580.984	2940
580.991	2954
581.047	3227
581.057	3275
581.103	3468
581.130	3584
581.159	3664
581.203	2925
581.215	2750
581.270	3425
581.276	3459
581.326	3768
581.349	3648
581.382	3413
581.422	3662
581.438	3772
581.494	3418
581.494	3420
581.550	3745
581.567	3946
581.606	4211
581.640	4104
581.661	4101
581.713	4287
581.717	4300
581.773	3742
581.786	3827
581.829	4022
581.859	4006
581.885	4043
581.932	3865
581.940	3829
581.996	3591
582.004	3617
582.052	3730
582.077	3665
582.107	3633
582.150	4389
582.163	4581
582.219	5202
582.223	5181
582.274	4961
582.296	4507
582.330	3781
582.368	3661
582.386	3643
582.441	4425
582.441	4424
582.497	4527
582.514	4765
582.552	5462
582.587	5980
582.608	6131
582.659	5628
582.663	5588
582.719	4936
582.732	4780
582.774	4461
582.805	4353
582.830	4248
582.877	5044
582.885	5170
582.941	5007
582.950	4966
582.996	4677
583.023	5037
583.052	5596
583.095	5673
583.107	5653
583.162	5205
583.168	5301
583.218	5938
583.240	5724
583.273	5564
583.313	5143
583.328	4984
583.384	5365
583.385	5356
583.439	5012
583.458	5077
583.494	5162
583.531	5532
583.549	5794
583.603	5619
583.605	5607
583.660	5755
583.676	5850
583.715	6425
583.748	6725
583.770	6797
583.820	6568
583.825	6525
583.881	6366
583.893	6198
583.936	5794
583.965	5855
583.991	5968
584.038	6287
584.046	6342
584.101	6205
584.110	6229
584.156	6386
584.183	6718
584.211	7114
584.255	7265
584.266	7284
584.321	7466
584.328	7452
584.376	7212
584.400	7253
584.431	7427
584.472	7614
584.486	7686
584.541	8035
584.545	8049
584.596	8145
584.617	8057
584.651	8336
584.689	8787
584.706	8839
584.761	9129
584.762	9125
584.816	9596
584.834	9835
584.871	9993
584.906	9760
584.926	9713
584.978	9406
584.980	9425
585.035	11276
585.051	11469
585.090	11847
585.123	12324
585.145	12674
585.195	13491
585.200	13689
585.254	16554
585.267	17475
585.309	21326
585.340	23861
585.364	24284
585.412	22376
585.419	22132
585.473	22768
585.484	23240
585.528	28222
585.556	32843
585.583	43615
585.628	66615
585.637	75867
585.692	150376
585.700	161097
585.747	191296
585.772	169698
585.801	105939
585.845	38829
585.856	33474
585.910	22341
585.917	21053
585.965	18986
585.989	18112
586.019	17865
586.061	18167
586.074	18190
586.128	17692
586.133	17675
586.183	18332
586.205	18389
586.237	18448
586.277	18321
586.292	18294
586.346	18555
586.349	18550
586.401	19242
586.421	19412
586.455	19543
586.493	20333
586.509	21103
586.564	22053
586.565	22094
586.618	25927
586.637	26576
586.672	26135
586.709	25420
586.727	25472
586.781	26133
586.781	26171
586.835	25392
586.853	25703
586.889	26377
586.925	26283
586.944	26474
586.996	27128
586.998	27200
587.052	28840
587.068	29213
587.106	30288
587.140	30676
587.161	30951
587.212	32495
587.215	32647
587.269	34242
587.284	34745
587.323	36100
587.356	37036
587.377	38144
587.427	41468
587.431	41744
587.485	43399
587.499	44047
587.539	46460
587.571	48024
587.593	49197
587.643	51972
587.648	52421
587.702	56602
587.715	57606
587.755	61508
587.786	64036
587.810	66286
587.858	71870
587.864	72756
587.917	80102
587.930	81922
587.971	89578
588.001	94896
588.025	100379
588.073	110983
588.079	112661
588.133	126653
588.145	129921
588.187	144007
588.217	154119
588.241	165530
588.288	186958
588.295	190543
588.348	221287
588.360	227742
588.402	259332
588.431	282024
588.456	305655
588.503	353652
588.510	363623
588.564	444439
588.575	462212
588.617	560081
588.646	631440
588.671	725694
588.718	915296
588.725	962027
588.778	1331559
588.789	1409402
588.832	1784778
588.861	2037902
588.886	2079360
588.932	2038617
588.939	2011848
588.993	1734974
589.004	1707686
589.047	2028122
589.075	2151121
589.100	1927172
589.147	1475198
589.154	1428624
589.207	1081900
589.218	1013583
589.261	928108
589.290	879272
589.314	914278
589.361	991495
589.368	1029771
589.421	1353290
589.433	1424634
589.475	1765360
589.504	1988342
589.528	1973989
589.576	1834090
589.582	1837599
589.635	1904517
589.647	1892448
589.689	1471065
589.718	1170378
589.742	985104
589.790	636260
589.795	618695
589.849	454231
589.861	416505
589.902	350802
589.932	302343
589.955	279553
590.004	231871
590.009	229210
590.062	195953
590.075	187540
590.115	171043
590.146	157770
590.168	151321
590.218	135981
590.222	135221
590.275	121650
590.289	117773
590.328	111137
590.360	105593
590.381	102763
590.431	95097
590.435	94905
590.488	87663
590.503	85446
590.541	82292
590.574	79181
590.594	77386
590.645	72190
590.647	72229
590.700	68203
590.716	66809
590.753	64616
590.787	62284
590.806	61270
590.859	57999
590.859	58121
590.912	55837
590.930	54943
590.965	53569
591.001	52063
591.018	51832
591.071	50380
591.072	50222
591.124	49087
591.143	48405
591.177	47645
591.214	46613
591.230	46726
591.283	46636
591.285	46493
591.336	46411
591.356	46198
591.389	45863
591.427	45023
591.442	44362
591.495	41549
591.498	41204
591.547	39409
591.569	38576
591.600	38486
591.640	37833
591.653	37757
591.706	37047
591.711	36869
591.759	36383
591.782	35929
591.811	35860
591.853	35503
591.864	35487
591.917	34916
591.924	34711
591.969	34264
591.995	33868
592.022	33952
592.066	33868
592.075	33915
592.127	33437
592.137	33269
592.180	33541
592.208	33495
592.233	33240
592.279	32500
592.285	32517
592.338	31784
592.350	31530
592.390	30833
592.421	30133
592.443	30640
592.491	31455
592.495	31471
592.548	30348
592.562	29948
592.600	29871
592.633	29638
592.653	29435
592.704	28520
592.705	28711
592.775	30083
592.846	30596
592.916	31144
592.987	31982
593.058	30192
593.128	27388
593.199	26769
593.270	26808
593.341	25894
593.411	27766
593.482	28848
593.553	27367
593.623	26605
593.694	26350
593.764	27434
593.835	25496
593.906	25232
593.976	26098
594.047	26678
594.117	27307
594.188	26746
594.258	26021
594.329	25459
594.399	25655
594.470	26434
594.540	28170
594.611	26296
594.681	26463
594.751	27351
594.822	29731
594.892	30010
594.963	28618
595.033	27140
595.103	27634
595.174	27705
595.244	30391
595.314	31641
595.384	27096
595.455	28208
595.525	27837
595.595	28122
595.665	29144
595.736	28422
595.806	27576
595.876	28338
595.946	28320
596.016	29745
596.087	29174
596.157	29021
596.227	29438
596.297	30439
596.367	31412
596.437	32865
596.507	34358
596.577	34943
596.647	33469
596.717	33693
596.787	33942
596.857	33849
596.927	33816
596.997	34025
597.067	37105
597.137	39860
597.207	36995
597.277	35545
597.347	34795
597.417	33428
597.487	34353
597.557	33547
597.626	35791
597.696	36585
597.766	35388
597.836	35631
597.906	32456
597.975	31029
598.045	31326
598.115	31665
598.185	34127
598.254	37869
598.324	41548
598.394	42616
598.464	42390
598.533	38581
598.603	37591
598.672	36950
598.742	36383
598.812	34756
598.881	36996
598.951	36407
599.020	36793
599.090	37546
599.159	38562
599.229	36282
599.299	35518
599.368	37126
599.437	37752
599.507	34165
599.576	33872
599.646	37183
599.715	38547
599.785	32523
599.854	32326
599.924	31285
599.993	30586
600.062	30415
600.132	32604
600.201	34762
600.270	39397
600.340	40535
600.409	39227
600.478	37702
600.547	39274
600.617	36760
600.686	31912
600.755	29675
600.824	30731
600.894	28786
600.963	27923
601.032	26549
601.101	26177
601.170	25225
601.239	24415
601.308	26113
601.378	26440
601.447	24690
601.516	25166
601.585	25893
601.654	27474
601.723	26516
601.792	26261
601.861	30695
601.930	37114
601.999	33691
602.068	29490
602.137	30107
602.206	30765
602.275	30747
602.343	35900
602.412	35284
602.481	29923
602.550	29110
602.619	28674
602.688	31006
602.756	29731
602.825	29316
602.894	30114
602.963	30365
603.032	30938
603.100	31033
603.169	31971
603.238	31538
603.307	32275
603.375	31677
603.444	32367
603.513	33012
603.581	33060
603.650	32597
603.719	32607
603.787	32927
603.856	33666
603.924	35119
603.993	36591
604.061	36614
604.130	37701
604.198	39337
604.267	38842
604.335	40176
604.404	40059
604.472	39766
604.541	40801
604.609	41761
604.678	40645
604.746	41578
604.815	43443
604.883	43284
604.951	43628
605.020	43709
605.088	43986
605.156	44282
605.225	46282
605.293	45427
605.361	45292
605.429	46010
605.498	48227
605.566	49614
605.634	51625
605.702	51978
605.771	52591
605.839	52869
605.907	51913
605.975	50132
606.043	49382
606.111	49566
606.180	50032
606.248	54901
606.316	56685
606.384	48903
606.452	53397
606.520	59778
606.588	53191
606.656	50564
606.724	49656
606.792	47421
606.860	42209
606.928	38126
606.996	38159
607.064	37156
607.132	37792
607.200	40439
607.267	40950
607.335	41202
607.403	43108
607.471	40471
607.539	39620
607.607	40521
607.674	36929
607.742	38597
607.810	39158
607.878	38067
607.946	36869
608.013	38793
608.081	39553
608.149	39379
608.216	39933
608.284	42472
608.352	42012
608.419	40114
608.487	42975
608.555	40049
608.622	42179
608.690	43564
608.757	48679
608.825	49522
608.893	47694
608.960	45849
609.028	44101
609.095	44691
609.163	42779
609.230	38397
609.298	35752
609.365	37408
609.432	41125
609.500	43865
609.567	48993
609.635	57002
609.702	59539
609.769	56533
609.837	46176
609.904	40217
609.971	42252
610.039	52251
610.106	74602
610.173	163907
610.241	405749
610.308	211455
610.375	65849
610.442	45846
610.509	41930
610.577	41929
610.644	41841
610.711	42148
610.778	45210
610.845	45001
610.912	49567
610.980	55597
611.047	66172
611.114	55321
611.181	47093
611.248	45908
611.315	49981
611.382	49738
611.449	51676
611.516	52953
611.583	52538
611.650	52369
611.717	54305
611.784	55289
611.851	59509
611.918	67723
611.984	86036
612.051	144536
612.118	350036
612.185	934416
612.252	530100
612.319	104124
612.386	75622
612.452	65937
612.519	61652
612.586	60872
612.653	60457
612.719	62064
612.786	59203
612.853	56129
612.919	54111
612.986	55878
613.053	52001
613.120	47743
613.186	45989
613.253	48349
613.319	46923
613.386	47544
613.453	49154
613.519	52223
613.586	59972
613.652	73588
613.719	64191
613.785	58370
613.852	51543
613.918	51359
613.985	60533
614.051	84544
614.118	158173
614.184	144906
614.250	57854
614.317	52238
614.383	49536
614.449	50737
614.516	49631
614.582	50316
614.648	48458
614.715	48952
614.781	48325
614.847	47191
614.914	47918
614.980	46436
615.046	48071
615.112	49634
615.179	51907
615.245	55814
615.311	68682
615.377	106840
615.443	113156
615.509	68233
615.575	59175
615.642	56497
615.708	58521
615.774	63535
615.840	71845
615.906	91873
615.972	149584
616.038	306000
616.104	567214
616.170	1225941
616.236	959774
616.302	177861
616.368	115551
616.434	76945
616.500	70105
616.565	78342
616.631	100128
616.697	77869
616.763	82041
616.829	135731
616.895	258389
616.961	241791
617.026	92484
617.092	57259
617.158	52113
617.224	50958
617.289	46559
617.355	44236
617.421	42032
617.487	43057
617.552	40748
617.618	39121
617.684	39311
617.749	41765
617.815	38403
617.880	36295
617.946	38241
618.012	38485
618.077	39518
618.143	38364
618.208	37284
618.274	39529
618.339	41903
618.405	33722
618.470	35042
618.536	34574
618.601	34715
618.667	32634
618.732	31611
618.798	30669
618.863	30615
618.928	30180
618.994	31163
619.059	36263
619.124	47147
619.190	34653
619.255	28269
619.320	28794
619.386	29239
619.451	27574
619.516	27872
619.581	28575
619.647	29064
619.712	29403
619.777	28216
619.842	27936
619.907	29926
619.972	30177
620.038	29298
620.103	27626
620.168	28494
620.233	28590
620.298	28810
620.363	29783
620.428	30637
620.493	29678
620.558	30920
620.623	30498
620.688	30447
620.753	30617
620.818	30483
620.883	30843
620.948	30419
621.013	31402
621.078	30583
621.143	29885
621.207	33438
621.272	32080
621.337	31654
621.402	31243
621.467	31607
621.532	31046
621.596	31306
621.661	30080
621.726	28341
621.791	30171
621.855	29634
621.920	32034
621.985	29428
622.049	31221
622.114	29636
622.179	31253
622.243	30696
622.308	31808
622.373	33531
622.437	32621
622.502	30075
622.566	30732
622.631	28677
622.695	32313
622.760	31630
622.824	31503
622.889	32542
622.953	35502
623.018	51232
623.082	48213
623.147	34110
623.211	33959
623.276	33819
623.340	30073
623.404	29662
623.469	28831
623.533	30309
623.597	28381
623.662	29198
623.726	27038
623.790	25671
623.854	25065
623.919	26500
623.983	26077
624.047	26653
624.111	26296
624.176	27449
624.240	27114
624.304	29418
624.368	27408
624.432	27206
624.496	29625
624.560	34613
624.625	35827
624.689	29955
624.753	30499
624.817	29540
624.881	27946
624.945	26049
625.009	25013
625.073	25718
625.137	27197
625.201	36777
625.265	35639
625.329	27185
625.393	28892
625.456	27719
625.520	28246
625.584	28931
625.648	30561
625.712	31929
625.776	40535
625.839	40909
625.903	26651
625.967	23038
626.031	28673
626.095	32891
626.158	25772
626.222	19770
626.286	20971
626.349	18741
626.413	17781
626.477	21653
626.540	19174
626.604	17403
626.668	18563
626.731	17633
626.795	17535
626.858	17047
626.922	16121
626.986	18114
627.049	16172
627.113	18452
627.176	16598
627.240	17003
627.303	16668
627.366	16078
627.430	17090
627.493	17473
627.557	15814
627.620	18080
627.684	17352
627.747	18664
627.810	14525
627.874	15867
627.937	13867
628.000	17565
628.064	15642
628.127	11938
628.190	15006
628.253	13527
628.317	13016
628.380	13384
628.443	12705
628.506	12440
628.569	12058
628.632	11012
628.696	12026
628.759	10553
628.822	11069
628.885	10322
628.948	10644
629.011	11479
629.074	10835
629.137	10315
629.200	9367
629.263	11032
629.326	9947
629.389	9407
629.452	10399
629.515	10442
629.578	10137
629.641	10772
629.704	10790
629.767	11929
629.830	9772
629.892	10249
629.955	9120
630.018	12050
630.081	13060
630.144	17494
630.207	11239
630.269	12437
630.332	9065
630.395	10813
630.458	9293
630.520	8350
630.583	10034
630.646	9534
630.708	9440
630.771	8741
630.834	10743
630.896	8148
630.959	9724
631.021	9128
631.084	8462
631.146	9813
631.209	10246
631.272	8978
631.334	9519
631.397	10495
631.459	10477
631.522	11871
631.584	11323
631.646	13758
631.709	14781
631.771	18285
631.834	13814
631.896	12268
631.958	10543
632.021	10996
632.083	8686
632.145	10126
632.208	9919
632.270	10727
632.332	8453
632.395	8368
632.457	9254
632.519	7320
632.581	10456
632.643	7601
632.706	7738
632.768	7720
632.830	9799
632.892	8679
632.954	8190
633.016	9568
633.078	9134
633.141	8947
633.203	7982
633.265	9186
633.327	9134
633.389	8069
633.451	11362
633.513	13702
633.575	11697
633.637	13364
633.698	12385
633.760	10210
633.822	10265
633.884	11126
633.946	9894
634.008	10914
634.070	12772
634.132	17243
634.193	14840
634.255	15554
634.317	15392
634.379	16486
634.441	12855
634.502	11820
634.564	11120
634.626	10191
634.687	9623
634.749	9532
634.811	9350
634.873	8703
634.934	8640
634.996	9665
635.057	7999
635.119	8034
635.181	8231
635.242	9738
635.304	8998
635.365	11668
635.427	8640
635.488	10966
635.550	8478
635.611	9581
635.673	7641
635.734	11319
635.796	10265
635.857	13249
635.918	11862
635.980	15185
636.041	14377
636.102	16057
636.164	16933
636.225	16847
636.286	13014
636.348	13502
636.409	10848
636.470	8755
636.531	9552
636.593	7976
636.654	8444
636.715	7916
636.776	8558
636.838	7025
636.899	8552
636.960	7006
637.021	7015
637.082	7374
637.143	7760
637.204	7315
637.265	6869
637.326	7311
637.387	7786
637.448	5998
637.509	7332
637.570	6015
637.631	8063
637.692	6482
637.753	5335
637.814	6948
637.875	7094
637.936	7587
637.997	6991
638.058	6631
638.119	6338
638.179	6118
638.240	6194
638.301	6245
638.362	4916
638.423	4829
638.483	7400
638.544	4297
638.605	6823
638.666	5266
638.726	7025
638.787	7294
638.848	5951
638.908	5976
638.969	6371
639.030	5337
639.090	4564
639.151	5840
639.211	8440
639.272	12193
639.332	20013
639.393	10286
639.453	5981
639.514	6592
639.574	6887
639.635	5774
639.695	6760
639.756	5016
639.816	7887
639.877	9294
639.937	19226
639.997	24769
640.058	7146
640.118	5186
640.178	6441
640.239	6308
640.299	5877
640.359	6515
640.420	5990
640.480	7972
640.540	8481
640.600	7262
640.661	8269
640.721	8609
640.781	15152
640.841	11802
640.901	7073
640.961	6408
641.021	7972
641.082	9900
641.142	13941
641.202	9611
641.262	4526
641.322	5775
641.382	3898
641.442	5283
641.502	4734
641.562	5561
641.622	5459
641.682	5445
641.742	7046
641.802	7350
641.861	7160
641.921	6779
641.981	8741
642.041	7737
642.101	10360
642.161	5362
642.221	4716
642.280	4437
642.340	4842
642.400	4126
642.460	5807
642.519	4678
642.579	4824
642.639	5677
642.698	2345
642.758	7920
642.818	5649
642.877	4522
642.937	5470
642.997	8012
643.056	13213
643.116	6370
643.175	6359
643.235	5250
643.294	5805
643.354	7288
643.414	7265
643.473	9762
643.532	13139
643.592	19488
643.651	35994
643.711	68147
643.770	146118
643.830	382939
643.889	798804
643.948	152709
644.008	24089
644.067	14901
644.126	10306
644.186	8580
644.245	7884
644.304	5554
644.363	7723
644.423	4991
644.482	6323
644.541	6450
644.600	4669
644.659	9094
644.719	11029
644.778	17864
644.837	31909
644.896	71576
644.955	169834
645.014	47831
645.073	13454
645.132	7072
645.191	6391
645.250	5844
645.309	7040
645.368	7146
645.427	9737
645.486	16144
645.545	29169
645.604	7615
645.663	6945
645.722	6046
645.781	7791
645.840	8042
645.898	11986
645.957	18684
646.016	31281
646.075	63938
646.134	133141
646.192	385906
646.251	531524
646.310	62369
646.369	16410
646.427	13723
646.486	8258
646.545	8103
646.603	6238
646.662	6226
646.721	5537
646.779	6351
646.838	4979
646.896	8495
646.955	11175
647.014	17808
647.072	36298
647.131	104244
647.189	42430
647.248	6528
647.306	5849
647.365	5479
647.423	2141
647.481	5206
647.540	2996
647.598	3273
647.657	2942
647.715	4562
647.773	3035
647.832	4606
647.890	2261
647.948	2759
648.007	3826
648.065	3396
648.123	3183
648.181	5947
648.240	7284
648.298	5096
648.356	2915
648.414	3090
648.472	3652
648.531	3273
648.589	2241
648.647	3116
648.705	3159
648.763	3844
648.821	3613
648.879	3645
648.937	4878
648.995	5609
649.053	7652
649.111	13545
649.169	25329
649.227	48305
649.285	106700
649.343	318110
649.401	132306
649.459	39222
649.516	26140
649.574	21948
649.632	55106
649.690	60691
649.748	17916
649.806	22055
649.863	40817
649.921	74629
649.979	42138
650.037	6806
650.094	2925
650.152	4071
650.210	2820
650.268	4027
650.325	5227
650.383	7042
650.440	2536
650.498	3160
650.556	2629
650.613	1644
650.671	2413
650.728	2559
650.786	2656
650.843	4463
650.901	896
650.958	2110
651.016	1976
651.073	2608
651.131	2028
651.188	1976
651.246	1847
651.303	892
651.360	3308
651.418	1438
651.475	1886
651.532	1127
651.590	2842
651.647	1675
651.704	2183
651.762	1514
651.819	2693
651.876	2101
651.933	1659
651.990	2635
652.048	654
652.105	883
652.162	1529
652.219	1337
652.276	3251
652.333	2197
652.390	1174
652.448	2199
652.505	2211
652.562	2871
652.619	4148
652.676	9200
652.733	9648
652.790	2186
652.847	752
652.904	2210
652.961	686
653.017	623
653.074	2590
653.131	1051
653.188	1203
653.245	1803
653.302	1833
653.359	1149
653.415	1844
653.472	1110
653.529	2022
653.586	1109
653.642	583
653.699	1711
653.756	914
653.813	996
653.869	2361
653.926	582
653.983	1327
654.039	1527
654.096	2010
654.152	2473
654.209	486
654.266	1186
654.322	124
654.379	1390
654.435	2072
654.492	1892
654.548	3602
654.605	6225
654.661	3961
654.717	1496
654.774	1337
654.830	913
654.887	497
654.943	1996
655.000	3199
655.056	2212
655.112	1450
655.168	725
655.225	595
655.281	2019
655.337	1086
655.394	1849
655.450	1865
655.506	1989
655.562	1847
655.618	2869
655.675	446
655.731	1629
655.787	838
655.843	2044
655.899	681
655.955	1763
656.011	1666
656.067	492
656.123	2053
656.179	958
656.235	2879
656.291	576
656.347	1994
656.403	1495
656.459	1655
656.515	1796
656.571	1703
656.627	1513
656.683	1562
656.739	1406
656.795	1480
656.850	1567
656.906	3135
656.962	3181
657.018	741
657.074	2623
657.129	2070
657.185	2816
657.241	6682
657.297	3120
657.352	1550
657.408	777
657.464	2467
657.519	1338
657.575	-154
657.630	431
657.686	1859
657.742	-267
657.797	1094
657.853	923
657.908	1606
657.964	398
658.019	1531
658.075	786
658.130	1261
658.186	-92
658.241	1334
658.297	569
658.352	1223
658.407	992
658.463	1109
658.518	1783
658.573	512
658.629	968
658.684	347
658.739	1605
658.795	419
658.850	1241
658.905	127
658.960	1094
659.016	631
659.071	1515
659.126	1147
659.181	2771
659.236	5756
659.291	6089
659.346	1841
659.401	3554
659.457	4096
659.512	5769
659.567	3383
659.622	1017
659.677	352
659.732	1103
659.787	1192
659.842	732
659.897	538
659.952	1166
660.007	1249
660.061	1887
660.116	-646
660.171	210
660.226	980
660.281	1151
660.336	83
660.391	1355
660.445	419
660.500	935
660.555	1436
660.610	235
660.664	771
660.719	1215
660.774	1159
660.828	1406
660.883	533
660.938	1331
660.992	-343
661.047	613
661.101	621
661.156	657
661.211	47
661.265	1172
661.320	-418
661.374	1044
661.429	19
661.483	1270
661.538	723
661.592	986
661.647	1436
661.701	2457
661.755	1473
661.810	1127
661.864	412
661.919	596
661.973	1384
662.027	92
662.081	416
662.136	379
662.190	1007
662.244	1169
662.299	336
662.353	675
662.407	222
662.461	178
662.515	751
662.569	314
662.624	1483
662.678	447
662.732	213
662.786	388
662.840	1054
662.894	823
662.948	735
663.002	182
663.056	571
663.110	250
663.164	5
663.218	1065
663.272	620
663.326	1302
663.380	1395
663.434	418
663.488	-131
663.542	187
663.595	919
663.649	1265
663.703	1728
663.757	579
663.811	-109
663.864	605
663.918	977
663.972	1076
664.026	741
664.079	411
664.133	929
664.187	837
664.240	458
664.294	1182
664.348	1235
664.401	1479
664.455	804
664.508	822
664.562	784
664.615	-397
664.669	1451
664.722	1283
664.776	137
664.829	931
664.883	-95
664.936	305
664.990	1030
665.043	816
665.097	374
665.150	1690
665.203	24
665.257	175
665.310	1053
665.363	795
665.417	-267
665.470	898
665.523	-32
665.576	1134
665.630	300
665.683	968
665.736	709
665.789	976
665.842	539
665.895	594
665.949	490
666.002	945
666.055	800
666.108	1023
666.161	457
666.214	984
666.267	1167
666.320	1991
666.373	1400
666.426	1002
666.479	205
666.532	444
666.585	1068
666.638	1322
666.691	349
666.744	582
666.796	364
666.849	-157
666.902	1221
666.955	477
667.008	175
667.060	250
667.113	446
667.166	355
667.219	278
667.271	462
667.324	1054
667.377	585
667.430	928
667.482	2939
667.535	1316
667.587	1274
667.640	1092
667.693	1575
667.745	6252
667.798	5356
667.850	647
667.903	787
667.955	730
668.008	287
668.060	643
668.113	540
668.165	578
668.218	416
668.270	389
668.322	13
668.375	954
668.427	661
668.479	135
668.532	298
668.584	370
668.636	994
668.689	917
668.741	445
668.793	-85
668.845	188
668.898	710
668.950	719
669.002	-108
669.054	328
669.106	-742
669.158	1921
669.211	1326
669.263	1045
669.315	2755
669.367	3738
669.419	1323
669.471	2960
669.523	4714
669.575	7511
669.627	3678
669.679	1859
669.731	2343
669.783	2352
669.835	3569
669.886	2334
669.938	1213
669.990	576
670.042	433
670.094	939
670.146	290
670.197	1199
670.249	1969
670.301	1998
670.353	1506
670.404	3976
670.456	5488
670.508	9641
670.560	18142
670.611	34034
670.663	61378
670.715	161957
670.766	229808
670.818	43636
670.869	7310
670.921	4571
670.972	3168
671.024	1326
671.075	1957
671.127	1450
671.178	697
671.230	1673
671.281	1228
671.333	853
671.384	1086
671.436	1713
671.487	2351
671.538	4588
671.590	6780
671.641	11316
671.692	21636
671.744	41713
671.795	24385
671.846	7194
671.897	3038
671.949	1435
672.000	755
672.051	838
672.102	1166
672.153	509
672.204	570
672.256	1493
672.307	459
672.358	-23
672.409	432
672.460	221
672.511	825
672.562	68
672.613	488
672.664	763
672.715	-91
672.766	328
672.817	790
672.868	486
672.919	-15
672.970	271
673.021	55
673.071	-203
673.122	683
673.173	429
673.224	-445
673.275	231
673.326	640
673.376	326
673.427	-394
673.478	-250
673.528	-3
673.579	205
673.630	308
673.680	793
673.731	419
673.782	343
673.832	-231
673.883	165
673.934	-117
673.984	-632
674.035	-589
674.085	18
674.136	-269
674.186	-69
674.237	354
674.287	177
674.338	764
674.388	-277
674.438	359
674.489	300
674.539	197
674.589	157
674.640	513
674.690	-24
674.740	272
674.791	-207
674.841	-104
674.891	412
674.942	752
674.992	-69
675.042	-356
675.092	-240
675.142	-330
675.193	242
675.243	-1177
675.293	95
675.343	-226
675.393	-793
675.443	-267
675.493	-500
675.543	-822
675.593	-37
675.643	-208
675.693	-19
675.743	-675
675.793	-314
675.843	-581
675.893	-243
675.943	-48
675.993	-295
676.043	667
676.093	306
676.142	-190
676.192	-565
676.242	-877
676.292	-565
676.341	101
676.391	-744
676.441	-700
676.491	407
676.540	-468
676.590	-407
676.640	35
676.689	-671
676.739	-562
676.789	-64
676.838	-236
676.888	-75
676.937	-712
676.987	-93
677.037	-552
677.086	-241
677.136	-140
677.185	-105
677.235	-1103
677.284	-501
677.333	-763
677.383	-460
677.432	-534
677.482	-480
677.531	-377
677.580	-1199
677.630	-708
677.679	-1110
677.728	-272
677.778	200
677.827	-387
677.876	-634
677.925	-727
677.975	-236
678.024	-522
678.073	-996
678.122	-309
678.171	-986
678.220	-925
678.269	-132
678.319	-62
678.368	-614
678.417	26
678.466	-228
678.515	-379
678.564	238
678.613	-1143
678.662	-726
678.711	-934
678.760	-386
678.809	-683
678.857	-635
678.906	-563
678.955	-767
679.004	349
679.053	202
679.102	-662
679.151	-546
679.199	-627
679.248	-583
679.297	-925
679.346	-762
679.394	-1524
679.443	-924
679.492	-530
679.540	-1329
679.589	-303
679.638	-867
679.686	-669
679.735	190
679.784	-712
679.832	-228
679.881	-511
679.929	-1598
679.978	-857
680.026	-677
680.075	-972
680.123	-892
680.172	-461
680.220	-542
680.268	-41
680.317	-1124
680.365	-651
680.414	-710
680.462	-479
680.510	274
680.559	-1384
680.607	158
680.655	-1119
680.703	-706
680.752	-1224
680.800	-598
680.848	-813
680.896	-272
680.945	-917
680.993	-563
681.041	-1015
681.089	-495
681.137	-718
681.185	-382
681.233	-512
681.258	-779
681.281	-1052
681.329	-435
681.377	-1414
681.380	-1336
681.425	-294
681.473	-300
681.502	-195
681.521	-161
681.569	-303
681.617	-576
681.624	-520
681.665	-331
681.713	-528
681.745	-97
681.761	90
681.809	-325
681.857	416
681.867	192
681.904	-676
681.952	-427
681.989	-406
682.000	-426
682.048	-314
682.096	174
682.111	140
682.143	-17
682.191	-769
682.233	481
682.239	649
682.286	320
682.334	-364
682.354	-287
682.382	-230
682.430	151
682.476	540
682.477	531
682.525	405
682.572	237
682.598	133
682.620	37
682.667	216
682.715	561
682.720	620
682.763	956
682.810	454
682.841	633
682.857	676
682.905	845
682.952	19
682.963	218
683.000	864
683.047	798
683.085	1453
683.095	1605
683.142	149
683.190	1074
683.206	1015
683.237	914
683.284	1762
683.328	997
683.332	913
683.379	558
683.426	1033
683.449	981
683.473	883
683.521	723
683.568	910
683.571	939
683.615	1221
683.662	1385
683.693	1664
683.709	1769
683.757	898
683.804	2074
683.814	1858
683.851	1051
683.898	2097
683.936	1838
683.945	1772
683.992	1697
684.039	1825
684.057	1844
684.086	1827
684.133	2719
684.179	2525
684.180	2504
684.227	2588
684.274	3333
684.300	3337
684.321	3256
684.368	2653
684.415	2533
684.422	2541
684.462	2480
684.509	2217
684.543	2092
684.556	2039
684.603	2418
684.649	1621
684.665	1693
684.696	1908
684.743	2432
684.786	2171
684.790	2137
684.837	2456
684.883	2202
684.908	2192
684.930	2154
684.977	2544
685.023	1923
685.029	1983
685.070	2413
685.117	2943
685.150	3215
685.164	3293
685.210	2914
685.257	3078
685.272	3187
685.303	3412
685.350	3303
685.393	3461
685.396	3482
685.443	4041
685.490	4575
685.514	4576
685.536	4307
685.583	3805
685.629	3649
685.636	3674
685.675	3982
685.722	3626
685.757	3366
685.768	3245
685.815	3716
685.861	3685
685.878	3427
685.908	3089
685.954	3618
686.000	3952
686.000	3952
686.047	3694
686.093	4097
686.121	4451
686.139	4646
686.185	4226
686.232	4061
686.242	4156
686.278	4331
686.324	3904
686.363	4244
686.370	4310
686.416	3682
686.463	4233
686.484	4034
686.509	3975
686.555	3645
686.601	4262
686.606	4310
686.647	4289
686.693	3570
686.727	3729
686.739	3864
686.785	4010
686.831	4270
686.848	4155
686.877	3942
686.923	3637
686.969	3631
686.969	3630
687.015	4136
687.061	4375
687.090	4232
687.107	4180
687.153	4083
687.199	4867
687.211	4627
687.245	3957
687.291	4372
687.332	3925
687.336	3893
687.382	5127
687.428	4777
687.453	4793
687.474	4661
687.520	4934
687.565	4493
687.574	4499
687.611	5010
687.657	5711
687.695	5991
687.702	6121
687.748	7480
687.794	9129
687.816	9108
687.839	8104
687.885	7012
687.931	5752
687.937	5599
687.976	5464
688.022	5654
688.058	5006
688.067	4885
688.113	5000
688.158	4962
688.179	5063
688.204	5164
688.249	4970
688.295	5407
688.300	5380
688.340	5386
688.386	5249
688.421	5386
688.431	5404
688.477	5221
688.522	5430
688.542	5412
688.567	5465
688.613	5300
688.658	5411
688.663	5443
688.703	5523
688.749	5195
688.784	5261
688.794	5337
688.839	5320
688.884	5554
688.905	5612
688.930	5580
688.975	5800
689.020	5421
689.026	5359
689.065	5223
689.110	5637
689.146	5707
689.155	5684
689.201	5861
689.246	5886
689.267	5706
689.291	5683
689.336	6174
689.381	6093
689.388	6086
689.426	5656
689.471	5562
689.509	5351
689.516	5391
689.561	5303
689.606	5874
689.630	5774
689.651	5675
689.696	5725
689.741	6148
689.750	6073
689.785	5856
689.830	5988
689.871	6539
689.875	6576
689.920	6105
689.965	5465
689.992	5542
690.010	5723
690.054	5786
690.099	6013
690.112	5968
690.144	5941
690.189	5750
690.233	6003
690.233	6014
690.278	5884
690.323	5679
690.354	5763
690.367	5809
690.412	6050
690.457	5289
690.474	5399
690.501	5773
690.546	5827
690.590	6167
690.595	6177
690.635	6306
690.680	6479
690.716	6366
690.724	6384
690.769	7029
690.813	7186
690.836	7170
690.857	7303
690.902	8178
690.946	8540
690.957	8627
690.991	9749
691.035	12050
691.077	13755
691.080	13793
691.124	13097
691.168	13471
691.198	13250
691.213	12629
691.257	11239
691.301	9460
691.318	8845
691.346	8588
691.390	7873
691.434	7487
691.439	7377
691.478	7254
691.522	7797
691.559	8008
691.567	8016
691.611	7786
691.655	7397
691.680	7292
691.699	7272
691.743	7176
691.787	7321
691.800	7224
691.831	7170
691.875	7548
691.919	7642
691.921	7628
691.964	7689
692.008	7764
692.041	7696
692.052	7699
692.096	7834
692.139	7756
692.162	7938
692.183	8013
692.227	7702
692.271	7493
692.282	7405
692.315	7239
692.359	7142
692.402	6948
692.403	6967
692.447	7367
692.490	7705
692.523	7672
692.534	7676
692.578	8007
692.622	7867
692.643	8070
692.666	8032
692.709	7858
692.753	7074
692.763	7019
692.797	7399
692.840	7663
692.884	8153
692.884	8174
692.928	8216
692.971	8040
693.004	8046
693.015	8038
693.059	8058
693.102	7984
693.124	7722
693.146	7650
693.189	7953
693.233	8148
693.245	8199
693.276	8387
693.320	8545
693.363	8569
693.365	8553
693.407	8794
693.450	9163
693.485	9093
693.493	9178
693.537	9923
693.580	10403
693.605	10711
693.624	11146
693.667	12271
693.710	13271
693.725	13570
693.753	16146
693.797	20228
693.840	24527
693.845	24938
693.883	24197
693.926	23364
693.966	22573
693.970	22285
694.013	18912
694.056	15465
694.086	13180
694.099	12977
694.142	11806
694.185	11151
694.206	10677
694.229	10422
694.272	10027
694.315	9521
694.326	9321
694.358	9775
694.401	10850
694.444	11567
694.446	11564
694.487	10976
694.530	10534
694.566	10302
694.573	10268
694.616	9682
694.659	9181
694.686	8927
694.702	8949
694.745	8598
694.787	8556
694.806	8404
694.830	8562
694.873	8990
694.916	9178
694.926	9258
694.959	9308
695.002	9217
695.044	9098
695.046	9076
695.087	9348
695.130	9437
695.166	9408
695.172	9409
695.215	9370
695.258	9184
695.286	9172
695.301	9330
695.343	9611
695.386	9957
695.406	10004
695.428	9766
695.471	9368
695.514	8972
695.526	8868
695.556	9071
695.599	9283
695.641	9311
695.646	9291
695.684	9288
695.726	9305
695.766	9476
695.769	9505
695.811	9360
695.854	9193
695.886	9195
695.896	9287
695.938	9149
695.981	9210
696.005	9335
696.023	9432
696.065	9275
696.108	9390
696.125	9328
696.150	9346
696.192	9535
696.235	9560
696.245	9559
696.277	9658
696.319	9647
696.361	9877
696.365	9845
696.404	9530
696.446	9242
696.485	9048
696.488	9109
696.530	9419
696.572	9774
696.604	10000
696.614	9992
696.656	9907
696.698	9905
696.724	9779
696.740	9778
696.783	9791
696.825	9698
696.844	9646
696.867	9704
696.909	9695
696.951	9856
696.964	9874
696.992	9991
697.034	9873
697.076	10084
697.083	10050
697.118	10043
697.160	10077
697.202	10076
697.203	10048
697.244	10389
697.286	10714
697.323	10796
697.327	10810
697.369	10861
697.411	10778
697.442	10798
697.453	10894
697.494	10913
697.536	11162
697.562	11218
697.578	11230
697.620	11211
697.661	11183
697.682	11107
697.703	11311
697.744	11735
697.786	12145
697.801	12242
697.828	12306
697.869	12365
697.911	12433
697.921	12400
697.952	11914
697.994	11284
698.035	10662
698.040	10550
698.077	10594
698.118	10640
698.160	10658
698.160	10626
698.201	10829
698.243	10960
698.279	11071
698.284	11105
698.325	11119
698.367	11112
698.399	11075
698.408	11077
698.449	10933
698.491	10789
698.518	10653
698.532	10809
698.573	11198
698.614	11587
698.638	11778
698.656	11688
698.697	11394
698.738	11112
698.757	10935
698.779	11072
698.820	11288
698.862	11494
698.877	11544
698.903	11621
698.944	11673
698.985	11725
698.996	11707
699.026	11616
699.067	11444
699.116	11206
699.235	11490
699.354	11178
699.474	11126
699.593	11173
699.713	12620
699.832	11488
699.951	13107
700.070	11898
700.190	11626
700.309	11120
700.428	11330
700.547	11575
700.667	11292
700.786	11559
700.905	11107
701.024	11880
701.143	10611
701.262	10537
701.381	10187
701.500	11201
701.619	13531
701.738	10755
701.857	11042
701.976	10836
702.095	10346
702.214	12448
702.333	13164
702.452	10991
702.571	10936
702.690	11023
702.809	10710
702.928	9952
703.047	10860
703.165	9608
703.284	10036
703.403	9832
703.522	11538
703.640	10683
703.759	11748
703.878	13369
703.997	10531
704.115	10453
704.234	10334
704.353	9583
704.471	9607
704.590	9124
704.708	9613
704.827	9303
704.946	9126
705.064	9330
705.183	9766
705.301	9274
705.420	11369
705.538	12289
705.656	11191
705.775	15307
705.893	41358
706.012	52367
706.130	11214
706.249	10908
706.367	10554
706.485	10550
706.604	10584
706.722	12478
706.840	14075
706.958	19513
707.077	13756
707.195	9505
707.313	10102
707.431	8849
707.549	9138
707.668	8848
707.786	8763
707.904	9485
708.022	8389
708.140	8808
708.258	9939
708.376	9679
708.494	9093
708.612	9837
708.730	11459
708.848	11581
708.966	11885
709.084	11997
709.202	10562
709.320	9401
709.438	10665
709.556	9858
709.674	9798
709.791	9547
709.909	10315
710.027	9796
710.145	9697
710.263	10139
710.380	9774
710.498	9630
710.616	9843
710.733	9232
710.851	9176
710.969	8737
711.086	9429
711.204	9527
711.322	9682
711.439	9795
711.557	9524
711.674	8965
711.792	9449
711.909	11775
712.027	15124
712.144	9923
712.262	8943
712.379	9171
712.497	10977
712.614	11893
712.732	10368
712.849	10245
712.966	11776
713.084	13706
713.201	11044
713.318	9391
713.436	10192
713.553	10011
713.670	10805
713.787	11156
713.905	10801
714.022	9901
714.139	11033
714.256	12962
714.373	17166
714.490	29950
714.608	77773
714.725	338023
714.842	335446
714.959	24344
715.076	13106
715.193	10823
715.310	11637
715.427	9957
715.544	9745
715.661	9275
715.778	9745
715.895	9754
716.011	9466
716.128	9576
716.245	9794
716.362	12275
716.479	13872
716.596	9979
716.713	9253
716.829	9470
716.946	8991
717.063	8690
717.180	8737
717.296	8410
717.413	8650
717.530	7954
717.646	8605
717.763	8056
717.880	8151
717.996	7444
718.113	8930
718.229	8369
718.346	7784
718.462	8558
718.579	12453
718.695	22616
718.812	14002
718.928	9656
719.045	8448
719.161	8144
719.277	8498
719.394	8477
719.510	8934
719.626	8400
719.743	10003
719.859	12130
719.975	22790
720.092	85668
720.208	193865
720.324	23411
720.440	9915
720.557	10800
720.673	17542
720.789	16531
720.905	20608
721.021	9369
721.137	8046
721.253	7209
721.369	7502
721.486	7280
721.602	9320
721.718	6639
721.834	6914
721.950	7970
722.066	7570
722.181	7365
722.297	8112
722.413	6747
722.529	6946
722.645	6502
722.761	7015
722.877	6080
722.993	6739
723.108	7558
723.224	6953
723.340	7329
723.456	7746
723.571	6032
723.687	6987
723.803	6436
723.918	6025
724.034	6259
724.150	5715
724.265	6552
724.381	10130
724.497	11529
724.612	6199
724.728	5744
724.843	6550
724.959	6332
725.074	9817
725.190	10315
725.305	6506
725.421	6259
725.536	5091
725.651	5576
725.767	5815
725.882	5757
725.997	6210
726.113	5980
726.228	5412
726.343	5707
726.459	5291
726.574	5297
726.689	5325
726.804	5450
726.920	5497
727.035	5389
727.150	5635
727.265	5433
727.380	6247
727.495	5924
727.610	6203
727.725	6678
727.841	9300
727.956	25097
728.071	17664
728.186	6481
728.301	4770
728.416	6203
728.531	5996
728.645	5984
728.760	7271
728.875	7516
728.990	8079
729.105	7022
729.220	7190
729.335	6954
729.449	5386
729.564	4983
729.679	4883
729.794	4669
729.908	4924
730.023	5146
730.138	4282
730.253	5244
730.367	4932
730.482	4429
730.596	5600
730.711	5144
730.826	6357
730.940	7384
731.055	5573
731.169	5769
731.284	4474
731.398	5229
731.513	5097
731.627	4596
731.742	5950
731.856	6028
731.970	6508
732.085	7408
732.199	9331
732.313	13988
732.428	32771
732.542	94758
732.656	50993
732.771	10751
732.885	6850
732.999	6082
733.113	6282
733.227	5321
733.342	4914
733.456	4539
733.570	5201
733.684	5175
733.798	4458
733.912	4389
734.026	4536
734.140	5127
734.254	4565
734.368	6578
734.482	7344
734.596	5187
734.710	4863
734.824	5061
734.938	4725
735.052	5378
735.166	5525
735.280	5757
735.393	4580
735.507	4772
735.621	5273
735.735	6178
735.849	4278
735.962	4710
736.076	5150
736.190	4608
736.303	5327
736.417	7047
736.531	4927
736.644	4804
736.758	4538
736.872	4347
736.985	3677
737.099	4183
737.212	4315
737.326	5148
737.439	5074
737.553	4574
737.666	4878
737.780	4083
737.893	4442
738.007	3980
738.120	4610
738.233	4985
738.347	4000
738.460	4430
738.573	5336
738.687	5175
738.800	5267
738.913	7158
739.026	6713
739.140	5498
739.253	5053
739.366	4085
739.479	3631
739.592	3218
739.705	3530
739.818	4528
739.932	4473
740.045	3990
740.158	3496
740.271	3626
740.384	4222
740.497	5291
740.610	5273
740.723	5912
740.836	6358
740.949	6477
741.062	8105
741.174	6372
741.287	4737
741.400	4453
741.513	5432
741.626	7010
741.739	5853
741.851	4845
741.964	4623
742.077	3966
742.189	5007
742.302	5164
742.415	6421
742.527	5043
742.640	4322
742.753	4634
742.865	3544
742.978	3592
743.090	3543
743.203	3669
743.316	3881
743.428	3277
743.541	3453
743.653	3253
743.766	3746
743.878	3733
743.990	3630
744.103	4572
744.215	4062
744.327	4218
744.440	5025
744.552	8694
744.664	5476
744.777	3578
744.889	3039
745.001	4287
745.113	3080
745.226	3864
745.338	3697
745.450	3683
745.562	2625
745.674	2972
745.786	2967
745.898	3539
746.010	3256
746.122	3077
746.234	2909
746.347	2793
746.459	2963
746.570	3279
746.682	3399
746.794	3579
746.906	3151
747.018	2407
747.130	2292
747.242	2764
747.354	3015
747.466	3578
747.577	2972
747.689	3642
747.801	3066
747.913	2876
748.024	2431
748.136	3178
748.248	1906
748.359	3269
748.471	3518
748.583	3659
748.694	4310
748.806	5694
748.918	3372
749.029	3793
749.141	4264
749.252	3431
749.364	4974
749.475	10281
749.587	5977
749.698	2528
749.809	3268
749.921	3309
750.032	2914
750.144	2250
750.255	2632
750.366	2373
750.478	2563
750.589	3239
750.700	3134
750.811	3647
750.923	4858
751.034	11934
751.145	12583
751.256	3321
751.367	3455
751.479	2590
751.590	3050
751.701	3114
751.812	2557
751.923	2536
752.034	3352
752.145	2055
752.256	2331
752.367	2055
752.478	3074
752.589	3097
752.700	2587
752.811	2780
752.922	1737
753.032	2312
753.143	4641
753.254	1453
753.365	3373
753.476	2699
753.586	2564
753.697	2746
753.808	2223
753.919	2370
754.029	2399
754.140	2204
754.251	2557
754.361	1507
754.472	1924
754.582	2277
754.693	2587
754.804	2502
754.914	2385
755.025	2141
755.135	1998
755.246	1897
755.356	2184
755.466	2838
755.577	2475
755.687	2683
755.798	2305
755.908	2877
756.018	1895
756.129	2048
756.239	2354
756.349	2211
756.460	2973
756.570	2866
756.680	2027
756.790	3083
756.900	4048
757.011	2481
757.121	1918
757.231	1801
757.341	2058
757.451	2383
757.561	1688
757.671	2137
757.781	1801
757.891	2665
758.001	2226
758.111	3090
758.221	3053
758.331	3155
758.441	3286
758.551	5298
758.661	4401
758.771	2803
758.880	2391
758.990	2643
759.100	2840
759.210	2691
759.320	2412
759.429	2667
759.539	3389
759.649	2516
759.758	2657
759.868	3274
759.978	2379
760.087	3456
760.197	3288
760.307	3398
760.416	3009
760.526	1904
760.635	2974
760.745	3052
760.854	3874
760.964	3984
761.073	3362
761.182	3308
761.292	3763
761.401	2831
761.511	3029
761.620	2437
761.729	2869
761.839	2022
761.948	3536
762.057	3469
762.166	2668
762.276	1160
762.385	3339
762.494	2574
762.603	3512
762.712	3300
762.822	2987
762.931	1887
763.040	1750
763.149	2082
763.258	2884
763.367	2939
763.476	2788
763.585	2869
763.694	3449
763.803	3910
763.912	3847
764.021	3491
764.130	2798
764.238	2886
764.347	3475
764.456	3599
764.565	3248
764.674	4069
764.783	4522
764.891	3919
765.000	5004
765.109	5842
765.217	5963
765.326	7344
765.435	8484
765.543	9754
765.652	11501
765.761	13212
765.869	19202
765.978	31404
766.086	54234
766.195	106351
766.303	273060
766.412	722005
766.520	682874
766.629	200530
766.737	70896
766.846	38778
766.954	25284
767.062	20177
767.171	20213
767.279	12656
767.387	8765
767.496	8023
767.604	6652
767.712	6791
767.820	5670
767.928	5730
768.037	4613
768.145	5907
768.253	5280
768.361	4578
768.469	4436
768.577	4668
768.685	5388
768.793	5568
768.901	5035
769.009	6077
769.117	7439
769.225	9299
769.333	13014
769.441	20402
769.549	39861
769.657	91113
769.765	296242
769.873	638525
769.981	253582
770.088	54423
770.196	24583
770.304	16593
770.412	12682
770.519	9338
770.627	7728
770.735	5874
770.842	5761
770.950	4431
771.058	4406
771.165	3843
771.273	4613
771.380	3902
771.488	4255
771.595	3389
771.703	3413
771.810	3860
771.918	2862
772.025	3138
772.133	3144
772.240	3393
772.348	3949
772.455	3962
772.562	2320
772.670	3424
772.777	3047
772.884	3038
772.991	3829
773.099	2781
773.206	2089
773.313	3374
773.420	2662
773.528	1637
773.635	1674
773.742	2899
773.849	2910
773.956	2583
774.063	2595
774.170	2116
774.277	2911
774.384	1580
774.491	2452
774.598	2568
774.705	2755
774.812	4361
774.919	3441
775.026	2542
775.133	2755
775.239	1639
775.346	1993
775.453	1629
775.560	1777
775.667	2976
775.773	1549
775.880	2961
775.987	2372
776.093	2106
776.200	2153
776.307	1734
776.413	2630
776.520	1433
776.627	2212
776.733	2376
776.840	1524
776.946	2512
777.053	3407
777.159	3470
777.266	1753
777.372	4346
777.478	2806
777.585	3037
777.691	2717
777.798	2903
777.904	4120
778.010	6610
778.117	5276
778.223	2633
778.329	2410
778.435	1856
778.542	2658
778.648	2283
778.754	2042
778.860	2287
778.966	2714
779.072	2105
779.178	1577
779.284	2089
779.391	1689
779.497	1613
779.603	3859
779.708	1712
779.815	4992
779.920	12755
780.026	28657
780.132	4696
780.238	2743
780.344	1694
780.450	2847
780.556	1920
780.661	1892
780.767	2923
780.873	1201
780.979	3124
781.085	1770
781.190	2668
781.296	1747
781.402	1726
781.507	1272
781.613	1344
781.719	1494
781.824	1817
781.930	3150
782.035	2084
782.141	1827
782.246	1519
782.352	2039
782.457	1359
782.563	1666
782.668	1138
782.773	1669
782.879	848
782.984	2334
783.090	3349
783.195	5403
783.300	3707
783.405	2203
783.511	1764
783.616	2147
783.721	1343
783.826	1914
783.932	2712
784.037	1680
784.142	1648
784.247	2076
784.352	2109
784.457	1456
784.562	2036
784.667	1377
784.772	2223
784.877	971
784.982	1314
785.087	1268
785.192	2447
785.297	2334
785.402	1727
785.507	1757
785.611	2066
785.716	1838
785.821	2090
785.926	1260
786.031	1183
786.135	762
786.240	1518
786.345	823
786.450	1769
786.554	1706
786.659	434
786.763	-46
786.868	1989
786.973	2060
787.077	804
787.182	1713
787.286	1578
787.391	2363
787.495	1111
787.600	1254
787.704	1286
787.809	1266
787.913	1129
788.017	1185
788.122	1662
788.226	962
788.330	636
788.435	702
788.539	995
788.643	830
788.747	944
788.852	892
788.956	404
789.060	2349
789.164	902
789.268	1284
789.372	1963
789.476	1040
789.580	187
789.684	873
789.788	1909
789.892	762
789.996	1540
790.100	573
790.204	174
790.308	1885
790.412	487
790.516	2501
790.620	2090
790.724	1650
790.828	1034
790.931	630
791.035	1645
791.139	843
791.242	385
791.346	1951
791.450	651
791.554	756
791.657	485
791.761	1352
791.864	1698
791.968	1280
792.072	1252
792.175	1269
792.279	1042
792.382	1542
792.486	1241
792.589	301
792.693	1237
792.796	399
792.899	1280
793.003	2357
793.106	108
793.209	1262
793.313	2210
793.416	1143
793.519	2446
793.623	4018
793.726	5025
793.829	2131
793.932	869
794.035	-531
794.138	2145
794.242	1469
794.345	1039
794.448	2485
794.551	4023
794.654	8664
794.757	12769
794.860	3301
794.963	1490
795.066	682
795.169	1574
795.272	366
795.375	828
795.477	554
795.580	1588
795.683	-311
795.786	1371
795.889	-320
795.991	1039
796.094	2353
796.197	82
796.300	2096
796.402	-61
796.505	654
796.608	295
796.710	1964
796.813	563
796.915	481
797.018	739
797.120	944
797.223	-95
797.326	2479
797.428	842
797.530	702
797.633	477
797.735	1972
797.838	471
797.940	1347
798.042	694
798.145	314
798.247	1113
798.349	10
798.452	1329
798.554	505
798.656	-101
798.758	1776
798.860	366
798.962	239
799.065	882
799.167	-16
799.269	2614
799.371	1941
799.473	1257
799.575	6
799.677	865
799.779	3085
799.881	2427
799.983	2740
800.085	60
800.187	1562
800.289	-235
800.390	717
800.492	809
800.594	2100
800.696	-142
800.798	1426
800.899	486
801.001	303
801.103	-136
801.205	394
801.306	737
801.408	-590
801.509	196
801.611	1037
801.713	184
801.814	906
801.916	785
802.017	528
802.119	-96
802.220	735
802.322	-938
802.423	2111
802.525	-468
802.626	1085
802.727	1122
802.829	1689
802.930	-1320
803.031	2015
803.133	323
803.234	567
803.335	947
803.436	594
803.538	811
803.639	342
803.740	807
803.841	322
803.942	435
804.043	612
804.144	527
804.245	930
804.346	127
804.447	770
804.548	2321
804.649	3213
804.750	672
804.851	327
804.952	228
805.053	227
805.154	-1176
805.255	1233
805.355	685
805.456	275
805.557	-629
805.658	-547
805.758	861
805.859	177
805.960	756
806.061	25
806.161	712
806.262	119
806.362	-294
806.463	701
806.564	1482
806.664	705
806.765	524
806.865	786
806.966	-107
807.066	-134
807.166	1022
807.267	1381
807.367	482
807.468	1147
807.568	131
807.668	973
807.769	1525
807.869	632
807.969	783
808.069	836
808.170	578
808.270	782
808.370	1242
808.470	1335
808.570	328
808.670	1181
808.770	1284
808.870	-247
808.970	1250
809.070	584
809.170	-139
809.271	984
809.370	513
809.470	606
809.570	89
809.670	77
809.770	731
809.870	337
809.970	-489
810.070	39
810.169	403
810.269	-1027
810.369	1329
810.469	-201
810.568	79
810.668	397
810.768	657
810.867	1115
810.967	470
811.066	375
811.166	26
811.265	1356
811.365	-71
811.464	1402
811.564	1294
811.663	705
811.763	14
811.862	1772
811.962	988
812.061	588
812.160	-113
812.260	1358
812.359	-7
812.458	202
812.557	1437
812.657	2000
812.756	1161
812.855	1078
812.954	417
813.053	1316
813.153	1058
813.252	128
813.351	458
813.450	886
813.549	703
813.648	1666
813.747	813
813.846	1916
813.945	811
814.044	1308
814.143	1626
814.242	1576
814.341	502
814.439	2176
814.538	1266
814.637	1309
814.736	1244
814.835	2133
814.933	824
815.032	2433
815.131	2198
815.229	1297
815.328	2263
815.427	1397
815.525	2385
815.624	2938
815.722	1554
815.821	3228
815.919	2550
816.018	2397
816.116	3402
816.215	3745
816.313	2433
816.412	3273
816.510	4065
816.609	4688
816.707	5165
816.805	4735
816.904	4575
817.002	6705
817.100	7298
817.198	7805
817.296	8020
817.395	10375
817.493	13529
817.591	14405
817.689	21003
817.787	28291
817.885	46534
817.983	79977
818.081	159337
818.179	356827
818.277	779141
818.375	720723
818.473	274079
818.571	115603
818.669	72835
818.767	59221
818.865	58737
818.963	69300
819.061	94534
819.158	153676
819.256	295486
819.354	614740
819.452	1057004
819.549	827879
819.647	355229
819.745	163051
819.842	94253
819.940	64498
820.038	44698
820.135	34196
820.233	27083
820.330	21393
820.428	17223
820.525	15548
820.623	12857
820.720	10788
820.818	11269
820.915	9282
821.012	8339
821.110	5485
821.207	7104
821.304	5599
821.402	6187
821.499	6196
821.596	6001
821.693	5201
821.791	5190
821.888	6621
821.985	8957
822.082	7113
822.179	4068
822.276	3141
822.373	3484
822.470	2841
822.567	2922
822.664	1895
822.761	2779
822.858	1305
822.955	2422
823.052	2317
823.149	2278
823.246	1990
823.343	1159
823.440	1996
823.536	1077
823.633	1028
823.730	669
823.827	1916
823.923	1139
824.020	3332
824.117	339
824.213	1233
824.310	1220
824.407	594
824.503	1550
824.600	1657
824.696	1320
824.793	1737
824.889	411
824.986	791
825.082	624
825.179	1634
825.275	758
825.371	380
825.468	1313
825.564	566
825.660	740
825.757	1325
825.853	1098
825.949	-93
826.045	1498
826.142	331
826.238	376
826.334	698
826.430	-629
826.526	1237
826.622	622
826.718	1021
826.814	-163
826.910	1377
827.006	-615
827.102	501
827.198	1366
827.294	417
827.390	754
827.486	892
827.582	-330
827.678	206
827.774	1065
827.869	-1054
827.965	915
828.061	-327
828.157	-86
828.252	1249
828.348	298
828.444	556
828.539	83
828.635	-51
828.731	1171
828.826	-62
828.922	421
829.017	315
829.113	675
829.208	516
829.304	-266
829.399	1920
829.495	-118
829.590	1292
829.685	-120
829.781	442
829.876	-572
829.971	750
830.066	-214
830.162	626
830.257	-669
830.352	16
830.447	1834
830.543	660
830.638	-1355
830.733	1013
830.828	-44
830.923	999
831.018	75
831.113	286
831.208	202
831.303	75
831.398	-566
831.493	-493
831.588	295
831.683	-282
831.778	-475
831.873	-640
831.967	1715
832.062	528
832.157	-563
832.252	988
832.346	-340
832.441	940
832.536	1931
832.631	5315
832.725	3726
832.820	635
832.914	423
833.009	240
833.104	223
833.198	1772
833.293	-946
833.387	334
833.482	75
833.576	-141
833.670	905
833.765	1028
833.859	-187
833.954	787
834.048	308
834.142	429
834.237	-1114
834.331	229
834.425	127
834.519	-1033
834.613	90
834.708	935
834.802	357
834.896	-278
834.990	-263
835.084	-24
835.178	407
835.272	-563
835.366	-631
835.460	629
835.554	820
835.648	-327
835.742	-478
835.836	341
835.930	-861
836.024	-280
836.117	317
836.211	-182
836.305	120
836.399	629
836.493	-897
836.586	383
836.680	-928
836.774	-618
836.867	889
836.961	-822
837.055	-1241
837.148	-685
837.242	98
837.335	-422
837.429	376
837.522	-490
837.616	-618
837.709	708
837.803	-638
837.896	-177
837.989	-1153
838.083	-136
838.176	679
838.269	135
838.363	399
838.456	-230
838.549	1388
838.642	2003
838.735	5090
838.829	2221
838.922	-375
839.015	0
839.108	-1242
839.201	568
839.294	-407
839.387	-185
839.480	-616
839.573	304
839.666	307
839.759	250
839.852	-1249
839.945	-371
840.038	-764
840.131	-406
840.223	-321
840.316	476
840.409	-310
840.502	-1241
840.594	898
840.687	-1306
840.780	249
840.873	-1005
840.965	-21
841.058	242
841.150	486
841.243	-1
841.336	464
841.428	35
841.521	-1359
841.613	-491
841.706	-837
841.798	-772
841.890	46
841.983	-1040
842.075	515
842.167	-187
842.260	-485
842.352	146
842.444	321
842.537	402
842.629	825
842.721	-414
842.813	-243
842.905	-879
842.997	206
843.090	-201
843.182	-24
843.274	172
843.366	1807
843.458	4353
843.550	3213
843.642	-501
843.734	155
843.826	-685
843.918	610
844.009	551
844.101	-1102
844.193	-141
844.285	16
844.377	-59
844.469	325
844.560	43
844.652	172
844.744	753
844.835	-328
844.927	-618
845.019	-519
845.110	-684
845.202	706
845.293	-482
845.385	-943
845.476	-555
845.568	602
845.659	-772
845.751	-363
845.842	-894
845.934	-406
846.025	-112
846.116	-612
846.208	-383
846.299	-996
846.390	-769
846.482	-849
846.573	321
846.664	636
846.755	262
846.846	864
846.937	-1930
847.029	-543
847.120	-558
847.211	-1117
847.302	-181
847.393	-1650
847.484	97
847.575	-569
847.666	-363
847.757	-297
847.847	-46
847.938	613
848.029	-1043
848.120	-771
848.211	-873
848.302	-989
848.392	-433
848.483	-121
848.574	-1085
848.664	-814
848.755	237
848.846	-616
848.936	-1184
849.027	-910
849.118	-654
849.208	-732
849.299	548
849.389	1247
849.480	3450
849.570	7749
849.661	16039
849.751	27101
849.841	9247
849.932	599
850.022	-102
850.112	446
850.203	-314
850.293	-467
850.383	-42
850.474	-1013
850.564	-1072
850.654	-104
850.744	-190
850.834	-360
850.924	-578
851.014	508
851.104	-1248
851.194	-717
851.284	322
851.374	1064
851.464	-188
851.554	-578
851.644	-694
851.734	956
851.824	202
851.914	-1111
852.004	-653
852.094	-1262
852.183	-213
852.273	176
852.363	-622
852.452	-956
852.542	-531
852.632	-881
852.721	-1
852.811	-395
852.901	-664
852.990	-421
853.080	22
853.169	-244
853.259	-290
853.348	-317
853.438	1117
853.527	1381
853.617	2204
853.706	5869
853.795	12606
853.885	31046
853.974	58793
854.063	108023
854.152	173064
854.242	62408
854.331	9192
854.420	2746
854.509	2561
854.598	1832
854.687	461
854.777	541
854.866	695
854.955	1081
855.044	371
855.133	159
855.222	-297
855.311	-448
855.400	81
855.488	-778
855.577	-995
855.666	33
855.755	1071
855.844	471
855.933	1590
856.021	-208
856.110	854
856.199	-512
856.288	63
856.376	-321
856.465	-623
856.554	-327
856.642	-215
856.731	-299
856.819	-69
856.908	-1079
856.996	-1130
857.085	-999
857.173	-372
857.262	-570
857.350	-88
857.438	14
857.527	-851
857.615	-1111
857.703	69
857.792	-1205
857.880	-783
857.968	-668
858.056	411
858.145	-321
858.233	-425
858.321	-1246
858.409	417
858.497	-1059
858.585	-618
858.673	-487
858.761	-1316
858.849	-1415
858.937	-131
859.025	-355
859.113	-21
859.201	-1023
859.289	641
859.377	-933
859.465	-585
859.552	-396
859.640	-45
859.728	-173
859.816	-640
859.903	-878
859.991	-770
860.079	-457
860.166	-863
860.254	-638
860.342	-688
860.429	-807
860.517	-1302
860.604	-1011
860.692	-389
860.779	-1342
860.867	-764
860.954	-1084
861.042	-232
861.129	-585
861.216	-112
861.304	-875
861.391	-584
861.478	-260
861.565	86
861.653	-281
861.740	-638
861.827	-222
861.914	-45
862.001	-306
862.089	-363
862.176	-813
862.263	-845
862.350	-1515
862.437	-1344
862.524	-640
862.611	-784
862.698	-869
862.785	-877
862.871	-288
862.958	-1140
863.045	-1004
863.132	-150
863.219	-754
863.306	-1871
863.392	-65
863.479	-129
863.566	-916
863.652	-314
863.739	-1093
863.826	-122
863.912	-485
863.999	-1233
864.086	-789
864.172	-295
864.259	-989
864.345	89
864.432	-248
864.518	-883
864.604	-46
864.691	-19
864.777	-841
864.863	199
864.950	-532
865.036	210
865.122	81
865.209	361
865.295	-276
865.381	641
865.467	1062
865.553	1939
865.639	1623
865.726	5396
865.812	13004
865.898	28202
865.984	41526
866.070	79404
866.156	83931
866.242	20674
866.328	3778
866.414	498
866.499	310
866.585	1131
866.671	313
866.757	1189
866.843	872
866.928	-669
867.014	-21
867.100	539
867.186	-57
867.271	262
867.357	1532
867.442	701
867.528	-115
867.614	-356
867.699	-316
867.785	155
867.870	91
867.956	-204
868.041	-372
868.127	112
868.212	1065
868.297	-35
868.383	93
868.468	929
868.553	1652
868.639	1727
868.724	6548
868.809	6048
868.894	523
868.979	-31
869.065	-605
869.150	-1233
869.235	-670
869.320	-1064
869.405	-816
869.490	-890
869.575	-530
869.660	-966
869.745	508
869.830	-1056
869.915	-816
870.000	-791
870.085	-840
870.169	-771
870.254	-830
870.339	-978
870.424	-854
870.509	-830
870.593	-652
870.678	-432
870.763	-579
870.847	-443
870.932	-1620
871.016	-122
871.101	-1022
871.186	-217
871.270	-888
871.355	-732
871.439	-649
871.523	82
871.608	-561
871.692	-84
871.777	-323
871.861	-1303
871.945	-1391
872.030	-967
872.114	-406
872.198	-348
872.282	-1274
872.367	-758
872.451	-643
872.535	-536
872.619	-966
872.703	-893
872.787	-841
872.871	1
872.955	-524
873.039	-367
873.123	-945
873.207	378
873.291	-1035
873.375	-1438
873.459	-868
873.543	-621
873.627	-1474
873.711	-1010
873.794	-288
873.878	-946
873.962	-614
874.045	253
874.129	-818
874.137	-760
874.213	-178
874.245	-353
874.296	-635
874.352	-817
874.380	-905
874.460	-939
874.464	-941
874.547	-582
874.568	-677
874.631	-958
874.676	-638
874.714	-370
874.784	-130
874.798	-85
874.881	547
874.892	434
874.965	-315
874.999	-220
875.048	-110
875.107	15
875.131	75
875.215	161
875.215	160
875.298	-741
875.323	-843
875.381	-1075
875.430	-492
875.465	-49
875.538	133
875.548	142
875.631	-640
875.646	-616
875.714	-454
875.753	-634
875.798	-875
875.861	-529
875.881	-389
875.964	118
875.968	85
876.047	-620
876.076	-358
876.130	190
876.183	-294
876.213	-580
876.291	168
876.296	215
876.379	-354
876.398	-415
876.462	-613
876.506	-579
876.545	-443
876.613	209
876.628	307
876.711	220
876.721	115
876.794	-626
876.828	-495
876.877	-313
876.935	-552
876.960	-604
877.043	228
877.043	229
877.125	341
877.150	285
877.208	159
877.258	291
877.291	379
877.365	793
877.374	847
877.456	725
877.472	701
877.539	554
877.579	368
877.622	205
877.687	560
877.704	579
877.787	54
877.794	40
877.869	342
877.901	358
877.952	300
878.008	339
878.034	333
878.115	-217
878.117	-229
878.199	-73
878.222	-90
878.282	82
878.329	204
878.364	158
878.437	331
878.447	372
878.529	-486
878.544	-468
878.611	-440
878.651	-330
878.694	-120
878.758	19
878.776	43
878.858	232
878.865	217
878.941	-2
878.972	-153
879.023	-432
879.078	-706
879.105	-734
879.185	-108
879.187	-101
879.269	431
879.292	193
879.351	-351
879.399	-436
879.433	-502
879.506	-874
879.516	-904
879.598	-404
879.613	-364
879.680	-313
879.720	-323
879.762	-463
879.827	-1013
879.844	-1093
879.926	-567
879.933	-577
880.007	-651
880.040	-564
880.089	-383
880.147	51
880.171	219
880.253	1472
880.254	1479
880.335	2231
880.360	2519
880.417	3406
880.467	6029
880.499	7669
880.574	8273
880.580	8230
880.662	2252
880.680	1688
880.744	80
880.787	-126
880.825	-283
880.893	-383
880.907	-411
880.989	-922
881.000	-954
881.070	-655
881.106	-484
881.152	-664
881.213	-679
881.233	-642
881.315	-427
881.319	-447
881.396	-337
881.426	-179
881.478	-266
881.532	-718
881.559	-903
881.639	-1093
881.641	-1086
881.722	-345
881.745	-294
881.803	-411
881.852	-360
881.885	-249
881.958	-215
881.966	-246
882.047	-24
882.064	-31
882.129	111
882.171	-30
882.210	-195
882.277	584
882.291	761
882.372	-284
882.383	-369
882.454	-635
882.489	-442
882.535	-558
882.596	-540
882.616	-485
882.697	-799
882.702	-831
882.778	-981
882.808	-754
882.859	-572
882.914	-708
882.940	-669
883.020	-534
883.021	-531
883.102	-171
883.127	-258
883.183	-597
883.233	-512
883.264	-415
883.339	-195
883.345	-192
883.426	-671
883.445	-768
883.507	-845
883.551	-801
883.587	-760
883.657	-412
883.668	-369
883.749	-425
883.763	-450
883.830	-504
883.869	-491
883.910	-482
883.975	-461
883.991	-474
884.072	-531
884.081	-502
884.152	-143
884.187	-353
884.233	-589
884.292	-204
884.314	-239
884.394	-960
884.398	-1002
884.475	-1025
884.504	-753
884.555	-377
884.610	-468
884.636	-474
884.716	-166
884.716	-163
884.797	-471
884.821	-439
884.877	-472
884.927	-891
884.958	-876
885.033	-539
885.038	-539
885.118	-510
885.139	-527
885.199	-645
885.244	-875
885.279	-854
885.350	-319
885.359	-277
885.439	-395
885.456	-438
885.520	-768
885.561	-672
885.600	-496
885.667	-599
885.680	-539
885.760	-213
885.773	-127
885.840	-74
885.878	-134
885.920	-181
885.984	-243
886.000	-216
886.080	-2
886.089	25
886.160	-148
886.195	-310
886.240	-345
886.300	-307
886.320	-157
886.400	45
886.406	98
886.480	-256
886.511	-558
886.560	-447
886.616	-388
886.640	-420
886.720	-479
886.722	-483
886.800	-528
886.827	-463
886.879	-254
886.932	-176
886.959	-44
887.038	290
887.039	283
887.119	-638
887.143	-921
887.198	-778
887.248	-686
887.278	-715
887.354	-796
887.358	-783
887.437	-590
887.459	-508
887.517	-113
887.564	214
887.596	186
887.669	-58
887.676	-126
887.755	-876
887.774	-1060
887.835	-189
887.880	510
887.914	249
887.985	-536
887.994	-583
888.073	-747
888.090	-843
888.153	-763
888.195	-585
888.232	-339
888.300	49
888.311	72
888.391	240
888.405	251
888.470	-500
888.510	-905
888.549	-713
888.615	-495
888.628	-478
888.708	-326
888.720	-300
888.787	-816
888.825	-1163
888.866	-1089
888.930	-912
888.945	-939
889.024	-1044
889.035	-1066
889.103	78
889.140	695
889.182	88
889.245	-800
889.261	-684
889.340	-166
889.349	-105
889.419	-854
889.454	-1224
889.498	-1017
889.559	-726
889.577	-654
889.656	-325
889.664	-290
889.735	-29
889.768	100
889.814	-276
889.873	-771
889.978	-570
890.083	-705
890.187	-661
890.292	-1381
890.397	-552
890.501	-24
890.606	-896
890.710	-164
890.815	319
890.919	-311
891.024	-762
891.128	-856
891.233	-243
891.337	168
891.442	-344
891.546	-576
891.650	-918
891.755	-240
891.859	927
891.963	-762
892.068	-677
892.172	37
892.276	-749
892.380	-164
892.484	-299
892.589	177
892.693	-364
892.797	403
892.901	-164
893.005	442
893.109	-170
893.213	-735
893.317	-289
893.421	-643
893.525	-465
893.629	-590
893.733	-467
893.837	-543
893.941	-923
894.045	-80
894.148	-566
894.252	-220
894.356	-612
894.460	-458
894.564	82
894.667	-21
894.771	-451
894.875	-446
894.978	-1137
895.082	-852
895.186	-776
895.289	-480
895.393	-146
895.496	-553
895.600	-1026
895.703	-589
895.807	-213
895.910	-381
896.014	189
896.117	-28
896.221	-380
896.324	-1089
896.427	-150
896.531	173
896.634	-85
896.737	-628
896.840	-253
896.944	-979
897.047	-1068
897.150	-352
897.253	-549
897.356	-793
897.460	-459
897.563	-1171
897.666	-607
897.769	-755
897.872	-221
897.975	-783
898.078	-1423
898.181	-703
898.284	-35
898.387	-307
898.490	-356
898.593	104
898.695	-935
898.798	-1129
898.901	-559
899.004	-52
899.107	-715
899.209	-32
899.312	-709
899.415	-775
899.518	-627
899.620	-1479
899.723	-120
899.826	700
899.928	51
900.031	-1284
900.133	-41
900.236	-830
900.338	-1003
900.441	-890
900.543	-57
900.646	-44
900.748	-362
900.851	91
900.953	-561
901.055	-917
901.158	-432
901.260	-1047
901.362	-625
901.465	-515
901.567	-240
901.669	-174
901.771	-254
901.873	-66
901.976	-1310
902.078	-725
902.180	-1043
902.282	-686
902.384	276
902.486	-773
902.588	188
902.690	-875
902.792	-660
902.894	-735
902.996	-933
903.098	-234
903.200	4
903.302	295
903.404	-852
903.505	-968
903.607	-377
903.709	9
903.811	-718
903.913	-285
904.014	-32
904.116	-758
904.218	-973
904.319	497
904.421	-808
904.523	-416
904.624	-428
904.726	500
904.827	-201
904.929	-829
905.030	-464
905.132	-629
905.233	-615
905.335	92
905.436	-688
905.537	-648
905.639	111
905.740	-888
905.841	-321
905.943	-419
906.044	-251
906.145	-304
906.247	-320
906.348	-626
906.449	-495
906.550	-589
906.651	-227
906.752	-593
906.854	212
906.955	-422
907.056	-778
907.157	-1113
907.258	-443
907.359	-920
907.460	-221
907.561	-798
907.662	-1326
907.762	-43
907.863	-776
907.964	-1028
908.065	326
908.166	-672
908.267	112
908.367	-809
908.468	-1082
908.569	-893
908.670	-572
908.770	-149
908.871	-482
908.971	-958
909.072	-294
909.173	-359
909.273	-816
909.374	-921
909.474	324
909.575	710
909.675	-19
909.776	-1413
909.876	-395
909.977	-788
910.077	-147
910.177	-204
910.278	-946
910.378	-726
910.478	-1271
910.579	-929
910.679	-589
910.779	-373
910.879	-512
910.980	-507
911.080	-584
911.180	-212
911.280	-1164
911.380	-905
911.480	-789
911.580	-141
911.680	-362
911.780	-444
911.880	-171
911.980	-777
912.080	-56
912.180	-687
912.280	-839
912.380	-339
912.480	-391
912.580	-33
912.679	-82
912.779	-627
912.879	-840
912.979	-492
913.078	-468
913.178	-990
913.278	-912
913.377	88
913.477	-1118
913.577	-953
913.676	128
913.776	-931
913.875	-1022
913.975	-151
914.074	-177
914.174	-447
914.273	-1677
914.373	336
914.472	-457
914.572	-1009
914.671	-691
914.770	-1000
914.870	-636
914.969	-1214
915.068	-494
915.167	2
915.267	-922
915.366	-532
915.465	-701
915.564	-1336
915.663	-591
915.763	-1667
915.862	-201
915.961	-531
916.060	-206
916.159	-227
916.258	-785
916.357	-337
916.456	-379
916.555	-857
916.654	-1245
916.752	-166
916.851	-806
916.950	-1049
917.049	-1452
917.148	-365
917.247	-93
917.345	-720
917.444	-239
917.543	-142
917.642	-916
917.740	-446
917.839	-1046
917.937	354
918.036	114
918.135	-1096
918.233	-546
918.332	-670
918.430	-721
918.529	-911
918.627	-947
918.726	-674
918.824	-753
918.923	-453
919.021	-746
919.119	-1160
919.218	-421
919.316	-1057
919.414	-1041
919.512	-526
919.611	-111
919.709	-451
919.807	-1113
919.905	-583
920.003	-481
920.102	-1058
920.200	-423
920.298	-266
920.396	-311
920.494	-1132
920.592	-754
920.690	-83
920.788	-68
920.886	-461
920.984	-597
921.082	2
921.180	89
921.277	-995
921.375	-269
921.473	273
921.571	-746
921.669	-103
921.766	-731
921.864	64
921.962	-538
922.060	-140
922.157	-799
922.255	-357
922.352	-377
922.450	-69
922.548	-568
922.645	-1085
922.743	-619
922.840	-702
922.938	245
923.035	-179
923.133	-541
923.230	46
923.327	11
923.425	96
923.522	390
923.619	384
923.717	-174
923.814	-644
923.911	-749
924.008	-70
924.106	-68
924.203	-259
924.300	-862
924.397	-243
924.494	-90
924.591	-682
924.688	-914
924.786	-448
924.883	-475
924.979	-1252
925.077	-319
925.173	178
925.270	-546
925.367	-507
925.464	-269
925.561	-891
925.658	271
925.755	-435
925.852	319
925.948	-568
926.045	-98
926.142	-234
926.239	-271
926.335	34
926.432	-245
926.529	-825
926.625	-84
926.722	-752
926.818	-190
926.915	-16
927.011	-250
927.108	-606
927.204	-284
927.301	-383
927.397	-665
927.494	-724
927.590	-616
927.687	-473
927.783	-967
927.879	-724
927.976	-667
928.072	369
928.168	-232
928.264	-273
928.361	-326
928.457	-368
928.553	-478
928.649	-422
928.745	-649
928.841	-923
928.937	456
929.033	62
929.129	-431
929.225	-12
929.321	-523
929.417	-1109
929.513	8
929.609	58
929.705	-448
929.801	-68
929.897	-930
929.993	-48
930.089	107
930.184	-248
930.280	-997
930.376	-630
930.471	-646
930.567	-362
930.663	-188
930.758	-464
930.854	-712
930.950	-683
931.045	-1123
931.141	-535
931.236	-95
931.332	-90
931.427	-342
931.523	72
931.618	-919
931.714	-883
931.809	-914
931.905	-860
932.000	-1681
932.095	-1354
932.191	-1112
932.286	-612
932.381	-832
932.476	-979
932.572	-1327
932.667	-481
932.762	-103
932.857	-508
932.952	-495
933.047	-561
933.142	-532
933.237	-295
933.332	45
933.427	-483
933.522	-1398
933.617	-925
933.712	-394
933.807	-119
933.902	-615
933.997	-339
934.092	-817
934.187	-204
934.282	-407
934.376	-1275
934.471	-455
934.566	-1319
934.661	-396
934.755	-1527
934.850	-369
934.945	-141
935.039	-771
935.134	-336
935.228	-427
935.323	-226
935.417	-587
935.512	-45
935.606	-1024
935.701	-656
935.795	-738
935.890	-911
935.984	-325
936.079	-455
936.173	-251
936.267	-1305
936.362	-71
936.456	-856
936.550	-220
936.644	-628
936.738	-1094
936.833	172
936.927	-659
937.021	-331
937.115	-1009
937.209	-1477
937.303	265
937.397	-1201
937.491	-212
937.585	-880
937.679	-705
937.773	-839
937.867	-78
937.961	577
938.055	-744
938.149	-257
938.243	-1183
938.337	-490
938.430	-229
938.524	-95
938.618	-290
938.712	-723
938.805	-655
938.899	-194
938.993	-1156
939.086	-835
939.180	136
939.274	-468
939.367	-171
939.461	22
939.554	-352
939.648	-873
939.741	-853
939.835	-1005
939.928	-431
940.022	-382
940.115	-1134
940.208	-859
940.302	-623
940.395	-422
940.488	-1073
940.582	-354
940.675	-1445
940.768	-928
940.861	313
940.954	-184
941.048	-1078
941.141	-1180
941.234	-1025
941.327	-442
941.420	815
941.513	-1176
941.606	-667
941.699	-212
941.792	-1072
941.885	-1107
941.978	-601
942.071	-401
942.164	-944
942.257	-288
942.349	-1114
942.442	-924
942.535	-1491
942.628	-231
942.721	-266
942.813	-1183
942.906	-524
942.999	-685
943.091	-1587
943.184	-793
943.277	-886
943.369	-1486
943.462	-600
943.554	-757
943.647	-1048
943.739	-427
943.832	-1013
943.924	-2064
944.017	-426
944.109	-673
944.201	-800
944.294	-647
944.386	-810
944.478	-1086
944.571	-1228
944.663	-605
944.755	-723
944.847	-92
944.940	-172
945.032	-1599
945.124	-1211
945.216	-189
945.308	-732
945.400	-465
945.492	-716
945.584	-983
945.676	-645
945.768	-823
945.860	-737
945.952	-1330
946.044	-390
946.136	-1212
946.228	-821
946.320	-1673
946.412	-722
946.503	-834
946.595	272
946.687	-1431
946.779	-1574
946.870	-304
946.962	-688
947.054	-940
947.145	114
947.237	-1385
947.329	-1370
947.420	-704
947.512	-442
947.603	-499
947.695	-605
947.786	-803
947.878	-1199
947.969	-363
948.061	-1418
948.152	-1305
948.243	-964
948.335	-1439
948.426	-1265
948.517	-929
948.609	-1028
948.700	-723
948.791	-1001
948.882	-744
948.973	-1408
949.065	-1250
949.156	11
949.247	-1217
949.338	-505
949.429	-816
949.520	-534
949.611	-1425
949.702	-420
949.793	-173
949.884	-1023
949.975	-1032
950.066	-1924
950.157	-926
950.247	-1078
950.338	-1405
950.429	-1423
950.520	-467
950.611	-762
950.701	-678
950.792	-1307
950.883	-702
950.973	-184
951.064	-1449
951.155	-796
951.245	-1133
951.336	-640
951.427	-1667
951.517	-764
951.608	-532
951.698	-1407
951.788	-1113
951.879	-1013
951.969	-1306
952.060	-778
952.150	-2097
952.240	-665
952.331	-2441
952.421	230
952.511	-2077
952.602	-588
952.692	-1539
952.782	-199
952.872	-1266
952.962	-991
953.052	-694
953.143	-1827
953.233	-855
953.323	-246
953.413	-1815
953.503	-1462
953.593	-1010
953.683	-2049
953.773	-1053
953.863	-892
953.953	-723
954.042	-768
954.132	-1644
954.222	-964
954.312	-1711
954.402	-1466
954.492	-1158
954.581	-934
954.671	-1443
954.761	-1719
954.850	-142
954.940	-1459
955.030	-1271
955.119	-1154
955.209	-1006
955.298	-911
955.388	-1406
955.477	38
955.567	-1936
955.656	-375
955.746	-943
955.835	-1385
955.925	-1534
956.014	-956
956.103	-1428
956.193	-1444
956.282	-955
956.371	-1109
956.461	-1438
956.550	-1754
956.639	-1211
956.728	-2258
956.817	-1290
956.906	-913
956.995	-872
957.085	-1433
957.174	-711
957.263	-2059
957.352	-1414
957.441	-1361
957.530	-1263
957.619	-916
957.708	-949
957.796	-1062
957.885	-995
957.974	-198
958.063	-235
958.152	-2477
958.241	-1213
958.329	-928
958.418	-1316
958.507	-1900
958.596	-700
958.684	-1891
958.773	-1106
958.861	-635
958.950	-658
959.039	-1252
959.127	-1070
959.216	-896
959.304	-1529
959.393	-867
959.481	-1226
959.570	-797
959.658	-1726
959.746	-1362
959.835	-1445
959.923	-1718
960.011	-2289
960.100	-803
960.188	-2107
960.276	-2470
960.365	-1795
960.453	-1458
960.541	-1926
960.629	-1132
960.717	-1390
960.805	-1574
960.893	-939
960.981	-1757
961.069	89
961.158	-1359
961.245	-879
961.333	-1310
961.421	-1590
961.509	-1859
961.597	-1453
961.685	-1523
961.773	-1200
961.861	-1571
961.949	-773
962.036	-1605
962.124	-225
962.212	-1530
962.299	-1656
962.387	-1162
962.475	-1634
962.562	-2688
962.650	-924
962.738	-1077
962.825	-1923
962.913	-1456
963.000	-1499
963.088	-1077
963.175	-1796
963.263	-1182
963.350	-1459
963.438	-1935
963.525	-1465
963.612	-1596
963.700	-1473
963.787	-547
963.874	-1668
963.962	-1892
964.049	-1712
964.136	-686
964.223	-2207
964.310	-1332
964.398	-1134
964.485	-1553
964.572	-1734
964.659	-988
964.746	-849
964.833	-1123
964.920	-1374
965.007	-1701
965.094	-1284
965.181	-1536
965.268	-1272
965.355	-724
965.441	-2413
965.528	-1520
965.615	-78
965.702	-1139
965.789	-1902
965.875	-1250
965.962	-1533
966.049	-1399
966.136	-779
966.222	-1913
966.309	-1102
966.395	-1297
966.482	-1890
966.569	-1839
966.655	-2212
966.742	-1648
966.828	-2118
966.915	-1605
967.001	-1443
967.087	-2079
967.174	-1523
967.260	-959
967.347	-2289
967.433	-1787
967.519	-1224
967.605	-2057
967.692	-1176
967.778	-947
967.864	-1606
967.950	-1884
968.036	-2225
968.123	-1333
968.209	-1759
968.295	-2257
968.381	-291
968.467	-1860
968.553	-2677
968.639	-1325
968.725	-1993
968.811	-1004
968.897	-1427
968.983	-2306
969.069	-2252
969.154	-501
969.240	-536
969.326	-1945
969.412	-1887
969.497	-2165
969.583	-2159
969.669	-980
969.755	-679
969.840	-2943
969.926	-2022
970.012	-2080
970.097	-499
970.183	-1709
970.268	-2128
970.354	-1228
970.439	-1926
970.525	-937
970.610	-2369
970.696	-828
970.781	-1300
970.866	-1852
970.952	-1180
971.037	-2317
971.122	-2046
971.208	-824
971.293	-776
971.378	-3266
971.463	-990
971.549	-1882
971.634	-1586
971.719	-1831
971.804	-1516
971.889	-828
971.974	-2104
972.059	-1644
972.144	-2166
972.229	-1916
972.314	-1537
972.399	-1714
972.484	-2085
972.569	-1675
972.654	-2737
972.739	-1534
972.824	-2594
972.908	-1812
972.993	-1708
973.078	-1593
973.163	-1367
973.247	-659
973.332	-2668
973.417	-857
973.501	-2120
973.586	-1348
973.671	-1426
973.755	-1101
973.840	-1017
973.924	-913
974.009	-2026
974.093	-2193
974.178	-875
974.262	-1425
974.346	-1671
974.431	-2281
974.515	-2081
974.600	-1776
974.684	-2109
974.768	-2466
974.852	-506
974.937	-2672
975.021	-1385
975.105	-1686
975.189	-1611
975.273	-2047
975.358	-2107
975.442	-2081
975.526	-879
975.610	-2916
975.694	-2449
975.778	-106
975.862	-2049
975.946	-2947
976.030	-712
976.114	-2218
976.198	-1224
976.281	-2005
976.365	-2130
976.449	-1804
976.533	-1284
976.617	-1498
976.700	-1566
976.784	-1284
976.868	-2055
976.951	-1577
977.035	-1361
977.119	-801
977.202	-1737
977.286	-793
977.369	-1266
977.453	-1020
977.536	-1782
977.620	-1596
977.703	-1033
977.787	-1933
977.870	-772
977.953	-556
978.037	-2893
978.120	-1064
978.203	-2842
978.287	-2715
978.370	-2323
978.453	-1159
978.536	-2064
978.620	-1033
978.703	-1037
978.786	-2092
978.869	-2367
978.952	-2147
979.035	218
979.118	-1781
979.201	-2141
979.284	-1776
979.367	-2085
979.450	-1439
979.533	-1933
979.616	-1464
979.699	-2056
979.782	-1410
979.865	-1772
979.948	-2217
980.030	-1046
980.113	-1355
980.196	-2691
980.279	-1104
980.361	-1493
980.444	-1287
980.526	-1100
980.609	-995
980.692	-1540
980.774	-1291
980.857	-3238
980.939	-319
981.022	-1372
981.104	-1947
981.187	-1432
981.269	-1629
981.352	-1265
981.434	-2014
981.516	-2499
981.599	-758
981.681	-984
981.763	-846
981.846	-986
981.928	-1040
982.010	-1558
982.092	-1999
982.174	-882
982.256	-1621
982.339	-1306
982.421	-1561
982.503	-1375
982.585	-2062
982.667	-1581
982.749	-1620
982.831	-1265
982.913	-1972
982.995	-833
983.077	-1774
983.158	-1096
983.240	-1921
983.322	-1178
983.404	-1286
983.486	-2278
983.568	-1222
983.649	-2204
983.731	-1359
983.813	-982
983.894	-1162
983.976	-1732
984.058	-1342
984.139	-501
984.221	-1924
984.302	-762
984.384	-1437
984.465	-1832
984.547	-1206
984.628	-1241
984.710	-1282
984.791	-741
984.872	-956
984.954	-1612
985.035	-919
985.116	-2148
985.198	-2331
985.279	-929
985.360	-2507
985.441	-1278
985.522	-824
985.604	-1752
985.685	-3361
985.766	-117
985.847	-1147
985.928	-2035
986.009	-1521
986.090	-2098
986.171	-851
986.252	-2302
986.333	-1887
986.414	-2210
986.495	-1129
986.576	-1801
986.656	-1364
986.737	-1690
986.818	-1327
986.899	-2670
986.980	-2016
987.060	-500
987.141	-1844
987.222	-1141
987.302	-1580
987.383	-925
987.464	-1646
987.544	-1243
987.625	-2128
987.705	-1392
987.786	-793
987.866	-1513
987.947	-1635
988.027	-1247
988.108	-1824
988.188	-1303
988.268	-1802
988.349	-1268
988.429	-1403
988.509	-1109
988.589	-1443
988.670	-2962
988.750	-363
988.830	-1747
988.910	-1423
988.990	-1005
989.070	-1543
989.151	-2297
989.231	-1836
989.311	-627
989.391	-1930
989.471	-930
989.551	-1815
989.631	-1585
989.711	-1206
989.791	-1642
989.870	-2082
989.950	-220
990.030	-2058
990.110	-1424
990.190	-1705
990.269	-1455
990.349	-1716
990.429	-1185
990.509	-927
990.588	-1906
990.668	-1546
990.747	-1588
990.827	-2009
990.907	-1310
990.986	-2406
991.066	-1882
991.145	-2122
991.225	-1034
991.304	-2011
991.383	-1443
991.463	-1475
991.542	-1077
991.622	-1098
991.701	-1200
991.780	-2037
991.859	-1302
991.939	-1708
992.018	-879
992.097	-1285
992.176	-654
992.256	-1429
992.335	-1902
992.414	-1066
992.493	-1965
992.572	-1454
992.651	-222
992.730	-2073
992.809	-1359
992.888	-1615
992.967	-2556
993.046	-650
993.125	-2621
993.203	-1534
993.282	-1302
993.361	-974
993.440	-1331
993.519	-2283
993.597	-1390
993.676	-1683
993.755	-1056
993.834	-1882
993.912	-2158
993.991	-343
994.069	-2035
994.148	-1441
994.226	-962
994.305	-1725
994.384	-2112
994.462	-947
994.540	-1753
994.619	-1930
994.697	-539
994.776	-2186
994.854	-1650
994.932	-2657
995.011	-1688
995.089	-1338
995.167	-1195
995.245	-932
995.324	-2608
995.402	-1597
995.480	-2355
995.558	-2285
995.636	-1681
995.714	-1294
995.792	-421
995.870	-1664
995.948	-1711
996.026	-1945
996.104	-2883
996.182	-574
996.260	-1794
996.338	-1867
996.416	-1834
996.494	-1718
996.572	-656
996.649	-1913
996.727	-1936
996.805	-1091
996.883	-1526
996.960	-1325
997.038	-942
997.116	-921
997.193	-3105
997.271	-1684
997.348	-1560
997.426	-1550
997.504	-2814
997.581	-610
997.658	-1503
997.736	-2835
997.813	-2047
997.891	-960
997.968	-2297
998.046	-1597
998.123	-2152
998.200	-2091
998.277	-2251
998.355	-1134
998.432	-1932
998.509	-1938
998.586	-1547
998.663	-1922
998.741	-791
998.818	-1340
998.895	-2366
998.972	-917
999.049	-1443
999.126	-1636
999.203	-1002
999.280	-1405
999.357	-2411
999.434	-2434
999.511	-1977
999.587	-732
999.664	-2212
999.741	-2199
999.818	-626
999.895	-1859
999.971	-2554
1000.048	-2211
1000.125	-1471
1000.202	-2440
1000.278	-1231
1000.355	-1339
1000.431	-1819
1000.508	-1908
1000.584	-1416
1000.661	-1309
1000.738	-2615
1000.814	-847
1000.890	-549
1000.967	-1197
1001.043	-1401
1001.120	-2991
1001.196	-2396
1001.272	-1756
1001.349	-1968
1001.425	-1049
1001.501	-1096
1001.577	-1838
1001.654	-1563
1001.730	-1772
1001.806	-2022
1001.882	-2327
1001.958	-1450
1002.034	-999
1002.110	-1557
1002.186	-2170
1002.262	-2143
1002.338	-2345
1002.414	-1185
1002.490	-1684
1002.566	-2114
1002.642	-1789
1002.718	-856
1002.794	-2475
1002.870	-1809
1002.945	-1016
1003.021	-1653
1003.097	-1156
1003.173	-1530
1003.248	-2451
1003.324	-1730
1003.400	-1635
1003.475	-2478
1003.551	-1579
1003.626	-1716
1003.702	-1892
1003.777	-1776
1003.853	-2473
1003.928	-1712
1004.004	-1565
1004.079	-2479
1004.155	-1992
1004.230	-2875
1004.305	-1015
1004.381	-1684
1004.456	-2358
1004.531	-1852
1004.607	-1493
1004.682	-1864
1004.757	-1050
1004.832	-1654
1004.907	-1887
1004.982	-1952
1005.057	-2238
1005.133	-2299
1005.208	-1752
1005.283	-1553
1005.358	-939
1005.433	-2325
1005.508	-1850
1005.583	-2488
1005.657	-2346
1005.732	-1276
1005.807	-2517
1005.882	-2148
1005.957	-1847
1006.032	-426
1006.106	-1796
1006.181	-2329
1006.256	-1218
1006.331	-2252
1006.405	-1911
1006.480	-1477
1006.554	-1928
1006.629	-1822
1006.704	-2401
1006.778	-1444
1006.853	-2269
1006.927	-2207
1007.002	-2377
1007.076	-1321
1007.150	-2502
1007.225	-1719
1007.299	-2030
1007.373	-1966
1007.448	-1470
1007.522	-1076
1007.596	-1354
1007.671	-1697
1007.745	-1785
1007.819	-2328
1007.893	-2403
1007.967	-1510
1008.041	-2483
1008.115	-1273
1008.190	-1825
1008.264	-1801
1008.338	-2941
1008.412	-1868
1008.486	-1912
1008.560	-1014
1008.633	-1866
1008.707	-2012
1008.781	-1666
1008.855	-1880
1008.929	-2844
1009.003	-2296
1009.076	-2194
1009.150	-702
1009.224	-1495
1009.298	-1133
1009.371	-2132
1009.445	-1762
1009.519	-1139
1009.592	-2311
1009.666	-1862
1009.739	-2000
1009.813	-2816
1009.886	-438
1009.960	-2669
1010.033	-1457
1010.107	-1662
1010.180	-2185
1010.253	-1429
1010.327	-2578
1010.400	-1695
1010.473	-1792
1010.547	-853
1010.620	-1946
1010.693	-1119
1010.766	-2130
1010.840	-1848
1010.913	-1861
1010.986	-2141
1011.059	-1927
1011.132	-2367
1011.205	-1407
1011.278	-1757
1011.351	-2567
1011.424	-968
1011.497	-1870
1011.570	-2310
1011.643	-1947
1011.716	-2813
1011.789	-1988
1011.862	-1605
1011.934	-1338
1012.007	-2341
1012.080	-1789
1012.153	-1606
1012.225	-561
1012.298	-1542
1012.371	-2593
1012.443	-1997
1012.516	-2980
1012.588	-2312
1012.661	-1679
1012.733	-2315
1012.806	-1792
1012.879	-2495
1012.951	-2162
1013.023	-1700
1013.096	-1659
1013.168	-1888
1013.241	-1919
1013.313	-1900
1013.385	-2666
1013.458	-2369
1013.530	-1119
1013.602	-2780
1013.674	-1280
1013.746	-2431
1013.819	-2376
1013.891	-1494
1013.963	-1837
1014.035	-2241
1014.107	-1934
1014.179	-1514
1014.251	-2756
1014.323	-1636
1014.395	-1548
1014.467	-1715
1014.539	-1959
1014.611	-2085
1014.683	-1622
1014.754	-2453
1014.826	-2647
1014.898	-1630
1014.970	-2752
1015.042	-817
1015.113	-1663
1015.185	-1363
1015.257	-2739
1015.328	-1889
1015.400	-1962
1015.471	-1895
1015.543	-2314
1015.615	-1840
1015.686	-2482
1015.757	-1988
1015.829	-2289
1015.901	-2157
1015.972	-1394
1016.043	-2180
1016.115	-2207
1016.186	-1726
1016.257	-2487
1016.328	-1873
1016.400	-838
1016.471	-2837
1016.542	-1663
1016.613	-1753
1016.685	-1883
1016.756	-2238
1016.827	-2128
1016.898	-2655
1016.969	-761
1017.040	-2003
1017.111	-2309
1017.182	-2673
1017.253	-1993
1017.324	-2795
1017.395	-2575
1017.466	-1756
1017.537	-2544
1017.608	-1676
1017.678	-2066
1017.749	-2361
1017.820	-2123
1017.891	-3327
1017.961	-2944
1018.032	-1345
1018.103	-1810
1018.173	-2624
1018.244	-2564
1018.315	-2542
1018.385	-1229
1018.456	-2317
1018.526	-2101
1018.597	-2386
1018.667	-1976
1018.738	-2191
1018.808	-2364
1018.878	-2409
1018.949	-2094
1019.019	-2462
1019.089	-2153
1019.160	-2124
1019.230	-2772
1019.300	-1690
1019.371	-2475
1019.441	-1666
1019.511	-2041
1019.581	-1889
1019.651	-1143
1019.721	-1803
1019.791	-2087
1019.861	-1993
1019.931	-2293
1020.001	-2714
1020.071	-2051
1020.141	-1486
1020.211	-1489
1020.281	-1865
1020.351	-2148
1020.421	-1416
1020.491	-1713
1020.560	-2227
1020.630	-2910
1020.700	-2489
1020.770	-1676
1020.839	-1802
1020.909	-1913
1020.979	-1875
1021.048	-2399
1021.118	-2319
1021.187	-2347
1021.257	-2199
1021.326	-2094
1021.396	-2001
1021.465	-1544
1021.535	-1458
1021.604	-2460
1021.674	-2624
1021.743	-2201
1021.812	-1935
1021.882	-2448
1021.951	-1934
1022.020	-1814
1022.089	-1810
1022.159	-2798
1022.228	-2335
1022.297	-2079
1022.366	-2291
1022.435	-1744
1022.504	-1660
1022.573	-2157
1022.642	-1829
1022.711	-2762
1022.781	-2027
1022.849	-2121
1022.918	-2765
1022.987	-1697
1023.056	-2791
1023.125	-1639
1023.194	-2415
1023.263	-1881
1023.331	-2542
1023.400	-3058
1023.469	-2256
1023.538	-2063
1023.606	-2507
1023.675	-2486
1023.744	-1972
1023.812	-2041
1023.881	-2620
1023.949	-2367
1024.018	-2650
1024.086	-2466
1024.155	-2466
1024.223	-1818
1024.292	-2605
1024.360	-1996
1024.429	-2490
1024.497	-2296
1024.565	-1773
1024.634	-2796
1024.702	-1935
1024.770	-1450
1024.838	-1812
1024.907	-2521
1024.975	-2140
1025.043	-1881
1025.111	-2436
1025.179	-2276
1025.247	-1802
1025.315	-1968
1025.383	-2473
1025.451	-2157
1025.519	-1826
1025.587	-1496
1025.655	-2670
1025.723	-2466
1025.791	-2740
1025.859	-1354
1025.927	-2071
1025.995	-1987
1026.062	-2208
1026.130	-2344
1026.198	-2172
1026.266	-1957
1026.333	-2525
1026.401	-1090
1026.469	-2187
1026.536	-1597
1026.604	-2084
1026.671	-2086
1026.739	-1900
1026.806	-1642
1026.874	-2180
1026.941	-2991
1027.009	-2243
1027.076	-2589
1027.144	-1170
1027.211	-3310
1027.278	-1837
1027.345	-1694
1027.413	-1448
1027.480	-2111
1027.547	-2855
1027.614	-2485
1027.682	-1662
1027.749	-2673
1027.816	-1950
1027.883	-1324
1027.950	-1797
1028.017	-2724
1028.084	-1719
1028.151	-2937
1028.218	-1326
1028.285	-2048
1028.352	-2135
1028.419	-2679
1028.486	-2034
1028.553	-1727
1028.619	-3006
1028.686	-2563
1028.753	-2393
1028.820	-2142
1028.886	-2285
1028.953	-2030
1029.020	-2698
1029.086	-2241
1029.153	-1700
1029.220	-2644
1029.286	-1692
1029.353	-2114
1029.419	-2037
1029.486	-2030
1029.552	-1910
1029.619	-2134
1029.685	-2103
1029.751	-1667
1029.818	-1281
1029.884	-2645
1029.951	-1429
1030.017	-1842
1030.083	-1900
1030.149	-2111
1030.216	-1633
1030.282	-1844
1030.348	-2493
1030.414	-1921
1030.480	-2087
1030.546	-1496
1030.612	-1683
1030.678	-2094
1030.744	-1840
1030.810	-1344
1030.876	-2290
1030.942	-1504
1031.008	-1383
1031.074	-2457
1031.140	-2134
1031.206	-1979
1031.272	-2564
1031.337	-1666
1031.403	-1593
1031.469	-2343
1031.534	-1680
1031.600	-1896
1031.666	-1998
1031.731	-2890
1031.797	-2235
1031.863	-2022
1031.928	-1118
1031.994	-2631
1032.059	-2105
1032.125	-1901
1032.190	-2487
1032.256	-1787
1032.321	-1797
1032.386	-1342
1032.452	-1328
1032.517	-1849
1032.582	-2561
1032.647	-1720
1032.713	-1678
1032.778	-1582
1032.843	-2661
1032.908	-1573
1032.974	-1281
1033.039	-1443
1033.104	-1138
1033.169	-2620
1033.234	-2424
1033.299	-2344
1033.364	-2113
1033.429	-2258
1033.494	-1890
1033.559	-2399
1033.624	-1999
1033.688	-1724
1033.753	-1911
1033.818	-1311
1033.883	-1488
1033.948	-2270
1034.013	-1996
1034.077	-2338
1034.142	-1536
1034.207	-1679
1034.271	-1706
1034.336	-1041
1034.400	-1990
1034.465	-1464
1034.530	-2806
1034.594	-1727
1034.658	-1800
1034.723	-1942
1034.787	-1720
1034.852	-2262
1034.916	-2403
1034.981	-2042
1035.045	-1734
1035.109	-1868
1035.173	-1751
1035.238	-2046
1035.302	-2099
1035.366	-2035
1035.430	-1606
1035.495	-1848
1035.559	-1931
1035.623	-1977
1035.687	-1159
1035.751	-2077
1035.815	-2518
1035.879	-1502
1035.943	-1836
1036.007	-1231
1036.071	-2121
1036.135	-2254
1036.198	-1768
1036.262	-2572
1036.326	-1792
1036.390	-1620
1036.454	-997
1036.517	-1423
1036.581	-2066
1036.645	-1396
1036.709	-2104
1036.772	-1752
1036.836	-1681
1036.900	-1687
1036.963	-2543
1037.026	-2281
1037.090	-2604
1037.154	-2130
1037.217	-1720
1037.280	-2053
1037.344	-1924
1037.407	-2153
1037.471	-1628
1037.534	-1302
1037.597	-2020
1037.661	-985
1037.724	-931
1037.787	-1854
1037.850	-2160
1037.913	-1939
1037.977	-1373
1038.040	-2523
1038.103	-2142
1038.166	-2334
1038.229	-1226
1038.292	-2271
1038.355	-1946
1038.418	-1954
1038.481	-2304
1038.544	-1845
1038.607	-1964
1038.670	-1801
1038.732	-1559
1038.795	-1353
1038.858	-1700
1038.921	-1222
1038.984	-2070
1039.046	-2097
1039.109	-1770
1039.172	-1432
1039.234	-2248
1039.297	-1124
1039.360	-2040
1039.422	-1509
1039.485	-2898
1039.547	-2489
1039.610	-858
1039.672	-2039
1039.734	-1795
1039.797	-2508
1039.859	-1400
1039.922	-1749
1039.984	-1993
1040.046	-2003
1040.109	-1175
1040.171	-2075
1040.233	-2072
1040.295	-1695
1040.358	-2464
1040.420	-1509
1040.482	-1643
1040.544	-2586
1040.606	-2170
1040.668	-2666
1040.730	-1535
1040.792	-2259
1040.854	-2287
1040.916	-1475
1040.978	-1618
1041.040	-1515
1041.102	-2071
1041.164	-2238
1041.225	-2034
1041.287	-1748
1041.349	-1922
1041.411	-2291
1041.472	-1489
1041.534	-1744
1041.596	-2208
1041.657	-2272
1041.719	-1962
1041.781	-1835
1041.842	-2565
1041.904	-2552
1041.965	-2094
1042.027	-1913
1042.088	-1550
1042.150	-1469
1042.211	-1372
1042.272	-1572
1042.334	-1692
1042.395	-2104
1042.456	-1749
1042.518	-1080
1042.579	-1938
1042.640	-1415
1042.701	-1795
1042.763	-2019
1042.824	-2092
1042.885	-1688
1042.946	-1574
1043.007	-2487
1043.068	-1541
1043.129	-1451
1043.190	-868
1043.251	-1008
1043.312	-2294
1043.373	-1604
1043.434	-1913
1043.495	-1111
1043.556	-1374
1043.616	-1138
1043.677	-1830
1043.738	-1948
1043.799	-1752
1043.859	-1750
1043.920	-1957
1043.981	-1832
1044.041	-1618
1044.102	-1715
1044.162	-2592
1044.223	-2927
1044.284	-1588
1044.344	-2321
1044.405	-1540
1044.465	-1827
1044.525	-1378
1044.586	-1253
1044.646	-1320
1044.707	-1076
1044.767	-1338
1044.827	-1569
1044.887	-1581
1044.948	-1273
1045.008	-1452
1045.068	-1946
1045.128	-1109
1045.188	-1240
1045.249	-336
1045.309	-1112
1045.369	-1391
1045.429	-2064
1045.489	-859
1045.549	-1853
1045.609	-1460
1045.669	-1823
1045.729	-1648
1045.789	-1307
1045.848	-1752
1045.908	-939
1045.968	-1152
1046.028	-392
1046.088	-1426
1046.147	-761
1046.207	-514
1046.267	-1047
1046.326	-966
1046.386	-1353
1046.446	-739
1046.505	-1064
1046.565	-559
1046.624	-1521
1046.684	-72
1046.743	-222
1046.803	-922
1046.862	-558
1046.922	0
