'Start Wavelength	183.907
'End Wavelength	1046.922
'Gate Delay	5.000
'Gate Width (ms)	1.050
'Laser Output Level	0.000
'X Position	0.000
'Y Position	0.000
'Z Position	0.000
'Grid Point Number	1.000
'Shot Number	100.000
183.907	-115.000
183.977	-523.000
184.047	-666
184.116	367
184.186	-101
184.256	-951
184.325	-800
184.395	-991
184.465	271
184.534	-3
184.604	-1179
184.674	-350
184.743	-597
184.813	-445
184.883	-337
184.952	-345
185.022	-757
185.092	337
185.161	-610
185.231	30
185.301	-362
185.370	166
185.440	-1014
185.509	171
185.579	-318
185.649	242
185.718	328
185.788	833
185.857	-777
185.927	-292
185.996	-920
186.066	-303
186.136	-622
186.205	217
186.275	-340
186.344	-430
186.414	-145
186.483	-894
186.553	726
186.622	1250
186.692	-257
186.761	293
186.831	-169
186.900	-534
186.970	-336
187.039	-479
187.109	680
187.178	12
187.248	-803
187.317	-11
187.387	-127
187.456	1234
187.526	169
187.595	296
187.664	-142
187.734	11
187.803	15
187.873	634
187.942	726
188.012	-296
188.081	-402
188.150	-581
188.220	237
188.289	159
188.358	-69
188.428	-13
188.497	-593
188.567	74
188.636	-662
188.705	284
188.775	-36
188.844	367
188.913	-463
188.983	-445
189.052	-304
189.121	-139
189.191	352
189.260	1258
189.329	327
189.399	912
189.468	221
189.537	647
189.606	344
189.676	725
189.745	-375
189.814	767
189.883	-220
189.953	194
190.022	410
190.091	4167
190.161	4569
190.230	2453
190.299	496
190.368	373
190.437	217
190.507	429
190.576	35
190.645	-750
190.714	-127
190.783	2
190.853	570
190.922	306
190.991	-467
191.060	298
191.129	-600
191.198	128
191.268	134
191.337	-553
191.406	-39
191.475	489
191.544	279
191.613	465
191.682	-469
191.752	-5
191.821	335
191.890	284
191.959	278
192.028	341
192.097	732
192.166	145
192.235	-536
192.304	341
192.373	404
192.442	565
192.511	-401
192.580	256
192.650	-362
192.719	263
192.788	550
192.857	563
192.926	311
192.995	517
193.064	1350
193.133	1714
193.202	2690
193.271	2306
193.340	1904
193.409	2285
193.478	2165
193.547	3142
193.615	3968
193.684	2885
193.753	1745
193.822	1645
193.891	237
193.960	685
194.029	34
194.098	0
194.167	451
194.236	950
194.305	50
194.374	557
194.443	328
194.512	1245
194.580	651
194.649	1017
194.718	523
194.787	514
194.856	-188
194.925	345
194.994	-479
195.062	926
195.131	-85
195.200	612
195.269	245
195.338	315
195.407	338
195.475	596
195.544	227
195.613	727
195.682	810
195.751	1242
195.819	-326
195.888	524
195.957	1208
196.026	301
196.094	1140
196.163	719
196.232	-290
196.301	1529
196.369	705
196.438	1146
196.507	899
196.576	686
196.644	810
196.713	657
196.782	569
196.850	696
196.919	74
196.988	467
197.056	950
197.125	947
197.194	1086
197.262	95
197.331	345
197.400	278
197.468	1044
197.537	959
197.606	904
197.674	2455
197.743	6425
197.812	3017
197.880	5236
197.949	3850
198.017	5078
198.086	3625
198.155	1504
198.223	2468
198.292	7127
198.360	4256
198.429	1109
198.497	2356
198.566	4324
198.635	6979
198.703	2281
198.772	2863
198.840	7354
198.909	9326
198.977	2183
199.046	1736
199.114	2180
199.183	1707
199.251	1690
199.320	573
199.388	923
199.457	1017
199.525	-235
199.594	1489
199.662	1258
199.731	616
199.799	1030
199.867	1846
199.936	1067
200.004	2135
200.073	1194
200.141	1102
200.210	395
200.278	855
200.346	1429
200.415	1147
200.483	2400
200.552	1748
200.620	346
200.688	562
200.757	1014
200.825	931
200.893	900
200.962	1053
201.030	1230
201.098	468
201.167	1275
201.235	1487
201.303	319
201.372	1042
201.440	1397
201.508	1047
201.577	736
201.645	1449
201.713	1302
201.781	1049
201.850	1215
201.918	1572
201.986	521
202.055	1557
202.123	637
202.191	702
202.259	1966
202.327	1717
202.396	1286
202.464	935
202.532	2061
202.600	2740
202.669	2072
202.737	1235
202.805	1211
202.873	1383
202.941	1598
203.009	1518
203.078	1264
203.146	1756
203.214	1027
203.282	1453
203.350	1872
203.418	944
203.487	1818
203.555	1156
203.623	1705
203.691	3023
203.759	785
203.827	1506
203.895	1922
203.963	1465
204.031	1674
204.099	1440
204.168	1275
204.236	1930
204.304	1685
204.372	1439
204.440	1505
204.508	1843
204.576	1103
204.644	2042
204.712	1799
204.780	2039
204.848	1822
204.916	1245
204.984	1215
205.052	1956
205.120	1903
205.188	1635
205.256	1359
205.324	2463
205.392	1839
205.460	2894
205.528	2352
205.596	2948
205.664	2122
205.732	2270
205.799	7177
205.867	14478
205.935	3527
206.003	3130
206.071	2182
206.139	2919
206.207	1902
206.275	2978
206.343	1946
206.411	2192
206.478	2138
206.546	2508
206.614	2286
206.682	2204
206.750	1841
206.818	2674
206.885	2940
206.953	1363
207.021	2593
207.089	1547
207.157	1670
207.225	2508
207.292	1961
207.360	2486
207.428	2049
207.496	2747
207.563	1814
207.631	2570
207.699	1218
207.767	2414
207.834	1825
207.902	2294
207.970	2006
208.038	2402
208.105	1968
208.173	2756
208.241	4185
208.309	4194
208.376	3178
208.444	4402
208.512	3993
208.579	1597
208.647	2857
208.715	4057
208.782	2546
208.850	2434
208.918	2427
208.985	2784
209.053	2602
209.120	2405
209.188	1579
209.256	3146
209.323	1509
209.391	2106
209.459	3642
209.526	2689
209.594	1972
209.661	3126
209.729	2199
209.796	3130
209.864	2960
209.932	2199
209.999	3215
210.067	3327
210.134	2411
210.202	3156
210.269	3495
210.337	3745
210.404	2686
210.472	3614
210.539	2920
210.607	2830
210.674	2589
210.742	3542
210.809	1904
210.877	2847
210.944	3310
211.012	3128
211.079	4122
211.146	2996
211.214	2608
211.281	3642
211.349	3896
211.416	3284
211.484	2861
211.551	2991
211.618	2990
211.686	4121
211.753	2760
211.821	4050
211.888	3488
211.955	3859
212.023	3965
212.090	3746
212.157	3849
212.225	4482
212.292	9108
212.359	16610
212.427	39076
212.494	21850
212.561	7903
212.629	6116
212.696	4616
212.763	4606
212.831	3084
212.898	4382
212.965	4255
213.032	4347
213.100	3702
213.167	3774
213.234	3951
213.301	3870
213.369	3413
213.436	3777
213.503	2899
213.570	4144
213.638	3594
213.705	2935
213.772	2792
213.839	3029
213.906	4354
213.973	3422
214.041	3779
214.108	4768
214.175	3680
214.242	3823
214.309	4168
214.376	3962
214.444	3905
214.511	3417
214.578	3564
214.645	5001
214.712	4340
214.779	4682
214.846	3813
214.913	4726
214.980	3677
215.048	3711
215.115	5191
215.182	4398
215.249	3578
215.316	3923
215.383	3887
215.450	3962
215.517	3834
215.584	3078
215.651	3170
215.718	3690
215.785	3236
215.852	3346
215.919	4058
215.986	3173
216.053	3118
216.120	3578
216.187	4145
216.254	4082
216.321	3614
216.388	3554
216.455	4559
216.522	4406
216.589	4139
216.656	5831
216.722	5539
216.789	5934
216.856	4939
216.923	6186
216.990	5657
217.057	5753
217.124	6084
217.191	6096
217.258	6164
217.324	6962
217.391	7706
217.458	6719
217.525	6732
217.592	6028
217.659	4052
217.725	6294
217.792	5746
217.859	6655
217.926	3485
217.993	3996
218.059	4309
218.126	3898
218.193	2303
218.260	3657
218.327	2356
218.393	4017
218.460	3693
218.527	2594
218.594	2774
218.660	4423
218.727	4037
218.794	2828
218.860	3960
218.927	2621
218.994	2650
219.061	3116
219.127	3129
219.194	4324
219.261	3840
219.327	3547
219.394	2473
219.461	2514
219.527	2686
219.594	3845
219.661	3583
219.727	2444
219.794	3368
219.860	3122
219.927	4018
219.994	4766
220.060	6539
220.127	5728
220.193	5893
220.260	6528
220.326	9075
220.393	11804
220.460	13754
220.526	10644
220.593	7606
220.659	9942
220.726	8730
220.792	20350
220.859	18895
220.925	19958
220.992	22135
221.058	24802
221.125	27463
221.191	21382
221.258	10509
221.324	7611
221.391	6396
221.457	4876
221.524	5065
221.590	8180
221.657	23919
221.723	20833
221.789	15135
221.856	15787
221.922	7894
221.989	6505
222.055	4728
222.121	3730
222.188	5808
222.254	5986
222.321	3519
222.387	3378
222.453	2915
222.520	3727
222.586	2703
222.652	3863
222.719	2643
222.785	3622
222.851	3098
222.918	3053
222.984	3254
223.050	2332
223.116	1371
223.183	4004
223.249	3297
223.315	2398
223.382	2579
223.448	2482
223.514	1923
223.580	3308
223.647	2717
223.713	2418
223.779	3671
223.845	3250
223.911	3699
223.978	2250
224.044	3047
224.110	2416
224.176	3036
224.242	3103
224.309	1655
224.375	2048
224.441	2362
224.507	2582
224.573	1652
224.639	3454
224.705	2103
224.772	2647
224.838	1549
224.904	2505
224.970	1385
225.036	2559
225.102	1941
225.168	3331
225.234	2381
225.300	2931
225.366	2469
225.432	2827
225.499	2883
225.565	3051
225.631	3376
225.697	3890
225.763	5145
225.829	5836
225.895	5917
225.961	7339
226.027	6796
226.093	7062
226.159	9253
226.225	14115
226.291	26359
226.357	37750
226.423	23344
226.489	13650
226.554	9674
226.620	9802
226.686	10986
226.752	15272
226.818	26964
226.884	49004
226.950	45148
227.016	22590
227.082	12277
227.148	8435
227.214	6338
227.279	5398
227.345	5053
227.411	4566
227.477	5030
227.543	8157
227.609	8076
227.674	6349
227.740	3685
227.806	4787
227.872	4425
227.938	3873
228.003	4266
228.069	3918
228.135	2584
228.201	3560
228.267	2996
228.332	3764
228.398	2096
228.464	3410
228.530	2149
228.595	3407
228.661	2348
228.727	3249
228.792	3870
228.858	2558
228.924	1716
228.990	5760
229.055	2672
229.121	4885
229.187	2168
229.252	2191
229.318	2524
229.384	2502
229.449	2569
229.515	1295
229.581	1023
229.646	4360
229.712	2780
229.777	3752
229.843	4810
229.909	3642
229.974	4837
230.040	5159
230.105	4436
230.171	4764
230.236	8197
230.302	10612
230.368	8421
230.433	8824
230.499	5828
230.564	5883
230.630	3924
230.695	3947
230.761	4329
230.826	2818
230.892	5222
230.957	2849
231.023	3829
231.088	3801
231.154	3589
231.219	3451
231.284	3672
231.350	5096
231.415	2939
231.481	3945
231.546	3526
231.612	3341
231.677	3192
231.742	1618
231.808	4097
231.873	2513
231.939	1816
232.004	4656
232.069	3566
232.135	3455
232.200	3410
232.265	4212
232.331	2921
232.396	2368
232.461	2119
232.527	2423
232.592	1970
232.657	2736
232.723	2481
232.788	3369
232.853	3102
232.918	3441
232.984	2058
233.049	1786
233.114	2021
233.179	3404
233.245	4242
233.310	4335
233.375	1470
233.440	3119
233.506	5187
233.571	6207
233.636	3320
233.701	3200
233.766	2724
233.832	3904
233.897	1943
233.962	1630
234.027	3104
234.092	2029
234.157	1920
234.222	2535
234.288	2572
234.353	7476
234.418	6519
234.483	5908
234.548	4918
234.613	4304
234.678	4770
234.743	4366
234.808	8410
234.873	6133
234.938	5510
235.004	4765
235.069	4479
235.134	3703
235.199	4411
235.264	4658
235.329	2423
235.394	4408
235.459	4646
235.524	3532
235.589	4172
235.654	3685
235.719	2307
235.784	4220
235.849	3622
235.913	5390
235.978	5190
236.043	5407
236.108	4070
236.173	3344
236.238	5392
236.303	4103
236.368	3728
236.433	6659
236.498	7572
236.563	11147
236.627	21598
236.692	63657
236.757	66210
236.822	28499
236.887	15014
236.952	13671
237.017	11454
237.081	12707
237.146	14673
237.211	33384
237.276	66247
237.341	102839
237.405	59376
237.470	25403
237.535	14526
237.600	9806
237.664	9199
237.729	6685
237.794	8278
237.859	18521
237.923	12269
237.988	7447
238.053	7285
238.118	6113
238.182	12221
238.247	14333
238.312	5385
238.376	5905
238.441	3075
238.506	5139
238.570	2570
238.635	5232
238.700	3672
238.764	3036
238.829	5826
238.893	5804
238.958	5053
239.023	4410
239.087	2858
239.152	5065
239.216	3044
239.281	3828
239.346	3870
239.410	4191
239.475	3458
239.539	10742
239.604	9868
239.668	4884
239.733	4024
239.797	3910
239.862	10838
239.926	10316
239.991	5763
240.055	3279
240.120	3273
240.184	2564
240.249	1700
240.313	2994
240.378	2315
240.442	5744
240.507	9688
240.571	3798
240.635	2740
240.700	5386
240.764	3565
240.829	2365
240.893	1506
240.957	3812
241.022	6059
241.086	8140
241.151	3610
241.215	1030
241.279	3784
241.344	3394
241.408	4675
241.472	4475
241.537	6557
241.601	5203
241.665	4257
241.730	4671
241.794	5591
241.858	4174
241.922	4236
241.987	5115
242.051	4158
242.115	2946
242.179	4385
242.244	4307
242.308	5086
242.372	4963
242.436	4394
242.501	5224
242.565	3104
242.629	4617
242.693	5530
242.757	3710
242.822	3989
242.886	3831
242.950	4497
243.014	3806
243.078	5470
243.142	4584
243.206	4420
243.271	7309
243.335	6327
243.399	12286
243.463	43988
243.527	116544
243.591	44270
243.655	14023
243.719	7590
243.783	8614
243.847	13051
243.911	18414
243.975	9717
244.040	5933
244.104	6626
244.168	5014
244.232	4254
244.296	8209
244.360	14621
244.424	6397
244.488	4361
244.552	4779
244.615	2036
244.679	3449
244.743	3439
244.807	3060
244.871	3295
244.935	3169
244.999	2040
245.063	3497
245.127	5044
245.191	9392
245.255	11562
245.319	4472
245.383	1955
245.446	4342
245.510	1690
245.574	3559
245.638	3189
245.702	1203
245.766	5891
245.829	4601
245.893	2276
245.957	4160
246.021	5419
246.085	2844
246.149	3286
246.212	8038
246.276	13314
246.340	6490
246.404	4020
246.467	4576
246.531	3725
246.595	5574
246.659	4707
246.722	2002
246.786	3583
246.850	3870
246.913	4410
246.977	2742
247.041	3831
247.104	3785
247.168	3340
247.232	6602
247.295	17185
247.359	9305
247.423	4118
247.486	4784
247.550	4098
247.614	3193
247.677	3864
247.741	3610
247.804	3104
247.868	4726
247.932	5915
247.995	17194
248.059	6559
248.122	3285
248.186	5383
248.249	6913
248.313	27522
248.376	29375
248.440	18411
248.503	6437
248.567	7370
248.630	5481
248.694	8728
248.757	12737
248.821	33874
248.884	20137
248.948	15803
249.011	22283
249.075	36042
249.138	33004
249.202	13107
249.265	8510
249.328	9849
249.392	8120
249.455	8111
249.519	7082
249.582	7733
249.645	9020
249.709	7977
249.772	6902
249.835	7458
249.899	7493
249.962	8089
250.025	7698
250.089	13323
250.152	18207
250.215	10515
250.279	9081
250.342	9528
250.405	10251
250.468	11305
250.532	14203
250.595	25604
250.658	96770
250.721	176413
250.785	67387
250.848	29287
250.911	17817
250.974	15601
251.038	17509
251.101	25957
251.164	18137
251.227	17996
251.290	20908
251.354	37987
251.417	137926
251.480	160556
251.543	110608
251.606	242401
251.669	218954
251.732	88249
251.795	56930
251.859	60368
251.922	158013
251.985	107285
252.048	39561
252.111	24654
252.174	19249
252.237	25271
252.300	50802
252.363	73076
252.426	190696
252.489	93596
252.552	35832
252.615	20947
252.678	22099
252.741	41164
252.804	79634
252.867	202428
252.930	110381
252.993	42089
253.056	22860
253.119	15783
253.182	13853
253.245	31590
253.308	26340
253.371	12317
253.434	10309
253.497	8869
253.559	15216
253.622	10588
253.685	8774
253.748	8391
253.811	6557
253.874	6628
253.937	6488
254.000	5015
254.062	9357
254.125	16228
254.188	9909
254.251	7525
254.314	5517
254.376	6831
254.439	7422
254.502	5910
254.565	8044
254.628	17130
254.690	7735
254.753	4248
254.816	3965
254.878	4105
254.941	9853
255.004	11407
255.067	4749
255.129	3555
255.192	3409
255.255	2060
255.317	2945
255.380	3414
255.443	2495
255.505	2296
255.568	2558
255.631	1974
255.693	4021
255.756	1598
255.819	3479
255.881	3015
255.944	2375
256.006	3488
256.069	3301
256.132	2090
256.194	3617
256.257	6380
256.319	5831
256.382	5496
256.444	6750
256.507	6230
256.569	6088
256.632	6769
256.694	10376
256.757	30237
256.819	107799
256.882	55515
256.944	19654
257.007	11167
257.069	9179
257.132	7268
257.194	7561
257.257	6724
257.319	6429
257.381	10105
257.444	24252
257.506	110175
257.569	139113
257.631	48461
257.693	20619
257.756	12063
257.818	8422
257.880	6901
257.943	7262
258.005	4559
258.067	5478
258.130	5063
258.192	5468
258.254	5719
258.317	5315
258.379	5242
258.441	7454
258.503	9116
258.566	9002
258.628	11623
258.690	4839
258.753	5368
258.815	5912
258.877	5412
258.939	4862
259.001	5753
259.064	4612
259.126	4460
259.188	5629
259.250	4732
259.312	5931
259.375	6753
259.437	6289
259.499	4409
259.561	4441
259.623	4879
259.685	3430
259.747	4576
259.809	8605
259.872	14463
259.934	23434
259.996	21243
260.058	7169
260.120	3716
260.182	3537
260.244	2691
260.306	3534
260.368	2983
260.430	3328
260.492	3776
260.554	5878
260.616	4740
260.678	9167
260.740	13680
260.802	4615
260.864	3780
260.926	2612
260.988	3836
261.050	3147
261.112	2885
261.174	11782
261.236	12643
261.298	4016
261.359	5870
261.421	8738
261.483	3700
261.545	3796
261.607	2284
261.669	3730
261.731	4080
261.793	7491
261.854	3384
261.916	4505
261.978	2240
262.040	3093
262.102	3036
262.164	3169
262.225	3039
262.287	2772
262.349	3685
262.411	4171
262.472	4641
262.534	3492
262.596	7588
262.658	4927
262.719	2356
262.781	3475
262.843	7190
262.904	6176
262.966	5366
263.028	9048
263.090	40326
263.151	134073
263.213	44092
263.275	12533
263.336	5387
263.398	5313
263.459	2605
263.521	3457
263.583	4984
263.644	3560
263.706	1482
263.767	1672
263.829	1929
263.891	1633
263.952	1471
264.014	2110
264.075	894
264.137	1913
264.198	2227
264.260	1716
264.321	1367
264.383	3052
264.444	3000
264.506	2623
264.567	2024
264.629	3591
264.690	486
264.752	2211
264.813	2754
264.875	1018
264.936	3371
264.998	2189
265.059	2381
265.120	3790
265.182	6925
265.243	47467
265.305	63195
265.366	16493
265.427	6993
265.489	5094
265.550	2677
265.611	2958
265.673	2254
265.734	2893
265.795	3040
265.857	3730
265.918	4946
265.979	13119
266.040	80321
266.102	88825
266.163	21861
266.224	10058
266.286	5502
266.347	4377
266.408	3017
266.469	3101
266.530	2860
266.592	2756
266.653	2627
266.714	4198
266.775	2000
266.836	2497
266.898	1606
266.959	2987
267.020	2232
267.081	3792
267.142	1750
267.203	2218
267.264	1371
267.326	2975
267.387	1727
267.448	1739
267.509	2488
267.570	2731
267.631	1425
267.692	1642
267.753	2603
267.814	1655
267.875	3123
267.936	6933
267.997	6498
268.058	6766
268.119	3236
268.180	4132
268.241	2676
268.302	2411
268.363	1059
268.424	2108
268.485	1723
268.546	1672
268.607	1631
268.668	1327
268.729	1965
268.790	1504
268.851	2107
268.912	3092
268.972	3240
269.033	2614
269.094	1244
269.155	2080
269.216	1789
269.277	1416
269.338	1651
269.398	1999
269.459	2433
269.520	3216
269.581	2132
269.642	3345
269.702	2281
269.763	3412
269.824	2214
269.885	3317
269.945	4187
270.006	2138
270.067	1153
270.128	2267
270.188	1730
270.249	1545
270.310	2318
270.370	2929
270.431	1958
270.492	1102
270.553	2391
270.613	3182
270.674	4369
270.734	2486
270.795	1765
270.856	2095
270.916	2003
270.977	1908
271.038	2925
271.098	2406
271.159	2171
271.219	1974
271.280	1859
271.340	2126
271.401	1134
271.462	3790
271.522	2554
271.583	2474
271.643	1587
271.704	2117
271.764	1585
271.825	4372
271.885	18130
271.946	36260
272.006	8525
272.066	12581
272.127	28843
272.187	8756
272.248	3939
272.308	3919
272.369	14772
272.429	10075
272.489	3547
272.550	3085
272.610	3485
272.671	2743
272.731	3108
272.791	4269
272.852	2586
272.912	2298
272.972	1113
273.033	1277
273.093	2319
273.153	2879
273.214	1677
273.274	1673
273.334	5869
273.394	17317
273.455	5561
273.515	4161
273.575	10556
273.635	5306
273.696	6216
273.756	21122
273.816	7506
273.876	3585
273.936	6058
273.997	11580
274.057	3243
274.117	2330
274.177	3007
274.237	19088
274.297	20638
274.358	9289
274.418	11843
274.478	7956
274.538	2672
274.598	1852
274.658	8010
274.718	11212
274.778	4336
274.838	2500
274.898	3269
274.958	15427
275.018	20747
275.078	15274
275.138	4002
275.198	2359
275.258	1658
275.318	1890
275.378	2508
275.438	3168
275.498	1929
275.558	7003
275.618	16276
275.678	10976
275.738	4713
275.798	2966
275.858	1843
275.918	835
275.978	1630
276.038	2382
276.098	1376
276.157	1552
276.217	6251
276.277	3085
276.337	1767
276.397	1899
276.457	1451
276.517	1900
276.576	1460
276.636	1046
276.696	1719
276.756	3896
276.815	3203
276.875	2235
276.935	1786
276.995	1913
277.055	1458
277.114	1446
277.174	1779
277.234	5682
277.293	2380
277.353	2173
277.413	1275
277.472	692
277.532	819
277.592	1773
277.651	4291
277.711	9162
277.771	2500
277.830	9099
277.890	8569
277.950	6711
278.009	25509
278.069	9190
278.128	6235
278.188	8394
278.248	3262
278.307	9586
278.367	5863
278.426	3180
278.486	2404
278.545	2236
278.605	2058
278.664	1624
278.724	2373
278.783	7390
278.843	21348
278.902	6348
278.962	2575
279.021	2927
279.081	4235
279.140	4870
279.199	4235
279.259	5483
279.318	5374
279.378	6575
279.437	10130
279.496	32265
279.556	113994
279.615	102701
279.675	23131
279.734	12306
279.793	12622
279.853	25415
279.912	10622
279.971	5212
280.031	4637
280.090	8328
280.149	15082
280.208	10501
280.268	64057
280.327	85827
280.386	16641
280.445	9273
280.505	5912
280.564	3292
280.623	2240
280.682	4744
280.742	5811
280.801	2255
280.860	1493
280.919	1917
280.978	1608
281.037	1358
281.097	539
281.156	2380
281.215	1658
281.274	2376
281.333	8330
281.392	8074
281.451	1640
281.510	1620
281.569	805
281.628	2601
281.688	1936
281.747	1188
281.806	1863
281.865	1251
281.924	391
281.983	1736
282.042	11
282.101	611
282.160	287
282.219	1258
282.278	1303
282.337	3665
282.396	2938
282.454	1526
282.513	1122
282.572	4883
282.631	2854
282.690	1480
282.749	294
282.808	1856
282.867	695
282.926	1249
282.985	10
283.043	793
283.102	680
283.161	1097
283.220	2463
283.279	8343
283.338	3444
283.396	1256
283.455	1617
283.514	1571
283.573	2178
283.631	2152
283.690	1830
283.749	1451
283.808	2215
283.866	3191
283.925	756
283.984	1436
284.043	1677
284.101	1794
284.160	421
284.219	1739
284.277	720
284.336	2422
284.395	7391
284.453	7151
284.512	2784
284.570	2603
284.629	2405
284.688	2035
284.746	2288
284.805	3185
284.863	3212
284.922	4437
284.981	5707
285.039	8595
285.098	13211
285.156	37591
285.215	168471
285.273	197353
285.332	80666
285.390	33462
285.449	16413
285.507	10546
285.566	7356
285.624	5861
285.683	4906
285.741	3837
285.799	2782
285.858	2764
285.916	2600
285.975	2477
286.033	2415
286.091	2882
286.150	1049
286.208	1953
286.267	2292
286.325	2433
286.383	1600
286.442	2520
286.500	1218
286.558	1424
286.616	1695
286.675	2449
286.733	1144
286.791	1184
286.850	1892
286.908	2986
286.966	3532
287.024	2733
287.083	1535
287.141	1228
287.199	2599
287.257	3063
287.315	2233
287.374	3012
287.432	5360
287.490	5970
287.548	3406
287.606	3896
287.664	3049
287.723	4914
287.781	5063
287.839	7904
287.897	9727
287.955	14177
288.013	24052
288.071	51343
288.129	187761
288.187	490124
288.245	285438
288.303	100397
288.361	51171
288.419	28644
288.477	19896
288.535	13968
288.593	11095
288.651	8849
288.709	6763
288.767	6381
288.825	4638
288.883	4736
288.941	3373
288.999	2608
289.057	2415
289.115	3421
289.173	2267
289.231	3262
289.289	2104
289.346	2168
289.404	1642
289.462	2258
289.520	3061
289.578	2210
289.636	1713
289.694	2034
289.751	1009
289.809	1333
289.867	1567
289.925	2233
289.983	2667
290.040	2044
290.098	1417
290.156	1207
290.214	1764
290.271	1642
290.329	1105
290.387	1016
290.444	189
290.502	831
290.560	1535
290.617	1315
290.675	652
290.733	472
290.790	1225
290.848	1372
290.906	769
290.963	221
291.021	799
291.078	362
291.136	-355
291.194	1642
291.251	4766
291.309	1807
291.366	246
291.424	-124
291.481	-470
291.539	391
291.596	54
291.654	528
291.711	291
291.769	494
291.826	1539
291.884	1344
291.941	373
291.999	383
292.056	-42
292.114	806
292.171	323
292.228	662
292.286	303
292.343	469
292.401	1408
292.458	703
292.515	-78
292.573	870
292.630	1006
292.687	1416
292.745	49
292.802	971
292.859	1464
292.917	5690
292.974	3410
293.031	1326
293.089	445
293.146	875
293.203	-241
293.260	438
293.318	-422
293.375	777
293.432	390
293.489	438
293.546	-371
293.604	1524
293.661	4944
293.718	21754
293.775	7745
293.832	2492
293.889	1883
293.947	2114
294.004	557
294.061	903
294.118	1718
294.175	4481
294.232	2183
294.289	1220
294.346	1749
294.403	3345
294.460	997
294.517	385
294.574	1079
294.631	1156
294.688	834
294.745	2916
294.802	18526
294.859	13138
294.916	3822
294.973	2051
295.030	1575
295.087	1426
295.144	1077
295.201	929
295.258	21
295.315	1178
295.372	5600
295.429	15622
295.486	5832
295.542	2288
295.599	1532
295.656	2190
295.713	3391
295.770	11252
295.827	2780
295.883	1803
295.940	939
295.997	1065
296.054	770
296.111	460
296.167	1526
296.224	943
296.281	141
296.338	1058
296.394	-362
296.451	1210
296.508	3709
296.564	7701
296.621	4779
296.678	19311
296.734	32346
296.791	9536
296.848	3622
296.904	3332
296.961	5219
297.018	12552
297.074	12124
297.131	3598
297.187	3267
297.244	4069
297.301	16829
297.357	39019
297.414	12417
297.470	4069
297.527	1983
297.583	1596
297.640	1335
297.696	1213
297.753	803
297.809	17
297.866	25
297.922	1234
297.979	505
298.035	763
298.092	1581
298.148	6566
298.204	6241
298.261	2294
298.317	6210
298.374	26697
298.430	15227
298.486	5775
298.543	3183
298.599	3220
298.656	2960
298.712	8930
298.768	46686
298.824	46513
298.881	12088
298.937	5022
298.993	3449
299.050	2874
299.106	2712
299.162	2037
299.218	2458
299.275	1682
299.331	1959
299.387	5153
299.443	22394
299.500	25973
299.556	9534
299.612	4518
299.668	2657
299.724	4639
299.780	5972
299.837	2543
299.893	2899
299.949	11119
300.005	14014
300.061	12699
300.117	30364
300.173	15838
300.229	4862
300.285	3494
300.341	2784
300.397	2070
300.453	954
300.510	1016
300.566	1316
300.622	2399
300.678	10554
300.734	17944
300.790	12999
300.845	19008
300.901	10164
300.957	12369
301.013	8170
301.069	2658
301.125	2106
301.181	1649
301.237	655
301.293	354
301.349	1057
301.405	114
301.461	47
301.516	224
301.572	386
301.628	774
301.684	386
301.740	2692
301.796	5270
301.851	4059
301.907	5772
301.963	6914
302.019	17454
302.074	69958
302.130	70522
302.186	28764
302.242	10286
302.297	5858
302.353	3609
302.409	6623
302.464	5415
302.520	4090
302.576	14774
302.631	18265
302.687	8159
302.743	3567
302.798	2472
302.854	2225
302.910	2480
302.965	1634
303.021	3578
303.076	3401
303.132	2864
303.187	3648
303.243	2469
303.299	1910
303.354	802
303.410	2610
303.465	438
303.521	1200
303.576	651
303.632	1401
303.687	4685
303.743	18815
303.798	16645
303.853	5552
303.909	3125
303.964	1927
304.020	2773
304.075	2860
304.130	2805
304.186	3746
304.241	5797
304.297	4683
304.352	1896
304.358	1804
304.407	1054
304.449	1290
304.463	1368
304.518	1556
304.539	1523
304.573	1469
304.629	2376
304.630	2388
304.684	3354
304.720	10648
304.739	14191
304.794	25131
304.811	21279
304.850	11732
304.902	4922
304.905	4529
304.960	3385
304.992	4718
305.015	5489
305.071	5029
305.083	4411
305.126	2298
305.173	2412
305.181	2448
305.236	1940
305.264	2119
305.292	2329
305.347	1581
305.354	1725
305.402	2964
305.445	3941
305.457	4063
305.512	5971
305.535	5398
305.567	4766
305.622	3436
305.626	3623
305.678	9903
305.716	21521
305.733	24769
305.788	22299
305.807	18638
305.843	14693
305.897	24605
305.898	24680
305.953	24061
305.988	15393
306.008	11114
306.063	5661
306.078	4817
306.118	3448
306.168	2649
306.173	2585
306.228	2117
306.259	2355
306.283	2647
306.338	2345
306.349	2611
306.393	4314
306.440	6067
306.448	6125
306.503	5659
306.530	4867
306.558	5216
306.613	8404
306.620	8772
306.668	11295
306.711	14727
306.723	14702
306.778	11115
306.801	8623
306.833	6519
306.888	3464
306.892	3438
306.943	3972
306.982	3638
306.997	3543
307.052	3578
307.072	3620
307.107	4116
307.162	6120
307.163	6114
307.217	4994
307.253	4595
307.272	4651
307.327	3950
307.343	4230
307.381	5069
307.434	5391
307.436	5505
307.491	8004
307.524	10527
307.546	11531
307.600	13872
307.614	13522
307.655	10769
307.704	8856
307.710	8982
307.765	10370
307.795	11518
307.819	12654
307.874	15711
307.885	16114
307.929	20197
307.975	26540
307.984	29743
308.038	52397
308.065	66170
308.093	119383
308.148	248746
308.156	275138
308.202	403668
308.246	492350
308.257	473377
308.312	263781
308.336	173108
308.366	123131
308.421	63879
308.426	59123
308.475	41924
308.517	31074
308.530	29087
308.585	24072
308.607	22255
308.639	20955
308.694	19690
308.697	19616
308.748	20208
308.787	21376
308.803	22049
308.857	23500
308.877	24201
308.912	27938
308.967	34996
308.967	35044
309.021	52152
309.058	64808
309.076	85563
309.130	153950
309.148	180492
309.185	324674
309.238	570397
309.239	572674
309.293	612947
309.328	581928
309.348	505831
309.402	259028
309.418	194727
309.457	136557
309.508	75077
309.511	73490
309.566	52417
309.598	42185
309.620	39466
309.674	33307
309.688	32131
309.729	28718
309.778	24736
309.783	24463
309.837	20693
309.868	18820
309.892	20217
309.946	24063
309.959	25128
310.001	28346
310.049	31290
310.055	30274
310.109	19922
310.139	13893
310.163	12097
310.218	9158
310.229	8540
310.272	7851
310.319	7549
310.326	7488
310.381	6720
310.409	6369
310.435	6183
310.489	5739
310.499	5688
310.543	5890
310.589	5953
310.598	5916
310.652	5669
310.679	5457
310.706	5201
310.760	4811
310.769	4717
310.814	4942
310.859	5254
310.868	5233
310.923	4837
310.948	4742
310.977	5001
311.031	5266
311.038	5301
311.085	4946
311.128	4462
311.139	4463
311.193	4619
311.218	4551
311.247	4513
311.301	4589
311.308	4577
311.356	4310
311.398	4021
311.410	4173
311.464	4818
311.488	5098
311.518	4906
311.572	4500
311.578	4449
311.626	5199
311.668	5717
311.680	5560
311.734	4768
311.758	4400
311.788	4292
311.842	4100
311.847	4065
311.896	4858
311.937	5508
311.950	5489
312.004	5316
312.027	5238
312.058	5029
312.112	4590
312.117	4531
312.165	4464
312.207	4379
312.297	3984
312.386	4297
312.476	5701
312.566	7302
312.656	4715
312.745	4627
312.835	4557
312.925	4027
313.015	4400
313.104	4214
313.194	4509
313.284	4147
313.374	5757
313.463	5371
313.553	4961
313.643	4242
313.732	4363
313.822	4244
313.912	4748
314.001	4979
314.091	5014
314.180	4549
314.270	5463
314.360	4960
314.449	5450
314.539	4047
314.628	4332
314.718	4789
314.808	4551
314.897	4807
314.987	4949
315.076	5162
315.166	5618
315.255	4766
315.345	5529
315.434	4899
315.524	5164
315.613	6112
315.703	8082
315.792	16466
315.881	50678
315.971	17795
316.060	7788
316.150	5838
316.239	5114
316.328	4325
316.418	4245
316.507	4951
316.597	5262
316.686	4820
316.775	4926
316.865	5318
316.954	5234
317.043	4092
317.133	4379
317.222	4452
317.311	3813
317.400	3664
317.490	6910
317.579	5716
317.668	5435
317.757	9991
317.847	27564
317.936	88706
318.025	29110
318.114	16631
318.203	9553
318.293	7318
318.382	11677
318.471	9912
318.560	8677
318.649	7250
318.738	4343
318.828	5229
318.917	4844
319.006	3825
319.095	5061
319.184	9191
319.273	9455
319.362	8722
319.451	4618
319.540	4940
319.629	7507
319.718	10876
319.807	5248
319.896	6312
319.985	11807
320.074	7412
320.163	3689
320.252	3853
320.341	4298
320.430	4528
320.519	6835
320.608	4338
320.697	5193
320.786	4159
320.875	5974
320.964	7019
321.053	9292
321.142	11114
321.230	11694
321.319	9136
321.408	16143
321.497	8062
321.586	8275
321.675	7613
321.764	7684
321.852	7296
321.941	11099
322.030	8557
322.119	9593
322.207	17971
322.296	7898
322.385	6554
322.474	9918
322.562	23491
322.651	10653
322.740	9609
322.829	10318
322.917	7157
323.006	6865
323.095	6949
323.183	4919
323.272	6213
323.361	6483
323.449	8695
323.538	5303
323.626	7577
323.715	5344
323.804	4198
323.892	6874
323.981	7282
324.069	4825
324.158	4717
324.246	4811
324.335	5252
324.424	7477
324.512	4936
324.601	4511
324.689	5480
324.778	6231
324.866	4831
324.954	4044
325.043	3690
325.131	3712
325.220	4593
325.308	4994
325.397	4965
325.485	4472
325.574	4165
325.662	3339
325.750	5150
325.839	4087
325.927	3617
326.015	3663
326.104	3060
326.192	4027
326.280	3468
326.369	4034
326.457	4838
326.545	6669
326.634	4412
326.722	3419
326.810	3069
326.898	3576
326.987	4292
327.075	5415
327.163	6568
327.251	3452
327.340	3678
327.428	4521
327.516	3618
327.604	3622
327.692	3333
327.781	3298
327.869	4045
327.957	3613
328.045	4508
328.133	3634
328.221	3822
328.309	3580
328.397	4680
328.485	4967
328.574	6949
328.662	13987
328.750	7367
328.838	4400
328.926	4294
329.014	4916
329.102	5315
329.190	7900
329.278	6824
329.366	5883
329.454	6053
329.542	6844
329.630	8191
329.718	9366
329.806	12154
329.893	17140
329.981	27243
330.069	70479
330.157	297656
330.245	685222
330.333	355259
330.421	67705
330.509	28036
330.597	25129
330.684	16221
330.772	9401
330.860	6846
330.948	5719
331.036	4796
331.123	5060
331.211	4455
331.299	3926
331.387	4102
331.475	4824
331.562	4797
331.650	4197
331.738	3365
331.825	3771
331.913	3574
332.001	3731
332.089	3317
332.176	3221
332.264	5157
332.352	4473
332.439	3211
332.527	3470
332.614	2223
332.702	3377
332.790	3114
332.877	3614
332.965	4336
333.052	3430
333.140	3723
333.228	6060
333.315	3993
333.403	3535
333.490	3568
333.578	4133
333.665	7494
333.753	5194
333.840	3408
333.928	3044
334.015	4351
334.103	6003
334.190	9311
334.278	6058
334.365	6527
334.452	6257
334.540	6123
334.627	5544
334.715	6159
334.802	8057
334.889	11922
334.977	13820
335.064	8760
335.151	5772
335.239	5118
335.326	4960
335.413	6563
335.501	8916
335.588	4702
335.675	5742
335.762	5218
335.850	7398
335.937	8524
336.024	13729
336.111	18050
336.199	14217
336.286	8235
336.373	6328
336.460	5178
336.547	4161
336.635	5447
336.722	3536
336.809	3053
336.896	3517
336.983	5440
337.070	9060
337.157	8227
337.245	4348
337.332	4644
337.419	2674
337.506	2523
337.593	3407
337.680	3363
337.767	6350
337.854	3953
337.941	3297
338.028	4715
338.115	3473
338.202	3881
338.289	3422
338.376	5806
338.463	2828
338.550	3320
338.637	4022
338.724	2503
338.811	2808
338.898	2431
338.984	2725
339.071	2543
339.158	2882
339.245	6651
339.332	4177
339.419	3938
339.506	3181
339.593	2030
339.679	3941
339.766	2629
339.853	2418
339.940	6208
340.027	2336
340.113	3217
340.200	3755
340.287	3312
340.374	2683
340.460	5335
340.547	2382
340.634	4108
340.720	14538
340.807	8584
340.894	2682
340.980	2940
341.067	2603
341.154	3325
341.240	3840
341.327	6823
341.414	3190
341.500	2714
341.587	3381
341.674	3385
341.760	5740
341.847	6182
341.933	3613
342.020	1550
342.106	2565
342.193	3031
342.279	4370
342.366	3733
342.452	5562
342.539	3552
342.625	7097
342.712	15881
342.798	7544
342.885	3497
342.971	1907
343.058	3178
343.144	2438
343.230	2859
343.317	2451
343.403	2497
343.490	2664
343.576	1872
343.662	2966
343.749	2912
343.835	3928
343.921	7831
344.008	67483
344.094	150631
344.180	23142
344.267	6361
344.353	23389
344.439	20529
344.525	8424
344.612	8016
344.698	8024
344.784	5193
344.870	3420
344.957	3239
345.043	4665
345.129	2687
345.215	4989
345.301	2962
345.387	2677
345.474	1988
345.560	1999
345.646	1767
345.732	2924
345.818	2836
345.904	2605
345.990	2912
346.076	2959
346.162	2417
346.249	2918
346.335	2518
346.421	5023
346.507	12442
346.593	41079
346.679	8682
346.765	3674
346.851	3746
346.937	2356
347.023	3578
347.108	3560
347.194	2954
347.280	2706
347.366	4078
347.452	13037
347.538	56233
347.624	32194
347.710	18970
347.796	3130
347.882	2781
347.967	3039
348.053	2593
348.139	1820
348.225	2686
348.311	3202
348.397	2677
348.482	3555
348.568	3132
348.654	2216
348.740	5200
348.825	5142
348.911	7003
348.997	23998
349.083	49431
349.168	6664
349.254	2369
349.340	3135
349.425	2532
349.511	3084
349.597	2632
349.682	5963
349.768	21758
349.854	9079
349.939	3890
350.025	4873
350.110	11478
350.196	4191
350.282	1914
350.367	2839
350.453	2695
350.538	2215
350.624	1944
350.709	3244
350.795	1638
350.880	2172
350.966	3236
351.051	3131
351.137	1782
351.222	3018
351.308	6505
351.393	15787
351.479	4908
351.564	2269
351.649	3429
351.735	2819
351.820	1878
351.906	2509
351.991	3088
352.076	11195
352.162	15432
352.247	3841
352.332	2615
352.418	3857
352.503	5406
352.588	21047
352.673	16366
352.759	5130
352.844	2493
352.929	3023
353.014	3253
353.100	3138
353.185	4713
353.270	5679
353.355	6813
353.441	3280
353.526	3507
353.611	5209
353.696	5902
353.781	5526
353.866	2666
353.952	2867
354.037	4770
354.122	10569
354.207	8605
354.292	5035
354.377	3788
354.462	3056
354.547	4140
354.632	3834
354.717	4451
354.802	3679
354.887	3194
354.972	2243
355.057	2541
355.142	2388
355.227	2700
355.312	4031
355.397	7629
355.482	15412
355.567	8523
355.652	6553
355.737	7002
355.822	24929
355.907	19041
355.991	5237
356.076	2713
356.161	3321
356.246	3462
356.331	3281
356.416	6766
356.501	60020
356.585	59146
356.670	6371
356.755	5929
356.840	7394
356.924	39161
357.009	157364
357.094	49492
357.179	7200
357.263	4308
357.348	5064
357.433	5077
357.517	5254
357.602	4387
357.687	3296
357.771	4807
357.856	5415
357.941	6711
358.025	36620
358.110	192438
358.195	78046
358.279	7678
358.364	4692
358.448	15318
358.533	39461
358.617	26640
358.702	28692
358.787	10417
358.871	5459
358.956	4973
359.040	3239
359.125	2781
359.209	3028
359.294	3914
359.378	4884
359.462	5240
359.547	2903
359.631	2464
359.716	2548
359.800	3076
359.885	3549
359.969	3012
360.053	3877
360.138	2971
360.222	3312
360.306	6081
360.391	5071
360.475	5291
360.559	10124
360.644	13783
360.728	11561
360.812	30706
360.896	91790
360.981	25529
361.065	8253
361.149	4752
361.233	4203
361.318	3545
361.402	3527
361.486	4245
361.570	3664
361.654	4390
361.739	9781
361.823	57121
361.907	97241
361.991	14239
362.075	6954
362.159	12279
362.243	12082
362.327	16338
362.411	19453
362.495	9729
362.580	6606
362.664	5955
362.748	6201
362.832	9711
362.916	16757
363.000	40797
363.084	88588
363.168	121401
363.252	25039
363.336	9029
363.420	8113
363.503	8406
363.587	8968
363.671	6184
363.755	5287
363.839	9023
363.923	5417
364.007	9265
364.091	11821
364.175	11725
364.258	27858
364.342	48396
364.426	74470
364.510	37741
364.594	16740
364.677	18298
364.761	80746
364.845	56657
364.929	12053
365.013	8943
365.096	8662
365.180	7958
365.264	4828
365.347	10158
365.431	5365
365.515	1940
365.598	2001
365.682	4006
365.766	1685
365.849	2765
365.933	3112
366.017	4985
366.100	1889
366.184	2066
366.267	4183
366.351	3042
366.435	2656
366.518	2467
366.602	2787
366.685	2640
366.769	2553
366.852	3552
366.936	4421
367.019	4130
367.103	1325
367.186	3935
367.270	2553
367.353	2545
367.436	4117
367.520	2334
367.603	3177
367.687	4079
367.770	6724
367.853	5307
367.937	16654
368.020	27999
368.104	5882
368.187	5600
368.270	6516
368.353	6069
368.437	5163
368.520	4325
368.603	6186
368.687	15804
368.770	32149
368.853	7576
368.936	6165
369.020	4625
369.103	3043
369.186	2423
369.269	2564
369.352	4986
369.436	5186
369.519	4649
369.602	1418
369.685	4639
369.768	2403
369.851	3160
369.934	1703
370.018	2685
370.101	4453
370.184	6074
370.267	3847
370.350	5238
370.433	8045
370.516	34592
370.599	50698
370.682	13291
370.765	15049
370.848	20291
370.931	41851
371.014	14645
371.097	3319
371.180	3566
371.263	3337
371.346	1414
371.429	2890
371.511	1624
371.594	3358
371.677	4369
371.760	4346
371.843	7239
371.926	63895
372.009	161474
372.091	40604
372.174	16370
372.257	48643
372.340	17176
372.423	5742
372.505	6083
372.588	4339
372.671	11798
372.754	40404
372.836	20739
372.919	4812
373.002	6514
373.085	3938
373.167	6734
373.250	17206
373.332	43186
373.415	84186
373.498	201252
373.580	64196
373.663	98242
373.746	142048
373.828	23365
373.911	7381
373.993	4236
374.076	6659
374.159	6989
374.241	9240
374.324	31359
374.406	22461
374.489	47629
374.571	139247
374.654	47653
374.736	21242
374.819	77483
374.901	125009
374.983	140421
375.066	20464
375.148	4615
375.231	5180
375.313	9155
375.395	5086
375.478	2859
375.560	4274
375.643	5638
375.725	20683
375.807	102131
375.890	64638
375.972	7805
376.054	6496
376.136	4603
376.219	4248
376.301	24686
376.383	77010
376.465	28323
376.548	11047
376.630	17007
376.712	56710
376.794	27226
376.877	4225
376.959	2093
377.041	3409
377.123	2354
377.205	2855
377.287	1698
377.369	3339
377.452	3165
377.534	2342
377.616	2492
377.698	2062
377.780	1685
377.862	2819
377.944	3870
378.026	1277
378.108	3813
378.190	1639
378.272	2594
378.354	1913
378.436	1900
378.518	2287
378.600	5400
378.682	7072
378.764	20246
378.846	16883
378.928	3996
379.010	4950
379.091	4216
379.173	2641
379.255	2219
379.337	3174
379.419	10654
379.501	30817
379.583	12444
379.664	3445
379.746	6551
379.828	19092
379.910	26181
379.991	25603
380.073	4908
380.155	2942
380.237	2624
380.318	2635
380.400	2882
380.482	5380
380.564	6546
380.645	5919
380.727	5745
380.809	4692
380.890	2738
380.972	2089
381.053	3092
381.135	4060
381.217	6952
381.298	20674
381.380	10031
381.461	10307
381.543	59161
381.624	75806
381.706	12153
381.787	4788
381.869	7375
381.951	33777
382.032	142492
382.113	83151
382.195	8499
382.276	7516
382.358	16122
382.439	52133
382.521	69722
382.602	120708
382.684	44496
382.765	59070
382.846	52967
382.928	42822
383.009	25396
383.090	23498
383.172	71184
383.253	97555
383.334	45474
383.416	79657
383.497	41617
383.578	13015
383.659	21996
383.741	73602
383.822	162713
383.903	82436
383.984	42603
384.066	81640
384.147	48746
384.228	10006
384.309	7737
384.390	6672
384.471	5962
384.553	4858
384.634	5662
384.715	6390
384.796	3897
384.877	5421
384.958	19235
385.039	22031
385.120	7841
385.201	5225
385.282	4237
385.363	4853
385.444	4416
385.525	11173
385.606	42103
385.687	38466
385.768	7844
385.849	9343
385.930	64741
386.011	126323
386.092	30392
386.173	5836
386.254	4939
386.335	5335
386.416	4659
386.496	12444
386.577	19968
386.658	7467
386.739	4786
386.820	4508
386.901	2985
386.981	4500
387.062	4151
387.143	6590
387.224	21014
387.304	19204
387.385	7775
387.466	3274
387.547	5806
387.627	4748
387.708	9836
387.789	39469
387.869	53310
387.950	17425
388.031	4307
388.111	1927
388.192	5064
388.273	6769
388.353	4558
388.434	5028
388.514	10517
388.595	57616
388.676	67177
388.756	21998
388.837	17752
388.917	12271
388.998	3269
389.078	6127
389.159	6900
389.239	5560
389.320	7131
389.400	3549
389.480	9975
389.561	23829
389.641	13705
389.722	5461
389.802	6287
389.883	11025
389.963	31796
390.043	18544
390.124	4556
390.204	9618
390.284	23889
390.365	19602
390.445	51792
390.525	266641
390.605	263773
390.686	42878
390.766	10904
390.846	8297
390.927	5968
391.007	6661
391.087	5767
391.167	4453
391.247	3778
391.328	5142
391.408	6511
391.488	5376
391.568	2853
391.648	5524
391.728	7650
391.808	7973
391.888	7556
391.969	14184
392.049	21766
392.129	11596
392.209	13449
392.289	31664
392.369	19044
392.449	10490
392.529	10814
392.609	13374
392.689	16535
392.769	36119
392.849	34801
392.929	27733
393.009	53124
393.089	59273
393.169	85721
393.248	289374
393.328	972096
393.408	1021886
393.488	294337
393.568	82364
393.648	42971
393.728	28340
393.807	23304
393.887	21856
393.967	21320
394.047	25188
394.127	34193
394.206	65135
394.286	231475
394.366	848890
394.446	950880
394.525	292369
394.605	76582
394.685	39904
394.764	28916
394.844	24208
394.924	23325
395.003	18356
395.083	15622
395.163	15594
395.242	15620
395.322	15734
395.402	13603
395.481	18673
395.561	18951
395.640	30567
395.720	41829
395.799	42222
395.879	54730
395.958	105843
396.038	361044
396.117	1075283
396.197	1208079
396.276	460668
396.356	139465
396.435	72626
396.515	51520
396.594	50904
396.673	82294
396.753	305722
396.832	877599
396.912	620789
396.991	129453
397.070	40672
397.150	23600
397.229	19851
397.308	22262
397.388	32568
397.467	22387
397.546	11733
397.625	6786
397.705	10028
397.784	7185
397.863	6131
397.942	5642
398.022	5400
398.101	4889
398.180	7598
398.259	5189
398.338	4871
398.417	4557
398.497	3478
398.576	4800
398.655	2297
398.734	3720
398.813	2917
398.892	3828
398.971	6738
399.050	3397
399.129	2666
399.208	3989
399.287	5281
399.366	5251
399.445	3787
399.524	2733
399.603	1275
399.682	3371
399.761	5483
399.840	7453
399.919	6822
399.998	2282
400.077	1312
400.156	1430
400.235	3843
400.313	1380
400.392	1602
400.471	10259
400.550	15763
400.629	4590
400.708	3496
400.786	1903
400.865	2236
400.944	2010
401.023	4360
401.102	1108
401.180	2356
401.259	1381
401.338	1384
401.416	2703
401.495	1564
401.574	2161
401.652	1537
401.731	2414
401.810	1363
401.888	1419
401.967	1175
402.046	1385
402.124	2160
402.203	1621
402.281	2381
402.360	685
402.438	3363
402.517	743
402.596	1700
402.674	985
402.753	1069
402.831	2163
402.910	2406
402.988	6458
403.066	21218
403.145	14002
403.223	9829
403.302	20062
403.380	14214
403.459	11675
403.537	5096
403.615	2833
403.694	1205
403.772	2991
403.850	1529
403.929	1391
404.007	2152
404.085	4202
404.164	3728
404.242	4425
404.320	17925
404.398	62459
404.477	62948
404.555	85850
404.633	80419
404.711	41652
404.789	26531
404.868	5443
404.946	1689
405.024	3083
405.102	1908
405.180	925
405.258	830
405.336	1760
405.415	1714
405.493	2478
405.571	2802
405.649	1215
405.727	549
405.805	2834
405.883	2555
405.961	2570
406.039	111
406.117	680
406.195	3075
406.273	13540
406.351	54280
406.429	31729
406.507	3035
406.585	1673
406.663	1485
406.740	2385
406.818	1961
406.896	1905
406.974	2297
407.052	3993
407.130	28647
407.208	41689
407.285	9208
407.363	1968
407.441	2543
407.519	3503
407.596	7448
407.674	39614
407.752	173425
407.830	130050
407.907	16513
407.985	3064
408.063	2906
408.141	1983
408.218	2553
408.296	450
408.373	2160
408.451	2549
408.529	1392
408.606	2007
408.684	1372
408.762	1369
408.839	1070
408.917	1249
408.994	2049
409.072	822
409.149	2026
409.227	3504
409.304	3984
409.382	4710
409.459	4756
409.537	6179
409.614	5657
409.692	4962
409.769	4802
409.846	6151
409.924	8217
410.001	4489
410.079	5175
410.156	5363
410.233	5612
410.311	6808
410.388	3795
410.465	3528
410.543	2409
410.620	3020
410.697	2434
410.775	2215
410.852	827
410.929	2298
411.006	2998
411.083	1475
411.161	2854
411.238	3204
411.315	797
411.392	1393
411.469	2609
411.547	2719
411.624	1173
411.701	2584
411.778	2648
411.855	3631
411.932	1949
412.009	1504
412.086	1944
412.163	1353
412.240	893
412.317	1430
412.394	1672
412.471	903
412.548	853
412.625	953
412.702	1437
412.779	2233
412.856	1674
412.933	1333
413.010	4148
413.087	6982
413.164	9699
413.241	12655
413.318	3560
413.395	2400
413.471	2509
413.548	2225
413.625	2071
413.702	317
413.779	1731
413.855	1627
413.932	651
414.009	87
414.086	357
414.162	1075
414.239	1911
414.316	8564
414.393	19438
414.469	6791
414.546	937
414.623	645
414.699	1497
414.776	1675
414.853	1142
414.929	1514
415.006	1362
415.082	832
415.159	682
415.236	2314
415.312	2307
415.389	3069
415.465	1922
415.542	1239
415.618	884
415.695	2321
415.771	1356
415.848	1785
415.924	558
416.000	546
416.077	1507
416.153	379
416.230	975
416.306	906
416.383	994
416.459	941
416.535	557
416.612	830
416.688	815
416.764	761
416.841	-10
416.917	1265
416.993	1503
417.069	2910
417.146	3726
417.222	8625
417.298	2617
417.374	958
417.451	1757
417.527	914
417.603	1377
417.679	763
417.755	1322
417.831	464
417.908	801
417.984	560
418.060	-35
418.136	2787
418.212	2749
418.288	2069
418.364	1494
418.440	359
418.516	1936
418.592	1655
418.668	2750
418.744	4321
418.820	4383
418.896	2601
418.972	499
419.048	1353
419.124	3438
419.200	854
419.276	1379
419.352	571
419.428	634
419.504	1190
419.579	2888
419.655	1393
419.731	1309
419.807	3035
419.883	6467
419.959	5123
420.034	1795
420.110	3447
420.186	11011
420.262	9732
420.337	2257
420.413	1754
420.489	1408
420.565	2460
420.640	1410
420.716	2549
420.792	889
420.867	2308
420.943	1540
421.019	2656
421.094	2120
421.170	2924
421.245	1863
421.321	4158
421.397	5049
421.472	31636
421.548	100858
421.623	56969
421.699	9388
421.774	5617
421.850	5018
421.925	6624
422.001	7944
422.076	7366
422.152	8900
422.227	12374
422.302	17776
422.378	25892
422.453	48193
422.529	128319
422.604	422783
422.679	753040
422.755	469260
422.830	137515
422.905	50587
422.981	26957
423.056	17691
423.131	12918
423.207	8986
423.282	7823
423.357	8568
423.432	6334
423.508	6077
423.583	7721
423.658	6923
423.733	3811
423.808	3674
423.883	4399
423.959	4342
424.034	3455
424.109	3791
424.184	2586
424.259	2533
424.334	2494
424.409	2027
424.484	1645
424.559	2893
424.634	1240
424.709	2258
424.784	3246
424.859	1647
424.934	1777
425.009	7756
425.084	13511
425.159	5132
425.234	2050
425.309	563
425.384	1373
425.459	655
425.534	1575
425.609	23
425.683	456
425.758	960
425.833	1221
425.908	1736
425.983	4244
426.058	13279
426.132	6143
426.207	697
426.282	2222
426.357	75
426.431	710
426.506	899
426.581	752
426.655	404
426.730	853
426.805	681
426.879	1559
426.954	844
427.029	2280
427.103	13935
427.178	39127
427.253	17558
427.327	3136
427.402	809
427.476	745
427.551	808
427.625	1739
427.700	1284
427.774	678
427.849	1487
427.923	570
427.998	964
428.072	1310
428.147	5023
428.221	33086
428.296	117360
428.370	64625
428.444	6131
428.519	1082
428.593	1019
428.667	1766
428.742	2414
428.816	9100
428.890	59266
428.965	99542
429.039	21576
429.113	2538
429.188	1536
429.262	943
429.336	1989
429.410	5595
429.485	3256
429.559	2033
429.633	1788
429.707	1986
429.781	8299
429.855	51407
429.930	82076
430.004	18907
430.078	9241
430.152	37673
430.226	180148
430.300	188278
430.374	25566
430.448	5088
430.522	3776
430.596	5851
430.670	17476
430.744	94955
430.818	122536
430.892	20202
430.966	2069
431.040	1658
431.114	665
431.188	827
431.262	1105
431.336	869
431.410	1636
431.484	2064
431.557	2596
431.631	1303
431.705	3612
431.779	23156
431.853	106291
431.927	73542
432.000	6853
432.074	1861
432.148	1002
432.222	104
432.295	650
432.369	-60
432.443	1649
432.516	15189
432.590	42102
432.664	14467
432.737	1395
432.811	267
432.885	253
432.958	1345
433.032	-399
433.106	1030
433.179	-95
433.253	224
433.326	276
433.400	-75
433.473	670
433.547	391
433.620	341
433.694	1121
433.767	790
433.841	140
433.914	-419
433.988	179
434.061	901
434.134	356
434.208	46
434.281	367
434.355	-334
434.428	760
434.501	-28
434.575	-179
434.648	200
434.721	-50
434.795	178
434.868	64
434.941	-222
435.014	271
435.088	108
435.161	1130
435.234	896
435.307	1048
435.381	973
435.454	1080
435.527	1872
435.600	2334
435.673	1641
435.746	2218
435.819	1577
435.892	1457
435.966	780
436.039	-53
436.112	1001
436.185	1090
436.258	454
436.331	-355
436.404	141
436.477	37
436.550	-246
436.623	596
436.696	790
436.769	649
436.842	-167
436.915	329
436.987	125
437.060	281
437.133	254
437.206	-36
437.279	285
437.352	291
437.425	279
437.498	619
437.570	1244
437.643	1063
437.716	1194
437.789	-349
437.861	1005
437.934	2539
438.007	1253
438.080	218
438.152	401
438.225	3262
438.298	26769
438.370	75642
438.443	26173
438.516	3144
438.588	922
438.661	321
438.734	349
438.806	4
438.879	1222
438.951	1028
439.024	1211
439.096	163
439.169	1131
439.241	573
439.314	-277
439.386	110
439.459	410
439.531	1390
439.604	550
439.676	1246
439.749	1062
439.821	622
439.893	601
439.966	362
440.038	435
440.110	312
440.183	18
440.255	1415
440.327	2095
440.400	7577
440.472	33067
440.544	20380
440.617	1647
440.689	1764
440.761	1905
440.833	2149
440.905	1262
440.978	4
441.050	-47
441.122	798
441.194	238
441.266	137
441.338	488
441.411	575
441.483	7389
441.555	10849
441.627	1309
441.699	870
441.771	742
441.843	87
441.915	1117
441.987	540
442.059	768
442.131	1286
442.203	1780
442.275	2250
442.347	3851
442.419	8401
442.491	43144
442.563	97790
442.635	36152
442.706	6657
442.778	3346
442.850	1537
442.922	1136
442.994	1488
443.066	1754
443.137	2852
443.209	4124
443.281	5684
443.353	14087
443.425	60103
443.496	205177
443.568	178397
443.640	56013
443.711	11032
443.783	3056
443.855	2807
443.926	1373
443.998	1048
444.070	1592
444.141	948
444.213	1977
444.285	2392
444.356	1442
444.428	382
444.499	765
444.571	795
444.642	859
444.714	979
444.785	1068
444.857	1349
444.928	1421
445.000	1998
445.071	1873
445.143	3243
445.214	5862
445.285	9764
445.357	29813
445.428	145853
445.500	322179
445.571	169609
445.642	76389
445.714	20552
445.785	7605
445.856	3307
445.928	2978
445.999	2686
446.070	2085
446.141	2038
446.213	2447
446.284	1063
446.355	1097
446.426	533
446.497	498
446.569	569
446.640	1052
446.711	1287
446.782	-22
446.853	74
446.924	1240
446.995	-102
447.066	375
447.138	979
447.209	666
447.280	914
447.351	398
447.422	583
447.493	484
447.564	616
447.635	852
447.706	217
447.777	477
447.847	667
447.918	335
447.989	765
448.060	203
448.131	879
448.202	1427
448.273	752
448.344	803
448.414	1197
448.485	1105
448.556	1343
448.627	639
448.698	1594
448.768	340
448.839	384
448.910	473
448.981	1366
449.051	1518
449.122	1629
449.193	1003
449.263	702
449.334	1589
449.405	3522
449.475	3330
449.546	2495
449.616	3250
449.687	1967
449.758	1826
449.828	2002
449.899	774
449.969	1669
450.040	1751
450.110	2177
450.181	2674
450.251	1030
450.322	2601
450.392	1612
450.463	1743
450.533	1009
450.604	2204
450.674	2045
450.744	1361
450.815	579
450.885	1906
450.955	1696
451.026	906
451.096	431
451.166	672
451.237	770
451.307	2011
451.377	1141
451.447	473
451.518	580
451.588	601
451.658	1268
451.728	1907
451.799	1094
451.869	1720
451.939	879
452.009	1397
452.079	757
452.149	1284
452.219	913
452.289	1478
452.360	1454
452.430	835
452.500	1520
452.570	2859
452.640	3282
452.710	5638
452.780	7805
452.850	6656
452.920	4026
452.990	2003
453.060	1146
453.129	1106
453.199	784
453.269	1051
453.339	1212
453.409	1388
453.479	2079
453.549	2905
453.619	2516
453.688	1133
453.758	891
453.828	1381
453.898	813
453.968	1242
454.037	779
454.087	816
454.107	826
454.168	364
454.177	281
454.247	448
454.249	454
454.316	285
454.330	408
454.386	862
454.411	839
454.456	716
454.492	1268
454.525	1761
454.574	1710
454.595	1677
454.655	1035
454.665	920
454.734	1469
454.736	1469
454.804	982
454.817	1093
454.873	1543
454.898	1611
454.943	1663
454.979	1245
455.013	884
455.060	1324
455.082	1627
455.141	2970
455.152	3672
455.221	9440
455.222	9757
455.291	25677
455.303	37944
455.360	86956
455.384	135098
455.430	216064
455.465	146164
455.499	83291
455.546	32338
455.569	9039
455.627	3664
455.638	2647
455.707	1322
455.708	1335
455.777	1831
455.789	1655
455.846	787
455.869	869
455.916	784
455.950	636
455.985	661
456.031	677
456.054	604
456.112	804
456.124	873
456.193	591
456.193	580
456.262	1243
456.274	1304
456.332	1506
456.355	1171
456.401	530
456.436	448
456.470	343
456.516	299
456.540	210
456.597	402
456.609	467
456.678	721
456.678	712
456.747	256
456.759	322
456.817	612
456.840	354
456.886	-236
456.920	248
456.955	825
457.001	546
457.024	347
457.082	451
457.093	482
457.162	629
457.163	635
457.232	591
457.243	689
457.301	990
457.324	1007
457.370	961
457.405	1236
457.439	1439
457.485	1082
457.508	1002
457.566	1036
457.577	1085
457.646	2347
457.647	2359
457.715	3084
457.727	3347
457.784	5100
457.808	6875
457.853	9091
457.889	11091
457.922	12568
457.969	10601
457.991	10183
458.050	9308
458.060	9305
458.129	14077
458.130	14261
458.198	17837
458.211	16396
458.267	10416
458.292	7847
458.336	4954
458.372	4144
458.405	4514
458.453	6321
458.474	7377
458.533	12936
458.543	13458
458.611	23789
458.614	23905
458.680	19137
458.694	16062
458.749	8146
458.775	6058
458.818	3079
458.855	2440
458.887	2254
458.936	2130
458.955	1924
459.016	1082
459.024	1026
459.093	1662
459.097	1658
459.162	903
459.177	808
459.230	1143
459.257	1541
459.299	1702
459.338	1463
459.368	1647
459.418	2282
459.437	2160
459.499	1439
459.505	1463
459.574	1522
459.579	1527
459.643	970
459.659	972
459.711	1358
459.740	1390
459.780	1203
459.820	1160
459.849	1283
459.900	1391
459.917	1331
459.981	1697
459.986	1703
460.054	1235
460.061	1196
460.123	1459
460.141	1581
460.191	1889
460.222	2107
460.260	2238
460.302	1917
460.328	1721
460.382	2306
460.397	2768
460.462	4358
460.465	4791
460.534	15066
460.543	16483
460.602	45551
460.623	57643
460.671	86968
460.703	123416
460.739	121330
460.783	92731
460.808	81387
460.864	18686
460.876	10769
460.944	2825
460.945	2738
461.013	2167
461.024	2175
461.081	1879
461.104	1807
461.150	1821
461.184	1693
461.218	1937
461.264	2117
461.286	1887
461.345	1516
461.355	1493
461.423	1353
461.425	1356
461.491	1493
461.505	1531
461.559	1934
461.585	1902
461.628	2109
461.665	2432
461.696	2072
461.745	1696
461.764	1752
461.825	1710
461.832	1771
461.901	2086
461.905	2120
461.969	1148
461.985	982
462.037	1873
462.065	2272
462.105	1954
462.145	1850
462.173	1983
462.225	1445
462.241	1402
462.305	2128
462.310	2112
462.378	1690
462.385	1583
462.446	1715
462.465	1856
462.514	1932
462.545	2088
462.582	2219
462.625	2332
462.650	2206
462.705	1836
462.718	1973
462.785	2495
462.786	2485
462.854	1742
462.865	1667
462.922	1741
462.945	1765
462.990	1872
463.025	1910
463.058	2066
463.104	2285
463.126	1877
463.184	828
463.194	1033
463.262	2191
463.264	2250
463.330	2096
463.344	1965
463.398	2555
463.424	2765
463.466	1645
463.504	987
463.533	1297
463.583	1376
463.601	1497
463.663	2141
463.669	2150
463.737	1886
463.743	1908
463.805	2114
463.823	2108
463.873	2449
463.903	2669
463.940	2176
463.982	1649
464.008	1819
464.062	2105
464.076	2055
464.142	1705
464.144	1714
464.211	2206
464.221	2246
464.279	2144
464.301	2085
464.347	2378
464.381	2722
464.414	2202
464.461	1474
464.482	1883
464.540	2634
464.550	2494
464.617	1998
464.620	1967
464.685	4174
464.699	4685
464.753	5989
464.779	6715
464.820	7622
464.859	8382
464.888	7559
464.938	6025
464.956	6250
465.018	6775
465.023	6739
465.091	6326
465.098	6296
465.158	5952
465.177	5803
465.226	6276
465.257	6581
465.293	6602
465.336	6640
465.361	6583
465.416	6401
465.428	6579
465.495	7377
465.496	7383
465.563	6948
465.575	6880
465.631	7612
465.654	7949
465.698	7708
465.734	7375
465.765	7502
465.813	7698
465.833	7649
465.893	7558
465.900	7620
465.968	8087
465.972	8107
466.035	8231
466.052	8249
466.102	9453
466.131	10150
466.170	9945
466.210	9709
466.237	10209
466.290	11049
466.304	11072
466.369	11241
466.372	11289
466.439	12266
466.449	12392
466.506	12012
466.528	11850
466.573	13212
466.607	14223
466.641	14052
466.687	13722
466.708	14175
466.766	15407
466.775	15503
466.842	16104
466.845	16111
466.909	15654
466.925	15526
466.977	16005
467.004	16230
467.044	16194
467.083	16110
467.111	16866
467.163	18259
467.178	18614
467.242	19963
467.245	19854
467.312	17072
467.321	16684
467.379	15556
467.400	15109
467.446	13861
467.480	12925
467.559	13124
467.638	12388
467.717	11850
467.796	11819
467.875	10660
467.955	10271
468.034	10469
468.113	9392
468.192	10475
468.271	9123
468.350	11289
468.429	10145
468.508	10964
468.588	9038
468.667	7760
468.746	8135
468.825	7483
468.904	7071
468.983	8513
469.062	7553
469.141	9937
469.220	7396
469.299	7602
469.378	7321
469.456	12540
469.535	9332
469.614	7929
469.693	8338
469.772	9021
469.851	8341
469.930	8327
470.009	6965
470.088	7352
470.166	8111
470.245	7766
470.324	7996
470.403	6620
470.482	7300
470.560	6594
470.639	5590
470.718	7527
470.797	7011
470.875	6313
470.954	5456
471.033	6644
471.111	5779
471.190	5689
471.269	5471
471.347	5717
471.426	5775
471.505	7722
471.583	8389
471.662	8660
471.740	6505
471.819	7280
471.898	5983
471.976	6692
472.055	6783
472.133	8844
472.212	8635
472.290	6993
472.369	6075
472.447	6284
472.526	6134
472.604	7990
472.683	6728
472.761	5920
472.839	5591
472.918	6268
472.996	4610
473.075	5277
473.153	5341
473.231	4412
473.310	5191
473.388	5544
473.466	6178
473.545	6820
473.623	8192
473.701	6516
473.780	5414
473.858	4480
473.936	6832
474.014	6279
474.093	7456
474.171	7250
474.249	5524
474.327	5122
474.405	5623
474.484	5349
474.562	5588
474.640	7027
474.718	6971
474.796	8119
474.874	9450
474.952	6755
475.030	8447
475.108	9828
475.187	11609
475.265	12048
475.343	9697
475.421	9361
475.499	6091
475.577	8237
475.655	5525
475.733	5618
475.811	5395
475.889	5405
475.966	5822
476.044	4163
476.122	4142
476.200	5522
476.278	4377
476.356	4237
476.434	4597
476.512	4744
476.590	4362
476.667	5577
476.745	3329
476.823	4437
476.901	2935
476.979	3752
477.056	3790
477.134	4827
477.212	4324
477.290	3747
477.367	3613
477.445	3994
477.523	3639
477.601	3839
477.678	4181
477.756	3275
477.834	2948
477.911	3763
477.989	3435
478.066	3624
478.144	3106
478.222	3700
478.299	4758
478.377	6457
478.454	4944
478.532	3254
478.609	3121
478.687	4768
478.764	2110
478.842	3299
478.919	3173
478.997	3582
479.074	2063
479.152	3057
479.229	2895
479.307	2949
479.384	2270
479.461	3373
479.539	2578
479.616	3339
479.694	2137
479.771	2445
479.848	3264
479.926	2210
480.003	2839
480.080	3024
480.157	2317
480.235	2275
480.312	2833
480.389	2253
480.467	1943
480.544	2783
480.621	3224
480.698	2809
480.775	2191
480.853	2549
480.930	2294
481.007	3643
481.084	6740
481.161	11601
481.238	6338
481.315	2382
481.392	2303
481.470	2460
481.547	1474
481.624	2780
481.701	1489
481.778	2371
481.855	2182
481.932	2441
482.009	2012
482.086	1935
482.163	1867
482.240	4137
482.317	3990
482.393	2659
482.470	2009
482.547	2928
482.624	1434
482.701	2721
482.778	2330
482.855	2298
482.932	1504
483.009	2433
483.085	4041
483.162	7603
483.239	6587
483.316	1582
483.393	2244
483.469	2614
483.546	1761
483.623	2967
483.699	1614
483.776	2668
483.853	2351
483.930	3428
484.006	3704
484.083	8577
484.160	24483
484.236	45497
484.313	31304
484.389	21717
484.466	20973
484.543	19217
484.619	18462
484.696	19880
484.772	17810
484.849	17914
484.925	17189
485.002	17836
485.078	17152
485.155	16756
485.231	15318
485.308	16644
485.384	15295
485.461	17156
485.537	16293
485.614	16991
485.690	14435
485.766	15409
485.843	14772
485.919	15826
485.995	15788
486.072	13769
486.148	14137
486.224	14514
486.301	14256
486.377	14092
486.453	12808
486.530	17501
486.606	24228
486.682	26687
486.758	20577
486.835	20340
486.911	18795
486.987	19605
487.063	21004
487.139	26175
487.215	25518
487.292	20985
487.368	16998
487.444	18251
487.520	21152
487.596	24262
487.672	32640
487.748	60158
487.824	75198
487.900	37343
487.976	19642
488.052	14862
488.128	16841
488.204	14708
488.280	14219
488.356	13776
488.432	12963
488.508	14031
488.584	12557
488.660	11793
488.736	11997
488.812	12837
488.888	16092
488.964	16808
489.039	18992
489.115	24480
489.191	19416
489.267	13551
489.343	11550
489.418	12195
489.494	11829
489.570	10452
489.646	12745
489.722	11069
489.797	10711
489.873	12913
489.949	14810
490.024	14936
490.100	9770
490.176	10677
490.251	9976
490.327	12879
490.403	9075
490.478	10427
490.554	9550
490.629	10256
490.705	9198
490.781	11229
490.856	8325
490.932	11180
491.007	9369
491.083	10822
491.158	9047
491.234	10001
491.309	8913
491.385	11065
491.460	8324
491.536	9677
491.611	8480
491.686	9660
491.762	10990
491.837	11232
491.913	14969
491.988	17714
492.063	20251
492.139	9496
492.214	8260
492.289	8216
492.365	7148
492.440	8568
492.515	6690
492.590	8937
492.666	7979
492.741	8884
492.816	8744
492.891	9885
492.967	11442
493.042	12441
493.117	16114
493.192	28045
493.267	96434
493.342	342641
493.418	469542
493.493	52795
493.568	12494
493.643	8921
493.718	8430
493.793	7858
493.868	8917
493.943	7252
494.018	7293
494.093	5261
494.168	6389
494.243	7298
494.318	5794
494.393	7347
494.468	5942
494.543	6129
494.618	5837
494.693	6752
494.768	6088
494.842	6270
494.917	6216
494.992	6350
495.067	6764
495.142	6196
495.217	6046
495.292	6752
495.366	6770
495.441	7003
495.516	7725
495.591	9499
495.665	17990
495.740	30353
495.815	17006
495.890	6900
495.964	6230
496.039	11485
496.114	10453
496.188	18588
496.263	16553
496.338	8515
496.412	10122
496.487	10634
496.561	9679
496.636	13437
496.710	13313
496.785	14393
496.860	13593
496.934	13607
497.009	14567
497.083	16154
497.158	15742
497.232	17580
497.307	20552
497.381	23367
497.455	25078
497.530	28581
497.604	28722
497.679	33986
497.753	40130
497.827	51663
497.902	57041
497.976	57177
498.050	56591
498.125	63242
498.199	69389
498.273	74106
498.348	72176
498.422	65177
498.496	58085
498.570	50105
498.645	43799
498.719	38526
498.793	35130
498.867	30646
498.941	28291
499.016	27566
499.090	28413
499.164	22732
499.238	19730
499.312	17771
499.386	16678
499.460	15608
499.534	13290
499.609	13006
499.683	10953
499.757	11130
499.831	10955
499.905	13984
499.979	12479
500.053	8799
500.127	9508
500.201	8872
500.275	7841
500.349	7236
500.422	5966
500.496	7610
500.570	8856
500.644	10989
500.718	9664
500.792	6594
500.866	4997
500.940	5723
501.013	5703
501.087	4183
501.161	5072
501.235	3103
501.309	5720
501.382	7233
501.456	7656
501.530	4508
501.603	3320
501.677	3943
501.751	1469
501.825	4878
501.898	3293
501.972	4071
502.046	3193
502.119	1898
502.193	3805
502.266	4110
502.340	2975
502.413	3143
502.487	4345
502.561	1932
502.634	2958
502.708	4057
502.781	2626
502.855	3959
502.928	1564
503.002	2508
503.075	744
503.149	2257
503.222	1668
503.295	2248
503.369	1900
503.442	2693
503.516	4085
503.589	3995
503.662	2924
503.736	3776
503.809	4779
503.882	4656
503.956	6506
504.029	11885
504.102	25396
504.175	34850
504.249	13536
504.322	7545
504.395	3861
504.468	3608
504.542	1190
504.615	2141
504.688	2570
504.761	526
504.834	3359
504.907	2703
504.980	3526
505.053	2662
505.127	74
505.200	4838
505.273	1064
505.346	2042
505.419	847
505.492	2563
505.565	839
505.638	2163
505.711	457
505.784	771
505.857	68
505.930	3154
506.003	-874
506.076	2537
506.149	642
506.221	-141
506.294	2379
506.367	195
506.440	2711
506.513	2994
506.586	1349
506.659	544
506.731	1570
506.804	1773
506.877	381
506.950	1667
507.022	1700
507.095	222
507.168	472
507.241	1931
507.313	1047
507.386	559
507.459	2716
507.531	1604
507.604	74
507.677	2356
507.749	489
507.822	4194
507.894	9803
507.967	16178
508.040	9001
508.112	7368
508.185	5837
508.257	4552
508.330	6473
508.402	5153
508.475	4460
508.547	4978
508.620	5300
508.692	5548
508.765	5086
508.837	4422
508.909	5274
508.982	4850
509.054	4420
509.127	4066
509.199	4004
509.271	3157
509.344	3408
509.416	3729
509.488	3696
509.560	5064
509.633	3440
509.705	5094
509.777	4842
509.849	5794
509.922	3692
509.994	5073
510.066	7297
510.138	7434
510.210	18020
510.283	15993
510.355	11547
510.427	9689
510.499	8833
510.571	7653
510.643	7019
510.715	10031
510.787	6711
510.859	8132
510.931	6975
511.003	9224
511.076	8860
511.148	6899
511.219	6724
511.291	8471
511.363	7687
511.435	6805
511.507	5655
511.579	7492
511.651	7246
511.723	6093
511.795	5980
511.867	6149
511.939	5494
512.010	5164
512.082	6155
512.154	4971
512.226	6751
512.298	12943
512.369	16877
512.441	12940
512.513	10459
512.585	8288
512.656	8915
512.728	8037
512.800	7767
512.871	9864
512.943	7943
513.015	6322
513.086	7425
513.158	8494
513.230	5880
513.301	8033
513.373	7975
513.444	7410
513.516	6078
513.588	7459
513.659	6935
513.731	7436
513.802	6044
513.874	10393
513.945	9971
514.016	7076
514.088	6357
514.159	6642
514.231	9304
514.302	15435
514.374	12652
514.445	9174
514.516	11607
514.588	9152
514.659	8788
514.730	10400
514.802	15815
514.873	21439
514.944	26612
515.016	20117
515.087	14828
515.158	15011
515.229	18550
515.301	29811
515.372	43616
515.443	31515
515.514	19898
515.585	13247
515.656	12181
515.728	11670
515.799	7709
515.870	8813
515.941	7559
516.012	7909
516.083	11841
516.154	10613
516.225	9111
516.296	9980
516.367	7398
516.438	7462
516.509	8305
516.580	9453
516.651	21144
516.722	47176
516.793	26396
516.864	8724
516.935	7694
517.006	8460
517.077	9904
517.148	20118
517.219	54997
517.289	80797
517.360	16397
517.431	8301
517.502	5592
517.573	7027
517.643	7491
517.714	9397
517.785	8381
517.856	7032
517.926	9022
517.997	8614
518.068	7730
518.138	11648
518.209	14145
518.280	46926
518.350	138626
518.421	60359
518.492	11419
518.562	9005
518.633	8845
518.703	11043
518.774	24534
518.845	49266
518.915	44310
518.986	16647
519.056	10838
519.127	11811
519.197	12121
519.268	11458
519.338	7017
519.408	5358
519.479	5846
519.549	5444
519.620	6161
519.690	4951
519.760	4832
519.831	4375
519.901	4023
519.971	4661
520.042	3326
520.112	3716
520.182	4077
520.253	4887
520.323	3452
520.393	3754
520.463	6060
520.534	836
520.604	5595
520.674	5200
520.744	1999
520.814	3219
520.885	5167
520.955	3962
521.025	6217
521.095	4856
521.165	5528
521.235	3256
521.305	1969
521.375	3869
521.445	4535
521.515	3482
521.585	4820
521.655	2372
521.725	4555
521.795	4458
521.865	681
521.935	4952
522.005	2300
522.075	2333
522.145	5220
522.215	3085
522.285	3332
522.355	3243
522.424	4036
522.494	3768
522.564	4997
522.634	7906
522.704	15695
522.774	6970
522.843	3188
522.913	3370
522.983	3894
523.053	2700
523.122	3118
523.192	3578
523.262	7184
523.331	8575
523.401	3626
523.471	2070
523.540	2063
523.610	2061
523.680	1817
523.749	3526
523.819	4126
523.888	3590
523.958	1990
524.027	2403
524.097	1733
524.166	2501
524.236	904
524.305	4074
524.375	843
524.444	720
524.514	3821
524.583	1271
524.653	2149
524.722	2721
524.791	711
524.861	3960
524.930	371
524.999	1927
525.069	3133
525.138	1798
525.207	1212
525.277	2648
525.346	2102
525.415	3174
525.484	3071
525.554	2070
525.623	4098
525.692	7280
525.761	4566
525.830	5958
525.900	5797
525.969	10045
526.038	18292
526.107	42271
526.176	114604
526.245	89735
526.314	28347
526.383	59138
526.452	81867
526.522	143313
526.591	128404
526.660	22638
526.729	11864
526.797	15804
526.867	28597
526.935	109541
527.004	293412
527.073	169599
527.142	14253
527.211	5750
527.280	5025
527.349	4577
527.418	1540
527.487	3480
527.555	965
527.624	1885
527.693	492
527.762	3718
527.831	39
527.899	2119
527.968	1577
528.037	-623
528.106	2421
528.174	3902
528.243	1418
528.312	2305
528.380	2868
528.449	1410
528.518	2741
528.586	631
528.655	1401
528.723	1071
528.792	923
528.861	493
528.929	-235
528.998	2362
529.066	1147
529.135	1118
529.203	-449
529.272	-930
529.340	1285
529.409	2110
529.477	-556
529.545	-403
529.614	2513
529.682	-948
529.751	-302
529.819	3159
529.887	215
529.956	1107
530.024	1193
530.092	1108
530.161	1720
530.229	893
530.297	-179
530.365	1321
530.434	-19
530.502	778
530.570	1031
530.638	464
530.707	1268
530.775	2210
530.843	-478
530.911	1060
530.979	817
531.047	725
531.115	134
531.183	455
531.252	952
531.320	1235
531.388	-526
531.456	1200
531.524	-1241
531.592	2132
531.660	1898
531.728	195
531.796	234
531.864	818
531.932	113
532.000	416
532.067	675
532.135	1084
532.203	2535
532.271	1448
532.339	4637
532.407	7331
532.475	4500
532.542	2808
532.610	2309
532.678	2131
532.746	13780
532.814	30694
532.881	6190
532.949	1997
533.017	1473
533.084	1881
533.152	-161
533.220	1153
533.287	177
533.355	677
533.423	1309
533.490	595
533.558	1398
533.625	2292
533.693	2014
533.761	2192
533.828	2470
533.896	1425
533.963	5641
534.031	6892
534.098	7287
534.166	3578
534.233	2409
534.300	4648
534.368	3176
534.435	3140
534.503	3516
534.570	3264
534.637	2047
534.705	3625
534.772	5597
534.840	12171
534.907	57897
534.974	66005
535.041	6858
535.109	2284
535.176	1658
535.243	3171
535.310	1835
535.378	1010
535.445	2344
535.512	2481
535.579	1897
535.646	2038
535.714	2418
535.781	5604
535.848	4021
535.915	5508
535.982	4637
536.049	4535
536.116	5520
536.183	3146
536.250	3214
536.317	2755
536.384	3005
536.451	4419
536.518	3116
536.585	1644
536.652	4252
536.719	4428
536.786	1788
536.853	3001
536.920	3008
536.987	3063
537.053	3502
537.120	17355
537.187	13722
537.254	1836
537.321	476
537.388	2801
537.454	1086
537.521	1477
537.588	1675
537.654	4640
537.721	5742
537.788	4900
537.855	2014
537.921	3636
537.988	2120
538.055	4214
538.121	1544
538.188	1685
538.254	3665
538.321	5520
538.388	3243
538.454	2658
538.521	1916
538.587	2524
538.654	1212
538.720	2169
538.787	3530
538.853	3330
538.920	2847
538.986	2990
539.053	977
539.119	2769
539.185	2170
539.252	3614
539.318	2997
539.385	5081
539.451	4197
539.517	5297
539.583	4613
539.650	6252
539.716	10630
539.782	4447
539.849	1477
539.915	4084
539.981	921
540.047	2340
540.114	2201
540.180	4858
540.246	2173
540.312	4017
540.378	4303
540.444	6297
540.510	6896
540.576	14579
540.643	4863
540.709	1860
540.775	2091
540.841	2316
540.907	3864
540.973	5773
541.039	5635
541.105	5968
541.171	3434
541.237	2971
541.303	3576
541.369	4837
541.435	3583
541.500	5362
541.566	1956
541.632	2960
541.698	1988
541.764	3849
541.830	2310
541.896	2383
541.961	3414
542.027	3163
542.093	2137
542.159	4331
542.224	3401
542.290	7290
542.356	5977
542.421	8965
542.487	8756
542.553	5821
542.618	3870
542.684	3253
542.750	2935
542.815	4478
542.881	4725
542.947	12541
543.012	9336
543.078	3346
543.143	2267
543.209	3916
543.274	1871
543.340	3962
543.405	6652
543.471	7730
543.536	4307
543.602	3782
543.667	1855
543.732	5064
543.798	2909
543.863	3811
543.928	2887
543.994	2667
544.059	2844
544.124	3704
544.190	2959
544.255	4681
544.320	3681
544.386	3347
544.451	4435
544.516	5058
544.581	4017
544.646	9713
544.712	13902
544.777	6142
544.842	3965
544.907	3620
544.972	3534
545.037	4101
545.102	5522
545.168	3552
545.233	4714
545.298	4659
545.363	3786
545.428	5777
545.493	7992
545.558	9818
545.623	5849
545.688	2878
545.753	4836
545.818	3687
545.883	4449
545.947	4658
546.012	3549
546.077	4663
546.142	4993
546.207	4482
546.272	5631
546.337	5811
546.401	5949
546.466	6937
546.531	3779
546.596	6513
546.661	5082
546.725	6684
546.790	5495
546.855	6016
546.919	4594
546.984	6995
547.049	6341
547.113	6825
547.178	6997
547.243	9501
547.307	9984
547.372	11647
547.436	10623
547.501	12065
547.565	11882
547.630	11760
547.695	11037
547.759	10347
547.823	10830
547.888	12295
547.952	12825
548.017	15851
548.081	21948
548.146	15832
548.210	12523
548.274	13191
548.339	12419
548.403	11859
548.468	10936
548.532	11100
548.596	10923
548.660	12239
548.725	12528
548.789	12593
548.853	13229
548.917	12094
548.982	11964
549.046	11898
549.110	8939
549.174	10078
549.238	12281
549.303	12391
549.367	13837
549.431	12080
549.495	12428
549.559	12244
549.623	13447
549.687	15582
549.751	15934
549.815	17979
549.879	17752
549.943	16640
550.007	17491
550.071	17366
550.135	15621
550.199	14545
550.263	14289
550.327	14921
550.391	17258
550.455	18626
550.519	17116
550.582	18589
550.646	20494
550.710	21003
550.774	20076
550.838	20998
550.901	21044
550.965	23306
551.029	23750
551.093	27331
551.156	30355
551.220	35481
551.284	37137
551.347	28647
551.411	23511
551.475	22157
551.538	23344
551.602	20821
551.666	19864
551.729	17983
551.793	20114
551.856	22760
551.920	26104
551.983	22754
552.047	18015
552.110	19590
552.174	20980
552.237	18891
552.301	16528
552.364	15149
552.428	14459
552.491	16208
552.554	16758
552.618	17198
552.681	16625
552.745	17187
552.808	19005
552.871	20671
552.934	19956
552.998	18853
553.061	20074
553.124	19902
553.187	21576
553.251	25889
553.314	30672
553.377	43415
553.440	86970
553.503	317597
553.567	493363
553.630	77281
553.693	23969
553.756	20506
553.819	17975
553.882	16675
553.945	16358
554.008	17912
554.071	15230
554.134	15946
554.197	15012
554.260	14007
554.323	15456
554.386	14865
554.449	14122
554.512	16303
554.575	13172
554.638	14830
554.701	13821
554.764	14132
554.827	13388
554.889	12284
554.952	11593
555.015	11226
555.078	11167
555.141	12366
555.203	11219
555.266	13301
555.329	11775
555.391	11164
555.454	10934
555.517	10785
555.580	9891
555.642	10406
555.705	10089
555.768	10976
555.830	9664
555.893	9534
555.955	9034
556.018	8685
556.080	9213
556.143	9513
556.206	8101
556.268	9586
556.330	8524
556.393	8621
556.455	8206
556.518	8558
556.580	7912
556.643	7927
556.705	8220
556.767	6618
556.830	7832
556.892	7669
556.955	8106
557.017	8309
557.079	7111
557.142	7408
557.204	7371
557.266	10438
557.328	8207
557.391	6456
557.453	5920
557.515	6276
557.577	6873
557.639	7988
557.701	6888
557.764	7507
557.826	7033
557.888	8443
557.950	9342
558.012	11276
558.074	16759
558.136	42117
558.198	92616
558.260	31304
558.322	10587
558.384	11190
558.446	12783
558.508	16071
558.570	17577
558.632	26950
558.694	40478
558.756	78200
558.818	247723
558.880	538086
558.942	156548
559.003	101217
559.065	46339
559.127	17651
559.189	17796
559.251	23296
559.312	42612
559.374	107842
559.436	327955
559.498	144936
559.559	20893
559.621	17478
559.683	23305
559.744	44799
559.806	148614
559.868	204799
559.929	34568
559.991	19116
560.052	33362
560.114	93160
560.176	56320
560.237	54465
560.299	80501
560.360	15709
560.422	6278
560.483	5094
560.545	4788
560.606	4596
560.667	3170
560.729	3193
560.790	3348
560.852	3975
560.913	3908
560.974	3472
561.036	3480
561.097	4527
561.158	4331
561.220	4167
561.281	3422
561.342	2583
561.403	3400
561.465	4167
561.526	7523
561.587	10220
561.648	4006
561.709	3836
561.771	3988
561.832	2946
561.893	2750
561.954	3711
562.015	2885
562.076	3970
562.137	2651
562.198	3240
562.259	3452
562.320	3573
562.381	3820
562.442	4578
562.503	4164
562.564	4130
562.625	3560
562.686	3769
562.747	3168
562.808	2966
562.869	3885
562.930	3577
562.991	3840
563.051	3270
563.112	3101
563.173	4297
563.234	2663
563.294	4228
563.355	3226
563.416	4607
563.477	3637
563.537	3398
563.598	4037
563.659	3957
563.720	3427
563.780	4079
563.841	4068
563.901	3337
563.962	3855
564.023	3838
564.083	4407
564.144	3713
564.204	3913
564.265	3792
564.325	4201
564.386	4774
564.446	5363
564.507	5332
564.567	5286
564.628	4828
564.688	5344
564.749	5137
564.809	4732
564.869	6005
564.930	5271
564.990	6731
565.050	6050
565.111	7033
565.171	6158
565.231	6707
565.292	7737
565.352	6647
565.412	7515
565.472	7609
565.532	8382
565.593	8110
565.653	8293
565.713	9736
565.773	9882
565.833	10714
565.893	12585
565.953	11274
566.013	12229
566.074	13236
566.134	13771
566.194	14380
566.254	16243
566.314	16638
566.374	16926
566.434	19117
566.494	22118
566.554	21480
566.614	23857
566.673	25948
566.733	27741
566.793	30307
566.853	30674
566.913	33316
566.973	34261
567.033	33315
567.092	31807
567.152	32576
567.212	33988
567.272	36597
567.331	38554
567.391	42228
567.451	44756
567.511	45078
567.570	42498
567.630	39786
567.690	37013
567.749	40337
567.809	44231
567.868	50635
567.928	56551
567.988	68809
568.047	87940
568.107	114851
568.166	159201
568.226	242386
568.285	318535
568.345	293910
568.404	252228
568.464	222960
568.523	207440
568.582	210397
568.642	232893
568.701	286305
568.761	394166
568.820	552617
568.879	549793
568.939	449511
568.998	357678
569.057	287102
569.116	231954
569.176	188603
569.235	157983
569.294	133471
569.353	111500
569.413	97801
569.472	83783
569.531	75139
569.590	64853
569.649	59542
569.708	53161
569.767	48416
569.827	43107
569.886	39482
569.945	35834
570.004	33348
570.063	29656
570.122	28711
570.181	24969
570.240	24394
570.299	22982
570.358	21364
570.417	19888
570.475	19342
570.534	17174
570.593	17246
570.652	15998
570.711	15967
570.770	14149
570.829	15248
570.887	14427
570.946	13720
571.005	11441
571.064	12298
571.122	10766
571.181	10812
571.240	10017
571.299	9552
571.357	9891
571.416	9158
571.475	8858
571.533	9681
571.592	9080
571.650	8490
571.709	7483
571.768	9499
571.826	8353
571.885	7953
571.943	6641
572.002	6990
572.060	7010
572.119	6643
572.177	6611
572.236	6756
572.294	6386
572.352	6598
572.411	6411
572.469	6354
572.528	6222
572.586	6557
572.644	5938
572.703	7120
572.761	5329
572.819	6119
572.877	5361
572.936	5235
572.994	5113
573.052	5650
573.110	5366
573.169	5639
573.227	4855
573.285	6084
573.343	6174
573.401	5993
573.459	6312
573.517	5221
573.576	4942
573.634	5522
573.692	4568
573.750	5339
573.808	4013
573.866	5413
573.924	4369
573.982	5061
574.040	4179
574.098	5902
574.155	4948
574.213	5561
574.271	4695
574.329	5588
574.387	3612
574.445	4291
574.503	4114
574.560	3881
574.618	4500
574.676	3813
574.734	4093
574.792	4876
574.849	4666
574.907	5171
574.965	3992
575.022	3742
575.080	3314
575.138	4770
575.195	4891
575.253	3923
575.311	3931
575.368	4980
575.426	4158
575.483	4795
575.541	4080
575.598	4611
575.656	4274
575.713	5453
575.771	3901
575.828	4734
575.886	4356
575.943	4896
576.001	3867
576.058	4223
576.115	3760
576.173	4715
576.230	3935
576.287	4801
576.345	4940
576.402	4317
576.459	4890
576.517	4170
576.574	4644
576.631	4942
576.688	3882
576.746	4905
576.803	4967
576.860	4184
576.917	4676
576.974	5038
577.031	4723
577.089	5535
577.146	4416
577.203	5446
577.260	5636
577.317	5996
577.374	4607
577.431	5537
577.488	5391
577.545	5750
577.602	7388
577.659	9205
577.716	14500
577.773	19083
577.830	12524
577.886	9611
577.943	6939
578.000	6396
578.057	5834
578.114	7685
578.171	8896
578.227	10132
578.284	9764
578.341	9266
578.398	6775
578.454	6660
578.511	5572
578.568	7291
578.625	4996
578.681	5438
578.738	4820
578.794	5640
578.851	5432
578.908	6011
578.964	5793
579.021	6216
579.077	5458
579.134	6448
579.190	5559
579.247	5461
579.303	5760
579.360	5605
579.416	4751
579.473	6069
579.529	5888
579.586	6415
579.642	7230
579.698	6011
579.755	6637
579.811	7575
579.867	8617
579.924	8869
579.980	8692
580.036	11449
580.093	11255
580.149	16336
580.205	17016
580.261	14501
580.317	12126
580.374	10128
580.430	10166
580.486	9966
580.542	8923
580.598	8859
580.619	8696
580.654	8418
580.692	7656
580.710	7278
580.765	7455
580.767	7461
580.823	7555
580.838	7535
580.879	7476
580.911	8076
580.935	8508
580.984	7607
580.991	7490
581.047	8870
581.057	8778
581.103	8369
581.130	8587
581.159	8786
581.203	9181
581.215	9290
581.270	10379
581.276	10294
581.326	9520
581.349	9316
581.382	8971
581.422	8432
581.438	8200
581.494	8560
581.494	8555
581.550	7990
581.567	8522
581.606	9625
581.640	9047
581.661	8673
581.713	9574
581.717	9652
581.773	8496
581.786	8878
581.829	9999
581.859	9554
581.885	9251
581.932	9203
581.940	9188
581.996	10252
582.004	10217
582.052	9919
582.077	9613
582.107	9222
582.150	10213
582.163	10552
582.219	9471
582.223	9545
582.274	10323
582.296	10417
582.330	10514
582.368	10901
582.386	11167
582.441	11491
582.441	11488
582.497	13405
582.514	14323
582.552	16730
582.587	19336
582.608	20522
582.659	15742
582.663	15367
582.719	12724
582.732	12421
582.774	11786
582.805	12392
582.830	12869
582.877	12785
582.885	12752
582.941	13134
582.950	13170
582.996	13535
583.023	14052
583.052	14762
583.095	15628
583.107	15803
583.162	18634
583.168	18635
583.218	18592
583.240	18207
583.273	17538
583.313	16881
583.328	16646
583.384	16456
583.385	16459
583.439	16416
583.458	16298
583.494	16311
583.531	16612
583.549	16724
583.603	16297
583.605	16287
583.660	17030
583.676	17219
583.715	17600
583.748	17642
583.770	17680
583.820	18341
583.825	18397
583.881	17955
583.893	18010
583.936	18537
583.965	18824
583.991	19016
584.038	19402
584.046	19494
584.101	18980
584.110	19190
584.156	20213
584.183	20778
584.211	21385
584.255	21976
584.266	22155
584.321	22270
584.328	22315
584.376	22955
584.400	23185
584.431	23266
584.472	23570
584.486	23680
584.541	23931
584.545	23998
584.596	26003
584.617	26005
584.651	25900
584.689	26962
584.706	27321
584.761	27335
584.762	27331
584.816	29065
584.834	29095
584.871	29456
584.906	30226
584.926	30674
584.978	31463
584.980	31520
585.035	33033
585.051	33346
585.090	34358
585.123	35612
585.145	36786
585.195	39557
585.200	40050
585.254	47200
585.267	49682
585.309	60643
585.340	69140
585.364	71529
585.412	60600
585.419	58977
585.473	54678
585.484	54589
585.528	60564
585.556	66520
585.583	79346
585.628	104459
585.637	115224
585.692	199908
585.700	213131
585.747	258731
585.772	244343
585.801	176964
585.845	93706
585.856	85192
585.910	64239
585.917	61954
585.965	59334
585.989	58743
586.019	59118
586.061	58856
586.074	59145
586.128	60356
586.133	60411
586.183	62393
586.205	63216
586.237	64356
586.277	65457
586.292	66088
586.346	68179
586.349	68187
586.401	70836
586.421	71829
586.455	73364
586.493	75279
586.509	76569
586.564	79468
586.565	79424
586.618	83452
586.637	85014
586.672	88339
586.709	91067
586.727	92656
586.781	97907
586.781	98079
586.835	100325
586.853	101134
586.889	103947
586.925	106118
586.944	108182
586.996	113550
586.998	113909
587.052	120874
587.068	122454
587.106	127317
587.140	131434
587.161	134260
587.212	141552
587.215	142288
587.269	151978
587.284	154533
587.323	161921
587.356	167139
587.377	171600
587.427	181703
587.431	182861
587.485	195030
587.499	197986
587.539	209288
587.571	217807
587.593	225022
587.643	239800
587.648	241890
587.702	261036
587.715	265429
587.755	283978
587.786	297458
587.810	310010
587.858	335598
587.864	339797
587.917	375515
587.930	383356
587.971	414941
588.001	437224
588.025	460839
588.073	506056
588.079	513766
588.133	578582
588.145	591846
588.187	651738
588.217	693594
588.241	738584
588.288	825444
588.295	841015
588.348	962528
588.360	987766
588.402	1117278
588.431	1206943
588.456	1303304
588.503	1488767
588.510	1526288
588.564	1818563
588.575	1878916
588.617	2162844
588.646	2358459
588.671	2549370
588.718	2910523
588.725	2968151
588.778	3366111
588.789	3432869
588.832	3506876
588.861	3509727
588.886	3249706
588.932	2642615
588.939	2606834
588.993	2374712
589.004	2366058
589.047	3100745
589.075	3539295
589.100	3612580
589.147	3636356
589.154	3605065
589.207	3272614
589.218	3203306
589.261	3057892
589.290	2969053
589.314	3009490
589.361	3100877
589.368	3137066
589.421	3404508
589.433	3450760
589.475	3446602
589.504	3385001
589.528	3139980
589.576	2598000
589.582	2649824
589.635	3242006
589.647	3346315
589.689	3380506
589.718	3330417
589.742	3077458
589.790	2556041
589.795	2511954
589.849	2060274
589.861	1953735
589.902	1722617
589.932	1548995
589.955	1466643
590.004	1286669
590.009	1277027
590.062	1132938
590.075	1095009
590.115	945156
590.146	824125
590.168	773552
590.218	655470
590.222	652205
590.275	585905
590.289	567408
590.328	531224
590.360	499290
590.381	484023
590.431	443812
590.435	443068
590.488	408918
590.503	398172
590.541	378314
590.574	359226
590.594	351568
590.645	329265
590.647	329473
590.700	308130
590.716	300997
590.753	289626
590.787	276949
590.806	271980
590.859	255850
590.859	256436
590.912	243456
590.930	238589
590.965	231192
591.001	222208
591.018	219770
591.071	210477
591.072	209708
591.124	202038
591.143	198467
591.177	193235
591.214	186273
591.230	184831
591.283	178085
591.285	177229
591.336	171113
591.356	167836
591.389	164904
591.427	160253
591.442	159344
591.495	154186
591.498	153265
591.547	147985
591.569	145038
591.600	142914
591.640	138750
591.653	138513
591.706	135803
591.711	135027
591.759	132506
591.782	130610
591.811	128832
591.853	125013
591.864	124853
591.917	121967
591.924	121114
591.969	118616
591.995	116544
592.022	115634
592.066	113014
592.075	113173
592.127	111756
592.137	111082
592.180	108699
592.208	106513
592.233	105533
592.279	102541
592.285	102740
592.338	101378
592.350	100678
592.390	98990
592.421	97147
592.443	96935
592.491	95323
592.495	95579
592.548	94344
592.562	93660
592.600	91808
592.633	89592
592.653	89402
592.704	87574
592.705	88048
592.775	86362
592.846	85493
592.916	83874
592.987	81824
593.058	80316
593.128	76953
593.199	75439
593.270	73389
593.341	72395
593.411	71147
593.482	69992
593.553	67567
593.623	67769
593.694	67863
593.764	66374
593.835	63822
593.906	62742
593.976	62872
594.047	62011
594.117	61149
594.188	60755
594.258	59713
594.329	59000
594.399	57644
594.470	57321
594.540	57569
594.611	55973
594.681	56112
594.751	55663
594.822	57790
594.892	58234
594.963	57721
595.033	54377
595.103	53027
595.174	51868
595.244	53098
595.314	52293
595.384	51268
595.455	50721
595.525	52285
595.595	49973
595.665	51028
595.736	48911
595.806	50305
595.876	48869
595.946	48676
596.016	48908
596.087	49758
596.157	48265
596.227	47766
596.297	49888
596.367	50160
596.437	51454
596.507	51365
596.577	50627
596.647	50932
596.717	52681
596.787	52398
596.857	51594
596.927	52793
596.997	53825
597.067	58737
597.137	69167
597.207	59712
597.277	52046
597.347	49827
597.417	48499
597.487	49262
597.557	48417
597.626	48734
597.696	50137
597.766	50507
597.836	46900
597.906	45268
597.975	44870
598.045	44998
598.115	44745
598.185	46811
598.254	50834
598.324	53106
598.394	52108
598.464	52747
598.533	51183
598.603	49162
598.672	47140
598.742	48724
598.812	48343
598.881	48563
598.951	48913
599.020	49107
599.090	49620
599.159	50592
599.229	49327
599.299	47949
599.368	49082
599.437	48492
599.507	46459
599.576	48147
599.646	57063
599.715	58022
599.785	44308
599.854	42532
599.924	40769
599.993	40690
600.062	40735
600.132	41701
600.201	42023
600.270	48384
600.340	48939
600.409	48406
600.478	48381
600.547	49309
600.617	44831
600.686	38532
600.755	36252
600.824	34758
600.894	34466
600.963	34678
601.032	33802
601.101	33548
601.170	31581
601.239	30954
601.308	30953
601.378	30544
601.447	30863
601.516	31777
601.585	32053
601.654	32135
601.723	31917
601.792	34032
601.861	41326
601.930	55420
601.999	38545
602.068	34313
602.137	32729
602.206	33622
602.275	33875
602.343	33766
602.412	34362
602.481	33833
602.550	33580
602.619	34321
602.688	34177
602.756	33605
602.825	35601
602.894	36372
602.963	35251
603.032	36073
603.100	36099
603.169	36387
603.238	36070
603.307	36782
603.375	36127
603.444	36584
603.513	36827
603.581	37932
603.650	37109
603.719	37106
603.787	37630
603.856	39032
603.924	38540
603.993	41507
604.061	41784
604.130	42966
604.198	45040
604.267	44520
604.335	45080
604.404	45584
604.472	46786
604.541	46169
604.609	45499
604.678	46575
604.746	46857
604.815	47594
604.883	47654
604.951	49215
605.020	48425
605.088	50080
605.156	50421
605.225	50682
605.293	51324
605.361	51986
605.429	52200
605.498	53442
605.566	54190
605.634	56005
605.702	58405
605.771	61255
605.839	60410
605.907	58299
605.975	58902
606.043	57234
606.111	58657
606.180	63084
606.248	82368
606.316	87244
606.384	56251
606.452	58543
606.520	57695
606.588	59391
606.656	57788
606.724	57234
606.792	53834
606.860	49598
606.928	44852
606.996	44423
607.064	43604
607.132	44360
607.200	46745
607.267	46664
607.335	48081
607.403	50053
607.471	47337
607.539	47005
607.607	47870
607.674	41613
607.742	41856
607.810	41850
607.878	41803
607.946	42114
608.013	44303
608.081	45117
608.149	45735
608.216	46592
608.284	49193
608.352	47613
608.419	46704
608.487	47630
608.555	45436
608.622	47627
608.690	50476
608.757	54789
608.825	56325
608.893	53531
608.960	51553
609.028	49745
609.095	49815
609.163	48893
609.230	43567
609.298	41447
609.365	44128
609.432	47071
609.500	49427
609.567	57425
609.635	64263
609.702	67746
609.769	64830
609.837	52389
609.904	46016
609.971	49742
610.039	61295
610.106	91982
610.173	196406
610.241	481504
610.308	276142
610.375	79598
610.442	53950
610.509	49801
610.577	49152
610.644	48273
610.711	50112
610.778	51557
610.845	54491
610.912	62963
610.980	79186
611.047	118662
611.114	79720
611.181	55660
611.248	54289
611.315	57875
611.382	57540
611.449	58991
611.516	60104
611.583	60751
611.650	60400
611.717	63418
611.784	65596
611.851	72617
611.918	83590
611.984	109506
612.051	184278
612.118	438900
612.185	1154517
612.252	748578
612.319	154534
612.386	95868
612.452	79335
612.519	73136
612.586	68281
612.653	70581
612.719	72293
612.786	67486
612.853	62554
612.919	60657
612.986	62799
613.053	58010
613.120	53783
613.186	52211
613.253	54795
613.319	52668
613.386	54382
613.453	55325
613.519	54413
613.586	55843
613.652	59559
613.719	58819
613.785	59242
613.852	62256
613.918	67255
613.985	87023
614.051	146123
614.118	323599
614.184	297517
614.250	82658
614.317	64053
614.383	58585
614.449	59919
614.516	57483
614.582	58602
614.648	57045
614.715	56467
614.781	56246
614.847	55565
614.914	57373
614.980	55859
615.046	58828
615.112	64760
615.179	70121
615.245	87789
615.311	128882
615.377	236770
615.443	295908
615.509	176867
615.575	114993
615.642	95578
615.708	91360
615.774	98738
615.840	119081
615.906	168929
615.972	297549
616.038	622077
616.104	1008017
616.170	1685340
616.236	1410861
616.302	316570
616.368	176459
616.434	120957
616.500	100464
616.565	103441
616.631	128001
616.697	105825
616.763	106051
616.829	161645
616.895	291842
616.961	294835
617.026	133548
617.092	77556
617.158	67140
617.224	60123
617.289	54594
617.355	51215
617.421	48780
617.487	49450
617.552	46491
617.618	45503
617.684	43599
617.749	46359
617.815	43798
617.880	42528
617.946	41267
618.012	41486
618.077	42751
618.143	40235
618.208	41007
618.274	43564
618.339	44098
618.405	35200
618.470	37792
618.536	36126
618.601	35552
618.667	33209
618.732	31873
618.798	31935
618.863	31598
618.928	30790
618.994	32139
619.059	31713
619.124	33514
619.190	31232
619.255	29958
619.320	30003
619.386	30539
619.451	29644
619.516	29618
619.581	29930
619.647	30288
619.712	30455
619.777	28658
619.842	28587
619.907	30573
619.972	30638
620.038	29795
620.103	28365
620.168	27516
620.233	29503
620.298	29486
620.363	30019
620.428	31189
620.493	30797
620.558	31181
620.623	32609
620.688	32352
620.753	31231
620.818	30958
620.883	31660
620.948	32050
621.013	30641
621.078	30597
621.143	29715
621.207	33149
621.272	31331
621.337	29665
621.402	29474
621.467	29773
621.532	28064
621.596	29557
621.661	28384
621.726	28880
621.791	28711
621.855	28719
621.920	28941
621.985	28639
622.049	29972
622.114	28932
622.179	29460
622.243	30162
622.308	30734
622.373	33960
622.437	31925
622.502	29822
622.566	29463
622.631	28529
622.695	30758
622.760	29613
622.824	29895
622.889	30003
622.953	30399
623.018	35972
623.082	34791
623.147	32353
623.211	32302
623.276	30326
623.340	29829
623.404	29551
623.469	29225
623.533	30242
623.597	27891
623.662	27971
623.726	26196
623.790	24891
623.854	24053
623.919	25135
623.983	25079
624.047	25155
624.111	26710
624.176	26375
624.240	26804
624.304	28326
624.368	24784
624.432	27058
624.496	27360
624.560	29371
624.625	28970
624.689	28854
624.753	29744
624.817	28202
624.881	27149
624.945	25324
625.009	23848
625.073	25037
625.137	25322
625.201	28697
625.265	28218
625.329	25758
625.393	26486
625.456	27373
625.520	27655
625.584	27903
625.648	28903
625.712	28507
625.776	29421
625.839	28531
625.903	23120
625.967	21328
626.031	24398
626.095	28495
626.158	25573
626.222	20069
626.286	19789
626.349	17373
626.413	16750
626.477	19253
626.540	17018
626.604	17276
626.668	18313
626.731	17319
626.795	15943
626.858	17046
626.922	16117
626.986	17882
627.049	15270
627.113	18935
627.176	17720
627.240	16751
627.303	15895
627.366	17178
627.430	16899
627.493	16812
627.557	15107
627.620	17980
627.684	16670
627.747	18091
627.810	14719
627.874	15659
627.937	13667
628.000	16577
628.064	15380
628.127	11494
628.190	14463
628.253	13224
628.317	12180
628.380	12662
628.443	11294
628.506	10785
628.569	11750
628.632	10582
628.696	11728
628.759	10889
628.822	9926
628.885	9460
628.948	11679
629.011	11182
629.074	9988
629.137	9459
629.200	9173
629.263	10818
629.326	9086
629.389	10125
629.452	10019
629.515	9636
629.578	10342
629.641	10351
629.704	9646
629.767	10296
629.830	10388
629.892	9972
629.955	10132
630.018	11489
630.081	9773
630.144	11070
630.207	8346
630.269	11963
630.332	9250
630.395	9407
630.458	9702
630.520	8127
630.583	9797
630.646	9697
630.708	9429
630.771	8571
630.834	10253
630.896	10015
630.959	9443
631.021	9039
631.084	10142
631.146	9921
631.209	10929
631.272	10153
631.334	10406
631.397	10404
631.459	9529
631.522	11789
631.584	11751
631.646	13431
631.709	12558
631.771	13834
631.834	12983
631.896	12084
631.958	10446
632.021	11762
632.083	9820
632.145	10301
632.208	8684
632.270	10099
632.332	9602
632.395	9193
632.457	8813
632.519	8433
632.581	10494
632.643	9160
632.706	9535
632.768	8000
632.830	10444
632.892	9542
632.954	8985
633.016	10399
633.078	9433
633.141	9604
633.203	7868
633.265	9763
633.327	9598
633.389	8748
633.451	10118
633.513	9702
633.575	11008
633.637	10758
633.698	10175
633.760	10806
633.822	11084
633.884	12794
633.946	12807
634.008	13996
634.070	18980
634.132	30979
634.193	22038
634.255	17304
634.317	16155
634.379	16864
634.441	13763
634.502	13860
634.564	14137
634.626	14329
634.687	14288
634.749	10531
634.811	10525
634.873	9509
634.934	10264
634.996	10315
635.057	8749
635.119	9185
635.181	9654
635.242	11066
635.304	8199
635.365	11605
635.427	9662
635.488	10111
635.550	8974
635.611	11087
635.673	8440
635.734	13781
635.796	11439
635.857	14752
635.918	13787
635.980	17413
636.041	16560
636.102	18747
636.164	19290
636.225	18846
636.286	13685
636.348	14437
636.409	12214
636.470	10490
636.531	11249
636.593	9530
636.654	10204
636.715	9244
636.776	8732
636.838	8901
636.899	9245
636.960	8964
637.021	8749
637.082	9790
637.143	8952
637.204	7569
637.265	8164
637.326	8345
637.387	8480
637.448	7787
637.509	8753
637.570	8143
637.631	8550
637.692	7390
637.753	5808
637.814	7214
637.875	6814
637.936	8067
637.997	7176
638.058	8456
638.119	6962
638.179	7094
638.240	6521
638.301	7223
638.362	7188
638.423	6406
638.483	8176
638.544	5739
638.605	8254
638.666	7616
638.726	7537
638.787	9128
638.848	6778
638.908	6316
638.969	7013
639.030	6738
639.090	5693
639.151	5717
639.211	7908
639.272	7750
639.332	8750
639.393	8445
639.453	7341
639.514	8021
639.574	7261
639.635	6308
639.695	7048
639.756	5842
639.816	6077
639.877	6762
639.937	9312
639.997	8651
640.058	6276
640.118	5803
640.178	8108
640.239	6544
640.299	6817
640.359	6179
640.420	7327
640.480	8301
640.540	8922
640.600	10670
640.661	10421
640.721	10800
640.781	20223
640.841	23458
640.901	10410
640.961	7800
641.021	7493
641.082	7042
641.142	7245
641.202	8067
641.262	4500
641.322	6403
641.382	5060
641.442	6136
641.502	5609
641.562	7343
641.622	5518
641.682	5984
641.742	7683
641.802	7099
641.861	6429
641.921	6468
641.981	6124
642.041	5785
642.101	6163
642.161	4554
642.221	5786
642.280	6106
642.340	4777
642.400	4785
642.460	6901
642.519	5713
642.579	4336
642.639	6219
642.698	4429
642.758	7897
642.818	6028
642.877	5710
642.937	6540
642.997	7076
643.056	7636
643.116	5294
643.175	7673
643.235	6310
643.294	7983
643.354	8009
643.414	9515
643.473	13925
643.532	18595
643.592	29100
643.651	50849
643.711	95424
643.770	200085
643.830	501313
643.889	1041733
643.948	225359
644.008	36136
644.067	20648
644.126	15151
644.186	12030
644.245	10895
644.304	8707
644.363	10288
644.423	6991
644.482	8597
644.541	9125
644.600	7539
644.659	12681
644.719	14423
644.778	23671
644.837	41506
644.896	90688
644.955	211466
645.014	71184
645.073	24337
645.132	11531
645.191	8597
645.250	9091
645.309	9023
645.368	9308
645.427	13324
645.486	22325
645.545	36983
645.604	12513
645.663	8308
645.722	8223
645.781	9978
645.840	13080
645.898	17618
645.957	27089
646.016	44366
646.075	87189
646.134	177055
646.192	490988
646.251	697995
646.310	93565
646.369	24425
646.427	17730
646.486	12483
646.545	11275
646.603	8884
646.662	8102
646.721	8011
646.779	7385
646.838	7461
646.896	10564
646.955	14965
647.014	24349
647.072	46253
647.131	129969
647.189	57817
647.248	8838
647.306	7244
647.365	7174
647.423	3122
647.481	6067
647.540	4170
647.598	5683
647.657	4853
647.715	5654
647.773	3614
647.832	4919
647.890	3230
647.948	4038
648.007	6176
648.065	5670
648.123	6995
648.181	11000
648.240	18668
648.298	15215
648.356	5283
648.414	5353
648.472	5952
648.531	5076
648.589	4605
648.647	4048
648.705	4360
648.763	4854
648.821	5470
648.879	5858
648.937	6216
648.995	8663
649.053	11941
649.111	20165
649.169	34620
649.227	64093
649.285	138195
649.343	398655
649.401	179747
649.459	35475
649.516	35556
649.574	50081
649.632	123799
649.690	149728
649.748	46663
649.806	56252
649.863	91336
649.921	100423
649.979	58596
650.037	11040
650.094	5074
650.152	5575
650.210	5738
650.268	7110
650.325	9483
650.383	15214
650.440	5513
650.498	4861
650.556	3434
650.613	3620
650.671	4366
650.728	3453
650.786	3995
650.843	5557
650.901	3116
650.958	3769
651.016	2506
651.073	3312
651.131	2578
651.188	2175
651.246	3030
651.303	2673
651.360	3209
651.418	3090
651.475	2784
651.532	2443
651.590	3208
651.647	1997
651.704	2899
651.762	3519
651.819	3092
651.876	3220
651.933	2817
651.990	3290
652.048	1797
652.105	2246
652.162	3281
652.219	2639
652.276	2901
652.333	4517
652.390	2177
652.448	4064
652.505	5024
652.562	6926
652.619	11392
652.676	27521
652.733	26461
652.790	5995
652.847	1762
652.904	3170
652.961	1158
653.017	2044
653.074	2925
653.131	2004
653.188	2292
653.245	2751
653.302	1813
653.359	2096
653.415	2953
653.472	2215
653.529	2925
653.586	1603
653.642	2684
653.699	2878
653.756	1221
653.813	1812
653.869	2562
653.926	2050
653.983	1337
654.039	2566
654.096	2351
654.152	3188
654.209	937
654.266	3107
654.322	1335
654.379	2875
654.435	2974
654.492	1793
654.548	3145
654.605	3745
654.661	4750
654.717	2835
654.774	2677
654.830	2988
654.887	3321
654.943	3768
655.000	7060
655.056	4669
655.112	2606
655.168	1568
655.225	1921
655.281	2753
655.337	2489
655.394	2426
655.450	1983
655.506	2887
655.562	2617
655.618	3349
655.675	2155
655.731	3877
655.787	2482
655.843	4578
655.899	2271
655.955	3743
656.011	4468
656.067	3478
656.123	4612
656.179	4988
656.235	6579
656.291	3491
656.347	5594
656.403	4463
656.459	3332
656.515	3432
656.571	3447
656.627	3904
656.683	2570
656.739	3561
656.795	2705
656.850	3311
656.906	3236
656.962	3143
657.018	1799
657.074	2358
657.129	3362
657.185	5304
657.241	9158
657.297	3768
657.352	2199
657.408	1591
657.464	2261
657.519	1340
657.575	1668
657.630	2975
657.686	2345
657.742	1749
657.797	1462
657.853	2023
657.908	2516
657.964	891
658.019	1835
658.075	1544
658.130	2399
658.186	1389
658.241	1658
658.297	1327
658.352	971
658.407	2370
658.463	1388
658.518	2123
658.573	1201
658.629	1448
658.684	1135
658.739	2100
658.795	1427
658.850	1887
658.905	1353
658.960	1680
659.016	1383
659.071	2133
659.126	1985
659.181	2198
659.236	4254
659.291	4363
659.346	4012
659.401	6531
659.457	13396
659.512	22749
659.567	8980
659.622	3113
659.677	1269
659.732	603
659.787	1855
659.842	2491
659.897	1066
659.952	1436
660.007	1339
660.061	1589
660.116	1915
660.171	1104
660.226	850
660.281	2159
660.336	891
660.391	1390
660.445	1001
660.500	1727
660.555	2082
660.610	952
660.664	2037
660.719	1436
660.774	1707
660.828	1904
660.883	1832
660.938	1946
660.992	844
661.047	895
661.101	813
661.156	1052
661.211	1214
661.265	1230
661.320	1087
661.374	1544
661.429	1789
661.483	2553
661.538	985
661.592	2761
661.647	3492
661.701	6777
661.755	2480
661.810	2174
661.864	664
661.919	953
661.973	1857
662.027	1642
662.081	506
662.136	1476
662.190	1170
662.244	1454
662.299	1015
662.353	1447
662.407	415
662.461	832
662.515	1465
662.569	175
662.624	1335
662.678	1077
662.732	1061
662.786	325
662.840	1435
662.894	803
662.948	1217
663.002	875
663.056	147
663.110	216
663.164	647
663.218	769
663.272	2261
663.326	1308
663.380	1262
663.434	989
663.488	441
663.542	972
663.595	829
663.649	1008
663.703	1566
663.757	1451
663.811	677
663.864	903
663.918	1094
663.972	339
664.026	1052
664.079	1151
664.133	954
664.187	1189
664.240	1448
664.294	2390
664.348	1624
664.401	1539
664.455	377
664.508	1994
664.562	1203
664.615	1449
664.669	865
664.722	1541
664.776	1172
664.829	1158
664.883	1104
664.936	773
664.990	933
665.043	1736
665.097	837
665.150	2123
665.203	537
665.257	910
665.310	1273
665.363	1256
665.417	1573
665.470	673
665.523	907
665.576	1106
665.630	563
665.683	1469
665.736	1184
665.789	1209
665.842	889
665.895	755
665.949	1781
666.002	1162
666.055	363
666.108	1354
666.161	953
666.214	1331
666.267	1324
666.320	1139
666.373	1357
666.426	1450
666.479	756
666.532	854
666.585	871
666.638	1785
666.691	739
666.744	1142
666.796	618
666.849	937
666.902	786
666.955	1511
667.008	998
667.060	288
667.113	410
667.166	1158
667.219	1210
667.271	1700
667.324	1389
667.377	2949
667.430	3472
667.482	9009
667.535	4880
667.587	1771
667.640	625
667.693	870
667.745	1653
667.798	2276
667.850	839
667.903	572
667.955	439
668.008	1241
668.060	778
668.113	1172
668.165	793
668.218	1071
668.270	789
668.322	97
668.375	668
668.427	1141
668.479	801
668.532	534
668.584	470
668.636	427
668.689	935
668.741	730
668.793	1178
668.845	925
668.898	392
668.950	1318
669.002	729
669.054	606
669.106	1141
669.158	2121
669.211	2636
669.263	3654
669.315	6912
669.367	10810
669.419	4285
669.471	3735
669.523	4681
669.575	7461
669.627	5674
669.679	3159
669.731	3485
669.783	2803
669.835	4127
669.886	3775
669.938	2419
669.990	2077
670.042	1200
670.094	1785
670.146	1278
670.197	2093
670.249	2219
670.301	1951
670.353	3086
670.404	5138
670.456	5901
670.508	9893
670.560	16785
670.611	28266
670.663	49617
670.715	122425
670.766	182481
670.818	47233
670.869	7428
670.921	4348
670.972	3238
671.024	1635
671.075	2416
671.127	1225
671.178	1747
671.230	1331
671.281	1691
671.333	1562
671.384	1934
671.436	2172
671.487	3721
671.538	5044
671.590	8692
671.641	13612
671.692	24279
671.744	44530
671.795	33200
671.846	12627
671.897	6157
671.949	3953
672.000	2403
672.051	2370
672.102	2095
672.153	1656
672.204	1554
672.256	1452
672.307	1044
672.358	934
672.409	776
672.460	1514
672.511	281
672.562	-186
672.613	817
672.664	425
672.715	380
672.766	516
672.817	391
672.868	1017
672.919	-40
672.970	915
673.021	1
673.071	606
673.122	572
673.173	828
673.224	-344
673.275	-656
673.326	650
673.376	604
673.427	-714
673.478	-15
673.528	292
673.579	311
673.630	-219
673.680	995
673.731	-109
673.782	-319
673.832	68
673.883	-240
673.934	488
673.984	264
674.035	54
674.085	303
674.136	430
674.186	-103
674.237	89
674.287	176
674.338	-404
674.388	339
674.438	410
674.489	-21
674.539	424
674.589	72
674.640	100
674.690	144
674.740	24
674.791	78
674.841	630
674.891	321
674.942	-199
674.992	-652
675.042	-841
675.092	165
675.142	-150
675.193	-838
675.243	-502
675.293	-296
675.343	36
675.393	-45
675.443	323
675.493	301
675.543	-372
675.593	-26
675.643	-527
675.693	-413
675.743	367
675.793	305
675.843	-1156
675.893	-289
675.943	600
675.993	-294
676.043	-581
676.093	91
676.142	-1224
676.192	-239
676.242	-342
676.292	80
676.341	-1011
676.391	-275
676.441	-1380
676.491	482
676.540	-941
676.590	-48
676.640	11
676.689	-476
676.739	-964
676.789	214
676.838	-127
676.888	-865
676.937	-941
676.987	-825
677.037	-355
677.086	-407
677.136	18
677.185	-136
677.235	-676
677.284	253
677.333	-1089
677.383	-579
677.432	-328
677.482	-562
677.531	18
677.580	-1050
677.630	-662
677.679	-207
677.728	-449
677.778	96
677.827	-320
677.876	194
677.925	-185
677.975	-422
678.024	-969
678.073	305
678.122	-118
678.171	59
678.220	-483
678.269	-220
678.319	227
678.368	-382
678.417	-215
678.466	-224
678.515	-207
678.564	-816
678.613	-165
678.662	-649
678.711	-1150
678.760	2
678.809	-637
678.857	-409
678.906	-147
678.955	312
679.004	95
679.053	633
679.102	877
679.151	631
679.199	146
679.248	-161
679.297	-376
679.346	-741
679.394	-718
679.443	-50
679.492	-305
679.540	-512
679.589	-701
679.638	-588
679.686	-263
679.735	-269
679.784	-292
679.832	-620
679.881	-908
679.929	-134
679.978	-611
680.026	-436
680.075	-308
680.123	-941
680.172	-1025
680.220	-839
680.268	-1399
680.317	-461
680.365	-1013
680.414	-808
680.462	-591
680.510	-237
680.559	-746
680.607	-929
680.655	-1271
680.703	-444
680.752	-653
680.800	-813
680.848	-894
680.896	-774
680.945	-1769
680.993	-561
681.041	-1339
681.089	-573
681.137	-256
681.185	-933
681.233	-793
681.258	-426
681.281	-88
681.329	-235
681.377	-505
681.380	-517
681.425	-947
681.473	-315
681.502	-267
681.521	-254
681.569	-624
681.617	-332
681.624	-374
681.665	-706
681.713	-863
681.745	-401
681.761	-198
681.809	-198
681.857	80
681.867	24
681.904	-225
681.952	414
681.989	128
682.000	33
682.048	-268
682.096	-332
682.111	-355
682.143	-457
682.191	204
682.233	66
682.239	35
682.286	-1048
682.334	-854
682.354	-748
682.382	-609
682.430	-228
682.476	-501
682.477	-517
682.525	264
682.572	-369
682.598	-157
682.620	12
682.667	-6
682.715	5
682.720	41
682.763	245
682.810	145
682.841	62
682.857	-9
682.905	436
682.952	332
682.963	152
683.000	-452
683.047	216
683.085	1099
683.095	1321
683.142	332
683.190	352
683.206	413
683.237	528
683.284	165
683.328	125
683.332	103
683.379	400
683.426	-208
683.449	-196
683.473	-119
683.521	-150
683.568	1101
683.571	1106
683.615	962
683.662	1198
683.693	615
683.709	309
683.757	513
683.804	376
683.814	438
683.851	577
683.898	852
683.936	580
683.945	514
683.992	886
684.039	958
684.057	713
684.086	288
684.133	1022
684.179	116
684.180	79
684.227	872
684.274	1404
684.300	1403
684.321	1388
684.368	-32
684.415	869
684.422	836
684.462	617
684.509	670
684.543	908
684.556	991
684.603	763
684.649	531
684.665	862
684.696	1505
684.743	879
684.786	1864
684.790	1937
684.837	64
684.883	1350
684.908	952
684.930	606
684.977	1012
685.023	723
685.029	677
685.070	295
685.117	1423
685.150	1514
685.164	1520
685.210	1223
685.257	1539
685.272	1449
685.303	1337
685.350	1356
685.393	1371
685.396	1365
685.443	1254
685.490	1312
685.514	1789
685.536	2145
685.583	1525
685.629	1691
685.636	1577
685.675	984
685.722	1791
685.757	1398
685.768	1234
685.815	1706
685.861	1489
685.878	1518
685.908	1638
685.954	758
686.000	1587
686.000	1596
686.047	1375
686.093	1328
686.121	1300
686.139	1397
686.185	2044
686.232	2291
686.242	2155
686.278	1313
686.324	1069
686.363	1608
686.370	1760
686.416	2035
686.463	2587
686.484	2634
686.509	2643
686.555	2698
686.601	2494
686.606	2527
686.647	2485
686.693	1747
686.727	2008
686.739	2208
686.785	1708
686.831	1739
686.848	1857
686.877	1922
686.923	2216
686.969	2028
686.969	2027
687.015	1706
687.061	1931
687.090	1925
687.107	1901
687.153	1645
687.199	1681
687.211	1732
687.245	1996
687.291	2007
687.332	1846
687.336	1834
687.382	2531
687.428	2394
687.453	2829
687.474	3157
687.520	2822
687.565	2905
687.574	2925
687.611	3365
687.657	4061
687.695	4988
687.702	5295
687.748	7245
687.794	10632
687.816	10551
687.839	8953
687.885	6293
687.931	4132
687.937	3955
687.976	3787
688.022	2936
688.058	2582
688.067	2615
688.113	2608
688.158	2468
688.179	2490
688.204	2548
688.249	2782
688.295	2974
688.300	2969
688.340	2880
688.386	2832
688.421	2423
688.431	2316
688.477	2781
688.522	2966
688.542	2948
688.567	2963
688.613	2859
688.658	2647
688.663	2608
688.703	2293
688.749	2507
688.784	2794
688.794	2908
688.839	2810
688.884	2913
688.905	3094
688.930	3210
688.975	2956
689.020	2769
689.026	2761
689.065	2984
689.110	2997
689.146	3393
689.155	3488
689.201	4011
689.246	4193
689.267	4180
689.291	3970
689.336	3816
689.381	3239
689.388	3152
689.426	2901
689.471	3224
689.509	3461
689.516	3530
689.561	3349
689.606	3885
689.630	3586
689.651	3212
689.696	3341
689.741	3189
689.750	3164
689.785	3220
689.830	3315
689.871	3063
689.875	3036
689.920	3076
689.965	3225
689.992	2892
690.010	2743
690.054	3085
690.099	3181
690.112	3167
690.144	3169
690.189	3513
690.233	3430
690.233	3436
690.278	3837
690.323	4125
690.354	4251
690.367	4250
690.412	4233
690.457	4388
690.474	4248
690.501	4081
690.546	3988
690.590	4382
690.595	4350
690.635	4363
690.680	4473
690.716	5010
690.724	5162
690.769	5714
690.813	6483
690.836	6374
690.857	6750
690.902	8617
690.946	10140
690.957	10612
690.991	13953
691.035	18375
691.077	22852
691.080	22899
691.124	21747
691.168	19720
691.198	18428
691.213	17150
691.257	14611
691.301	11429
691.318	10374
691.346	9681
691.390	7841
691.434	6544
691.439	6395
691.478	6020
691.522	5812
691.559	5138
691.567	5083
691.611	4899
691.655	4650
691.680	4510
691.699	4418
691.743	4302
691.787	4580
691.800	4441
691.831	4239
691.875	4213
691.919	4327
691.921	4314
691.964	4344
692.008	4588
692.041	4488
692.052	4443
692.096	4538
692.139	4454
692.162	4386
692.183	4346
692.227	4553
692.271	4407
692.282	4371
692.315	4330
692.359	4529
692.402	4679
692.403	4691
692.447	4874
692.490	4556
692.523	4601
692.534	4623
692.578	4538
692.622	4442
692.643	4469
692.666	4718
692.709	4773
692.753	4898
692.763	5010
692.797	5098
692.840	4980
692.884	4751
692.884	4764
692.928	5033
692.971	5202
693.004	5445
693.015	5490
693.059	5441
693.102	5572
693.124	5462
693.146	5438
693.189	5625
693.233	5846
693.245	5815
693.276	5855
693.320	6261
693.363	6403
693.365	6390
693.407	6773
693.450	7520
693.485	7933
693.493	8195
693.537	9771
693.580	10893
693.605	11700
693.624	13268
693.667	17051
693.710	21139
693.725	22454
693.753	28465
693.797	38724
693.840	48786
693.845	49783
693.883	47565
693.926	43743
693.966	40721
693.970	40000
694.013	31983
694.056	24486
694.086	19031
694.099	18142
694.142	15432
694.185	13117
694.206	11686
694.229	10890
694.272	9727
694.315	8606
694.326	8275
694.358	8123
694.401	7873
694.444	7719
694.446	7680
694.487	7138
694.530	6707
694.566	6333
694.573	6361
694.616	6123
694.659	6580
694.686	6498
694.702	6453
694.745	6587
694.787	6604
694.806	6515
694.830	6314
694.873	6052
694.916	5854
694.926	5817
694.959	5980
695.002	5843
695.044	5901
695.046	5887
695.087	6082
695.130	6197
695.166	6362
695.172	6359
695.215	6107
695.258	5829
695.286	5654
695.301	5640
695.343	5626
695.386	5597
695.406	5532
695.428	5646
695.471	5758
695.514	6058
695.526	6099
695.556	6236
695.599	6435
695.641	6450
695.646	6484
695.684	6569
695.726	6235
695.766	6003
695.769	6027
695.811	6033
695.854	6204
695.886	6165
695.896	6146
695.938	6232
695.981	6213
696.005	6050
696.023	6194
696.065	6889
696.108	7372
696.125	7493
696.150	7245
696.192	7063
696.235	6756
696.245	6645
696.277	6723
696.319	6904
696.361	7033
696.365	7026
696.404	7056
696.446	7020
696.485	7005
696.488	7032
696.530	7041
696.572	7052
696.604	7108
696.614	7101
696.656	6847
696.698	6753
696.724	6574
696.740	6587
696.783	6715
696.825	6828
696.844	6816
696.867	6764
696.909	6758
696.951	6571
696.964	6535
696.992	6711
697.034	6900
697.076	7005
697.083	7019
697.118	7073
697.160	7048
697.202	7033
697.203	7012
697.244	6997
697.286	6981
697.323	6841
697.327	6865
697.369	6937
697.411	6947
697.442	7037
697.453	7181
697.494	7600
697.536	8091
697.562	8328
697.578	8130
697.620	7515
697.661	6930
697.682	6610
697.703	6809
697.744	7156
697.786	7636
697.801	7721
697.828	7685
697.869	7714
697.911	7580
697.921	7571
697.952	7738
697.994	7849
698.035	7947
698.040	7935
698.077	7871
698.118	7739
698.160	7648
698.160	7624
698.201	7789
698.243	7933
698.279	8073
698.284	8095
698.325	8060
698.367	8027
698.399	7942
698.408	7997
698.449	8171
698.491	8345
698.518	8456
698.532	8596
698.573	8868
698.614	9228
698.638	9398
698.656	9392
698.697	9304
698.738	9204
698.757	9136
698.779	9003
698.820	8698
698.862	8386
698.877	8251
698.903	8464
698.944	8751
698.985	9046
698.996	9102
699.026	9107
699.067	9080
699.116	9024
699.235	8209
699.354	8710
699.474	8337
699.593	8396
699.713	9392
699.832	8685
699.951	9215
700.070	9118
700.190	9062
700.309	9805
700.428	8791
700.547	8328
700.667	8441
700.786	8779
700.905	7335
701.024	7780
701.143	8121
701.262	8293
701.381	8026
701.500	8265
701.619	8767
701.738	8131
701.857	8744
701.976	7878
702.095	7218
702.214	8317
702.333	8309
702.452	7676
702.571	8346
702.690	7790
702.809	8484
702.928	7510
703.047	8446
703.165	7964
703.284	8221
703.403	7514
703.522	8514
703.640	7507
703.759	8455
703.878	7918
703.997	8077
704.115	7634
704.234	8025
704.353	7315
704.471	8604
704.590	6617
704.708	6992
704.827	7089
704.946	7612
705.064	6996
705.183	7786
705.301	7491
705.420	8041
705.538	8468
705.656	10439
705.775	17914
705.893	61714
706.012	63644
706.130	10775
706.249	7574
706.367	6940
706.485	7586
706.604	7419
706.722	7261
706.840	11870
706.958	25460
707.077	16143
707.195	7178
707.313	7226
707.431	6525
707.549	6658
707.668	5848
707.786	6934
707.904	5559
708.022	6068
708.140	6232
708.258	6979
708.376	6335
708.494	6145
708.612	6491
708.730	6388
708.848	6462
708.966	7085
709.084	6207
709.202	7046
709.320	6335
709.438	5781
709.556	6249
709.674	6227
709.791	6094
709.909	6027
710.027	6412
710.145	5189
710.263	6208
710.380	6148
710.498	5945
710.616	6115
710.733	5686
710.851	5655
710.969	6445
711.086	5702
711.204	5702
711.322	6470
711.439	5747
711.557	6463
711.674	6181
711.792	7707
711.909	13466
712.027	15219
712.144	5403
712.262	7013
712.379	5131
712.497	6843
712.614	5231
712.732	5802
712.849	5897
712.966	6101
713.084	5840
713.201	5478
713.318	5442
713.436	6077
713.553	5070
713.670	5505
713.787	6873
713.905	6958
714.022	6447
714.139	7080
714.256	9129
714.373	13079
714.490	27339
714.608	81657
714.725	361068
714.842	324554
714.959	21552
715.076	10039
715.193	8356
715.310	8202
715.427	6132
715.544	6631
715.661	7164
715.778	5854
715.895	5693
716.011	6076
716.128	5544
716.245	5622
716.362	6256
716.479	6213
716.596	6962
716.713	6712
716.829	6079
716.946	4925
717.063	5305
717.180	5897
717.296	5173
717.413	5548
717.530	5603
717.646	5276
717.763	5158
717.880	4853
717.996	4359
718.113	5448
718.229	4916
718.346	4813
718.462	5228
718.579	5997
718.695	6168
718.812	5186
718.928	5178
719.045	4678
719.161	4990
719.277	5983
719.394	6362
719.510	7548
719.626	5513
719.743	7989
719.859	10374
719.975	22972
720.092	91766
720.208	189242
720.324	19796
720.440	6851
720.557	4677
720.673	7121
720.789	4873
720.905	5345
721.021	4014
721.137	4046
721.253	5145
721.369	5501
721.486	4439
721.602	4201
721.718	4842
721.834	4656
721.950	4320
722.066	4163
722.181	3936
722.297	4632
722.413	5238
722.529	5418
722.645	4789
722.761	4945
722.877	5644
722.993	5200
723.108	4733
723.224	5990
723.340	4960
723.456	5699
723.571	4855
723.687	4602
723.803	4936
723.918	4514
724.034	4671
724.150	3713
724.265	3809
724.381	4330
724.497	3413
724.612	4804
724.728	3584
724.843	4487
724.959	3993
725.074	5013
725.190	4981
725.305	4982
725.421	3592
725.536	4604
725.651	4712
725.767	4635
725.882	4638
725.997	3569
726.113	4151
726.228	4295
726.343	3567
726.459	4450
726.574	3083
726.689	4294
726.804	4241
726.920	3828
727.035	4000
727.150	4308
727.265	3626
727.380	5449
727.495	5505
727.610	5708
727.725	6994
727.841	14010
727.956	45235
728.071	20414
728.186	5554
728.301	4294
728.416	4510
728.531	4818
728.645	5588
728.760	5984
728.875	6826
728.990	6898
729.105	5568
729.220	5486
729.335	4657
729.449	3970
729.564	4466
729.679	4840
729.794	3648
729.908	4310
730.023	4473
730.138	4385
730.253	2871
730.367	3768
730.482	4195
730.596	5015
730.711	4748
730.826	7840
730.940	9106
731.055	5011
731.169	3476
731.284	4273
731.398	3536
731.513	4433
731.627	4532
731.742	4863
731.856	3659
731.970	4881
732.085	5816
732.199	8746
732.313	14480
732.428	37563
732.542	97789
732.656	48466
732.771	11123
732.885	7402
732.999	5682
733.113	5675
733.227	4904
733.342	4926
733.456	4229
733.570	4436
733.684	4404
733.798	4724
733.912	4885
734.026	4656
734.140	4159
734.254	4140
734.368	4620
734.482	4544
734.596	4233
734.710	4254
734.824	3261
734.938	3374
735.052	3785
735.166	5035
735.280	4284
735.393	3940
735.507	4346
735.621	4647
735.735	4076
735.849	4601
735.962	4714
736.076	3435
736.190	4348
736.303	3932
736.417	4573
736.531	3669
736.644	3411
736.758	3994
736.872	3950
736.985	4076
737.099	4195
737.212	3631
737.326	4293
737.439	4104
737.553	3739
737.666	4685
737.780	3662
737.893	3920
738.007	2625
738.120	4086
738.233	3550
738.347	3996
738.460	4237
738.573	3796
738.687	4009
738.800	4653
738.913	4980
739.026	4966
739.140	7271
739.253	6728
739.366	3511
739.479	4428
739.592	3347
739.705	4122
739.818	3773
739.932	4232
740.045	4208
740.158	4299
740.271	3854
740.384	4480
740.497	5216
740.610	5703
740.723	4596
740.836	6598
740.949	5629
741.062	5929
741.174	5313
741.287	5165
741.400	4716
741.513	4898
741.626	6456
741.739	7243
741.851	4477
741.964	4658
742.077	4883
742.189	6612
742.302	10103
742.415	9242
742.527	5850
742.640	5111
742.753	4594
742.865	4785
742.978	3393
743.090	4448
743.203	3370
743.316	3739
743.428	2634
743.541	4266
743.653	3163
743.766	3037
743.878	2653
743.990	3786
744.103	8349
744.215	11264
744.327	4001
744.440	4041
744.552	3870
744.664	3662
744.777	2529
744.889	2878
745.001	3296
745.113	2779
745.226	3504
745.338	3180
745.450	3468
745.562	3043
745.674	3029
745.786	3371
745.898	4152
746.010	4059
746.122	3222
746.234	3654
746.347	3197
746.459	3864
746.570	3462
746.682	6892
746.794	14787
746.906	7719
747.018	3620
747.130	3884
747.242	2410
747.354	3367
747.466	2922
747.577	3531
747.689	3586
747.801	2637
747.913	2863
748.024	2594
748.136	1767
748.248	2780
748.359	2495
748.471	3361
748.583	2951
748.694	6395
748.806	7558
748.918	3101
749.029	2728
749.141	4012
749.252	3817
749.364	2598
749.475	3782
749.587	3110
749.698	1477
749.809	3740
749.921	3154
750.032	2180
750.144	2915
750.255	2534
750.366	3524
750.478	2815
750.589	2934
750.700	2526
750.811	3125
750.923	4369
751.034	4089
751.145	4121
751.256	2621
751.367	4019
751.479	3487
751.590	3337
751.701	3650
751.812	2605
751.923	2416
752.034	2722
752.145	2697
752.256	2725
752.367	2708
752.478	3266
752.589	2475
752.700	2815
752.811	2114
752.922	2345
753.032	2470
753.143	3151
753.254	1810
753.365	3180
753.476	2673
753.586	3353
753.697	2834
753.808	2975
753.919	2202
754.029	2763
754.140	2267
754.251	2167
754.361	2173
754.472	2869
754.582	1950
754.693	1954
754.804	2438
754.914	2764
755.025	2374
755.135	2754
755.246	2620
755.356	3157
755.466	2281
755.577	2644
755.687	2509
755.798	3223
755.908	2482
756.018	2816
756.129	2196
756.239	2493
756.349	2759
756.460	2762
756.570	3172
756.680	3256
756.790	2232
756.900	2827
757.011	2871
757.121	2994
757.231	2323
757.341	3305
757.451	1970
757.561	2453
757.671	2450
757.781	2112
757.891	3233
758.001	3151
758.111	3190
758.221	2909
758.331	3322
758.441	3522
758.551	2841
758.661	3862
758.771	3061
758.880	3311
758.990	2973
759.100	3576
759.210	3882
759.320	3936
759.429	3745
759.539	3409
759.649	3452
759.758	3985
759.868	4272
759.978	3473
760.087	3565
760.197	5087
760.307	4098
760.416	4222
760.526	3066
760.635	5329
760.745	4071
760.854	5243
760.964	4352
761.073	5667
761.182	4119
761.292	3981
761.401	4471
761.511	3840
761.620	4347
761.729	5032
761.839	4447
761.948	4590
762.057	3594
762.166	4849
762.276	3295
762.385	5612
762.494	5060
762.603	5060
762.712	4935
762.822	5762
762.931	4743
763.040	4880
763.149	5659
763.258	6232
763.367	6309
763.476	7419
763.585	6786
763.694	7878
763.803	7024
763.912	8016
764.021	7924
764.130	9160
764.238	10557
764.347	9782
764.456	10152
764.565	10565
764.674	11273
764.783	12489
764.891	12103
765.000	16242
765.109	17155
765.217	20207
765.326	24411
765.435	29064
765.543	36067
765.652	45604
765.761	59839
765.869	88681
765.978	139664
766.086	238958
766.195	460727
766.303	991975
766.412	1582732
766.520	1424379
766.629	636741
766.737	279083
766.846	158790
766.954	105361
767.062	79665
767.171	69302
767.279	45672
767.387	34206
767.496	28954
767.604	24353
767.712	22833
767.820	19396
767.928	18556
768.037	17474
768.145	15729
768.253	16349
768.361	13980
768.469	15316
768.577	14698
768.685	17346
768.793	17404
768.901	19733
769.009	23854
769.117	26606
769.225	36521
769.333	55589
769.441	91740
769.549	176581
769.657	393851
769.765	969146
769.873	1336152
769.981	649738
770.088	207749
770.196	102887
770.304	67109
770.412	47634
770.519	34747
770.627	27040
770.735	20972
770.842	19536
770.950	16203
771.058	14311
771.165	13498
771.273	11440
771.380	10392
771.488	9985
771.595	9102
771.703	8426
771.810	7792
771.918	7183
772.025	7954
772.133	6607
772.240	6207
772.348	7420
772.455	6175
772.562	5494
772.670	5289
772.777	5308
772.884	5718
772.991	5396
773.099	4944
773.206	4864
773.313	4955
773.420	4674
773.528	3834
773.635	4450
773.742	3987
773.849	4558
773.956	3476
774.063	4567
774.170	4037
774.277	4448
774.384	3422
774.491	3598
774.598	3732
774.705	2981
774.812	3180
774.919	4132
775.026	3541
775.133	3930
775.239	3048
775.346	3352
775.453	3142
775.560	2421
775.667	2293
775.773	2703
775.880	2774
775.987	3700
776.093	3085
776.200	2825
776.307	2272
776.413	3271
776.520	2317
776.627	3743
776.733	4105
776.840	3268
776.946	5620
777.053	13736
777.159	29016
777.266	16065
777.372	24114
777.478	21169
777.585	9896
777.691	3314
777.798	4018
777.904	5308
778.010	7915
778.117	3958
778.223	2951
778.329	2122
778.435	1932
778.542	3806
778.648	1682
778.754	1879
778.860	1896
778.966	2972
779.072	2006
779.178	1452
779.284	2131
779.391	2162
779.497	890
779.603	4514
779.708	1948
779.815	6558
779.920	21319
780.026	24465
780.132	3259
780.238	3005
780.344	2561
780.450	2793
780.556	2197
780.661	2108
780.767	1190
780.873	1434
780.979	2440
781.085	2064
781.190	1982
781.296	1757
781.402	1775
781.507	1303
781.613	1483
781.719	1539
781.824	1626
781.930	2800
782.035	2080
782.141	2205
782.246	1781
782.352	1936
782.457	603
782.563	1759
782.668	1366
782.773	2085
782.879	1398
782.984	3206
783.090	1873
783.195	1834
783.300	2598
783.405	1729
783.511	1146
783.616	2118
783.721	2129
783.826	1628
783.932	2468
784.037	2529
784.142	1555
784.247	468
784.352	1463
784.457	1858
784.562	1805
784.667	1419
784.772	1142
784.877	1125
784.982	1770
785.087	1173
785.192	1065
785.297	753
785.402	2074
785.507	2249
785.611	1472
785.716	1359
785.821	1100
785.926	1405
786.031	636
786.135	933
786.240	1628
786.345	669
786.450	1915
786.554	1581
786.659	1034
786.763	392
786.868	1949
786.973	2533
787.077	840
787.182	1395
787.286	959
787.391	890
787.495	1150
787.600	1408
787.704	-93
787.809	1323
787.913	999
788.017	1378
788.122	921
788.226	2762
788.330	457
788.435	1514
788.539	859
788.643	484
788.747	952
788.852	1432
788.956	913
789.060	2182
789.164	1134
789.268	974
789.372	728
789.476	1465
789.580	522
789.684	1117
789.788	1547
789.892	1058
789.996	1443
790.100	1526
790.204	1095
790.308	1930
790.412	1562
790.516	4480
790.620	2299
790.724	1940
790.828	1081
790.931	270
791.035	3632
791.139	2048
791.242	119
791.346	1969
791.450	172
791.554	1132
791.657	380
791.761	2310
791.864	1402
791.968	1310
792.072	642
792.175	1215
792.279	802
792.382	1480
792.486	1063
792.589	640
792.693	1656
792.796	1228
792.899	1407
793.003	1849
793.106	-333
793.209	1646
793.313	2678
793.416	-338
793.519	2113
793.623	1778
793.726	1362
793.829	1506
793.932	1379
794.035	567
794.138	2094
794.242	1963
794.345	1508
794.448	2788
794.551	2278
794.654	11035
794.757	13022
794.860	2567
794.963	1012
795.066	724
795.169	1723
795.272	754
795.375	121
795.477	518
795.580	985
795.683	4
795.786	-255
795.889	-291
795.991	1252
796.094	1654
796.197	-747
796.300	1628
796.402	-628
796.505	201
796.608	-429
796.710	1965
796.813	379
796.915	178
797.018	540
797.120	1234
797.223	-215
797.326	2913
797.428	-572
797.530	-623
797.633	435
797.735	1620
797.838	-71
797.940	910
798.042	-231
798.145	931
798.247	1080
798.349	300
798.452	1112
798.554	-11
798.656	-526
798.758	1383
798.860	-19
798.962	-174
799.065	-256
799.167	208
799.269	1221
799.371	1486
799.473	913
799.575	612
799.677	176
799.779	2063
799.881	-894
799.983	2017
800.085	848
800.187	440
800.289	-597
800.390	-65
800.492	606
800.594	1206
800.696	309
800.798	1702
800.899	-390
801.001	-170
801.103	772
801.205	469
801.306	-233
801.408	-658
801.509	215
801.611	985
801.713	885
801.814	362
801.916	320
802.017	1035
802.119	-360
802.220	266
802.322	-2021
802.423	1293
802.525	-1154
802.626	178
802.727	288
802.829	962
802.930	-1198
803.031	1445
803.133	-604
803.234	296
803.335	284
803.436	-40
803.538	-35
803.639	-321
803.740	478
803.841	-715
803.942	617
804.043	1566
804.144	725
804.245	321
804.346	-30
804.447	-187
804.548	-708
804.649	2294
804.750	-274
804.851	-314
804.952	59
805.053	309
805.154	-424
805.255	734
805.355	136
805.456	-137
805.557	-505
805.658	-617
805.758	515
805.859	704
805.960	530
806.061	-341
806.161	-590
806.262	947
806.362	-258
806.463	699
806.564	34
806.664	237
806.765	-1073
806.865	481
806.966	45
807.066	-481
807.166	847
807.267	1262
807.367	592
807.468	984
807.568	-1151
807.668	1074
807.769	591
807.869	-892
807.969	492
808.069	546
808.170	477
808.270	335
808.370	258
808.470	818
808.570	-531
808.670	58
808.770	103
808.870	382
808.970	1256
809.070	978
809.170	-60
809.271	715
809.370	-672
809.470	1318
809.570	-353
809.670	-802
809.770	499
809.870	545
809.970	-21
810.070	252
810.169	202
810.269	-278
810.369	1071
810.469	368
810.568	-490
810.668	-452
810.768	-166
810.867	213
810.967	-387
811.066	984
811.166	22
811.265	1754
811.365	-760
811.464	-60
811.564	884
811.663	1195
811.763	-402
811.862	965
811.962	1005
812.061	467
812.160	821
812.260	810
812.359	1283
812.458	640
812.557	1231
812.657	1303
812.756	826
812.855	1094
812.954	1566
813.053	1384
813.153	1063
813.252	909
813.351	1859
813.450	2418
813.549	722
813.648	1953
813.747	1164
813.846	1652
813.945	1714
814.044	2104
814.143	2380
814.242	3156
814.341	1426
814.439	3316
814.538	2834
814.637	2450
814.736	2467
814.835	3517
814.933	2538
815.032	3260
815.131	3253
815.229	4287
815.328	3685
815.427	3954
815.525	4927
815.624	5318
815.722	4635
815.821	5233
815.919	5418
816.018	5777
816.116	7107
816.215	7913
816.313	7740
816.412	8649
816.510	7770
816.609	10719
816.707	10522
816.805	10989
816.904	12423
817.002	14250
817.100	16064
817.198	19702
817.296	20650
817.395	25176
817.493	31535
817.591	37104
817.689	50912
817.787	70518
817.885	109533
817.983	183007
818.081	344338
818.179	703145
818.277	1259890
818.375	1088464
818.473	537267
818.571	272063
818.669	178347
818.767	147836
818.865	142141
818.963	164042
819.061	218842
819.158	338295
819.256	592435
819.354	1086428
819.452	1521388
819.549	1207717
819.647	666679
819.745	364909
819.842	224362
819.940	153226
820.038	110747
820.135	84368
820.233	67462
820.330	52087
820.428	44529
820.525	39079
820.623	31824
820.720	27240
820.818	25513
820.915	22870
821.012	20796
821.110	17528
821.207	17058
821.304	14503
821.402	14257
821.499	15895
821.596	20807
821.693	14035
821.791	9595
821.888	9402
821.985	8689
822.082	8736
822.179	9288
822.276	9811
822.373	7392
822.470	6179
822.567	5033
822.664	4754
822.761	5385
822.858	4012
822.955	4748
823.052	3901
823.149	2540
823.246	3950
823.343	3552
823.440	4590
823.536	2613
823.633	2760
823.730	2066
823.827	3687
823.923	2992
824.020	3822
824.117	3954
824.213	4324
824.310	3738
824.407	2481
824.503	1874
824.600	1798
824.696	1548
824.793	2599
824.889	1352
824.986	2742
825.082	1076
825.179	2475
825.275	1430
825.371	899
825.468	1171
825.564	1009
825.660	1355
825.757	1997
825.853	1830
825.949	561
826.045	1358
826.142	307
826.238	1151
826.334	1403
826.430	138
826.526	2150
826.622	292
826.718	983
826.814	-1183
826.910	952
827.006	446
827.102	255
827.198	541
827.294	108
827.390	506
827.486	802
827.582	-366
827.678	-266
827.774	774
827.869	-281
827.965	1545
828.061	359
828.157	149
828.252	492
828.348	-948
828.444	1012
828.539	-473
828.635	420
828.731	785
828.826	-510
828.922	661
829.017	-455
829.113	507
829.208	-491
829.304	-273
829.399	1133
829.495	-721
829.590	896
829.685	-1448
829.781	333
829.876	-886
829.971	-1120
830.066	-145
830.162	84
830.257	-622
830.352	-102
830.447	63
830.543	78
830.638	-1869
830.733	651
830.828	-767
830.923	1038
831.018	-631
831.113	-723
831.208	-921
831.303	-1085
831.398	-482
831.493	131
831.588	-326
831.683	-682
831.778	-811
831.873	-101
831.967	206
832.062	-363
832.157	-612
832.252	457
832.346	-910
832.441	4
832.536	-113
832.631	745
832.725	-461
832.820	-413
832.914	-767
833.009	-1178
833.104	-1024
833.198	315
833.293	-881
833.387	165
833.482	-975
833.576	-781
833.670	-259
833.765	-777
833.859	-1114
833.954	80
834.048	-1300
834.142	-401
834.237	-1021
834.331	-478
834.425	-593
834.519	-763
834.613	-528
834.708	-726
834.802	-1101
834.896	-1055
834.990	-1202
835.084	-54
835.178	-259
835.272	-459
835.366	-781
835.460	160
835.554	-994
835.648	-69
835.742	-2252
835.836	63
835.930	-1777
836.024	-114
836.117	-157
836.211	-1078
836.305	-409
836.399	-645
836.493	-1964
836.586	39
836.680	-1590
836.774	-646
836.867	86
836.961	-934
837.055	-1030
837.148	-196
837.242	-626
837.335	-182
837.429	-727
837.522	-536
837.616	-1657
837.709	167
837.803	-1710
837.896	450
837.989	-1914
838.083	-763
838.176	-922
838.269	-714
838.363	-801
838.456	-1049
838.549	-454
838.642	-1143
838.735	341
838.829	-169
838.922	-931
839.015	181
839.108	-668
839.201	75
839.294	-1030
839.387	-277
839.480	-2271
839.573	-1241
839.666	-1087
839.759	-355
839.852	-1338
839.945	-840
840.038	-853
840.131	-530
840.223	-1790
840.316	-121
840.409	-876
840.502	-1456
840.594	66
840.687	-2207
840.780	-1224
840.873	-514
840.965	-1478
841.058	-583
841.150	-279
841.243	-1525
841.336	-311
841.428	-558
841.521	-1908
841.613	-546
841.706	-1948
841.798	-877
841.890	-419
841.983	-1358
842.075	-612
842.167	-847
842.260	-1634
842.352	-43
842.444	-1230
842.537	-497
842.629	-619
842.721	38
842.813	-1342
842.905	-1023
842.997	-1001
843.090	-1386
843.182	-935
843.274	-2216
843.366	-1062
843.458	-1150
843.550	-101
843.642	-908
843.734	-828
843.826	-912
843.918	-233
844.009	-249
844.101	-1335
844.193	-581
844.285	-268
844.377	1342
844.469	2567
844.560	5868
844.652	4714
844.744	719
844.835	-377
844.927	-315
845.019	-1407
845.110	-223
845.202	136
845.293	-806
845.385	-1304
845.476	-956
845.568	-57
845.659	-305
845.751	-628
845.842	-796
845.934	-1367
846.025	-1690
846.116	-743
846.208	-185
846.299	-715
846.390	-206
846.482	-1432
846.573	-171
846.664	-1548
846.755	-737
846.846	-337
846.937	-1758
847.029	-1306
847.120	-1427
847.211	-1335
847.302	-60
847.393	-1873
847.484	-857
847.575	-1387
847.666	-1686
847.757	-1420
847.847	-738
847.938	-124
848.029	-325
848.120	-1425
848.211	-711
848.302	-1387
848.392	-1440
848.483	-239
848.574	-1259
848.664	-1426
848.755	-1062
848.846	-1562
848.936	-1503
849.027	-781
849.118	-219
849.208	-1795
849.299	-507
849.389	-104
849.480	2761
849.570	6177
849.661	12356
849.751	18543
849.841	6104
849.932	-168
850.022	-312
850.112	-1027
850.203	-230
850.293	-1114
850.383	-358
850.474	-1536
850.564	-1037
850.654	-2014
850.744	-1242
850.834	-1349
850.924	-620
851.014	-383
851.104	-424
851.194	-1532
851.284	-747
851.374	-1101
851.464	-1123
851.554	-1230
851.644	-1025
851.734	-1414
851.824	-1198
851.914	-542
852.004	-666
852.094	-515
852.183	-903
852.273	-1810
852.363	-452
852.452	-170
852.542	-1272
852.632	-1612
852.721	-695
852.811	-942
852.901	-141
852.990	-837
853.080	-1388
853.169	-570
853.259	-563
853.348	-881
853.438	-220
853.527	407
853.617	1645
853.706	4645
853.795	9987
853.885	24735
853.974	48709
854.063	90499
854.152	137874
854.242	47842
854.331	7056
854.420	2141
854.509	1487
854.598	762
854.687	314
854.777	-678
854.866	86
854.955	-1010
855.044	-193
855.133	-631
855.222	-23
855.311	-1453
855.400	121
855.488	-506
855.577	-835
855.666	461
855.755	1029
855.844	2578
855.933	1999
856.021	-352
856.110	52
856.199	-947
856.288	-1314
856.376	-1245
856.465	-1616
856.554	-748
856.642	-134
856.731	-251
856.819	-959
856.908	-1496
856.996	-1076
857.085	-1319
857.173	-1636
857.262	-954
857.350	-687
857.438	-2117
857.527	-909
857.615	-1632
857.703	326
857.792	-1389
857.880	-1565
857.968	-1387
858.056	-891
858.145	-1414
858.233	-2037
858.321	-1423
858.409	-702
858.497	-2104
858.585	-886
858.673	-1123
858.761	-1812
858.849	-1268
858.937	-1240
859.025	-730
859.113	-871
859.201	-1612
859.289	-59
859.377	-965
859.465	-1266
859.552	-1059
859.640	-800
859.728	-1164
859.816	-924
859.903	-1037
859.991	-1819
860.079	-1127
860.166	-1351
860.254	-888
860.342	-1885
860.429	-1289
860.517	-982
860.604	-1271
860.692	-91
860.779	-1632
860.867	-1332
860.954	-1700
861.042	-698
861.129	-1696
861.216	-1408
861.304	-1244
861.391	-603
861.478	-2044
861.565	-850
861.653	-1372
861.740	-1222
861.827	-1379
861.914	-1950
862.001	-1813
862.089	-699
862.176	-1119
862.263	-1563
862.350	-1936
862.437	-1035
862.524	-1722
862.611	-675
862.698	-446
862.785	662
862.871	813
862.958	-501
863.045	-1524
863.132	-659
863.219	-1060
863.306	-1256
863.392	-806
863.479	-393
863.566	-967
863.652	-587
863.739	-2367
863.826	-1417
863.912	-367
863.999	-1863
864.086	-1741
864.172	-1649
864.259	-1487
864.345	-1015
864.432	-729
864.518	-596
864.604	-1151
864.691	-711
864.777	-1132
864.863	-300
864.950	-1192
865.036	-655
865.122	11
865.209	187
865.295	-587
865.381	212
865.467	819
865.553	1284
865.639	1092
865.726	4493
865.812	9906
865.898	20739
865.984	30172
866.070	60639
866.156	61380
866.242	15073
866.328	2490
866.414	1038
866.499	686
866.585	-159
866.671	-570
866.757	60
866.843	-327
866.928	-604
867.014	-1275
867.100	336
867.186	-1166
867.271	-78
867.357	-740
867.442	-170
867.528	24
867.614	185
867.699	330
867.785	2920
867.870	4679
867.956	5892
868.041	3457
868.127	2006
868.212	3583
868.297	2887
868.383	781
868.468	1862
868.553	1126
868.639	245
868.724	170
868.809	45
868.894	-723
868.979	-306
869.065	-304
869.150	-528
869.235	-1014
869.320	-1593
869.405	-1380
869.490	-946
869.575	-1344
869.660	-1225
869.745	-928
869.830	-565
869.915	-1691
870.000	-454
870.085	167
870.169	301
870.254	495
870.339	-1126
870.424	-1325
870.509	-613
870.593	-1350
870.678	-822
870.763	-770
870.847	-553
870.932	-573
871.016	472
871.101	320
871.186	408
871.270	-144
871.355	-481
871.439	-617
871.523	-770
871.608	-586
871.692	-112
871.777	-442
871.861	-165
871.945	-226
872.030	-499
872.114	-673
872.198	-1760
872.282	-1728
872.367	-1177
872.451	-936
872.535	-528
872.619	-1813
872.703	-1514
872.787	-1033
872.871	-1217
872.955	-1719
873.039	-1296
873.123	-1570
873.207	-940
873.291	-1013
873.375	-519
873.459	-997
873.543	-1624
873.627	-1286
873.711	-654
873.794	-1364
873.878	-1164
873.962	-1320
874.045	-343
874.129	-1411
874.137	-1368
874.213	-941
874.245	-1029
874.296	-1173
874.352	-1120
874.380	-1099
874.460	-1530
874.464	-1549
874.547	-1050
874.568	-877
874.631	-313
874.676	-115
874.714	23
874.784	-440
874.798	-526
874.881	134
874.892	-39
874.965	-1257
874.999	-935
875.048	-482
875.107	-799
875.131	-932
875.215	-591
875.215	-591
875.298	-1647
875.323	-1509
875.381	-1153
875.430	-950
875.465	-811
875.538	-1268
875.548	-1328
875.631	-1493
875.646	-1483
875.714	-1575
875.753	-1363
875.798	-1008
875.861	-372
875.881	-186
875.964	-956
875.968	-912
876.047	-94
876.076	-332
876.130	-793
876.183	-964
876.213	-1069
876.291	-917
876.296	-909
876.379	-815
876.398	-953
876.462	-1417
876.506	-1364
876.545	-1233
876.613	-781
876.628	-725
876.711	-230
876.721	-355
876.794	-1118
876.828	-860
876.877	-582
876.935	-734
876.960	-711
877.043	-174
877.043	-174
877.125	-359
877.150	-170
877.208	223
877.258	-643
877.291	-1122
877.365	-246
877.374	-161
877.456	-636
877.472	-544
877.539	-41
877.579	108
877.622	182
877.687	-61
877.704	-141
877.787	-749
877.794	-725
877.869	-247
877.901	-192
877.952	-174
878.008	-71
878.034	-26
878.115	-1099
878.117	-1119
878.199	-737
878.222	-808
878.282	-1009
878.329	-757
878.364	-532
878.437	-770
878.447	-817
878.529	-393
878.544	-388
878.611	-413
878.651	-492
878.694	-456
878.758	-604
878.776	-618
878.858	-104
878.865	-136
878.941	-814
878.972	-657
879.023	-353
879.078	-854
879.105	-950
879.185	-162
879.187	-156
879.269	-356
879.292	-424
879.351	-437
879.399	-813
879.433	-1103
879.506	-866
879.516	-804
879.598	-793
879.613	-705
879.680	-659
879.720	-962
879.762	-976
879.827	-641
879.844	-625
879.926	-517
879.933	-492
880.007	-67
880.040	-466
880.089	-1197
880.147	-637
880.171	-298
880.253	-401
880.254	-402
880.335	-496
880.360	-667
880.417	-619
880.467	-111
880.499	152
880.574	-20
880.580	-65
880.662	-73
880.680	-237
880.744	-503
880.787	-466
880.825	-483
880.893	-481
880.907	-531
880.989	-829
881.000	-862
881.070	-482
881.106	-399
881.152	-574
881.213	-1132
881.233	-1252
881.315	-831
881.319	-824
881.396	-235
881.426	-135
881.478	-470
881.532	-634
881.559	-682
881.639	-823
881.641	-810
881.722	-384
881.745	-365
881.803	-538
881.852	-452
881.885	-492
881.958	-726
881.966	-724
882.047	-251
882.064	-278
882.129	-352
882.171	-539
882.210	-620
882.277	-403
882.291	-400
882.372	-595
882.383	-558
882.454	-189
882.489	-217
882.535	-227
882.596	-89
882.616	-111
882.697	-685
882.702	-674
882.778	-47
882.808	125
882.859	252
882.914	59
882.940	-56
883.020	-668
883.021	-666
883.102	-393
883.127	-319
883.183	-231
883.233	-485
883.264	-769
883.339	-863
883.345	-825
883.426	-514
883.445	-420
883.507	-199
883.551	-152
883.587	-211
883.657	-283
883.668	-247
883.749	-111
883.763	-153
883.830	-302
883.869	-70
883.910	-232
883.975	-741
883.991	-687
884.072	-89
884.081	-90
884.152	-65
884.187	82
884.233	22
884.292	-254
884.314	-305
884.394	-74
884.398	-88
884.475	-259
884.504	-316
884.555	-525
884.610	-839
884.636	-764
884.716	-71
884.716	-66
884.797	-646
884.821	-666
884.877	-87
884.927	-127
884.958	-529
885.033	-1159
885.038	-1132
885.118	-529
885.139	-412
885.199	-292
885.244	-343
885.279	-400
885.350	-223
885.359	-167
885.439	-161
885.456	-137
885.520	-375
885.561	-403
885.600	-429
885.667	-352
885.680	-257
885.760	-148
885.773	-111
885.840	-374
885.878	-587
885.920	-582
885.984	-408
886.000	-329
886.080	-180
886.089	-148
886.160	101
886.195	148
886.240	230
886.300	520
886.320	541
886.400	225
886.406	215
886.480	95
886.511	-34
886.560	128
886.616	336
886.640	272
886.720	26
886.722	12
886.800	-197
886.827	-223
886.879	-267
886.932	-357
886.959	-103
887.038	527
887.039	532
887.119	329
887.143	249
887.198	190
887.248	47
887.278	-1
887.354	-35
887.358	-4
887.437	512
887.459	615
887.517	535
887.564	584
887.596	761
887.669	891
887.676	829
887.755	210
887.774	-37
887.835	-49
887.880	220
887.914	260
887.985	-83
887.994	-71
888.073	231
888.090	272
888.153	221
888.195	215
888.232	316
888.300	364
888.311	385
888.391	658
888.405	666
888.470	296
888.510	133
888.549	428
888.615	790
888.628	736
888.708	560
888.720	510
888.787	45
888.825	-263
888.866	18
888.930	495
888.945	439
889.024	135
889.035	85
889.103	750
889.140	1103
889.182	822
889.245	387
889.261	447
889.340	712
889.349	739
889.419	444
889.454	282
889.498	390
889.559	529
889.577	467
889.656	186
889.664	155
889.735	337
889.768	424
889.814	386
889.873	329
889.978	285
890.083	651
890.187	251
890.292	-345
890.397	904
890.501	662
890.606	1147
890.710	566
890.815	579
890.919	755
891.024	114
891.128	1547
891.233	676
891.337	849
891.442	914
891.546	-8
891.650	-27
891.755	302
891.859	1655
891.963	392
892.068	901
892.172	441
892.276	548
892.380	690
892.484	563
892.589	-51
892.693	484
892.797	-222
892.901	749
893.005	-131
893.109	1306
893.213	479
893.317	973
893.421	285
893.525	152
893.629	-142
893.733	-66
893.837	539
893.941	571
894.045	803
894.148	-230
894.252	-18
894.356	650
894.460	1289
894.564	561
894.667	-278
894.771	375
894.875	-642
894.978	265
895.082	-16
895.186	467
895.289	384
895.393	603
895.496	747
895.600	-69
895.703	-116
895.807	210
895.910	556
896.014	220
896.117	-18
896.221	804
896.324	24
896.427	-8
896.531	46
896.634	1198
896.737	588
896.840	784
896.944	-61
897.047	489
897.150	494
897.253	-304
897.356	-472
897.460	476
897.563	134
897.666	718
897.769	123
897.872	544
897.975	-34
898.078	700
898.181	142
898.284	-219
898.387	727
898.490	545
898.593	709
898.695	281
898.798	-533
898.901	329
899.004	263
899.107	601
899.209	864
899.312	494
899.415	-71
899.518	282
899.620	-360
899.723	-53
899.826	313
899.928	205
900.031	-184
900.133	423
900.236	-17
900.338	506
900.441	7
900.543	-36
900.646	-150
900.748	322
900.851	-139
900.953	-47
901.055	-87
901.158	719
901.260	-411
901.362	1345
901.465	162
901.567	114
901.669	711
901.771	725
901.873	717
901.976	71
902.078	-238
902.180	434
902.282	-716
902.384	305
902.486	-131
902.588	327
902.690	49
902.792	1328
902.894	907
902.996	738
903.098	384
903.200	114
903.302	270
903.404	115
903.505	215
903.607	991
903.709	1132
903.811	-268
903.913	-167
904.014	-618
904.116	386
904.218	65
904.319	540
904.421	974
904.523	2968
904.624	1020
904.726	878
904.827	1698
904.929	2765
905.030	1168
905.132	845
905.233	424
905.335	227
905.436	514
905.537	-257
905.639	214
905.740	530
905.841	730
905.943	1054
906.044	844
906.145	1053
906.247	253
906.348	751
906.449	131
906.550	153
906.651	685
906.752	-4
906.854	469
906.955	-547
907.056	-251
907.157	130
907.258	-243
907.359	300
907.460	-236
907.561	96
907.662	-432
907.762	-150
907.863	-116
907.964	203
908.065	508
908.166	479
908.267	-183
908.367	10
908.468	630
908.569	-90
908.670	-389
908.770	-15
908.871	51
908.971	142
909.072	209
909.173	-345
909.273	-378
909.374	-556
909.474	323
909.575	-486
909.675	79
909.776	-166
909.876	327
909.977	373
910.077	773
910.177	-148
910.278	167
910.378	122
910.478	-437
910.579	-331
910.679	356
910.779	484
910.879	468
910.980	-452
911.080	176
911.180	280
911.280	-639
911.380	-121
911.480	77
911.580	-520
911.680	507
911.780	191
911.880	56
911.980	-210
912.080	-168
912.180	349
912.280	842
912.380	-886
912.480	-19
912.580	-158
912.679	280
912.779	-309
912.879	-301
912.979	-782
913.078	-586
913.178	-83
913.278	157
913.377	-123
913.477	-358
913.577	288
913.676	476
913.776	-616
913.875	53
913.975	523
914.074	175
914.174	-226
914.273	-854
914.373	346
914.472	349
914.572	-327
914.671	-353
914.770	-409
914.870	827
914.969	-381
915.068	-252
915.167	-43
915.267	-126
915.366	-913
915.465	572
915.564	204
915.663	310
915.763	-142
915.862	298
915.961	131
916.060	136
916.159	-284
916.258	32
916.357	244
916.456	746
916.555	-974
916.654	258
916.752	-704
916.851	-312
916.950	-595
917.049	-693
917.148	-635
917.247	634
917.345	79
917.444	-364
917.543	452
917.642	-286
917.740	-1079
917.839	-378
917.937	-15
918.036	-187
918.135	-2
918.233	-485
918.332	-137
918.430	-152
918.529	-1
918.627	-499
918.726	861
918.824	19
918.923	-95
919.021	417
919.119	-448
919.218	-1342
919.316	40
919.414	-302
919.512	377
919.611	-92
919.709	189
919.807	896
919.905	-442
920.003	-737
920.102	542
920.200	-473
920.298	391
920.396	-45
920.494	-229
920.592	-35
920.690	67
920.788	-209
920.886	-842
920.984	183
921.082	-285
921.180	185
921.277	-130
921.375	-432
921.473	360
921.571	453
921.669	-148
921.766	-535
921.864	444
921.962	252
922.060	33
922.157	-503
922.255	195
922.352	-94
922.450	-361
922.548	358
922.645	-157
922.743	221
922.840	-37
922.938	715
923.035	340
923.133	827
923.230	765
923.327	966
923.425	554
923.522	1102
923.619	-204
923.717	-196
923.814	383
923.911	-222
924.008	796
924.106	699
924.203	-395
924.300	400
924.397	330
924.494	1032
924.591	101
924.688	938
924.786	650
924.883	889
924.979	272
925.077	529
925.173	262
925.270	397
925.367	-153
925.464	533
925.561	184
925.658	1044
925.755	913
925.852	211
925.948	1640
926.045	2611
926.142	3209
926.239	3749
926.335	3644
926.432	3725
926.529	3848
926.625	4482
926.722	2254
926.818	1477
926.915	1095
927.011	759
927.108	137
927.204	1190
927.301	734
927.397	238
927.494	-35
927.590	568
927.687	330
927.783	148
927.879	209
927.976	386
928.072	355
928.168	753
928.264	-167
928.361	-64
928.457	-18
928.553	917
928.649	-160
928.745	-173
928.841	22
928.937	304
929.033	926
929.129	-46
929.225	-89
929.321	652
929.417	-196
929.513	408
929.609	38
929.705	403
929.801	481
929.897	-86
929.993	154
930.089	637
930.184	132
930.280	231
930.376	436
930.471	-926
930.567	182
930.663	263
930.758	-235
930.854	470
930.950	240
931.045	205
931.141	1034
931.236	235
931.332	630
931.427	-641
931.523	-1003
931.618	418
931.714	-525
931.809	6
931.905	-728
932.000	-245
932.095	236
932.191	985
932.286	-199
932.381	-146
932.476	382
932.572	-55
932.667	-476
932.762	-512
932.857	346
932.952	83
933.047	-486
933.142	-129
933.237	303
933.332	-24
933.427	514
933.522	264
933.617	-123
933.712	157
933.807	-17
933.902	-672
933.997	179
934.092	761
934.187	-357
934.282	76
934.376	335
934.471	-129
934.566	-398
934.661	421
934.755	549
934.850	-189
934.945	202
935.039	218
935.134	-499
935.228	-322
935.323	415
935.417	529
935.512	494
935.606	-232
935.701	460
935.795	320
935.890	-494
935.984	-212
936.079	-165
936.173	787
936.267	-300
936.362	-592
936.456	273
936.550	371
936.644	-777
936.738	1171
936.833	587
936.927	1080
937.021	982
937.115	334
937.209	-771
937.303	247
937.397	-138
937.491	-767
937.585	-953
937.679	318
937.773	-670
937.867	691
937.961	-347
938.055	-311
938.149	902
938.243	116
938.337	659
938.430	824
938.524	1753
938.618	5188
938.712	3298
938.805	1215
938.899	289
938.993	1544
939.086	2614
939.180	5850
939.274	7244
939.367	2548
939.461	-743
939.554	-505
939.648	617
939.741	-679
939.835	-570
939.928	167
940.022	-1046
940.115	-916
940.208	-700
940.302	526
940.395	631
940.488	-1153
940.582	-36
940.675	-426
940.768	-85
940.861	171
940.954	698
941.048	-595
941.141	-484
941.234	136
941.327	237
941.420	1231
941.513	-252
941.606	-662
941.699	-4
941.792	435
941.885	-626
941.978	-579
942.071	-326
942.164	-721
942.257	-74
942.349	125
942.442	-326
942.535	-812
942.628	-781
942.721	-502
942.813	-1023
942.906	262
942.999	-435
943.091	-77
943.184	-778
943.277	-1355
943.369	-497
943.462	-698
943.554	-913
943.647	-624
943.739	0
943.832	-438
943.924	-1483
944.017	-616
944.109	-1008
944.201	-496
944.294	-174
944.386	-762
944.478	-692
944.571	-579
944.663	-1355
944.755	-487
944.847	-400
944.940	86
945.032	-1036
945.124	-557
945.216	265
945.308	-161
945.400	91
945.492	39
945.584	-711
945.676	-420
945.768	-1123
945.860	372
945.952	-780
946.044	205
946.136	-301
946.228	-580
946.320	-781
946.412	-829
946.503	-605
946.595	962
946.687	-576
946.779	-132
946.870	-948
946.962	-980
947.054	-526
947.145	52
947.237	-1314
947.329	144
947.420	-595
947.512	-1117
947.603	-421
947.695	-866
947.786	-1115
947.878	-1142
947.969	-751
948.061	-815
948.152	-1514
948.243	-1341
948.335	-185
948.426	-389
948.517	-596
948.609	14
948.700	-1620
948.791	-446
948.882	-643
948.973	-927
949.065	-785
949.156	161
949.247	-1455
949.338	-919
949.429	-1314
949.520	-384
949.611	-1730
949.702	-456
949.793	-719
949.884	282
949.975	-540
950.066	-831
950.157	-631
950.247	-137
950.338	-1147
950.429	-1170
950.520	-708
950.611	-1068
950.701	-1802
950.792	-1093
950.883	-526
950.973	-520
951.064	-636
951.155	-641
951.245	-625
951.336	-1247
951.427	-2300
951.517	200
951.608	-196
951.698	-1145
951.788	-562
951.879	-1293
951.969	-1663
952.060	-315
952.150	-1590
952.240	146
952.331	-2549
952.421	108
952.511	-2064
952.602	-248
952.692	-1297
952.782	-546
952.872	-463
952.962	-187
953.052	-358
953.143	-1186
953.233	-432
953.323	-16
953.413	-1148
953.503	-388
953.593	-1042
953.683	-572
953.773	-939
953.863	-280
953.953	-693
954.042	-982
954.132	-1766
954.222	-866
954.312	-915
954.402	-1063
954.492	-987
954.581	-1264
954.671	-1796
954.761	-645
954.850	-636
954.940	-1521
955.030	-1273
955.119	-1272
955.209	-892
955.298	-1205
955.388	-763
955.477	-483
955.567	-1419
955.656	-479
955.746	-60
955.835	-1043
955.925	-1256
956.014	-706
956.103	-861
956.193	-1060
956.282	-838
956.371	-628
956.461	-1192
956.550	-1174
956.639	-978
956.728	-1053
956.817	-1479
956.906	-796
956.995	-499
957.085	-229
957.174	-384
957.263	-413
957.352	-1130
957.441	-1134
957.530	-1275
957.619	-529
957.708	-1120
957.796	-1101
957.885	-544
957.974	-1167
958.063	-799
958.152	-1851
958.241	-349
958.329	-300
958.418	-697
958.507	-1875
958.596	-219
958.684	-592
958.773	30
958.861	-1055
958.950	-11
959.039	-263
959.127	-303
959.216	61
959.304	-790
959.393	-367
959.481	-105
959.570	-154
959.658	-471
959.746	-1055
959.835	-900
959.923	-276
960.011	-1221
960.100	742
960.188	-311
960.276	-504
960.365	-701
960.453	-543
960.541	-1280
960.629	-1130
960.717	-898
960.805	-687
960.893	-540
960.981	-970
961.069	-339
961.158	-1005
961.245	-914
961.333	-35
961.421	-1255
961.509	-635
961.597	-1007
961.685	-1643
961.773	-467
961.861	-1740
961.949	53
962.036	-1467
962.124	66
962.212	-1170
962.299	-1014
962.387	-1695
962.475	-297
962.562	-928
962.650	66
962.738	-734
962.825	255
962.913	-1551
963.000	-1059
963.088	-1124
963.175	-1007
963.263	-1053
963.350	-1499
963.438	-260
963.525	-1275
963.612	-471
963.700	-1387
963.787	-454
963.874	-1453
963.962	-1033
964.049	-1281
964.136	-410
964.223	-1208
964.310	-666
964.398	-1482
964.485	-753
964.572	-1286
964.659	80
964.746	-1422
964.833	-764
964.920	-1494
965.007	-556
965.094	-1157
965.181	-1127
965.268	-1214
965.355	-888
965.441	-1093
965.528	-1753
965.615	-852
965.702	-660
965.789	-1019
965.875	-627
965.962	-474
966.049	-1692
966.136	-1098
966.222	-768
966.309	-933
966.395	-1340
966.482	-1041
966.569	-847
966.655	-1342
966.742	-889
966.828	-527
966.915	-999
967.001	-1164
967.087	-1016
967.174	-1463
967.260	-688
967.347	-1091
967.433	-880
967.519	-785
967.605	-1928
967.692	-1125
967.778	-720
967.864	-283
967.950	-1508
968.036	-1700
968.123	-1435
968.209	-1752
968.295	-1545
968.381	-334
968.467	-141
968.553	-2365
968.639	-917
968.725	-1991
968.811	-1352
968.897	-594
968.983	-404
969.069	-1845
969.154	-517
969.240	-920
969.326	-1630
969.412	-1366
969.497	-1020
969.583	-2128
969.669	180
969.755	-1094
969.840	-1334
969.926	-1025
970.012	-1301
970.097	-1085
970.183	-1588
970.268	-1044
970.354	-672
970.439	-1789
970.525	-394
970.610	-2333
970.696	138
970.781	-666
970.866	-1256
970.952	-1040
971.037	-1742
971.122	-875
971.208	-1006
971.293	-760
971.378	-1577
971.463	-1503
971.549	-757
971.634	-1399
971.719	-1003
971.804	-1084
971.889	-832
971.974	-1418
972.059	-650
972.144	-874
972.229	-968
972.314	-1550
972.399	-487
972.484	-1654
972.569	-188
972.654	-1873
972.739	194
972.824	-1309
972.908	-1043
972.993	-290
973.078	-671
973.163	-1831
973.247	-1097
973.332	-2238
973.417	542
973.501	-1905
973.586	-1275
973.671	-1510
973.755	-964
973.840	-878
973.924	-305
974.009	-1249
974.093	-1139
974.178	-417
974.262	-634
974.346	-1865
974.431	-681
974.515	-969
974.600	-875
974.684	-716
974.768	-997
974.852	55
974.937	-2029
975.021	-623
975.105	-814
975.189	-1558
975.273	-486
975.358	-771
975.442	-2468
975.526	-95
975.610	-2544
975.694	-1004
975.778	-550
975.862	-1116
975.946	-2988
976.030	-231
976.114	-1498
976.198	-1429
976.281	-1211
976.365	-560
976.449	-745
976.533	-1470
976.617	-1351
976.700	-879
976.784	-1212
976.868	-1023
976.951	-562
977.035	-1588
977.119	-1266
977.202	-986
977.286	-1237
977.369	-1412
977.453	-1092
977.536	-1977
977.620	-1184
977.703	-1493
977.787	-1405
977.870	-648
977.953	-297
978.037	-2366
978.120	-331
978.203	-1359
978.287	-1119
978.370	-1596
978.453	-1410
978.536	-1343
978.620	-1315
978.703	-897
978.786	-1506
978.869	-1671
978.952	-2108
979.035	-143
979.118	-658
979.201	-1581
979.284	-1341
979.367	-985
979.450	-959
979.533	-1626
979.616	-1765
979.699	-1743
979.782	-789
979.865	-1544
979.948	-1158
980.030	-2097
980.113	-1324
980.196	-2276
980.279	-334
980.361	-1671
980.444	-1222
980.526	-1302
980.609	-156
980.692	-1559
980.774	-1156
980.857	-2372
980.939	-584
981.022	-1192
981.104	-1419
981.187	-1182
981.269	-1145
981.352	-1294
981.434	-1777
981.516	-1371
981.599	512
981.681	-926
981.763	-388
981.846	-1121
981.928	-963
982.010	-1299
982.092	-1748
982.174	-934
982.256	-303
982.339	-1411
982.421	-1038
982.503	-94
982.585	-1377
982.667	-563
982.749	-550
982.831	-1187
982.913	-2096
982.995	-355
983.077	-1728
983.158	-548
983.240	-2194
983.322	-1183
983.404	-391
983.486	-1500
983.568	-1152
983.649	-940
983.731	-942
983.813	-1630
983.894	-1038
983.976	-2108
984.058	-1723
984.139	-726
984.221	-2689
984.302	-412
984.384	-1877
984.465	-1632
984.547	-1325
984.628	-1635
984.710	-548
984.791	-1754
984.872	-1842
984.954	-1253
985.035	-866
985.116	-2632
985.198	-1278
985.279	-807
985.360	-2056
985.441	-1370
985.522	-533
985.604	-2123
985.685	-2861
985.766	-927
985.847	236
985.928	-1929
986.009	-2092
986.090	-894
986.171	-232
986.252	-1274
986.333	-690
986.414	-1631
986.495	-1525
986.576	-1500
986.656	-852
986.737	-458
986.818	-1295
986.899	-1207
986.980	-1062
987.060	-1102
987.141	-1681
987.222	-457
987.302	-741
987.383	-1732
987.464	-1580
987.544	-1551
987.625	-1224
987.705	-1141
987.786	-746
987.866	-1475
987.947	-1650
988.027	-2123
988.108	-2341
988.188	-632
988.268	-1324
988.349	-1675
988.429	-1892
988.509	-1068
988.589	-1660
988.670	-3462
988.750	465
988.830	-1796
988.910	-1593
988.990	-1194
989.070	-1730
989.151	-1670
989.231	-1586
989.311	-1097
989.391	-1571
989.471	-1582
989.551	-1666
989.631	-1140
989.711	-962
989.791	-2424
989.870	-1677
989.950	-463
990.030	-1274
990.110	-1899
990.190	-1855
990.269	-1943
990.349	-968
990.429	-1471
990.509	-382
990.588	-2313
990.668	-682
990.747	-1448
990.827	-1469
990.907	-798
990.986	-1589
991.066	-1138
991.145	-1828
991.225	-1089
991.304	-1780
991.383	-1226
991.463	-899
991.542	-1723
991.622	-1424
991.701	-1382
991.780	-1221
991.859	-1949
991.939	-1405
992.018	-1680
992.097	-1512
992.176	-1447
992.256	-1630
992.335	-1740
992.414	-912
992.493	-2013
992.572	-929
992.651	-863
992.730	-1546
992.809	-1474
992.888	-2275
992.967	-2395
993.046	-739
993.125	-2315
993.203	-1789
993.282	-1052
993.361	-1321
993.440	-2114
993.519	-1617
993.597	-1814
993.676	-1290
993.755	-794
993.834	-1026
993.912	-2567
993.991	-7
994.069	-2715
994.148	-1474
994.226	-1500
994.305	-1832
994.384	-3250
994.462	-290
994.540	-2532
994.619	-2335
994.697	-1816
994.776	-2040
994.854	-1215
994.932	-2133
995.011	-1236
995.089	-2071
995.167	-2350
995.245	-1830
995.324	-2084
995.402	-1201
995.480	-1634
995.558	-2335
995.636	-2274
995.714	-1852
995.792	-990
995.870	-1580
995.948	-1398
996.026	-1414
996.104	-2387
996.182	-527
996.260	-1519
996.338	-2198
996.416	-2681
996.494	-1259
996.572	-1085
996.649	-1306
996.727	-2567
996.805	-1545
996.883	-2154
996.960	-2135
997.038	-1420
997.116	-1252
997.193	-2207
997.271	-1584
997.348	-1936
997.426	-1157
997.504	-2116
997.581	-1233
997.658	-1053
997.736	-1885
997.813	-1676
997.891	-870
997.968	-2424
998.046	-1064
998.123	-2055
998.200	-1789
998.277	-2378
998.355	-1348
998.432	-2981
998.509	-1641
998.586	-1365
998.663	-1423
998.741	-1864
998.818	-1785
998.895	-1371
998.972	-1135
999.049	-1667
999.126	-1869
999.203	-935
999.280	-1490
999.357	-2531
999.434	-1710
999.511	-1626
999.587	-426
999.664	-2068
999.741	-1335
999.818	-1152
999.895	-1950
999.971	-1927
1000.048	-1908
1000.125	-1077
1000.202	-1712
1000.278	-2170
1000.355	-1381
1000.431	-2456
1000.508	-1695
1000.584	-1481
1000.661	-856
1000.738	-1889
1000.814	-2239
1000.890	-1691
1000.967	-2404
1001.043	-1699
1001.120	-3054
1001.196	-1535
1001.272	-1958
1001.349	-1447
1001.425	-1098
1001.501	-1629
1001.577	-3061
1001.654	-1813
1001.730	-2215
1001.806	-1436
1001.882	-2036
1001.958	-1571
1002.034	-733
1002.110	-1037
1002.186	-2260
1002.262	-2337
1002.338	-1983
1002.414	-1263
1002.490	-1147
1002.566	-2028
1002.642	-2394
1002.718	-1313
1002.794	-1488
1002.870	-1860
1002.945	-1602
1003.021	-1430
1003.097	-1714
1003.173	-1058
1003.248	-1259
1003.324	-1162
1003.400	-1631
1003.475	-1906
1003.551	-1106
1003.626	-2037
1003.702	-1702
1003.777	-1990
1003.853	-1612
1003.928	-2525
1004.004	-1463
1004.079	-1722
1004.155	-1977
1004.230	-2768
1004.305	-1076
1004.381	-2119
1004.456	-1223
1004.531	-2115
1004.607	-1690
1004.682	-1987
1004.757	-1433
1004.832	-1645
1004.907	-1652
1004.982	-2167
1005.057	-1694
1005.133	-2024
1005.208	-2481
1005.283	-2661
1005.358	-1075
1005.433	-2515
1005.508	-2066
1005.583	-2044
1005.657	-2094
1005.732	-1165
1005.807	-1841
1005.882	-1658
1005.957	-2167
1006.032	-1239
1006.106	-2032
1006.181	-2392
1006.256	-1656
1006.331	-2527
1006.405	-2549
1006.480	-1670
1006.554	-2006
1006.629	-1881
1006.704	-2072
1006.778	-1671
1006.853	-1317
1006.927	-1678
1007.002	-2508
1007.076	-983
1007.150	-1508
1007.225	-2156
1007.299	-2224
1007.373	-2436
1007.448	-1484
1007.522	-863
1007.596	-1467
1007.671	-1413
1007.745	-1587
1007.819	-2058
1007.893	-2336
1007.967	-1948
1008.041	-2982
1008.115	-959
1008.190	-2242
1008.264	-1395
1008.338	-2385
1008.412	-2290
1008.486	-1181
1008.560	-1327
1008.633	-2068
1008.707	-1963
1008.781	-897
1008.855	-2689
1008.929	-1694
1009.003	-2567
1009.076	-1467
1009.150	-1830
1009.224	-2002
1009.298	-2214
1009.371	-2701
1009.445	-1582
1009.519	-2504
1009.592	-1906
1009.666	-1607
1009.739	-1820
1009.813	-2571
1009.886	-848
1009.960	-2161
1010.033	-1545
1010.107	-1375
1010.180	-2753
1010.253	-1293
1010.327	-1865
1010.400	-1373
1010.473	-1524
1010.547	-702
1010.620	-1363
1010.693	-583
1010.766	-1647
1010.840	-1812
1010.913	-1884
1010.986	-1160
1011.059	-1623
1011.132	-837
1011.205	-942
1011.278	-470
1011.351	-299
1011.424	-852
1011.497	-2202
1011.570	-1316
1011.643	-1415
1011.716	-1860
1011.789	-2207
1011.862	-1415
1011.934	-2267
1012.007	-2305
1012.080	-1618
1012.153	-1202
1012.225	-975
1012.298	-1854
1012.371	-2088
1012.443	-1696
1012.516	-2556
1012.588	-1434
1012.661	-1072
1012.733	-2374
1012.806	-1787
1012.879	-2022
1012.951	-1249
1013.023	-1647
1013.096	-1585
1013.168	-2214
1013.241	-620
1013.313	-1619
1013.385	-2606
1013.458	-1955
1013.530	-1706
1013.602	-2213
1013.674	-1720
1013.746	-2354
1013.819	-2065
1013.891	-677
1013.963	-2657
1014.035	-1494
1014.107	-1985
1014.179	-1039
1014.251	-3283
1014.323	-1469
1014.395	-1982
1014.467	-1917
1014.539	-1252
1014.611	-2437
1014.683	-1210
1014.754	-1238
1014.826	-2740
1014.898	-1283
1014.970	-2409
1015.042	-452
1015.113	-1976
1015.185	-1172
1015.257	-2470
1015.328	-723
1015.400	-2907
1015.471	-1346
1015.543	-2642
1015.615	-2222
1015.686	-2561
1015.757	-1417
1015.829	-1472
1015.901	-1327
1015.972	-2080
1016.043	-1615
1016.115	-2024
1016.186	-1498
1016.257	-1808
1016.328	-1103
1016.400	-1154
1016.471	-2040
1016.542	-1358
1016.613	-1759
1016.685	-1378
1016.756	-1510
1016.827	-2125
1016.898	-1718
1016.969	-1144
1017.040	-1877
1017.111	-2458
1017.182	-2358
1017.253	-1692
1017.324	-1604
1017.395	-1819
1017.466	-903
1017.537	-2286
1017.608	-1752
1017.678	-1392
1017.749	-1057
1017.820	-1928
1017.891	-2240
1017.961	-2401
1018.032	-1477
1018.103	-1450
1018.173	-2000
1018.244	-1545
1018.315	-2361
1018.385	-1787
1018.456	-2519
1018.526	-2687
1018.597	-1311
1018.667	-1669
1018.738	-2005
1018.808	-1602
1018.878	-2825
1018.949	-1428
1019.019	-1668
1019.089	-1785
1019.160	-1614
1019.230	-2254
1019.300	-1706
1019.371	-1869
1019.441	-1409
1019.511	-2465
1019.581	-2684
1019.651	-1897
1019.721	-1118
1019.791	-2175
1019.861	-1320
1019.931	-1718
1020.001	-1995
1020.071	-1973
1020.141	-2155
1020.211	-2563
1020.281	-2191
1020.351	-1506
1020.421	-1511
1020.491	-1314
1020.560	-2553
1020.630	-1683
1020.700	-2577
1020.770	-1957
1020.839	-1720
1020.909	-1890
1020.979	-1698
1021.048	-2080
1021.118	-2308
1021.187	-1613
1021.257	-1554
1021.326	-2122
1021.396	-1608
1021.465	-1345
1021.535	-2579
1021.604	-1920
1021.674	-1370
1021.743	-1305
1021.812	-1947
1021.882	-2152
1021.951	-1755
1022.020	-1922
1022.089	-1952
1022.159	-2279
1022.228	-830
1022.297	-1645
1022.366	-2662
1022.435	-2540
1022.504	-2050
1022.573	-2771
1022.642	-1707
1022.711	-2256
1022.781	-1541
1022.849	-1961
1022.918	-1674
1022.987	-2640
1023.056	-1588
1023.125	-2163
1023.194	-2880
1023.263	-1661
1023.331	-2212
1023.400	-2651
1023.469	-2043
1023.538	-1466
1023.606	-2427
1023.675	-2637
1023.744	-1919
1023.812	-1954
1023.881	-1850
1023.949	-1987
1024.018	-2166
1024.086	-2828
1024.155	-1994
1024.223	-2643
1024.292	-1701
1024.360	-2387
1024.429	-1819
1024.497	-2148
1024.565	-2128
1024.634	-2600
1024.702	-2111
1024.770	-1812
1024.838	-2390
1024.907	-1398
1024.975	-2403
1025.043	-1395
1025.111	-2425
1025.179	-1491
1025.247	-1722
1025.315	-2234
1025.383	-2300
1025.451	-1853
1025.519	-2583
1025.587	-2175
1025.655	-2258
1025.723	-1702
1025.791	-1914
1025.859	-2176
1025.927	-2247
1025.995	-2028
1026.062	-1982
1026.130	-1790
1026.198	-2454
1026.266	-2651
1026.333	-2163
1026.401	-2222
1026.469	-2100
1026.536	-1724
1026.604	-1904
1026.671	-2737
1026.739	-2296
1026.806	-2498
1026.874	-1298
1026.941	-2434
1027.009	-2042
1027.076	-2198
1027.144	-1632
1027.211	-2670
1027.278	-2320
1027.345	-3193
1027.413	-2442
1027.480	-2933
1027.547	-2309
1027.614	-2478
1027.682	-2413
1027.749	-2434
1027.816	-1760
1027.883	-1735
1027.950	-2282
1028.017	-2500
1028.084	-2201
1028.151	-3012
1028.218	-1873
1028.285	-1607
1028.352	-2048
1028.419	-2053
1028.486	-2251
1028.553	-2433
1028.619	-2951
1028.686	-1435
1028.753	-2025
1028.820	-2122
1028.886	-2347
1028.953	-1930
1029.020	-1765
1029.086	-1925
1029.153	-2397
1029.220	-1880
1029.286	-2339
1029.353	-1691
1029.419	-1861
1029.486	-1361
1029.552	-2005
1029.619	-2411
1029.685	-2232
1029.751	-2649
1029.818	-1837
1029.884	-2995
1029.951	-777
1030.017	-2286
1030.083	-1915
1030.149	-2571
1030.216	-2207
1030.282	-2726
1030.348	-2199
1030.414	-3206
1030.480	-2098
1030.546	-2605
1030.612	-1758
1030.678	-1636
1030.744	-2231
1030.810	-2173
1030.876	-2264
1030.942	-2025
1031.008	-2599
1031.074	-2889
1031.140	-2126
1031.206	-1917
1031.272	-2823
1031.337	-2688
1031.403	-1633
1031.469	-2262
1031.534	-2139
1031.600	-1687
1031.666	-2364
1031.731	-2752
1031.797	-1669
1031.863	-2438
1031.928	-2041
1031.994	-2433
1032.059	-1889
1032.125	-2075
1032.190	-2091
1032.256	-1802
1032.321	-2317
1032.386	-2587
1032.452	-1113
1032.517	-1956
1032.582	-2196
1032.647	-2199
1032.713	-1895
1032.778	-1863
1032.843	-2679
1032.908	-2456
1032.974	-1804
1033.039	-1459
1033.104	-1673
1033.169	-2570
1033.234	-2621
1033.299	-2181
1033.364	-2250
1033.429	-2439
1033.494	-2020
1033.559	-1947
1033.624	-1993
1033.688	-2338
1033.753	-2265
1033.818	-1933
1033.883	-1956
1033.948	-1826
1034.013	-1832
1034.077	-1331
1034.142	-1806
1034.207	-2430
1034.271	-1543
1034.336	-1608
1034.400	-1644
1034.465	-2453
1034.530	-2504
1034.594	-2571
1034.658	-2099
1034.723	-2151
1034.787	-1615
1034.852	-1905
1034.916	-2074
1034.981	-2702
1035.045	-1323
1035.109	-2357
1035.173	-2703
1035.238	-1925
1035.302	-1937
1035.366	-2656
1035.430	-1280
1035.495	-2496
1035.559	-999
1035.623	-2207
1035.687	-2085
1035.751	-1677
1035.815	-2401
1035.879	-1623
1035.943	-2655
1036.007	-2258
1036.071	-1937
1036.135	-2330
1036.198	-1753
1036.262	-2025
1036.326	-2320
1036.390	-1724
1036.454	-2015
1036.517	-3168
1036.581	-1186
1036.645	-2809
1036.709	-1655
1036.772	-2144
1036.836	-2034
1036.900	-3048
1036.963	-2548
1037.026	-1956
1037.090	-2656
1037.154	-1955
1037.217	-2443
1037.280	-2483
1037.344	-2185
1037.407	-1930
1037.471	-2357
1037.534	-1466
1037.597	-2026
1037.661	-1811
1037.724	-2259
1037.787	-2558
1037.850	-1687
1037.913	-2575
1037.977	-1001
1038.040	-2089
1038.103	-2420
1038.166	-2453
1038.229	-1754
1038.292	-1848
1038.355	-2589
1038.418	-2597
1038.481	-2545
1038.544	-2182
1038.607	-2076
1038.670	-2194
1038.732	-1945
1038.795	-2002
1038.858	-1829
1038.921	-2022
1038.984	-2455
1039.046	-2643
1039.109	-1996
1039.172	-2237
1039.234	-2039
1039.297	-1825
1039.360	-1332
1039.422	-2197
1039.485	-2460
1039.547	-2251
1039.610	-1782
1039.672	-2467
1039.734	-1767
1039.797	-2016
1039.859	-2270
1039.922	-2146
1039.984	-1290
1040.046	-2730
1040.109	-2290
1040.171	-2007
1040.233	-2012
1040.295	-2448
1040.358	-2180
1040.420	-2003
1040.482	-2289
1040.544	-2163
1040.606	-2127
1040.668	-2418
1040.730	-2376
1040.792	-2599
1040.854	-2206
1040.916	-2408
1040.978	-2112
1041.040	-1766
1041.102	-1807
1041.164	-2841
1041.225	-2168
1041.287	-2658
1041.349	-1945
1041.411	-1759
1041.472	-1885
1041.534	-2420
1041.596	-2819
1041.657	-2295
1041.719	-1404
1041.781	-2502
1041.842	-2154
1041.904	-2072
1041.965	-2101
1042.027	-1644
1042.088	-2448
1042.150	-2591
1042.211	-2183
1042.272	-2043
1042.334	-2422
1042.395	-1583
1042.456	-2520
1042.518	-1754
1042.579	-1931
1042.640	-1872
1042.701	-2389
1042.763	-1384
1042.824	-2420
1042.885	-2514
1042.946	-2207
1043.007	-2149
1043.068	-2029
1043.129	-2302
1043.190	-1482
1043.251	-1013
1043.312	-2472
1043.373	-2421
1043.434	-1487
1043.495	-1963
1043.556	-1728
1043.616	-2626
1043.677	-2356
1043.738	-2667
1043.799	-2266
1043.859	-2107
1043.920	-2441
1043.981	-1895
1044.041	-1776
1044.102	-2142
1044.162	-1133
1044.223	-2138
1044.284	-1280
1044.344	-2518
1044.405	-1792
1044.465	-1942
1044.525	-1980
1044.586	-1969
1044.646	-1817
1044.707	-1754
1044.767	-2121
1044.827	-1586
1044.887	-2266
1044.948	-1660
1045.008	-1686
1045.068	-1586
1045.128	-1575
1045.188	-1864
1045.249	-1625
1045.309	-1416
1045.369	-944
1045.429	-1780
1045.489	-1975
1045.549	-2249
1045.609	-1725
1045.669	-1814
1045.729	-2707
1045.789	-2707
1045.848	-1989
1045.908	-2552
1045.968	-1360
1046.028	-2007
1046.088	-1633
1046.147	-1632
1046.207	-1179
1046.267	-1660
1046.326	-1047
1046.386	-1417
1046.446	-834
1046.505	-2037
1046.565	-562
1046.624	-1310
1046.684	-1291
1046.743	-1450
1046.803	-226
1046.862	-238
1046.922	0
