'Start Wavelength	183.907
'End Wavelength	1046.922
'Gate Delay	5.000
'Gate Width (ms)	1.050
'Laser Output Level	0.000
'X Position	0.000
'Y Position	0.000
'Z Position	0.000
'Grid Point Number	1.000
'Shot Number	100.000
183.907	369.000
183.977	-149.000
184.047	37
184.116	1280
184.186	278
184.256	-624
184.325	396
184.395	-602
184.465	871
184.534	294
184.604	-306
184.674	-35
184.743	135
184.813	503
184.883	86
184.952	96
185.022	475
185.092	-176
185.161	197
185.231	20
185.301	92
185.370	465
185.440	28
185.509	-622
185.579	656
185.649	67
185.718	650
185.788	609
185.857	-237
185.927	50
185.996	486
186.066	-140
186.136	-621
186.205	212
186.275	362
186.344	-341
186.414	32
186.483	-133
186.553	729
186.622	260
186.692	162
186.761	-127
186.831	821
186.900	-824
186.970	957
187.039	200
187.109	1344
187.178	331
187.248	439
187.317	667
187.387	389
187.456	274
187.526	1174
187.595	669
187.664	628
187.734	496
187.803	377
187.873	1030
187.942	1493
188.012	1505
188.081	337
188.150	180
188.220	806
188.289	344
188.358	614
188.428	552
188.497	-313
188.567	1237
188.636	443
188.705	704
188.775	678
188.844	625
188.913	623
188.983	-123
189.052	514
189.121	402
189.191	139
189.260	358
189.329	983
189.399	-300
189.468	410
189.537	188
189.606	772
189.676	1091
189.745	562
189.814	463
189.883	361
189.953	-48
190.022	1052
190.091	811
190.161	1878
190.230	855
190.299	956
190.368	542
190.437	756
190.507	319
190.576	460
190.645	619
190.714	343
190.783	258
190.853	1110
190.922	521
190.991	323
191.060	743
191.129	-59
191.198	307
191.268	53
191.337	459
191.406	871
191.475	556
191.544	1100
191.613	658
191.682	339
191.752	313
191.821	876
191.890	832
191.959	1686
192.028	1303
192.097	637
192.166	699
192.235	1029
192.304	514
192.373	240
192.442	-564
192.511	290
192.580	317
192.650	1389
192.719	-88
192.788	1267
192.857	992
192.926	357
192.995	593
193.064	1292
193.133	1977
193.202	1658
193.271	1349
193.340	2125
193.409	2055
193.478	2238
193.547	1855
193.615	1902
193.684	2713
193.753	2157
193.822	845
193.891	772
193.960	1421
194.029	1377
194.098	791
194.167	980
194.236	2184
194.305	903
194.374	863
194.443	1022
194.512	1364
194.580	1571
194.649	1822
194.718	1510
194.787	1535
194.856	1059
194.925	1205
194.994	2166
195.062	982
195.131	1414
195.200	1435
195.269	1759
195.338	1275
195.407	1272
195.475	1002
195.544	1963
195.613	1613
195.682	1350
195.751	2415
195.819	2485
195.888	1713
195.957	2063
196.026	2317
196.094	1803
196.163	1804
196.232	2145
196.301	1690
196.369	1660
196.438	1791
196.507	2030
196.576	709
196.644	806
196.713	475
196.782	774
196.850	1603
196.919	366
196.988	963
197.056	721
197.125	933
197.194	967
197.262	686
197.331	1523
197.400	689
197.468	525
197.537	352
197.606	583
197.674	1591
197.743	2183
197.812	1411
197.880	2667
197.949	1138
198.017	2083
198.086	1641
198.155	1066
198.223	1211
198.292	2326
198.360	1481
198.429	918
198.497	993
198.566	1431
198.635	2125
198.703	1853
198.772	1089
198.840	2081
198.909	1780
198.977	1052
199.046	99
199.114	2041
199.183	1346
199.251	1478
199.320	1630
199.388	1205
199.457	773
199.525	1543
199.594	1070
199.662	985
199.731	848
199.799	1518
199.867	1497
199.936	928
200.004	1851
200.073	771
200.141	675
200.210	709
200.278	920
200.346	1497
200.415	1543
200.483	1970
200.552	1070
200.620	1050
200.688	1140
200.757	1312
200.825	1763
200.893	1596
200.962	1679
201.030	828
201.098	935
201.167	1233
201.235	1047
201.303	1365
201.372	2122
201.440	1647
201.508	2035
201.577	1101
201.645	1595
201.713	2151
201.781	853
201.850	2833
201.918	542
201.986	1061
202.055	1619
202.123	1828
202.191	720
202.259	729
202.327	1227
202.396	773
202.464	2805
202.532	2382
202.600	5267
202.669	4053
202.737	1217
202.805	1461
202.873	1461
202.941	1591
203.009	2122
203.078	1902
203.146	2014
203.214	1137
203.282	920
203.350	1715
203.418	1429
203.487	1113
203.555	1288
203.623	1693
203.691	1057
203.759	1169
203.827	1019
203.895	1008
203.963	1190
204.031	1282
204.099	1898
204.168	1179
204.236	1109
204.304	2049
204.372	2458
204.440	1621
204.508	1405
204.576	1558
204.644	1641
204.712	1440
204.780	1572
204.848	1626
204.916	900
204.984	1628
205.052	2639
205.120	1515
205.188	1670
205.256	1028
205.324	1376
205.392	782
205.460	3135
205.528	1390
205.596	2298
205.664	1296
205.732	1165
205.799	2626
205.867	4705
205.935	1851
206.003	2224
206.071	1277
206.139	1390
206.207	2144
206.275	1698
206.343	1866
206.411	1658
206.478	1635
206.546	1431
206.614	1732
206.682	2564
206.750	1460
206.818	2179
206.885	2489
206.953	237
207.021	2319
207.089	1316
207.157	1470
207.225	2109
207.292	1183
207.360	2637
207.428	2179
207.496	1008
207.563	2225
207.631	1345
207.699	1221
207.767	2091
207.834	2035
207.902	2260
207.970	1434
208.038	1409
208.105	1657
208.173	1905
208.241	2690
208.309	2883
208.376	3216
208.444	4587
208.512	2715
208.579	1603
208.647	2610
208.715	2788
208.782	2048
208.850	2331
208.918	1887
208.985	2239
209.053	2393
209.120	2208
209.188	2460
209.256	2308
209.323	2007
209.391	2771
209.459	3344
209.526	2322
209.594	1608
209.661	2443
209.729	2732
209.796	1940
209.864	2260
209.932	1331
209.999	4163
210.067	3365
210.134	3180
210.202	2247
210.269	4046
210.337	3327
210.404	1956
210.472	2343
210.539	2741
210.607	2733
210.674	3640
210.742	3775
210.809	2482
210.877	3303
210.944	4263
211.012	2601
211.079	4790
211.146	2555
211.214	2643
211.281	3204
211.349	3108
211.416	2843
211.484	3746
211.551	2087
211.618	3304
211.686	2740
211.753	2730
211.821	2691
211.888	2594
211.955	3261
212.023	2689
212.090	3709
212.157	2326
212.225	3602
212.292	4336
212.359	5425
212.427	12253
212.494	6875
212.561	3922
212.629	3776
212.696	3561
212.763	3182
212.831	1944
212.898	3706
212.965	2699
213.032	3565
213.100	3242
213.167	3278
213.234	4084
213.301	3627
213.369	2933
213.436	2523
213.503	2417
213.570	3479
213.638	2972
213.705	2601
213.772	2472
213.839	2987
213.906	3664
213.973	3911
214.041	3476
214.108	2939
214.175	4327
214.242	3444
214.309	3259
214.376	3733
214.444	3780
214.511	3973
214.578	2791
214.645	4821
214.712	5018
214.779	3981
214.846	3336
214.913	3275
214.980	4007
215.048	3688
215.115	5248
215.182	4292
215.249	4042
215.316	3939
215.383	3494
215.450	3291
215.517	3674
215.584	3281
215.651	3433
215.718	3714
215.785	4591
215.852	4462
215.919	4709
215.986	5942
216.053	4303
216.120	2833
216.187	4808
216.254	5008
216.321	4152
216.388	4649
216.455	5035
216.522	4430
216.589	5572
216.656	7577
216.722	8109
216.789	5171
216.856	5659
216.923	4105
216.990	5024
217.057	5183
217.124	6257
217.191	4770
217.258	6517
217.324	5971
217.391	5846
217.458	4961
217.525	4404
217.592	4394
217.659	2445
217.725	5311
217.792	5648
217.859	6273
217.926	3772
217.993	3072
218.059	3644
218.126	3554
218.193	2924
218.260	3537
218.327	3107
218.393	2938
218.460	3154
218.527	3670
218.594	3541
218.660	6714
218.727	7091
218.794	3990
218.860	3999
218.927	2620
218.994	3488
219.061	3170
219.127	4403
219.194	5849
219.261	3993
219.327	3006
219.394	2610
219.461	2488
219.527	4240
219.594	4098
219.661	4183
219.727	1829
219.794	3570
219.860	2756
219.927	3830
219.994	4695
220.060	6796
220.127	6562
220.193	5056
220.260	4437
220.326	6918
220.393	8275
220.460	8519
220.526	6645
220.593	5172
220.659	7251
220.726	7134
220.792	9645
220.859	10120
220.925	11849
220.992	12053
221.058	12230
221.125	12274
221.191	8865
221.258	5825
221.324	5255
221.391	4000
221.457	3927
221.524	4403
221.590	5016
221.657	9698
221.723	7923
221.789	7113
221.856	7441
221.922	4535
221.989	4975
222.055	3874
222.121	3494
222.188	6122
222.254	4585
222.321	4104
222.387	2921
222.453	3541
222.520	3818
222.586	2238
222.652	3696
222.719	2540
222.785	4701
222.851	3366
222.918	3470
222.984	4007
223.050	3612
223.116	3408
223.183	4174
223.249	2180
223.315	2263
223.382	3475
223.448	2674
223.514	3168
223.580	3265
223.647	2754
223.713	3187
223.779	3375
223.845	4271
223.911	4509
223.978	2848
224.044	4098
224.110	3073
224.176	3397
224.242	2841
224.309	2759
224.375	2854
224.441	3183
224.507	1902
224.573	2731
224.639	4315
224.705	2513
224.772	3727
224.838	2844
224.904	4060
224.970	3270
225.036	3144
225.102	3067
225.168	3897
225.234	3167
225.300	2911
225.366	3003
225.432	3617
225.499	3426
225.565	3328
225.631	4914
225.697	4247
225.763	5637
225.829	4469
225.895	4917
225.961	8013
226.027	7854
226.093	6476
226.159	8142
226.225	10360
226.291	18598
226.357	24373
226.423	17706
226.489	13462
226.554	9192
226.620	8313
226.686	10598
226.752	15272
226.818	21171
226.884	30544
226.950	27888
227.016	15709
227.082	11546
227.148	9099
227.214	9510
227.279	8957
227.345	8399
227.411	7222
227.477	7330
227.543	7159
227.609	10296
227.674	9926
227.740	7463
227.806	6683
227.872	4341
227.938	5998
228.003	10536
228.069	6007
228.135	4093
228.201	4554
228.267	4823
228.332	5964
228.398	6247
228.464	5682
228.530	3697
228.595	4613
228.661	3210
228.727	6701
228.792	7307
228.858	3930
228.924	3608
228.990	6240
229.055	4947
229.121	5848
229.187	4347
229.252	4479
229.318	3968
229.384	5331
229.449	6704
229.515	2632
229.581	3548
229.646	5042
229.712	5107
229.777	9451
229.843	10644
229.909	8665
229.974	9366
230.040	8574
230.105	6375
230.171	6900
230.236	8515
230.302	9164
230.368	9654
230.433	10187
230.499	7554
230.564	9182
230.630	6088
230.695	5310
230.761	5489
230.826	3114
230.892	8260
230.957	4628
231.023	5212
231.088	4624
231.154	5126
231.219	5577
231.284	6629
231.350	8134
231.415	5094
231.481	4052
231.546	3641
231.612	3974
231.677	4534
231.742	2809
231.808	5907
231.873	2528
231.939	2759
232.004	8282
232.069	8322
232.135	4670
232.200	4416
232.265	4078
232.331	3383
232.396	3371
232.461	3353
232.527	3182
232.592	4329
232.657	3067
232.723	4392
232.788	4266
232.853	4482
232.918	2827
232.984	3176
233.049	3060
233.114	3215
233.179	4210
233.245	4566
233.310	6480
233.375	3007
233.440	4299
233.506	6713
233.571	7109
233.636	3979
233.701	4054
233.766	4492
233.832	5949
233.897	4198
233.962	3771
234.027	7037
234.092	5838
234.157	4379
234.222	5131
234.288	5182
234.353	9035
234.418	9643
234.483	8926
234.548	8609
234.613	7124
234.678	7365
234.743	6269
234.808	10974
234.873	8607
234.938	7224
235.004	5928
235.069	5649
235.134	5325
235.199	5212
235.264	5542
235.329	4009
235.394	5241
235.459	6027
235.524	4694
235.589	5215
235.654	4268
235.719	3729
235.784	5552
235.849	5111
235.913	6576
235.978	6385
236.043	6997
236.108	5572
236.173	4468
236.238	6243
236.303	5210
236.368	4842
236.433	6402
236.498	8855
236.563	10523
236.627	17103
236.692	41635
236.757	41829
236.822	20047
236.887	14056
236.952	11821
237.017	9123
237.081	11971
237.146	13558
237.211	23397
237.276	42742
237.341	58747
237.405	40018
237.470	19940
237.535	13601
237.600	9777
237.664	8409
237.729	6636
237.794	8209
237.859	15313
237.923	11780
237.988	6963
238.053	7880
238.118	7748
238.182	13617
238.247	13820
238.312	6960
238.376	7448
238.441	5751
238.506	7067
238.570	4480
238.635	6438
238.700	5330
238.764	4923
238.829	7298
238.893	8216
238.958	8497
239.023	8391
239.087	5456
239.152	5781
239.216	4877
239.281	4586
239.346	4979
239.410	5066
239.475	5868
239.539	11748
239.604	9225
239.668	5892
239.733	5359
239.797	5643
239.862	8604
239.926	10737
239.991	7105
240.055	5491
240.120	4088
240.184	5157
240.249	3675
240.313	4426
240.378	4487
240.442	7439
240.507	10873
240.571	5888
240.635	6545
240.700	9094
240.764	6825
240.829	5057
240.893	3665
240.957	4861
241.022	8058
241.086	10458
241.151	6958
241.215	5016
241.279	5803
241.344	7024
241.408	8061
241.472	7217
241.537	9252
241.601	7954
241.665	6019
241.730	6502
241.794	8257
241.858	8158
241.922	7346
241.987	7797
242.051	6035
242.115	6115
242.179	7512
242.244	5276
242.308	7676
242.372	6086
242.436	8558
242.501	7583
242.565	5636
242.629	5714
242.693	7124
242.757	5744
242.822	5934
242.886	6970
242.950	7061
243.014	5081
243.078	7617
243.142	8576
243.206	7062
243.271	7311
243.335	7049
243.399	8554
243.463	18654
243.527	44267
243.591	19362
243.655	10719
243.719	7062
243.783	8876
243.847	11343
243.911	12605
243.975	19159
244.040	15556
244.104	10252
244.168	6614
244.232	10889
244.296	15446
244.360	12612
244.424	8889
244.488	6728
244.552	6343
244.615	4816
244.679	6510
244.743	8012
244.807	9770
244.871	6470
244.935	6004
244.999	3709
245.063	7171
245.127	7714
245.191	8440
245.255	9809
245.319	10087
245.383	10110
245.446	7895
245.510	5850
245.574	6999
245.638	7858
245.702	6722
245.766	15707
245.829	11328
245.893	7735
245.957	7281
246.021	8426
246.085	8824
246.149	9096
246.212	22494
246.276	35893
246.340	18622
246.404	12160
246.467	11525
246.531	16331
246.595	11513
246.659	10149
246.722	8895
246.786	13631
246.850	13152
246.913	15888
246.977	8677
247.041	8080
247.104	10404
247.168	9863
247.232	21320
247.295	43040
247.359	26100
247.423	12837
247.486	19005
247.550	13832
247.614	10480
247.677	15762
247.741	10738
247.804	9363
247.868	11158
247.932	20734
247.995	44309
248.059	22073
248.122	11776
248.186	15145
248.249	24743
248.313	61364
248.376	72508
248.440	51639
248.503	23702
248.567	19213
248.630	22996
248.694	32833
248.757	42271
248.821	67764
248.884	53431
248.948	42875
249.011	59107
249.075	76470
249.138	73094
249.202	34720
249.265	21520
249.328	18755
249.392	17114
249.455	17470
249.519	12860
249.582	15595
249.645	23652
249.709	18203
249.772	12237
249.835	11911
249.899	13002
249.962	13244
250.025	11905
250.089	27804
250.152	40728
250.215	21209
250.279	15018
250.342	14725
250.405	14003
250.468	12708
250.532	15927
250.595	19988
250.658	45006
250.721	76474
250.785	37708
250.848	22711
250.911	15139
250.974	15186
251.038	21428
251.101	44440
251.164	23204
251.227	23486
251.290	20483
251.354	21948
251.417	61328
251.480	69395
251.543	49034
251.606	101241
251.669	90980
251.732	45554
251.795	52260
251.859	50693
251.922	74906
251.985	54988
252.048	28296
252.111	23068
252.174	22654
252.237	40862
252.300	77689
252.363	73375
252.426	100257
252.489	56824
252.552	30570
252.615	21769
252.678	25399
252.741	58175
252.804	63404
252.867	98111
252.930	82570
252.993	53204
253.056	31851
253.119	23031
253.182	17493
253.245	20930
253.308	20888
253.371	22195
253.434	20223
253.497	20645
253.559	38972
253.622	30651
253.685	32871
253.748	37798
253.811	20019
253.874	19442
253.937	18513
254.000	18003
254.062	29547
254.125	46128
254.188	41747
254.251	36777
254.314	17995
254.376	27157
254.439	33036
254.502	29544
254.565	30127
254.628	53512
254.690	34255
254.753	18705
254.816	15057
254.878	16146
254.941	30313
255.004	34631
255.067	16138
255.129	16333
255.192	10892
255.255	9876
255.317	13197
255.380	9091
255.443	6503
255.505	7404
255.568	7244
255.631	9555
255.693	9733
255.756	7149
255.819	7729
255.881	6572
255.944	6754
256.006	6621
256.069	7813
256.132	7745
256.194	9027
256.257	13522
256.319	10908
256.382	9743
256.444	9600
256.507	9355
256.569	9077
256.632	9991
256.694	12476
256.757	27216
256.819	77947
256.882	42346
256.944	19249
257.007	15139
257.069	16201
257.132	11212
257.194	10584
257.257	9546
257.319	9817
257.381	11817
257.444	22953
257.506	77560
257.569	102968
257.631	47556
257.693	29549
257.756	15167
257.818	12568
257.880	10418
257.943	10838
258.005	10006
258.067	9415
258.130	10170
258.192	10176
258.254	18131
258.317	13443
258.379	10019
258.441	19385
258.503	20188
258.566	14517
258.628	17958
258.690	9047
258.753	10702
258.815	19091
258.877	14194
258.939	9731
259.001	9556
259.064	8609
259.126	8716
259.188	10320
259.250	9790
259.312	10071
259.375	15601
259.437	15445
259.499	9811
259.561	8068
259.623	8661
259.685	11735
259.747	9356
259.809	14404
259.872	22022
259.934	33880
259.996	50466
260.058	21749
260.120	9990
260.182	7715
260.244	7440
260.306	6625
260.368	8598
260.430	8143
260.492	21490
260.554	31702
260.616	14736
260.678	24925
260.740	28926
260.802	11891
260.864	10391
260.926	9079
260.988	10411
261.050	10474
261.112	28119
261.174	47851
261.236	24204
261.298	13622
261.359	12193
261.421	17193
261.483	9701
261.545	9059
261.607	6698
261.669	7433
261.731	9962
261.793	21755
261.854	16508
261.916	13158
261.978	12830
262.040	14023
262.102	9249
262.164	8297
262.225	9129
262.287	8055
262.349	20953
262.411	17779
262.472	9433
262.534	9138
262.596	14783
262.658	8341
262.719	6707
262.781	7283
262.843	14288
262.904	10044
262.966	9456
263.028	8672
263.090	23412
263.151	63807
263.213	36834
263.275	31718
263.336	12592
263.398	9303
263.459	7036
263.521	7115
263.583	19975
263.644	16262
263.706	8347
263.767	5562
263.829	6127
263.891	5143
263.952	6369
264.014	6056
264.075	15282
264.137	42900
264.198	20190
264.260	9221
264.321	8160
264.383	20584
264.444	56659
264.506	22155
264.567	13673
264.629	22552
264.690	51212
264.752	21239
264.813	12613
264.875	8917
264.936	10347
264.998	9084
265.059	7035
265.120	7839
265.182	10482
265.243	39104
265.305	50430
265.366	15925
265.427	9308
265.489	8647
265.550	6493
265.611	9083
265.673	10221
265.734	9420
265.795	7903
265.857	6419
265.918	7894
265.979	13709
266.040	61882
266.102	69316
266.163	25476
266.224	22271
266.286	11531
266.347	9363
266.408	8961
266.469	7688
266.530	7353
266.592	6205
266.653	14798
266.714	26635
266.775	10771
266.836	8035
266.898	7025
266.959	15669
267.020	12947
267.081	8255
267.142	7055
267.203	6552
267.264	5209
267.326	8984
267.387	6904
267.448	6620
267.509	7246
267.570	6717
267.631	6356
267.692	6407
267.753	7747
267.814	6925
267.875	12013
267.936	27986
267.997	20247
268.058	16848
268.119	10911
268.180	9151
268.241	8233
268.302	6918
268.363	6829
268.424	7014
268.485	8573
268.546	7289
268.607	6167
268.668	5901
268.729	5749
268.790	6935
268.851	8669
268.912	20483
268.972	24259
269.033	15831
269.094	8541
269.155	7233
269.216	5923
269.277	7387
269.338	6479
269.398	6485
269.459	8966
269.520	12452
269.581	13826
269.642	16863
269.702	13195
269.763	10301
269.824	8262
269.885	10050
269.945	18744
270.006	9016
270.067	6265
270.128	6208
270.188	6611
270.249	8022
270.310	6197
270.370	6216
270.431	6277
270.492	6712
270.553	7565
270.613	14838
270.674	30167
270.734	14836
270.795	9082
270.856	12165
270.916	10402
270.977	7209
271.038	9854
271.098	10665
271.159	16538
271.219	16801
271.280	7954
271.340	7444
271.401	7558
271.462	12082
271.522	11242
271.583	9597
271.643	9018
271.704	9463
271.764	13118
271.825	25069
271.885	72706
271.946	101553
272.006	41440
272.066	45571
272.127	78491
272.187	29324
272.248	16697
272.308	16201
272.369	47658
272.429	31585
272.489	24112
272.550	28251
272.610	26120
272.671	22504
272.731	15376
272.791	20824
272.852	17841
272.912	16229
272.972	9847
273.033	9633
273.093	13356
273.153	17773
273.214	13902
273.274	12809
273.334	38820
273.394	73873
273.455	35345
273.515	29858
273.575	63829
273.635	30248
273.696	31119
273.756	65194
273.816	33718
273.876	17401
273.936	18152
273.997	31798
274.057	16586
274.117	13580
274.177	21158
274.237	79595
274.297	71526
274.358	37468
274.418	53088
274.478	47520
274.538	19952
274.598	12085
274.658	19280
274.718	28835
274.778	17349
274.838	11998
274.898	15259
274.958	35351
275.018	58666
275.078	48475
275.138	21185
275.198	12334
275.258	10025
275.318	11486
275.378	22286
275.438	27646
275.498	17083
275.558	19697
275.618	43279
275.678	46468
275.738	33176
275.798	30356
275.858	18901
275.918	10201
275.978	12813
276.038	12937
276.098	9593
276.157	17698
276.217	53471
276.277	28138
276.337	21329
276.397	11766
276.457	14019
276.517	10502
276.576	8161
276.636	8117
276.696	14839
276.756	30245
276.815	25886
276.875	12405
276.935	13732
276.995	13775
277.055	9218
277.114	9181
277.174	12700
277.234	41413
277.293	22252
277.353	14280
277.413	9819
277.472	10407
277.532	10955
277.592	10735
277.651	28272
277.711	55207
277.771	21882
277.830	60177
277.890	56170
277.950	35424
278.009	90682
278.069	44636
278.128	38818
278.188	56530
278.248	27592
278.307	57363
278.367	39236
278.426	14369
278.486	11304
278.545	9243
278.605	8754
278.664	9916
278.724	10289
278.783	23707
278.843	64524
278.902	24124
278.962	14290
279.021	13804
279.081	12006
279.140	12693
279.199	13952
279.259	14362
279.318	15794
279.378	16586
279.437	22079
279.496	68314
279.556	150463
279.615	130381
279.675	45143
279.734	25691
279.793	37766
279.853	58075
279.912	26272
279.971	14794
280.031	13431
280.090	23385
280.149	43339
280.208	29893
280.268	107716
280.327	118032
280.386	37059
280.445	32747
280.505	34175
280.564	17956
280.623	16524
280.682	20544
280.742	35984
280.801	14662
280.860	11546
280.919	10400
280.978	9978
281.037	8412
281.097	9364
281.156	9082
281.215	8828
281.274	10754
281.333	39203
281.392	34263
281.451	10958
281.510	8270
281.569	7708
281.628	8163
281.688	7243
281.747	8721
281.806	10998
281.865	7825
281.924	7620
281.983	7503
282.042	6277
282.101	6940
282.160	7809
282.219	6774
282.278	8113
282.337	26934
282.396	22125
282.454	10414
282.513	11315
282.572	41816
282.631	30320
282.690	11471
282.749	8925
282.808	12755
282.867	13142
282.926	12949
282.985	9280
283.043	7845
283.102	8550
283.161	9224
283.220	19354
283.279	43227
283.338	17907
283.396	11922
283.455	12249
283.514	12741
283.573	22160
283.631	16745
283.690	12550
283.749	11103
283.808	23418
283.866	28725
283.925	14093
283.984	12506
284.043	17530
284.101	19827
284.160	14356
284.219	16624
284.277	17044
284.336	22493
284.395	61112
284.453	54948
284.512	28506
284.570	35829
284.629	34844
284.688	32272
284.746	35867
284.805	42360
284.863	52461
284.922	67858
284.981	86256
285.039	123523
285.098	190870
285.156	290161
285.215	252695
285.273	257598
285.332	315404
285.390	228934
285.449	155327
285.507	108168
285.566	80450
285.624	62245
285.683	50851
285.741	40656
285.799	36680
285.858	31933
285.916	32131
285.975	25358
286.033	22361
286.091	19528
286.150	17848
286.208	16809
286.267	18647
286.325	17902
286.383	27667
286.442	24773
286.500	14497
286.558	13062
286.616	12448
286.675	16619
286.733	15184
286.791	13570
286.850	15169
286.908	18178
286.966	31632
287.024	15166
287.083	11688
287.141	10106
287.199	11400
287.257	17398
287.315	12915
287.374	11769
287.432	29881
287.490	22222
287.548	13698
287.606	11722
287.664	10105
287.723	14532
287.781	18862
287.839	11149
287.897	12270
287.955	14384
288.013	15187
288.071	25958
288.129	85947
288.187	234688
288.245	132733
288.303	46637
288.361	26253
288.419	18918
288.477	14661
288.535	11752
288.593	10762
288.651	11009
288.709	9290
288.767	10269
288.825	9320
288.883	8589
288.941	10112
288.999	8978
289.057	7913
289.115	7264
289.173	7671
289.231	8014
289.289	9163
289.346	9302
289.404	10758
289.462	17177
289.520	18896
289.578	10492
289.636	6646
289.694	7575
289.751	6879
289.809	6637
289.867	8383
289.925	10760
289.983	13009
290.040	8135
290.098	7122
290.156	10005
290.214	11578
290.271	7962
290.329	6927
290.387	5266
290.444	6236
290.502	5691
290.560	7306
290.617	9101
290.675	7777
290.733	7096
290.790	9463
290.848	7790
290.906	8972
290.963	9659
291.021	9192
291.078	9101
291.136	11499
291.194	26643
291.251	61503
291.309	22592
291.366	10905
291.424	8978
291.481	9314
291.539	9158
291.596	8045
291.654	6150
291.711	6181
291.769	8378
291.826	17633
291.884	13625
291.941	8125
291.999	8082
292.056	9317
292.114	12209
292.171	7907
292.228	9382
292.286	11041
292.343	19137
292.401	24297
292.458	15461
292.515	10285
292.573	11767
292.630	12991
292.687	11541
292.745	10065
292.802	14139
292.859	36366
292.917	56182
292.974	36802
293.031	16017
293.089	10286
293.146	8304
293.203	8444
293.260	7689
293.318	8877
293.375	20234
293.432	13946
293.489	9615
293.546	9873
293.604	12344
293.661	30748
293.718	86654
293.775	55801
293.832	26014
293.889	18209
293.947	14930
294.004	11909
294.061	12128
294.118	25274
294.175	58805
294.232	78920
294.289	36955
294.346	18631
294.403	16680
294.460	13864
294.517	11481
294.574	11012
294.631	10604
294.688	12608
294.745	27356
294.802	94168
294.859	120946
294.916	49338
294.973	24113
295.030	21448
295.087	18642
295.144	14896
295.201	13629
295.258	11890
295.315	12971
295.372	35179
295.429	70064
295.486	37589
295.542	22287
295.599	49475
295.656	90656
295.713	62678
295.770	71176
295.827	33461
295.883	17404
295.940	16156
295.997	24788
296.054	27651
296.111	16116
296.167	12381
296.224	10937
296.281	11417
296.338	10774
296.394	11970
296.451	13133
296.508	32099
296.564	62641
296.621	48459
296.678	82412
296.734	127593
296.791	60514
296.848	30672
296.904	28475
296.961	56208
297.018	79387
297.074	64908
297.131	30658
297.187	22047
297.244	23443
297.301	64534
297.357	118944
297.414	54642
297.470	25496
297.527	18380
297.583	17019
297.640	16280
297.696	13464
297.753	12010
297.809	10821
297.866	10351
297.922	8705
297.979	9655
298.035	11583
298.092	19141
298.148	44074
298.204	48559
298.261	25697
298.317	40968
298.374	100774
298.430	65911
298.486	30539
298.543	22293
298.599	24235
298.656	32400
298.712	36852
298.768	59803
298.824	39303
298.881	21097
298.937	14954
298.993	13278
299.050	17407
299.106	16538
299.162	15163
299.218	17117
299.275	13566
299.331	14357
299.387	24957
299.443	78909
299.500	87308
299.556	37865
299.612	22379
299.668	21383
299.724	16787
299.780	16088
299.837	14636
299.893	20784
299.949	63703
300.005	78137
300.061	69073
300.117	112848
300.173	65683
300.229	31974
300.285	37856
300.341	44565
300.397	26247
300.453	16945
300.510	16876
300.566	16809
300.622	14924
300.678	26670
300.734	59099
300.790	66989
300.845	81262
300.901	51276
300.957	66108
301.013	59054
301.069	27163
301.125	19320
301.181	21129
301.237	19642
301.293	14923
301.349	14442
301.405	15196
301.461	21228
301.516	33084
301.572	25739
301.628	33065
301.684	30122
301.740	39559
301.796	64077
301.851	45829
301.907	64453
301.963	63524
302.019	83816
302.074	199240
302.130	228514
302.186	134397
302.242	61181
302.297	36019
302.353	31389
302.409	54461
302.464	54542
302.520	41887
302.576	85504
302.631	101756
302.687	68072
302.743	33314
302.798	21206
302.854	16323
302.910	16509
302.965	20516
303.021	36527
303.076	36387
303.132	42717
303.187	52029
303.243	30980
303.299	18437
303.354	15931
303.410	14603
303.465	14896
303.521	13523
303.576	13899
303.632	16308
303.687	27984
303.743	76762
303.798	72492
303.853	35456
303.909	21224
303.964	17482
304.020	26097
304.075	40575
304.130	37258
304.186	61598
304.241	65737
304.297	54620
304.352	32908
304.358	31536
304.407	20420
304.449	18533
304.463	17911
304.518	17564
304.539	17286
304.573	16834
304.629	16293
304.630	16443
304.684	23951
304.720	47444
304.739	59171
304.794	91021
304.811	79017
304.850	50366
304.902	27260
304.905	25789
304.960	17269
304.992	17006
305.015	16882
305.071	17312
305.083	17172
305.126	16340
305.173	13965
305.181	13625
305.236	11386
305.264	12257
305.292	13281
305.347	17584
305.354	18138
305.402	21327
305.445	20608
305.457	20381
305.512	20831
305.535	21223
305.567	21916
305.622	21444
305.626	21887
305.678	32704
305.716	60154
305.733	69987
305.788	85015
305.807	74878
305.843	58011
305.897	74610
305.898	74762
305.953	76824
305.988	54983
306.008	43252
306.063	28861
306.078	26425
306.118	20388
306.168	15193
306.173	14765
306.228	12849
306.259	11770
306.283	11114
306.338	11243
306.349	11405
306.393	11886
306.440	13070
306.448	13319
306.503	13280
306.530	14050
306.558	17331
306.613	33376
306.620	36217
306.668	53712
306.711	71647
306.723	73909
306.778	62766
306.801	49814
306.833	35115
306.888	20128
306.892	19539
306.943	14512
306.982	13299
306.997	13082
307.052	13159
307.072	13660
307.107	16418
307.162	25779
307.163	25851
307.217	29666
307.253	29853
307.272	29212
307.327	28645
307.343	26851
307.381	23451
307.434	20828
307.436	21250
307.491	37289
307.524	55295
307.546	60590
307.600	65141
307.614	59011
307.655	38737
307.704	21921
307.710	21193
307.765	22704
307.795	26926
307.819	30828
307.874	44278
307.885	44557
307.929	37467
307.975	29984
307.984	30494
308.038	38542
308.065	46154
308.093	71633
308.148	142094
308.156	157860
308.202	237228
308.246	291577
308.257	287557
308.312	183114
308.336	139673
308.366	110240
308.421	74196
308.426	70724
308.475	46081
308.517	33133
308.530	30645
308.585	25579
308.607	24517
308.639	24618
308.694	25922
308.697	26179
308.748	40038
308.787	55230
308.803	55256
308.857	45501
308.877	40003
308.912	36462
308.967	36767
308.967	36822
309.021	48864
309.058	59332
309.076	72498
309.130	120387
309.148	140322
309.185	211398
309.238	328202
309.239	329172
309.293	360573
309.328	350018
309.348	315755
309.402	185410
309.418	150736
309.457	110195
309.508	72564
309.511	71526
309.566	64314
309.598	63661
309.620	70984
309.674	96004
309.688	102888
309.729	101972
309.778	92312
309.783	90640
309.837	68681
309.868	56574
309.892	62916
309.946	84969
309.959	93066
310.001	116609
310.049	135261
310.055	131179
310.109	81277
310.139	52300
310.163	42087
310.218	26672
310.229	24291
310.272	20267
310.319	17263
310.326	16796
310.381	14657
310.409	13542
310.435	13268
310.489	13187
310.499	13193
310.543	13425
310.589	14013
310.598	14178
310.652	15345
310.679	15896
310.706	14712
310.760	11661
310.769	11222
310.814	10214
310.859	9563
310.868	9663
310.923	10279
310.948	10577
310.977	11723
311.031	14312
311.038	14630
311.085	13255
311.128	11886
311.139	11986
311.193	12490
311.218	12792
311.247	11993
311.301	10184
311.308	9999
311.356	11492
311.398	12862
311.410	12633
311.464	11562
311.488	10947
311.518	11273
311.572	12184
311.578	12299
311.626	15849
311.668	19076
311.680	19169
311.734	19099
311.758	19125
311.788	18914
311.842	18485
311.847	18437
311.896	25438
311.937	31658
311.950	30807
312.004	26805
312.027	24939
312.058	20910
312.112	13824
312.117	13126
312.165	12971
312.207	12868
312.297	23575
312.386	16631
312.476	15214
312.566	29364
312.656	14394
312.745	11377
312.835	13343
312.925	14434
313.015	12885
313.104	12137
313.194	11308
313.284	11557
313.374	17272
313.463	14333
313.553	11479
313.643	10909
313.732	10129
313.822	10565
313.912	12056
314.001	13567
314.091	17683
314.180	25561
314.270	17585
314.360	17942
314.449	15837
314.539	10849
314.628	11422
314.718	13369
314.808	16000
314.897	10012
314.987	11199
315.076	13450
315.166	17033
315.255	16294
315.345	15792
315.434	14565
315.524	15191
315.613	15807
315.703	18731
315.792	16988
315.881	13912
315.971	13922
316.060	27599
316.150	37455
316.239	37343
316.328	14763
316.418	10251
316.507	11258
316.597	14769
316.686	13018
316.775	19672
316.865	37380
316.954	10937
317.043	9236
317.133	10720
317.222	9879
317.311	10353
317.400	8914
317.490	15216
317.579	15865
317.668	10795
317.757	13855
317.847	17682
317.936	23403
318.025	35114
318.114	17723
318.203	17450
318.293	31062
318.382	61191
318.471	46237
318.560	67017
318.649	120053
318.738	25329
318.828	17883
318.917	19096
319.006	21984
319.095	56421
319.184	148418
319.273	81256
319.362	40932
319.451	15660
319.540	15454
319.629	36674
319.718	52433
319.807	24888
319.896	58536
319.985	175424
320.074	59511
320.163	21146
320.252	28050
320.341	32961
320.430	32283
320.519	33168
320.608	19030
320.697	17911
320.786	16822
320.875	18148
320.964	24219
321.053	37287
321.142	51898
321.230	51291
321.319	45807
321.408	105207
321.497	39506
321.586	38671
321.675	43089
321.764	44007
321.852	32110
321.941	60202
322.030	36229
322.119	48067
322.207	96998
322.296	61953
322.385	34645
322.474	39667
322.562	117301
322.651	59921
322.740	39598
322.829	50347
322.917	53100
323.006	33652
323.095	29172
323.183	20755
323.272	30958
323.361	52756
323.449	122737
323.538	43181
323.626	97066
323.715	50734
323.804	27967
323.892	92794
323.981	50790
324.069	17754
324.158	51068
324.246	43161
324.335	24030
324.424	35434
324.512	15278
324.601	19537
324.689	17941
324.778	23951
324.866	34845
324.954	13637
325.043	14359
325.131	26802
325.220	42120
325.308	46057
325.397	36586
325.485	21702
325.574	9476
325.662	10746
325.750	13774
325.839	10651
325.927	10000
326.015	13864
326.104	18338
326.192	24538
326.280	10878
326.369	11639
326.457	18737
326.545	32936
326.634	14261
326.722	9296
326.810	9892
326.898	9205
326.987	11378
327.075	29562
327.163	25105
327.251	11829
327.340	9162
327.428	10843
327.516	8141
327.604	9953
327.692	9854
327.781	12278
327.869	20176
327.957	13909
328.045	14535
328.133	8603
328.221	12136
328.309	12046
328.397	11061
328.485	13897
328.574	19172
328.662	62096
328.750	29758
328.838	13007
328.926	9038
329.014	10043
329.102	17662
329.190	51964
329.278	28382
329.366	8815
329.454	8960
329.542	10424
329.630	8639
329.718	10396
329.806	13237
329.893	14870
329.981	12833
330.069	11082
330.157	33629
330.245	87322
330.333	40066
330.421	13040
330.509	20120
330.597	78260
330.684	49325
330.772	22154
330.860	33554
330.948	50174
331.036	18221
331.123	8041
331.211	10037
331.299	15470
331.387	41790
331.475	68325
331.562	17970
331.650	10137
331.738	11405
331.825	16508
331.913	8929
332.001	8792
332.089	13761
332.176	28230
332.264	52074
332.352	40960
332.439	17296
332.527	13981
332.614	10737
332.702	14243
332.790	9756
332.877	27126
332.965	48939
333.052	16898
333.140	18965
333.228	43276
333.315	13933
333.403	13211
333.490	31704
333.578	30998
333.665	54132
333.753	26751
333.840	9630
333.928	12702
334.015	31673
334.103	53978
334.190	164144
334.278	39308
334.365	15340
334.452	10778
334.540	7705
334.627	12280
334.715	14787
334.802	27794
334.889	142484
334.977	117687
335.064	15801
335.151	10808
335.239	14235
335.326	22605
335.413	90066
335.501	110654
335.588	17055
335.675	13064
335.762	20870
335.850	37199
335.937	13916
336.024	39381
336.111	170432
336.199	63456
336.286	13446
336.373	8873
336.460	7537
336.547	9521
336.635	13403
336.722	12752
336.809	11854
336.896	18955
336.983	64919
337.070	145645
337.157	168758
337.245	103077
337.332	63036
337.419	13298
337.506	10358
337.593	13949
337.680	55188
337.767	155267
337.854	44716
337.941	54520
338.028	47811
338.115	17857
338.202	26163
338.289	36668
338.376	101525
338.463	36592
338.550	96456
338.637	88710
338.724	25863
338.811	36613
338.898	10621
338.984	11096
339.071	16951
339.158	15735
339.245	43461
339.332	25241
339.419	29565
339.506	26582
339.593	7326
339.679	10134
339.766	8581
339.853	16521
339.940	28766
340.027	11128
340.113	12089
340.200	15708
340.287	11242
340.374	16568
340.460	26878
340.547	13690
340.634	19615
340.720	70828
340.807	36407
340.894	9588
340.980	9634
341.067	9431
341.154	11529
341.240	19719
341.327	37936
341.414	16608
341.500	21293
341.587	12662
341.674	9939
341.760	26776
341.847	30590
341.933	11100
342.020	5920
342.106	7663
342.193	12254
342.279	20680
342.366	17394
342.452	26685
342.539	14075
342.625	35253
342.712	74397
342.798	30694
342.885	14510
342.971	6319
343.058	5757
343.144	8212
343.230	8209
343.317	11260
343.403	9546
343.490	7093
343.576	6999
343.662	9224
343.749	10622
343.835	11056
343.921	22386
344.008	125626
344.094	252580
344.180	55873
344.267	24881
344.353	77974
344.439	79321
344.525	41888
344.612	33792
344.698	34546
344.784	19613
344.870	11007
344.957	10685
345.043	16001
345.129	13372
345.215	27414
345.301	16890
345.387	13061
345.474	7273
345.560	8445
345.646	10819
345.732	10674
345.818	15066
345.904	12319
345.990	10954
346.076	12056
346.162	24861
346.249	11051
346.335	6948
346.421	9032
346.507	33748
346.593	102192
346.679	26287
346.765	12912
346.851	9393
346.937	9743
347.023	8629
347.108	11920
347.194	9971
347.280	10804
347.366	11225
347.452	32118
347.538	121584
347.624	94646
347.710	75867
347.796	14523
347.882	10142
347.967	10103
348.053	18738
348.139	11656
348.225	8076
348.311	9614
348.397	8125
348.482	12499
348.568	14347
348.654	7445
348.740	5423
348.825	6749
348.911	14737
348.997	60420
349.083	108744
349.168	20024
349.254	13221
349.340	14814
349.425	8174
349.511	13536
349.597	15161
349.682	27198
349.768	82348
349.854	37035
349.939	12289
350.025	16163
350.110	36913
350.196	16285
350.282	6805
350.367	7208
350.453	14037
350.538	15071
350.624	15178
350.709	15629
350.795	8804
350.880	8414
350.966	10185
351.051	16290
351.137	10609
351.222	9913
351.308	30456
351.393	75684
351.479	23827
351.564	11133
351.649	8632
351.735	7687
351.820	6773
351.906	8706
351.991	11744
352.076	50343
352.162	69134
352.247	15788
352.332	12880
352.418	29853
352.503	35252
352.588	115065
352.673	89269
352.759	20989
352.844	11132
352.929	15001
353.014	17607
353.100	11051
353.185	12232
353.270	27302
353.355	27146
353.441	10204
353.526	11660
353.611	27603
353.696	29446
353.781	18379
353.866	9781
353.952	11953
354.037	26898
354.122	58053
354.207	51777
354.292	19830
354.377	10192
354.462	10366
354.547	15224
354.632	13978
354.717	17689
354.802	13767
354.887	8314
354.972	8618
355.057	7673
355.142	7690
355.227	11431
355.312	18585
355.397	40566
355.482	89410
355.567	42348
355.652	32344
355.737	32790
355.822	91442
355.907	69905
355.991	14265
356.076	9848
356.161	9401
356.246	8387
356.331	10568
356.416	23330
356.501	132177
356.585	129277
356.670	25192
356.755	17156
356.840	24272
356.924	94664
357.009	301543
357.094	117651
357.179	34177
357.263	21668
357.348	24386
357.433	26101
357.517	22699
357.602	16898
357.687	15157
357.771	30709
357.856	115282
357.941	64358
358.025	86989
358.110	303938
358.195	150555
358.279	29057
358.364	23345
358.448	70971
358.533	180383
358.617	127511
358.702	121702
358.787	47020
358.871	31214
358.956	26449
359.040	9998
359.125	8833
359.209	13880
359.294	59174
359.378	99006
359.462	29270
359.547	14831
359.631	10148
359.716	9321
359.800	11725
359.885	21809
359.969	11950
360.053	8480
360.138	8604
360.222	16024
360.306	27998
360.391	26343
360.475	64010
360.559	124528
360.644	73575
360.728	47102
360.812	72439
360.896	188047
360.981	98203
361.065	58476
361.149	16300
361.233	16984
361.318	12320
361.402	12390
361.486	12380
361.570	10290
361.654	13260
361.739	34080
361.823	131815
361.907	186622
361.991	38757
362.075	23447
362.159	52082
362.243	34402
362.327	22930
362.411	19245
362.495	16276
362.580	12931
362.664	8989
362.748	7979
362.832	8707
362.916	11006
363.000	28421
363.084	116376
363.168	205944
363.252	55573
363.336	22200
363.420	31643
363.503	123294
363.587	139527
363.671	27463
363.755	20997
363.839	29077
363.923	13877
364.007	30018
364.091	30224
364.175	43959
364.258	175618
364.342	88178
364.426	33970
364.510	23012
364.594	31976
364.677	44798
364.761	166276
364.845	117902
364.929	50104
365.013	39946
365.096	33045
365.180	37802
365.264	53676
365.347	185135
365.431	91042
365.515	30658
365.598	13384
365.682	12754
365.766	33283
365.849	41097
365.933	17212
366.017	23988
366.100	24195
366.184	7000
366.267	9884
366.351	8774
366.435	8541
366.518	6508
366.602	7611
366.685	8824
366.769	12007
366.852	27224
366.936	45370
367.019	20990
367.103	22787
367.186	46184
367.270	12897
367.353	7016
367.436	9030
367.520	7766
367.603	12744
367.687	18227
367.770	32719
367.853	18711
367.937	57107
368.020	90476
368.104	23903
368.187	25361
368.270	39250
368.353	33282
368.437	37748
368.520	73603
368.603	52358
368.687	69975
368.770	121629
368.853	32365
368.936	39900
369.020	44044
369.103	15524
369.186	9881
369.269	12579
369.352	22771
369.436	34921
369.519	22167
369.602	12338
369.685	12633
369.768	13797
369.851	12521
369.934	8615
370.018	13912
370.101	29023
370.184	24113
370.267	20054
370.350	31821
370.433	48669
370.516	95433
370.599	98193
370.682	34697
370.765	80878
370.848	89913
370.931	144342
371.014	63787
371.097	16198
371.180	11761
371.263	9119
371.346	7368
371.429	10644
371.511	11204
371.594	21953
371.677	38279
371.760	49989
371.843	36995
371.926	135063
372.009	275206
372.091	101517
372.174	66090
372.257	135147
372.340	58389
372.423	62983
372.505	76576
372.588	31582
372.671	50914
372.754	142544
372.836	72073
372.919	68236
373.002	128641
373.085	41729
373.167	31984
373.250	71526
373.332	138349
373.415	183606
373.498	333827
373.580	138908
373.663	161348
373.746	213455
373.828	58959
373.911	29109
373.993	33123
374.076	118396
374.159	108614
374.241	46800
374.324	127945
374.406	86372
374.489	109019
374.571	280543
374.654	120437
374.736	63017
374.819	177143
374.901	247117
374.983	237994
375.066	49986
375.148	23568
375.231	93063
375.313	179397
375.395	76592
375.478	17656
375.560	11653
375.643	16555
375.725	57970
375.807	204590
375.890	161790
375.972	71271
376.054	43018
376.136	59213
376.219	29655
376.301	65051
376.383	172685
376.465	70151
376.548	48325
376.630	59466
376.712	151957
376.794	71341
376.877	11838
376.959	8209
377.041	13546
377.123	36267
377.205	44613
377.287	9019
377.369	6967
377.452	8175
377.534	9727
377.616	8725
377.698	9080
377.780	6967
377.862	10257
377.944	10049
378.026	6309
378.108	7377
378.190	8069
378.272	7980
378.354	7343
378.436	7011
378.518	20507
378.600	70648
378.682	55363
378.764	89974
378.846	71926
378.928	27365
379.010	36239
379.091	18037
379.173	10007
379.255	8002
379.337	14779
379.419	46520
379.501	122538
379.583	52780
379.664	17607
379.746	35779
379.828	96301
379.910	124410
379.991	102635
380.073	20169
380.155	15047
380.237	11002
380.318	8886
380.400	11499
380.482	23569
380.564	34345
380.645	28891
380.727	29238
380.809	20184
380.890	14909
380.972	10649
381.053	10601
381.135	14935
381.217	36339
381.298	98247
381.380	49749
381.461	42368
381.543	153345
381.624	183304
381.706	40119
381.787	26583
381.869	29966
381.951	80808
382.032	250223
382.113	171376
382.195	47080
382.276	32232
382.358	58241
382.439	149853
382.521	163203
382.602	235270
382.684	126908
382.765	221478
382.846	279471
382.928	385009
383.009	229256
383.090	190189
383.172	526664
383.253	687062
383.334	281554
383.416	238754
383.497	134757
383.578	91145
383.659	176022
383.741	486460
383.822	908434
383.903	512573
383.984	211616
384.066	284376
384.147	180221
384.228	47436
384.309	36139
384.390	28932
384.471	21211
384.553	26330
384.634	32853
384.715	32802
384.796	19180
384.877	26115
384.958	86263
385.039	105431
385.120	42965
385.201	22343
385.282	30171
385.363	33620
385.444	28462
385.525	44908
385.606	117847
385.687	100214
385.768	34254
385.849	45985
385.930	143608
386.011	223597
386.092	69575
386.173	21142
386.254	17771
386.335	18688
386.416	19369
386.496	61442
386.577	96554
386.658	42895
386.739	27577
386.820	28202
386.901	24084
386.981	19695
387.062	12316
387.143	24112
387.224	86921
387.304	85182
387.385	32947
387.466	25205
387.547	30430
387.627	18999
387.708	37278
387.789	147982
387.869	174734
387.950	48121
388.031	11556
388.111	17174
388.192	47915
388.273	68062
388.353	37702
388.434	18065
388.514	35247
388.595	133899
388.676	179101
388.756	94587
388.837	88278
388.917	58029
388.998	13990
389.078	12619
389.159	13707
389.239	14375
389.320	19596
389.400	19109
389.480	40777
389.561	97121
389.641	46677
389.722	19152
389.802	33442
389.883	44945
389.963	104218
390.043	71029
390.124	28722
390.204	38031
390.284	104041
390.365	68968
390.445	82546
390.525	132053
390.605	98971
390.686	51625
390.766	16633
390.846	11428
390.927	10758
391.007	16738
391.087	14851
391.167	11921
391.247	8434
391.328	19046
391.408	36916
391.488	28616
391.568	8267
391.648	13779
391.728	20780
391.808	19098
391.888	23901
391.969	54520
392.049	86080
392.129	44353
392.209	45619
392.289	99815
392.369	61003
392.449	66860
392.529	38304
392.609	22286
392.689	29023
392.769	91130
392.849	76621
392.929	59530
393.009	143046
393.089	82794
393.169	24089
393.248	62485
393.328	267303
393.408	284662
393.488	58426
393.568	26514
393.648	17054
393.728	12409
393.807	9578
393.887	11593
393.967	9757
394.047	16704
394.127	22482
394.206	37714
394.286	123915
394.366	451954
394.446	495047
394.525	139837
394.605	38551
394.685	36584
394.764	89776
394.844	140808
394.924	91105
395.003	24810
395.083	16177
395.163	15224
395.242	14167
395.322	14774
395.402	9454
395.481	16474
395.561	54634
395.640	143226
395.720	95880
395.799	143233
395.879	118231
395.958	61160
396.038	187459
396.117	580575
396.197	650517
396.276	258423
396.356	99813
396.435	75384
396.515	37175
396.594	29938
396.673	36255
396.753	84547
396.832	263681
396.912	246928
396.991	84399
397.070	21708
397.150	12972
397.229	10210
397.308	8698
397.388	10909
397.467	9284
397.546	6646
397.625	7497
397.705	15101
397.784	15686
397.863	8147
397.942	5293
398.022	9449
398.101	46568
398.180	137898
398.259	80262
398.338	22188
398.417	13541
398.497	10247
398.576	10673
398.655	7254
398.734	5352
398.813	9068
398.892	42602
398.971	138804
399.050	70364
399.129	10362
399.208	6828
399.287	13243
399.366	15638
399.445	10556
399.524	8432
399.603	8217
399.682	16132
399.761	47298
399.840	142151
399.919	111498
399.998	17241
400.077	6249
400.156	5061
400.235	10492
400.313	8445
400.392	13650
400.471	50979
400.550	81232
400.629	22866
400.708	11595
400.786	14576
400.865	47583
400.944	50654
401.023	21018
401.102	4366
401.180	5155
401.259	6735
401.338	10354
401.416	12662
401.495	12179
401.574	11304
401.652	9239
401.731	12717
401.810	10233
401.888	5649
401.967	3856
402.046	4878
402.124	11822
402.203	17455
402.281	10166
402.360	13976
402.438	54199
402.517	40734
402.596	14208
402.674	12601
402.753	8541
402.831	5313
402.910	8268
402.988	25045
403.066	66627
403.145	38407
403.223	23587
403.302	49540
403.380	37102
403.459	33858
403.537	16810
403.615	9266
403.694	4400
403.772	4849
403.850	5626
403.929	4325
404.007	6859
404.085	10998
404.164	10877
404.242	13646
404.320	52901
404.398	148804
404.477	157810
404.555	213037
404.633	193048
404.711	115450
404.789	72741
404.868	17969
404.946	9073
405.024	5677
405.102	5830
405.180	5071
405.258	4967
405.336	6816
405.415	7387
405.493	17335
405.571	13155
405.649	3259
405.727	5827
405.805	10526
405.883	8639
405.961	11871
406.039	18308
406.117	8175
406.195	12279
406.273	51490
406.351	168217
406.429	104948
406.507	25897
406.585	11139
406.663	8998
406.740	11746
406.818	10802
406.896	6254
406.974	8471
407.052	17962
407.130	101503
407.208	138482
407.285	28886
407.363	5654
407.441	7461
407.519	5271
407.596	7641
407.674	12378
407.752	18211
407.830	40512
407.907	28645
407.985	7986
408.063	5463
408.141	4657
408.218	15444
408.296	12114
408.373	6639
408.451	8327
408.529	9116
408.606	3608
408.684	3166
408.762	2180
408.839	2564
408.917	2263
408.994	3901
409.072	3741
409.149	3302
409.227	6203
409.304	6608
409.382	2913
409.459	3467
409.537	5041
409.614	5760
409.692	3421
409.769	4428
409.846	5424
409.924	10565
410.001	8771
410.079	5893
410.156	4763
410.233	4167
410.311	2589
410.388	4396
410.465	6832
410.543	7687
410.620	4305
410.697	6246
410.775	7647
410.852	3468
410.929	7914
411.006	11394
411.083	6637
411.161	18827
411.238	23747
411.315	14052
411.392	5206
411.469	9990
411.547	10950
411.624	5845
411.701	5447
411.778	7102
411.855	15200
411.932	9929
412.009	4610
412.086	5496
412.163	7389
412.240	10729
412.317	12945
412.394	11499
412.471	4272
412.548	4100
412.625	4686
412.702	8970
412.779	16821
412.856	11424
412.933	3587
413.010	7234
413.087	16379
413.164	53852
413.241	72088
413.318	18368
413.395	11173
413.471	17215
413.548	7185
413.625	6059
413.702	8732
413.779	7861
413.855	3348
413.932	3074
414.009	2673
414.086	3893
414.162	4309
414.239	10984
414.316	47113
414.393	101113
414.469	35427
414.546	5797
414.623	3113
414.699	5452
414.776	6507
414.853	5200
414.929	5542
415.006	6618
415.082	9609
415.159	7898
415.236	4975
415.312	5677
415.389	11251
415.465	16603
415.542	8291
415.618	6073
415.695	10054
415.771	7682
415.848	7329
415.924	7504
416.000	6924
416.077	4893
416.153	2289
416.230	1727
416.306	2230
416.383	3120
416.459	3698
416.535	2818
416.612	4496
416.688	4588
416.764	2455
416.841	3573
416.917	4805
416.993	5489
417.069	7373
417.146	10395
417.222	11684
417.298	8279
417.374	4591
417.451	6972
417.527	7972
417.603	8953
417.679	5976
417.755	5335
417.831	2371
417.908	3662
417.984	2779
418.060	3386
418.136	13713
418.212	18611
418.288	7360
418.364	4625
418.440	4735
418.516	9958
418.592	18113
418.668	27927
418.744	35032
418.820	26509
418.896	6439
418.972	2769
419.048	4296
419.124	16603
419.200	11977
419.276	3781
419.352	860
419.428	3516
419.504	4588
419.579	6937
419.655	4766
419.731	6148
419.807	20909
419.883	39829
419.959	25320
420.034	9107
420.110	18254
420.186	65661
420.262	49456
420.337	11015
420.413	7282
420.489	4555
420.565	3870
420.640	3328
420.716	5197
420.792	2339
420.867	3566
420.943	3896
421.019	9853
421.094	8216
421.170	3293
421.245	2596
421.321	3548
421.397	4111
421.472	4246
421.548	9174
421.623	11134
421.699	6849
421.774	5989
421.850	5502
421.925	10305
422.001	8644
422.076	4835
422.152	6774
422.227	11785
422.302	10741
422.378	11808
422.453	21834
422.529	49168
422.604	182694
422.679	367478
422.755	201381
422.830	46887
422.905	15454
422.981	8248
423.056	6747
423.131	5456
423.207	4981
423.282	7725
423.357	20446
423.432	12853
423.508	11083
423.583	31478
423.658	25296
423.733	8237
423.808	10540
423.883	9869
423.959	8253
424.034	4140
424.109	3556
424.184	1599
424.259	2863
424.334	2672
424.409	2094
424.484	3699
424.559	5805
424.634	3945
424.709	5931
424.784	9434
424.859	6480
424.934	12784
425.009	48561
425.084	78706
425.159	28999
425.234	5798
425.309	7206
425.384	40968
425.459	72245
425.534	20225
425.609	7403
425.683	4514
425.758	4010
425.833	5458
425.908	8518
425.983	29378
426.058	79184
426.132	36894
426.207	10744
426.282	16715
426.357	17027
426.431	4797
426.506	4688
426.581	5643
426.655	6294
426.730	3672
426.805	4670
426.879	4779
426.954	5961
427.029	15609
427.103	70892
427.178	154565
427.253	69786
427.327	12871
427.402	30380
427.476	81111
427.551	40611
427.625	9800
427.700	9319
427.774	6058
427.849	8273
427.923	4781
427.998	4478
428.072	5559
428.147	14882
428.221	35352
428.296	58016
428.370	24198
428.444	11330
428.519	21611
428.593	44878
428.667	37849
428.742	45456
428.816	35300
428.890	72308
428.965	108365
429.039	60414
429.113	51399
429.188	18291
429.262	5546
429.336	13219
429.410	40005
429.485	29132
429.559	37078
429.633	29779
429.707	7608
429.781	21556
429.855	88384
429.930	114466
430.004	98594
430.078	174219
430.152	122335
430.226	69993
430.300	56129
430.374	10742
430.448	10194
430.522	54104
430.596	148519
430.670	80989
430.744	97879
430.818	151983
430.892	37074
430.966	8319
431.040	4806
431.114	3987
431.188	3399
431.262	3625
431.336	4144
431.410	20187
431.484	54967
431.557	32169
431.631	3800
431.705	3510
431.779	9783
431.853	36086
431.927	24140
432.000	5378
432.074	3749
432.148	8398
432.222	8655
432.295	4884
432.369	3857
432.443	12249
432.516	67033
432.590	152565
432.664	60111
432.737	9156
432.811	3024
432.885	1938
432.958	2273
433.032	2265
433.106	1626
433.179	1906
433.253	2873
433.326	2686
433.400	1384
433.473	2389
433.547	1830
433.620	3768
433.694	10399
433.767	11651
433.841	4247
433.914	4442
433.988	5227
434.061	3999
434.134	2615
434.208	1705
434.281	1538
434.355	3374
434.428	5431
434.501	4904
434.575	2603
434.648	4570
434.721	2170
434.795	2228
434.868	1902
434.941	2507
435.014	3006
435.088	6029
435.161	9326
435.234	13117
435.307	11298
435.381	6424
435.454	3201
435.527	3694
435.600	2584
435.673	3175
435.746	1607
435.819	1775
435.892	3385
435.966	3708
436.039	3704
436.112	3813
436.185	1807
436.258	1404
436.331	828
436.404	2278
436.477	700
436.550	1932
436.623	1496
436.696	1830
436.769	3069
436.842	4158
436.915	4637
436.987	7529
437.060	3522
437.133	3433
437.206	2808
437.279	3873
437.352	2205
437.425	2122
437.498	4006
437.570	13146
437.643	12839
437.716	3311
437.789	2007
437.861	10557
437.934	27201
438.007	13266
438.080	2732
438.152	4465
438.225	11666
438.298	79771
438.370	198427
438.443	88349
438.516	24903
438.588	6321
438.661	1508
438.734	3773
438.806	5475
438.879	5822
438.951	6808
439.024	14221
439.096	5605
439.169	2902
439.241	1083
439.314	2908
439.386	8455
439.459	11561
439.531	15774
439.604	7050
439.676	2487
439.749	2273
439.821	1662
439.893	2214
439.966	1940
440.038	6092
440.110	6112
440.183	4745
440.255	5793
440.327	9217
440.400	39680
440.472	142601
440.544	89309
440.617	13109
440.689	11109
440.761	15705
440.833	22972
440.905	15126
440.978	2257
441.050	2553
441.122	2260
441.194	1738
441.266	2294
441.338	2496
441.411	8484
441.483	50758
441.555	71777
441.627	17429
441.699	12236
441.771	12840
441.843	3735
441.915	2322
441.987	1999
442.059	2539
442.131	5086
442.203	10186
442.275	11452
442.347	8615
442.419	4705
442.491	13324
442.563	26884
442.635	26762
442.706	48646
442.778	38338
442.850	5307
442.922	3715
442.994	6604
443.066	10625
443.137	8409
443.209	8152
443.281	6738
443.353	11436
443.425	28250
443.496	52431
443.568	43659
443.640	18697
443.711	6712
443.783	5406
443.855	4209
443.926	3172
443.998	4913
444.070	9167
444.141	6661
444.213	10710
444.285	12526
444.356	10481
444.428	8355
444.499	4140
444.571	2288
444.642	2723
444.714	4304
444.785	9865
444.857	14649
444.928	37466
445.000	21064
445.071	25370
445.143	26727
445.214	9548
445.285	19419
445.357	57390
445.428	66132
445.500	107697
445.571	83271
445.642	33111
445.714	38037
445.785	57024
445.856	15721
445.928	12997
445.999	11289
446.070	8751
446.141	9297
446.213	12269
446.284	6808
446.355	9506
446.426	5696
446.497	4599
446.569	12751
446.640	19434
446.711	11597
446.782	4833
446.853	6121
446.924	8484
446.995	5446
447.066	6787
447.138	14979
447.209	8882
447.280	1344
447.351	1732
447.422	1988
447.493	6893
447.564	7609
447.635	10797
447.706	5104
447.777	3239
447.847	1971
447.918	3464
447.989	7973
448.060	11922
448.131	27453
448.202	24163
448.273	15082
448.344	7357
448.414	2929
448.485	3252
448.556	3031
448.627	2279
448.698	2477
448.768	2349
448.839	5159
448.910	15556
448.981	12938
449.051	4582
449.122	2837
449.193	2990
449.263	2711
449.334	4471
449.405	6970
449.475	15837
449.546	12120
449.616	16062
449.687	13737
449.758	5673
449.828	2494
449.899	2641
449.969	1242
450.040	2967
450.110	4458
450.181	5425
450.251	2463
450.322	2895
450.392	3032
450.463	3416
450.533	2275
450.604	7284
450.674	5627
450.744	3931
450.815	2541
450.885	3507
450.955	2604
451.026	3227
451.096	3489
451.166	6313
451.237	19406
451.307	44120
451.377	15378
451.447	4131
451.518	2867
451.588	3518
451.658	4889
451.728	10486
451.799	45902
451.869	48706
451.939	11075
452.009	4242
452.079	3612
452.149	5449
452.219	13443
452.289	55547
452.360	37473
452.430	8719
452.500	6717
452.570	8451
452.640	8900
452.710	28088
452.780	44621
452.850	29040
452.920	26767
452.990	10004
453.060	6711
453.129	10949
453.199	13638
453.269	50904
453.339	100720
453.409	150578
453.479	160343
453.549	234747
453.619	252868
453.688	94141
453.758	15343
453.828	7214
453.898	5508
453.968	5467
454.037	4656
454.087	5102
454.107	5251
454.168	3892
454.177	3657
454.247	3800
454.249	3827
454.316	3339
454.330	4334
454.386	7567
454.411	15283
454.456	27361
454.492	33579
454.525	39181
454.574	19737
454.595	11370
454.655	7380
454.665	6805
454.734	8684
454.736	9094
454.804	18202
454.817	24435
454.873	47230
454.898	48967
454.943	51832
454.979	34088
455.013	18879
455.060	13805
455.082	12376
455.141	16831
455.152	17980
455.221	52847
455.222	53972
455.291	102528
455.303	113902
455.360	154335
455.384	215513
455.430	309012
455.465	231800
455.499	164935
455.546	96720
455.569	64724
455.627	36921
455.638	32245
455.707	10281
455.708	10314
455.777	7859
455.789	7690
455.846	6843
455.869	6770
455.916	6687
455.950	6814
455.985	6591
456.031	6847
456.054	6881
456.112	5481
456.124	5310
456.193	5858
456.193	5811
456.262	7077
456.274	7561
456.332	9169
456.355	9473
456.401	9595
456.436	8361
456.470	7324
456.516	5203
456.540	4101
456.597	4559
456.609	4652
456.678	5002
456.678	4973
456.747	4596
456.759	4439
456.817	4010
456.840	4302
456.886	4666
456.920	4878
456.955	5312
457.001	6231
457.024	6760
457.082	8041
457.093	8128
457.162	10179
457.163	10230
457.232	11652
457.243	11200
457.301	9193
457.324	8495
457.370	7580
457.405	8797
457.439	9288
457.485	7054
457.508	6269
457.566	6497
457.577	6635
457.646	7814
457.647	7869
457.715	9794
457.727	10023
457.784	11702
457.808	12676
457.853	14797
457.889	17778
457.922	18906
457.969	21264
457.991	22084
458.050	20166
458.060	19938
458.129	19150
458.130	19241
458.198	15208
458.211	14303
458.267	10935
458.292	9151
458.336	8383
458.372	8949
458.405	10873
458.453	13557
458.474	15417
458.533	22146
458.543	22650
458.611	28399
458.614	28648
458.680	19493
458.694	16467
458.749	10967
458.775	9609
458.818	8791
458.855	8315
458.887	7969
458.936	7908
458.955	8025
459.016	8369
459.024	8494
459.093	10474
459.097	10542
459.162	10816
459.177	11236
459.230	13372
459.257	14293
459.299	14039
459.338	13646
459.368	14006
459.418	15138
459.437	14384
459.499	10762
459.505	10669
459.574	9628
459.579	9643
459.643	9396
459.659	9136
459.711	9242
459.740	9920
459.780	10739
459.820	11477
459.849	11976
459.900	13150
459.917	13358
459.981	14109
459.986	14091
460.054	13788
460.061	13675
460.123	13237
460.141	13462
460.191	15996
460.222	17312
460.260	17633
460.302	19512
460.328	18087
460.382	12439
460.397	12100
460.462	10870
460.465	10947
460.534	14532
460.543	14955
460.602	23012
460.623	26146
460.671	35303
460.703	43535
460.739	38200
460.783	28051
460.808	24342
460.864	12513
460.876	11762
460.944	11364
460.945	11347
461.013	12123
461.024	12051
461.081	12362
461.104	13060
461.150	12769
461.184	11978
461.218	12040
461.264	11757
461.286	11880
461.345	13236
461.355	13187
461.423	13008
461.425	12964
461.491	15083
461.505	16016
461.559	31365
461.585	38168
461.628	53496
461.665	69839
461.696	73052
461.745	84166
461.764	75442
461.825	26004
461.832	24874
461.901	16610
461.905	16620
461.969	15341
461.985	14817
462.037	14750
462.065	14846
462.105	17626
462.145	20752
462.173	27412
462.225	40141
462.241	43775
462.305	62394
462.310	60655
462.378	31678
462.385	27235
462.446	17638
462.465	16324
462.514	15586
462.545	15804
462.582	15784
462.625	16043
462.650	15610
462.705	13985
462.718	14719
462.785	18682
462.786	18808
462.854	25934
462.865	27348
462.922	31916
462.945	33821
462.990	26016
463.025	17787
463.058	15928
463.104	13989
463.126	13766
463.184	14665
463.194	14975
463.262	15990
463.264	16056
463.330	15519
463.344	15227
463.398	17123
463.424	18058
463.466	18121
463.504	18365
463.533	18450
463.583	18567
463.601	19506
463.663	22237
463.669	22921
463.737	31284
463.743	32060
463.805	48710
463.823	53464
463.873	75194
463.903	89263
463.940	90270
463.982	93460
464.008	76055
464.062	30454
464.076	28216
464.142	17488
464.144	17373
464.211	16497
464.221	16511
464.279	17989
464.301	18391
464.347	20031
464.381	21524
464.414	24616
464.461	28582
464.482	30495
464.540	36596
464.550	36345
464.617	32988
464.620	32830
464.685	27430
464.699	26153
464.753	26556
464.779	26926
464.820	27996
464.859	28764
464.888	29033
464.938	29564
464.956	30079
465.018	32153
465.023	31915
465.091	27888
465.098	27370
465.158	27744
465.177	28087
465.226	27229
465.257	26441
465.293	26352
465.336	26062
465.361	28845
465.416	35104
465.428	38100
465.495	54513
465.496	54785
465.563	83808
465.575	88955
465.631	102618
465.654	108759
465.698	66681
465.734	28823
465.765	25447
465.813	21205
465.833	20765
465.893	20735
465.900	20701
465.968	20162
465.972	20099
466.035	20324
466.052	20314
466.102	21621
466.131	22378
466.170	22076
466.210	21560
466.237	22124
466.290	23256
466.304	23263
466.369	22976
466.372	23073
466.439	24803
466.449	24995
466.506	28587
466.528	29939
466.573	48860
466.607	62901
466.641	87989
466.687	122826
466.708	132057
466.766	157687
466.775	145011
466.842	46827
466.845	42076
466.909	31324
466.925	28990
466.977	27200
467.004	26292
467.044	27584
467.083	28835
467.111	30675
467.163	33933
467.178	35075
467.242	39553
467.245	39537
467.312	37615
467.321	37289
467.379	37210
467.400	37069
467.446	40305
467.480	42511
467.559	36843
467.638	31909
467.717	33006
467.796	37321
467.875	41783
467.955	40263
468.034	70320
468.113	142782
468.192	195186
468.271	43898
468.350	29618
468.429	31017
468.508	30438
468.588	29367
468.667	30951
468.746	29894
468.825	29505
468.904	29522
468.983	42630
469.062	68670
469.141	83905
469.220	34089
469.299	29740
469.378	32685
469.456	33785
469.535	31972
469.614	32958
469.693	36369
469.772	49603
469.851	68805
469.930	41805
470.009	33404
470.088	33544
470.166	34877
470.245	44670
470.324	51491
470.403	42932
470.482	37646
470.560	34086
470.639	36669
470.718	41196
470.797	34009
470.875	40263
470.954	51765
471.033	54082
471.111	25936
471.190	24996
471.269	25154
471.347	26377
471.426	28714
471.505	33615
471.583	33345
471.662	29750
471.740	28331
471.819	29547
471.898	26902
471.976	27210
472.055	28523
472.133	32745
472.212	44804
472.290	46401
472.369	30963
472.447	28854
472.526	29179
472.604	36582
472.683	36125
472.761	32427
472.839	29857
472.918	27595
472.996	30328
473.075	35215
473.153	31306
473.231	29791
473.310	35102
473.388	33166
473.466	30814
473.545	36558
473.623	46656
473.701	44207
473.780	28568
473.858	25295
473.936	27922
474.014	28174
474.093	35068
474.171	52132
474.249	68814
474.327	41721
474.405	25697
474.484	26616
474.562	27919
474.640	27696
474.718	27831
474.796	27330
474.874	24587
474.952	23669
475.030	24599
475.108	25206
475.187	25577
475.265	26554
475.343	31618
475.421	32985
475.499	28386
475.577	31329
475.655	44711
475.733	87632
475.811	147397
475.889	126124
475.966	74776
476.044	28713
476.122	32071
476.200	35148
476.278	31212
476.356	29137
476.434	31781
476.512	34165
476.590	38367
476.667	35866
476.745	29237
476.823	32197
476.901	31964
476.979	33199
477.056	30588
477.134	32552
477.212	31418
477.290	31317
477.367	28048
477.445	28144
477.523	28620
477.601	29151
477.678	31082
477.756	37458
477.834	39339
477.911	28486
477.989	27307
478.066	29252
478.144	33575
478.222	31771
478.299	36898
478.377	33537
478.454	26842
478.532	27924
478.609	30682
478.687	31412
478.764	27729
478.842	30998
478.919	34889
478.997	30713
479.074	29080
479.152	35176
479.229	43093
479.307	29199
479.384	24602
479.461	25852
479.539	29518
479.616	33756
479.694	30255
479.771	32819
479.848	36719
479.926	48408
480.003	47330
480.080	28744
480.157	26913
480.235	27574
480.312	27249
480.389	34934
480.467	53617
480.544	63364
480.621	35275
480.698	34348
480.775	39730
480.853	37629
480.930	31156
481.007	33347
481.084	36512
481.161	38143
481.238	36927
481.315	30054
481.392	28211
481.470	29817
481.547	29133
481.624	29241
481.701	29783
481.778	32245
481.855	34715
481.932	54074
482.009	87631
482.086	54807
482.163	29417
482.240	32419
482.317	40333
482.393	35521
482.470	30946
482.547	32060
482.624	30762
482.701	32699
482.778	30821
482.855	27467
482.932	27760
483.009	28126
483.085	31226
483.162	36512
483.239	33271
483.316	27336
483.393	27784
483.469	28974
483.546	34618
483.623	35765
483.699	28258
483.776	30102
483.853	35405
483.930	57246
484.006	131666
484.083	203424
484.160	79291
484.236	89919
484.313	71583
484.389	59933
484.466	53277
484.543	51899
484.619	52417
484.696	55943
484.772	62999
484.849	68602
484.925	52973
485.002	53178
485.078	57164
485.155	59285
485.231	50880
485.308	50125
485.384	54310
485.461	73544
485.537	123642
485.614	138250
485.690	54686
485.766	50509
485.843	58793
485.919	83691
485.995	83469
486.072	48042
486.148	47804
486.224	48610
486.301	52674
486.377	63906
486.453	64430
486.530	54177
486.606	63326
486.682	75351
486.758	100576
486.835	118100
486.911	96878
486.987	163615
487.063	177221
487.139	209436
487.215	134169
487.292	61432
487.368	52404
487.444	61979
487.520	73375
487.596	60655
487.672	70024
487.748	116213
487.824	141141
487.900	73405
487.976	57262
488.052	66074
488.128	82226
488.204	63619
488.280	52496
488.356	70755
488.432	153117
488.508	215076
488.584	67633
488.660	51663
488.736	50053
488.812	54284
488.888	66242
488.964	101801
489.039	224896
489.115	314892
489.191	161399
489.267	55295
489.343	49759
489.418	42556
489.494	40448
489.570	40965
489.646	42541
489.722	44321
489.797	48733
489.873	86387
489.949	175206
490.024	133965
490.100	45132
490.176	45674
490.251	60420
490.327	76116
490.403	45313
490.478	39855
490.554	35433
490.629	37278
490.705	37042
490.781	40710
490.856	42954
490.932	49175
491.007	46931
491.083	43625
491.158	43643
491.234	67708
491.309	136223
491.385	129097
491.460	46362
491.536	47382
491.611	41921
491.686	48650
491.762	70741
491.837	148378
491.913	238133
491.988	331924
492.063	364623
492.139	110519
492.214	70017
492.289	38617
492.365	38759
492.440	48091
492.515	49432
492.590	46979
492.666	41251
492.741	60687
492.816	84260
492.891	51817
492.967	44566
493.042	47862
493.117	57324
493.192	86493
493.267	244682
493.342	790824
493.418	957563
493.493	132915
493.568	48111
493.643	44297
493.718	54833
493.793	78348
493.868	78523
493.943	52330
494.018	40020
494.093	38290
494.168	37693
494.243	35174
494.318	32518
494.393	32659
494.468	32611
494.543	33042
494.618	40533
494.693	35796
494.768	36873
494.842	36977
494.917	30980
494.992	34104
495.067	33510
495.142	33857
495.217	36473
495.292	36468
495.366	42664
495.441	54581
495.516	69442
495.591	110187
495.665	336904
495.740	661549
495.815	236659
495.890	61926
495.964	50688
496.039	51832
496.114	47745
496.188	48836
496.263	47942
496.338	47825
496.412	53189
496.487	60962
496.561	62914
496.636	62723
496.710	50451
496.785	56023
496.860	62031
496.934	49160
497.009	49167
497.083	46000
497.158	48664
497.232	58727
497.307	67791
497.381	55407
497.455	66572
497.530	83356
497.604	55055
497.679	58665
497.753	87749
497.827	99706
497.902	75616
497.976	101170
498.050	278389
498.125	865782
498.199	748253
498.273	125814
498.348	87285
498.422	76037
498.496	79486
498.570	72993
498.645	54830
498.719	55711
498.793	70178
498.867	109618
498.941	161941
499.016	425739
499.090	922609
499.164	287627
499.238	56432
499.312	53237
499.386	66863
499.460	58313
499.534	54379
499.609	68729
499.683	95849
499.757	93984
499.831	217057
499.905	679681
499.979	561569
500.053	120854
500.127	122712
500.201	85724
500.275	56979
500.349	55211
500.422	63993
500.496	96488
500.570	201890
500.644	444245
500.718	687683
500.792	147760
500.866	59441
500.940	75498
501.013	61278
501.087	63927
501.161	111204
501.235	141902
501.309	294596
501.382	697337
501.456	530574
501.530	156534
501.603	246941
501.677	94097
501.751	46995
501.825	59177
501.898	121229
501.972	302423
502.046	172767
502.119	65145
502.193	152925
502.266	321610
502.340	151641
502.413	163266
502.487	286240
502.561	160647
502.634	60908
502.708	48892
502.781	43928
502.855	37788
502.928	36007
503.002	36597
503.075	35106
503.149	37920
503.222	38438
503.295	42235
503.369	50451
503.442	79344
503.516	250548
503.589	563044
503.662	343004
503.736	125604
503.809	265360
503.882	218423
503.956	304376
504.029	247963
504.102	107586
504.175	98714
504.249	48170
504.322	52746
504.395	48803
504.468	38108
504.542	38565
504.615	31305
504.688	30804
504.761	31109
504.834	42411
504.907	54697
504.980	77689
505.053	45422
505.127	59771
505.200	60765
505.273	58038
505.346	39198
505.419	32538
505.492	30763
505.565	27052
505.638	27331
505.711	28683
505.784	28746
505.857	27127
505.930	30468
506.003	28997
506.076	33302
506.149	43621
506.221	50968
506.294	51120
506.367	141444
506.440	390086
506.513	186329
506.586	55118
506.659	37437
506.731	32988
506.804	41980
506.877	54924
506.950	40047
507.022	31037
507.095	42555
507.168	48020
507.241	31175
507.313	28918
507.386	34490
507.459	40236
507.531	29281
507.604	27663
507.677	27607
507.749	25045
507.822	36673
507.894	58996
507.967	63017
508.040	37118
508.112	33483
508.185	34318
508.257	37861
508.330	52345
508.402	36574
508.475	34427
508.547	37435
508.620	39185
508.692	58583
508.765	37335
508.837	29568
508.909	29077
508.982	30580
509.054	34743
509.127	30445
509.199	27907
509.271	27485
509.344	27044
509.416	28752
509.488	30053
509.560	31360
509.633	32033
509.705	37871
509.777	39675
509.849	52577
509.922	38566
509.994	32524
510.066	33144
510.138	35954
510.210	48617
510.283	46500
510.355	40734
510.427	36745
510.499	35538
510.571	35033
510.643	39417
510.715	64734
510.787	52105
510.859	38928
510.931	47785
511.003	65429
511.076	53366
511.148	34460
511.219	38511
511.291	62298
511.363	67571
511.435	35460
511.507	31181
511.579	33095
511.651	32135
511.723	30952
511.795	30109
511.867	33302
511.939	43542
512.010	85162
512.082	60394
512.154	32919
512.226	32692
512.298	44886
512.369	62182
512.441	47405
512.513	45891
512.585	38452
512.656	41906
512.728	47521
512.800	33858
512.871	33370
512.943	32645
513.015	30275
513.086	34559
513.158	37712
513.230	40501
513.301	56447
513.373	53548
513.444	35741
513.516	31238
513.588	32437
513.659	35774
513.731	43069
513.802	44540
513.874	91712
513.945	138013
514.016	48773
514.088	34301
514.159	39176
514.231	49353
514.302	55218
514.374	39342
514.445	45852
514.516	92952
514.588	63915
514.659	47019
514.730	84559
514.802	55992
514.873	34668
514.944	35414
515.016	40002
515.087	48937
515.158	65253
515.229	80415
515.301	34747
515.372	35639
515.443	31802
515.514	32004
515.585	29457
515.656	31381
515.728	30499
515.799	30440
515.870	34303
515.941	36110
516.012	37283
516.083	44318
516.154	51223
516.225	60031
516.296	55769
516.367	51033
516.438	56891
516.509	73275
516.580	123644
516.651	370785
516.722	1042253
516.793	432249
516.864	112732
516.935	99776
517.006	107391
517.077	166535
517.148	395718
517.219	1116719
517.289	1463117
517.360	565031
517.431	177496
517.502	70963
517.573	65035
517.643	60199
517.714	63725
517.785	65456
517.856	67295
517.926	73082
517.997	79274
518.068	93594
518.138	127341
518.209	233510
518.280	791294
518.350	1989196
518.421	837493
518.492	147665
518.562	86244
518.633	76289
518.703	65640
518.774	75240
518.845	96928
518.915	86565
518.986	66151
519.056	77416
519.127	136360
519.197	214891
519.268	443136
519.338	252573
519.408	80422
519.479	97065
519.549	64234
519.620	46661
519.690	40127
519.760	41604
519.831	44676
519.901	44780
519.971	39767
520.042	45883
520.112	53123
520.182	60730
520.253	64291
520.323	57722
520.393	114073
520.463	170905
520.534	135879
520.604	250292
520.674	90585
520.744	103232
520.814	289576
520.885	208539
520.955	173125
521.025	483231
521.095	173187
521.165	44677
521.235	44008
521.305	38874
521.375	36943
521.445	43613
521.515	54513
521.585	65419
521.655	58535
521.725	47753
521.795	42978
521.865	36499
521.935	58961
522.005	51096
522.075	34729
522.145	38417
522.215	45106
522.285	61311
522.355	84482
522.424	150642
522.494	129369
522.564	73283
522.634	145162
522.704	347996
522.774	115841
522.843	41907
522.913	39734
522.983	48545
523.053	40031
523.122	43180
523.192	66968
523.262	197082
523.331	156273
523.401	42814
523.471	31308
523.540	34208
523.610	27618
523.680	29660
523.749	31202
523.819	39522
523.888	40951
523.958	30084
524.027	35134
524.097	38627
524.166	35340
524.236	38633
524.305	37038
524.375	32011
524.444	30822
524.514	35080
524.583	37034
524.653	45734
524.722	51411
524.791	37123
524.861	33267
524.930	31378
524.999	36852
525.069	47207
525.138	41954
525.207	50700
525.277	35378
525.346	34400
525.415	32081
525.484	34940
525.554	41098
525.623	37744
525.692	32462
525.761	33397
525.830	31873
525.900	33227
525.969	45175
526.038	52266
526.107	73827
526.176	138886
526.245	107083
526.314	83363
526.383	118327
526.452	119749
526.522	197545
526.591	210244
526.660	160400
526.729	81264
526.797	92519
526.867	237182
526.935	823805
527.004	683596
527.073	244460
527.142	48347
527.211	39600
527.280	44869
527.349	45563
527.418	30795
527.487	33458
527.555	30665
527.624	28486
527.693	25965
527.762	29893
527.831	27564
527.899	29349
527.968	29936
528.037	30750
528.106	38797
528.174	64773
528.243	54679
528.312	80005
528.380	89638
528.449	36427
528.518	28995
528.586	25166
528.655	26790
528.723	26926
528.792	26163
528.861	29900
528.929	26741
528.998	26841
529.066	25730
529.135	27065
529.203	26729
529.272	27868
529.340	30376
529.409	32106
529.477	30571
529.545	40662
529.614	46518
529.682	53787
529.751	56829
529.819	61026
529.887	42523
529.956	32096
530.024	34378
530.092	31512
530.161	37273
530.229	52219
530.297	35963
530.365	31130
530.434	29047
530.502	28204
530.570	28304
530.638	27986
530.707	31810
530.775	33512
530.843	29807
530.911	30369
530.979	29705
531.047	30016
531.115	31116
531.183	30032
531.252	31589
531.320	31584
531.388	30350
531.456	30347
531.524	27812
531.592	31317
531.660	34117
531.728	30581
531.796	30079
531.864	30661
531.932	33416
532.000	32489
532.067	35850
532.135	35911
532.203	41916
532.271	47538
532.339	76017
532.407	155643
532.475	86051
532.542	51481
532.610	57235
532.678	92129
532.746	325105
532.814	611996
532.881	147186
532.949	43360
533.017	37496
533.084	36573
533.152	34570
533.220	36167
533.287	40156
533.355	32960
533.423	32921
533.490	32266
533.558	32515
533.625	34695
533.693	35859
533.761	36490
533.828	40102
533.896	43391
533.963	72019
534.031	86630
534.098	109436
534.166	57004
534.233	41484
534.300	43259
534.368	44015
534.435	43151
534.503	45222
534.570	55889
534.637	42192
534.705	38129
534.772	41979
534.840	52424
534.907	88634
534.974	80350
535.041	39089
535.109	42838
535.176	32711
535.243	30867
535.310	32861
535.378	32048
535.445	29303
535.512	29204
535.579	31301
535.646	31455
535.714	32472
535.781	36981
535.848	37467
535.915	43131
535.982	44475
536.049	44830
536.116	43973
536.183	42319
536.250	41596
536.317	42552
536.384	46557
536.451	56635
536.518	55979
536.585	46608
536.652	55691
536.719	65476
536.786	51869
536.853	47577
536.920	67024
536.987	94447
537.053	111779
537.120	375400
537.187	246036
537.254	41598
537.321	34220
537.388	33979
537.454	30322
537.521	29901
537.588	28444
537.654	34342
537.721	33886
537.788	33797
537.855	30046
537.921	32533
537.988	31467
538.055	31419
538.121	33566
538.188	38045
538.254	57017
538.321	83262
538.388	49216
538.454	33324
538.521	30820
538.587	27886
538.654	29705
538.720	30391
538.787	30214
538.853	33135
538.920	40310
538.986	41679
539.053	36983
539.119	36976
539.185	36249
539.252	42829
539.318	57638
539.385	42997
539.451	38794
539.517	41555
539.583	54169
539.650	134216
539.716	267870
539.782	68460
539.849	33517
539.915	35375
539.981	35538
540.047	41558
540.114	37385
540.180	39473
540.246	40214
540.312	54540
540.378	91479
540.444	84819
540.510	134514
540.576	297878
540.643	82630
540.709	34334
540.775	34262
540.841	37940
540.907	55953
540.973	93733
541.039	63302
541.105	51460
541.171	35585
541.237	34469
541.303	35963
541.369	41595
541.435	53476
541.500	71651
541.566	44622
541.632	32431
541.698	30700
541.764	31951
541.830	30992
541.896	29679
541.961	32812
542.027	32175
542.093	34379
542.159	36484
542.224	41452
542.290	58408
542.356	86095
542.421	87149
542.487	62138
542.553	50061
542.618	47310
542.684	38833
542.750	38755
542.815	51052
542.881	92601
542.947	285628
543.012	161547
543.078	35217
543.143	33449
543.209	36967
543.274	38183
543.340	50453
543.405	121443
543.471	153693
543.536	39346
543.602	33972
543.667	33633
543.732	33127
543.798	31201
543.863	32795
543.928	30698
543.994	28962
544.059	31247
544.124	30991
544.190	31378
544.255	32016
544.320	33146
544.386	35859
544.451	47285
544.516	52916
544.581	65403
544.646	191378
544.712	232362
544.777	51924
544.842	45328
544.907	49452
544.972	43341
545.037	42291
545.102	45602
545.168	46031
545.233	46223
545.298	49802
545.363	57059
545.428	65645
545.493	113234
545.558	214387
545.623	81920
545.688	46565
545.753	43667
545.818	42709
545.883	44853
545.947	43084
546.012	48718
546.077	49237
546.142	46098
546.207	45563
546.272	55174
546.337	53096
546.401	45863
546.466	43641
546.531	43016
546.596	45940
546.661	44772
546.725	43278
546.790	39444
546.855	40608
546.919	40702
546.984	43424
547.049	45929
547.113	52325
547.178	45722
547.243	50925
547.307	53482
547.372	61269
547.436	64935
547.501	49092
547.565	49628
547.630	59289
547.695	58675
547.759	65862
547.823	57532
547.888	47843
547.952	46074
548.017	49137
548.081	57151
548.146	72092
548.210	64300
548.274	47786
548.339	45910
548.403	45166
548.468	42547
548.532	44627
548.596	44730
548.660	45304
548.725	49141
548.789	58745
548.853	61156
548.917	53772
548.982	73631
549.046	68586
549.110	45425
549.174	45312
549.238	44907
549.303	43960
549.367	47052
549.431	45357
549.495	43956
549.559	46122
549.623	49221
549.687	61215
549.751	82810
549.815	59084
549.879	53727
549.943	51921
550.007	55450
550.071	59427
550.135	73230
550.199	59273
550.263	52574
550.327	60095
550.391	74186
550.455	56190
550.519	55083
550.582	60431
550.646	81391
550.710	78639
550.774	56360
550.838	56772
550.901	57640
550.965	60610
551.029	63446
551.093	71183
551.156	89620
551.220	161969
551.284	153018
551.347	94477
551.411	196414
551.475	189688
551.538	65957
551.602	57105
551.666	55699
551.729	55779
551.793	61199
551.856	75276
551.920	91376
551.983	81349
552.047	64799
552.110	56488
552.174	53403
552.237	54379
552.301	52717
552.364	51014
552.428	51112
552.491	53533
552.554	55274
552.618	56725
552.681	59631
552.745	64785
552.808	86991
552.871	107774
552.934	84220
552.998	70201
553.061	72489
553.124	71490
553.187	75636
553.251	87283
553.314	107455
553.377	148982
553.440	291387
553.503	938632
553.567	1279322
553.630	279126
553.693	97319
553.756	72727
553.819	61467
553.882	56368
553.945	54152
554.008	52009
554.071	49668
554.134	50023
554.197	50712
554.260	47067
554.323	52303
554.386	52626
554.449	48865
554.512	48338
554.575	48023
554.638	50250
554.701	47047
554.764	45748
554.827	46688
554.889	43989
554.952	42484
555.015	43491
555.078	43941
555.141	42979
555.203	41365
555.266	44103
555.329	45377
555.391	42796
555.454	44520
555.517	45479
555.580	42049
555.642	39887
555.705	39852
555.768	42136
555.830	41662
555.893	40187
555.955	41427
556.018	42159
556.080	42087
556.143	41315
556.206	42036
556.268	44626
556.330	45182
556.393	44599
556.455	46994
556.518	65351
556.580	62028
556.643	42054
556.705	40622
556.767	40707
556.830	42899
556.892	49752
556.955	68281
557.017	51091
557.079	42721
557.142	42153
557.204	51961
557.266	90583
557.328	68869
557.391	41717
557.453	39654
557.515	42032
557.577	51171
557.639	49029
557.701	39103
557.764	37139
557.826	39798
557.888	41433
557.950	39385
558.012	40594
558.074	47035
558.136	69145
558.198	99313
558.260	55282
558.322	44414
558.384	45580
558.446	48157
558.508	51900
558.570	65930
558.632	108410
558.694	140216
558.756	112766
558.818	247781
558.880	419739
558.942	130458
559.003	106135
559.065	58299
559.127	46484
559.189	47363
559.251	52498
559.312	65658
559.374	124570
559.436	276750
559.498	117374
559.559	47563
559.621	47547
559.683	58205
559.744	93069
559.806	190547
559.868	186200
559.929	67998
559.991	59793
560.052	70594
560.114	110944
560.176	77275
560.237	89431
560.299	104172
560.360	53462
560.422	47602
560.483	47446
560.545	45786
560.606	46249
560.667	45866
560.729	44663
560.790	45334
560.852	45306
560.913	44697
560.974	43669
561.036	43539
561.097	44684
561.158	44634
561.220	45505
561.281	46623
561.342	48760
561.403	57152
561.465	72306
561.526	136482
561.587	147233
561.648	56988
561.709	47425
561.771	45861
561.832	46374
561.893	46188
561.954	45811
562.015	45486
562.076	43897
562.137	46355
562.198	45370
562.259	45230
562.320	47581
562.381	51717
562.442	64357
562.503	54185
562.564	46216
562.625	43713
562.686	44160
562.747	49745
562.808	46385
562.869	48506
562.930	59703
562.991	55926
563.051	52089
563.112	49538
563.173	47008
563.234	44995
563.294	44610
563.355	45762
563.416	46033
563.477	45122
563.537	48324
563.598	50453
563.659	49908
563.720	48385
563.780	49111
563.841	49184
563.901	47713
563.962	46864
564.023	47113
564.083	46739
564.144	49030
564.204	47978
564.265	50220
564.325	59487
564.386	97515
564.446	79725
564.507	47188
564.567	44960
564.628	45550
564.688	45620
564.749	47066
564.809	52178
564.869	57640
564.930	49020
564.990	45168
565.050	45101
565.111	45506
565.171	43282
565.231	43908
565.292	43701
565.352	42847
565.412	44362
565.472	46400
565.532	46241
565.593	44807
565.653	44163
565.713	46131
565.773	46761
565.833	55505
565.893	59367
565.953	46577
566.013	45122
566.074	49530
566.134	63034
566.194	88626
566.254	85640
566.314	60952
566.374	48455
566.434	46902
566.494	46758
566.554	46039
566.614	45583
566.673	46307
566.733	47708
566.793	50175
566.853	50854
566.913	49087
566.973	49933
567.033	51564
567.092	53308
567.152	49160
567.212	48928
567.272	50752
567.331	52297
567.391	49999
567.451	53761
567.511	67128
567.570	65516
567.630	47260
567.690	46231
567.749	45320
567.809	46724
567.868	49832
567.928	51163
567.988	54955
568.047	55157
568.107	53066
568.166	55759
568.226	63147
568.285	70988
568.345	69076
568.404	65389
568.464	64203
568.523	62856
568.582	63590
568.642	66373
568.701	71129
568.761	80025
568.820	95701
568.879	99753
568.939	101955
568.998	83235
569.057	70646
569.116	65656
569.176	58849
569.235	53663
569.294	52659
569.353	49957
569.413	51517
569.472	50924
569.531	47212
569.590	45878
569.649	46369
569.708	44244
569.767	46787
569.827	55858
569.886	47815
569.945	40664
570.004	42395
570.063	42983
570.122	47418
570.181	48384
570.240	52740
570.299	53394
570.358	52025
570.417	41421
570.475	40308
570.534	42335
570.593	43781
570.652	44812
570.711	45090
570.770	41109
570.829	45799
570.887	44007
570.946	46923
571.005	40144
571.064	39705
571.122	42711
571.181	46511
571.240	41363
571.299	40463
571.357	42428
571.416	44232
571.475	50485
571.533	47375
571.592	41290
571.650	41683
571.709	38099
571.768	38690
571.826	37294
571.885	36900
571.943	36616
572.002	37533
572.060	39454
572.119	35981
572.177	34741
572.236	34752
572.294	34397
572.352	33984
572.411	33644
572.469	34195
572.528	35480
572.586	37210
572.644	41967
572.703	49463
572.761	38734
572.819	35991
572.877	34344
572.936	34276
572.994	34110
573.052	34228
573.110	36527
573.169	34107
573.227	32488
573.285	33231
573.343	32616
573.401	34259
573.459	32856
573.517	32338
573.576	32748
573.634	33757
573.692	35610
573.750	33688
573.808	34632
573.866	36522
573.924	45340
573.982	42543
574.040	33936
574.098	33802
574.155	31487
574.213	31280
574.271	30541
574.329	32368
574.387	32015
574.445	30807
574.503	30350
574.560	29568
574.618	28889
574.676	29453
574.734	29651
574.792	29374
574.849	28819
574.907	28563
574.965	29308
575.022	29042
575.080	29207
575.138	30540
575.195	31534
575.253	32215
575.311	33000
575.368	29858
575.426	29084
575.483	29588
575.541	28967
575.598	29489
575.656	30101
575.713	30442
575.771	29794
575.828	29621
575.886	30068
575.943	33905
576.001	33417
576.058	33407
576.115	34816
576.173	39286
576.230	42804
576.287	45487
576.345	38474
576.402	35280
576.459	35878
576.517	35164
576.574	37086
576.631	37662
576.688	34571
576.746	33276
576.803	33941
576.860	33875
576.917	32769
576.974	33645
577.031	33223
577.089	34256
577.146	34294
577.203	35687
577.260	37600
577.317	38741
577.374	40579
577.431	41217
577.488	40149
577.545	40049
577.602	44582
577.659	52952
577.716	69501
577.773	88496
577.830	72594
577.886	52626
577.943	45585
578.000	41962
578.057	44025
578.114	43916
578.171	46113
578.227	54198
578.284	57508
578.341	54453
578.398	49629
578.454	47418
578.511	46624
578.568	45377
578.625	39736
578.681	37243
578.738	34724
578.794	35842
578.851	34229
578.908	35599
578.964	37536
579.021	34770
579.077	34482
579.134	33861
579.190	33135
579.247	31624
579.303	30541
579.360	30821
579.416	30865
579.473	32007
579.529	31988
579.586	32544
579.642	33265
579.698	34718
579.755	35413
579.811	35776
579.867	38330
579.924	39991
579.980	44409
580.036	52652
580.093	57988
580.149	70745
580.205	81246
580.261	73391
580.317	63921
580.374	57831
580.430	55627
580.486	52380
580.542	51222
580.598	45816
580.619	43745
580.654	40201
580.692	39274
580.710	38884
580.765	37349
580.767	37346
580.823	37441
580.838	37123
580.879	36427
580.911	35146
580.935	34266
580.984	34851
580.991	34978
581.047	36450
581.057	36602
581.103	37445
581.130	38479
581.159	39659
581.203	41429
581.215	41934
581.270	41481
581.276	41310
581.326	39988
581.349	39860
581.382	39744
581.422	39242
581.438	39109
581.494	39728
581.494	39675
581.550	36951
581.567	37004
581.606	37227
581.640	36014
581.661	35297
581.713	35920
581.717	36000
581.773	34831
581.786	34970
581.829	35426
581.859	36058
581.885	36718
581.932	36154
581.940	36060
581.996	35368
582.004	35232
582.052	34501
582.077	34274
582.107	34113
582.150	34589
582.163	34752
582.219	34829
582.223	34922
582.274	36146
582.296	36829
582.330	37994
582.368	38373
582.386	38633
582.441	39068
582.441	39080
582.497	44283
582.514	47440
582.552	55580
582.587	68282
582.608	74876
582.659	56264
582.663	54810
582.719	38281
582.732	37306
582.774	35120
582.805	35687
582.830	36238
582.877	35595
582.885	35492
582.941	36064
582.950	36231
582.996	37176
583.023	38228
583.052	39667
583.095	42127
583.107	42843
583.162	48864
583.168	49185
583.218	51481
583.240	50863
583.273	49283
583.313	45762
583.328	44601
583.384	42120
583.385	42042
583.439	39790
583.458	39483
583.494	38796
583.531	36836
583.549	36057
583.603	36638
583.605	36639
583.660	35041
583.676	34932
583.715	34820
583.748	35351
583.770	35736
583.820	34957
583.825	34853
583.881	34470
583.893	34276
583.936	33906
583.965	34035
583.991	33957
584.038	33397
584.046	33352
584.101	33537
584.110	33586
584.156	33486
584.183	33420
584.211	33331
584.255	32186
584.266	31941
584.321	31381
584.328	31550
584.376	33242
584.400	33266
584.431	32893
584.472	33012
584.486	33039
584.541	33023
584.545	33051
584.596	33632
584.617	33593
584.651	33965
584.689	35182
584.706	35465
584.761	34650
584.762	34659
584.816	35582
584.834	35842
584.871	36100
584.906	36297
584.926	36470
584.978	36949
584.980	36964
585.035	37578
585.051	37999
585.090	39766
585.123	42207
585.145	43692
585.195	46494
585.200	47214
585.254	59174
585.267	64088
585.309	84533
585.340	101191
585.364	105153
585.412	71051
585.419	65735
585.473	45949
585.484	44016
585.528	45964
585.556	48725
585.583	51940
585.628	58135
585.637	60018
585.692	85088
585.700	88788
585.747	104951
585.772	90881
585.801	69529
585.845	49590
585.856	46077
585.910	43132
585.917	42780
585.965	41310
585.989	41088
586.019	41079
586.061	41742
586.074	42074
586.128	42698
586.133	42854
586.183	44444
586.205	44845
586.237	45126
586.277	46072
586.292	46427
586.346	45720
586.349	45778
586.401	46456
586.421	46954
586.455	49099
586.493	52336
586.509	55765
586.564	71844
586.565	72537
586.618	107929
586.637	106914
586.672	84074
586.709	61192
586.727	53986
586.781	47621
586.781	47619
586.835	46828
586.853	46642
586.889	45787
586.925	45402
586.944	45839
586.996	47138
586.998	47171
587.052	48180
587.068	48770
587.106	49929
587.140	49902
587.161	49854
587.212	50349
587.215	50419
587.269	51840
587.284	52411
587.323	53014
587.356	53117
587.377	53658
587.427	55139
587.431	55246
587.485	55987
587.499	56486
587.539	57548
587.571	58243
587.593	59240
587.643	61512
587.648	61641
587.702	62538
587.715	63054
587.755	65716
587.786	67266
587.810	67742
587.858	68711
587.864	69153
587.917	74881
587.930	76186
587.971	81263
588.001	85538
588.025	87637
588.073	89931
588.079	90510
588.133	97487
588.145	99318
588.187	106857
588.217	112172
588.241	117695
588.288	129444
588.295	131281
588.348	148864
588.360	152778
588.402	169091
588.431	181585
588.456	193120
588.503	218704
588.510	223099
588.564	263653
588.575	274015
588.617	320188
588.646	358354
588.671	401717
588.718	503059
588.725	527030
588.778	749285
588.789	805139
588.832	1193578
588.861	1497822
588.886	1868070
588.932	2552795
588.939	2589996
588.993	2638284
589.004	2628787
589.047	2002212
589.075	1516035
589.100	1191456
589.147	687276
589.154	656547
589.207	492705
589.218	465789
589.261	437837
589.290	431260
589.314	450500
589.361	508748
589.368	531759
589.421	758005
589.433	816850
589.475	1284024
589.504	1652816
589.528	1955609
589.576	2421020
589.582	2362594
589.635	1628502
589.647	1458318
589.689	865803
589.718	507609
589.742	412495
589.790	265176
589.795	258230
589.849	209898
589.861	201231
589.902	187857
589.932	174455
589.955	156885
590.004	121183
590.009	119429
590.062	106030
590.075	102817
590.115	96869
590.146	92606
590.168	90717
590.218	87270
590.222	86998
590.275	83482
590.289	82614
590.328	81132
590.360	79406
590.381	77864
590.431	74770
590.435	74644
590.488	72399
590.503	71824
590.541	71301
590.574	70584
590.594	69945
590.645	68362
590.647	68362
590.700	67674
590.716	67459
590.753	66781
590.787	65817
590.806	64794
590.859	61968
590.859	61990
590.912	61359
590.930	61309
590.965	60933
591.001	60308
591.018	60252
591.071	60072
591.072	60036
591.124	60856
591.143	61178
591.177	61527
591.214	61753
591.230	61893
591.283	62595
591.285	62563
591.336	62687
591.356	62818
591.389	62171
591.427	60855
591.442	60316
591.495	58567
591.498	58387
591.547	57716
591.569	57386
591.600	57355
591.640	57152
591.653	57447
591.706	58682
591.711	58747
591.759	61272
591.782	62708
591.811	65001
591.853	67870
591.864	66667
591.917	59864
591.924	58860
591.969	58969
591.995	59076
592.022	59487
592.066	59918
592.075	60862
592.127	66430
592.137	67460
592.180	72733
592.208	75674
592.233	70260
592.279	59735
592.285	59491
592.338	57232
592.350	56660
592.390	56039
592.421	55504
592.443	55607
592.491	55650
592.495	55715
592.548	55902
592.562	55904
592.600	55908
592.633	55803
592.653	55368
592.704	53797
592.705	54120
592.775	54971
592.846	54098
592.916	55853
592.987	58109
593.058	54190
593.128	52416
593.199	52441
593.270	51925
593.341	51026
593.411	52915
593.482	52476
593.553	51444
593.623	50336
593.694	52778
593.764	56248
593.835	52027
593.906	50447
593.976	49453
594.047	52991
594.117	60850
594.188	61973
594.258	48239
594.329	47829
594.399	49174
594.470	48075
594.540	47934
594.611	47846
594.681	47097
594.751	48048
594.822	50141
594.892	50636
594.963	52042
595.033	50951
595.103	52496
595.174	57021
595.244	78306
595.314	91138
595.384	52651
595.455	49211
595.525	51473
595.595	51294
595.665	51759
595.736	50998
595.806	49804
595.876	49357
595.946	48275
596.016	48382
596.087	48773
596.157	50004
596.227	49540
596.297	52018
596.367	53315
596.437	57877
596.507	72932
596.577	86358
596.647	55738
596.717	49483
596.787	50647
596.857	50186
596.927	50424
596.997	55479
597.067	68671
597.137	102785
597.207	75032
597.277	53655
597.347	52436
597.417	50312
597.487	51983
597.557	52888
597.626	52668
597.696	56273
597.766	68020
597.836	82691
597.906	57765
597.975	49701
598.045	48010
598.115	48409
598.185	49165
598.254	51181
598.324	51103
598.394	49548
598.464	51125
598.533	50346
598.603	46965
598.672	48947
598.742	47101
598.812	48518
598.881	47057
598.951	47050
599.020	45080
599.090	46112
599.159	47248
599.229	46644
599.299	45614
599.368	47645
599.437	47464
599.507	49945
599.576	60001
599.646	86232
599.715	94242
599.785	53079
599.854	50902
599.924	55185
599.993	51522
600.062	47509
600.132	47335
600.201	48208
600.270	51649
600.340	49903
600.409	47016
600.478	47153
600.547	47648
600.617	49517
600.686	48170
600.755	46494
600.824	47556
600.894	47129
600.963	44934
601.032	44291
601.101	45934
601.170	44306
601.239	46179
601.308	47012
601.378	45600
601.447	46841
601.516	44761
601.585	45409
601.654	48220
601.723	49212
601.792	55746
601.861	75748
601.930	110548
601.999	66084
602.068	48305
602.137	49369
602.206	48395
602.275	48136
602.343	52029
602.412	52267
602.481	46984
602.550	46305
602.619	46649
602.688	47120
602.756	47528
602.825	47410
602.894	45946
602.963	46014
603.032	46703
603.100	46047
603.169	44993
603.238	46897
603.307	45051
603.375	44088
603.444	46110
603.513	44614
603.581	44341
603.650	44539
603.719	41557
603.787	42457
603.856	43132
603.924	42962
603.993	44490
604.061	44240
604.130	43504
604.198	44062
604.267	44875
604.335	43843
604.404	44656
604.472	44654
604.541	44753
604.609	44153
604.678	45063
604.746	45072
604.815	46610
604.883	45265
604.951	46249
605.020	45123
605.088	45325
605.156	44947
605.225	43087
605.293	43944
605.361	43701
605.429	44543
605.498	44303
605.566	44916
605.634	46012
605.702	46314
605.771	46539
605.839	46949
605.907	45940
605.975	47433
606.043	48800
606.111	51679
606.180	68955
606.248	125187
606.316	142845
606.384	58734
606.452	56203
606.520	54041
606.588	43484
606.656	38174
606.724	38472
606.792	37007
606.860	35308
606.928	34252
606.996	33943
607.064	32221
607.132	33521
607.200	35153
607.267	35301
607.335	34053
607.403	35874
607.471	36070
607.539	35167
607.607	35177
607.674	33304
607.742	35147
607.810	35886
607.878	34061
607.946	33360
608.013	33874
608.081	36018
608.149	35173
608.216	33545
608.284	36309
608.352	35074
608.419	37758
608.487	52464
608.555	40693
608.622	34001
608.690	34058
608.757	35880
608.825	36902
608.893	37517
608.960	41541
609.028	48678
609.095	56215
609.163	38998
609.230	35490
609.298	35799
609.365	32295
609.432	33337
609.500	35120
609.567	37305
609.635	38421
609.702	40133
609.769	40767
609.837	42363
609.904	35799
609.971	33167
610.039	38367
610.106	46587
610.173	66178
610.241	123663
610.308	130997
610.375	84929
610.442	41751
610.509	35922
610.577	34828
610.644	35873
610.711	36408
610.778	38924
610.845	43889
610.912	58389
610.980	102523
611.047	218574
611.114	108116
611.181	42099
611.248	35036
611.315	36258
611.382	34372
611.449	35622
611.516	36384
611.583	35842
611.650	35071
611.717	36794
611.784	36468
611.851	37823
611.918	42656
611.984	43731
612.051	55425
612.118	92448
612.185	188460
612.252	124782
612.319	44680
612.386	39297
612.452	38497
612.519	43999
612.586	58423
612.653	44978
612.719	36076
612.786	35892
612.853	35591
612.919	33602
612.986	33948
613.053	31740
613.120	30765
613.186	30908
613.253	33266
613.319	31896
613.386	33144
613.453	34915
613.519	40396
613.586	48726
613.652	63459
613.719	53059
613.785	51072
613.852	46013
613.918	54549
613.985	88677
614.051	199962
614.118	540311
614.184	500243
614.250	83339
614.317	44189
614.383	38488
614.449	35178
614.516	34833
614.582	36085
614.648	33906
614.715	33062
614.781	32993
614.847	35260
614.914	37221
614.980	34390
615.046	33178
615.112	31376
615.179	32149
615.245	32642
615.311	35036
615.377	37948
615.443	40871
615.509	36115
615.575	36230
615.642	34802
615.708	38141
615.774	40008
615.840	43479
615.906	50677
615.972	56982
616.038	81323
616.104	133928
616.170	260545
616.236	217332
616.302	68734
616.368	52071
616.434	44291
616.500	44940
616.565	46237
616.631	48113
616.697	44278
616.763	45930
616.829	51773
616.895	69753
616.961	67699
617.026	48554
617.092	41021
617.158	40920
617.224	39268
617.289	40785
617.355	41036
617.421	43086
617.487	41616
617.552	40521
617.618	38293
617.684	38285
617.749	40928
617.815	37180
617.880	37137
617.946	37800
618.012	39682
618.077	38608
618.143	38752
618.208	38923
618.274	40080
618.339	42087
618.405	38439
618.470	40083
618.536	41592
618.601	48119
618.667	45866
618.732	42894
618.798	41172
618.863	39964
618.928	42211
618.994	44993
619.059	50337
619.124	61255
619.190	48453
619.255	42555
619.320	43116
619.386	41952
619.451	39616
619.516	39467
619.581	41272
619.647	41661
619.712	40438
619.777	40861
619.842	41788
619.907	42015
619.972	41479
620.038	41568
620.103	39771
620.168	39554
620.233	40005
620.298	38252
620.363	38811
620.428	40557
620.493	40003
620.558	40274
620.623	40778
620.688	39682
620.753	38205
620.818	37887
620.883	39209
620.948	39661
621.013	39844
621.078	40319
621.143	41817
621.207	44827
621.272	44329
621.337	47345
621.402	50550
621.467	64374
621.532	64910
621.596	54507
621.661	48827
621.726	46913
621.791	47919
621.855	49346
621.920	51709
621.985	53043
622.049	59579
622.114	55847
622.179	51457
622.243	56693
622.308	52895
622.373	53752
622.437	53067
622.502	51818
622.566	51302
622.631	51287
622.695	52586
622.760	53112
622.824	51335
622.889	52849
622.953	55887
623.018	72199
623.082	69109
623.147	52301
623.211	49098
623.276	50393
623.340	48628
623.404	47550
623.469	47241
623.533	47704
623.597	47148
623.662	47748
623.726	46672
623.790	45873
623.854	46600
623.919	47223
623.983	46044
624.047	47252
624.111	45812
624.176	46234
624.240	49230
624.304	52425
624.368	46353
624.432	46632
624.496	47810
624.560	49786
624.625	51279
624.689	47158
624.753	44633
624.817	44468
624.881	43512
624.945	43364
625.009	44060
625.073	44109
625.137	47430
625.201	54043
625.265	53070
625.329	44797
625.393	46303
625.456	45772
625.520	47317
625.584	52832
625.648	63274
625.712	94623
625.776	201005
625.839	220850
625.903	89379
625.967	55333
626.031	88257
626.095	127662
626.158	53751
626.222	39047
626.286	38340
626.349	38029
626.413	37538
626.477	41903
626.540	38260
626.604	37935
626.668	39007
626.731	37013
626.795	40134
626.858	41040
626.922	37356
626.986	37797
627.049	35878
627.113	37092
627.176	35707
627.240	35668
627.303	35244
627.366	36876
627.430	36713
627.493	36813
627.557	37516
627.620	37540
627.684	36902
627.747	36702
627.810	34671
627.874	35169
627.937	33793
628.000	36385
628.064	36882
628.127	32499
628.190	33915
628.253	35573
628.317	33381
628.380	33171
628.443	33958
628.506	34154
628.569	33098
628.632	31074
628.696	31434
628.759	31559
628.822	31231
628.885	31033
628.948	31126
629.011	32339
629.074	31853
629.137	30184
629.200	31313
629.263	35453
629.326	29827
629.389	29540
629.452	31257
629.515	31804
629.578	30476
629.641	33337
629.704	32716
629.767	33162
629.830	30593
629.892	30741
629.955	29081
630.018	32116
630.081	31502
630.144	37403
630.207	31671
630.269	33897
630.332	34873
630.395	30860
630.458	28462
630.520	27168
630.583	28348
630.646	26996
630.708	26947
630.771	27539
630.834	27514
630.896	26167
630.959	26024
631.021	27436
631.084	27582
631.146	30346
631.209	33380
631.272	26463
631.334	26231
631.397	26695
631.459	25189
631.522	26042
631.584	26713
631.646	27255
631.709	27720
631.771	33095
631.834	28677
631.896	25895
631.958	22842
632.021	25132
632.083	23315
632.145	26965
632.208	25328
632.270	26288
632.332	23093
632.395	25066
632.457	25345
632.519	25126
632.581	26010
632.643	23715
632.706	24241
632.768	23639
632.830	24218
632.892	23281
632.954	23750
633.016	25526
633.078	22686
633.141	23308
633.203	23614
633.265	23299
633.327	23491
633.389	23457
633.451	27428
633.513	29703
633.575	29326
633.637	28685
633.698	25230
633.760	24778
633.822	22955
633.884	24635
633.946	25476
634.008	29804
634.070	40769
634.132	74897
634.193	43673
634.255	24038
634.317	22377
634.379	23076
634.441	22445
634.502	21738
634.564	21158
634.626	21091
634.687	20817
634.749	21569
634.811	21007
634.873	18130
634.934	20619
634.996	22099
635.057	20597
635.119	21192
635.181	20312
635.242	22045
635.304	18564
635.365	22577
635.427	20012
635.488	20993
635.550	20613
635.611	19859
635.673	18628
635.734	23135
635.796	20569
635.857	22923
635.918	19746
635.980	21156
636.041	19641
636.102	21719
636.164	20602
636.225	20977
636.286	18958
636.348	20402
636.409	19563
636.470	18259
636.531	20861
636.593	22960
636.654	22240
636.715	19395
636.776	17969
636.838	17881
636.899	18918
636.960	18299
637.021	17711
637.082	18724
637.143	19074
637.204	17379
637.265	17273
637.326	17573
637.387	18176
637.448	15839
637.509	17548
637.570	17838
637.631	17901
637.692	15642
637.753	16218
637.814	17587
637.875	15695
637.936	18813
637.997	16049
638.058	18644
638.119	18579
638.179	16887
638.240	15987
638.301	17108
638.362	16382
638.423	17668
638.483	18377
638.544	15364
638.605	16485
638.666	15455
638.726	17517
638.787	17606
638.848	16175
638.908	15618
638.969	17170
639.030	17540
639.090	15580
639.151	16252
639.211	18075
639.272	23349
639.332	31612
639.393	21461
639.453	15716
639.514	16702
639.574	16201
639.635	16099
639.695	16359
639.756	15799
639.816	16535
639.877	19538
639.937	27853
639.997	33564
640.058	17797
640.118	15181
640.178	15476
640.239	15799
640.299	14832
640.359	14497
640.420	15120
640.480	15166
640.540	13937
640.600	14941
640.661	15420
640.721	15820
640.781	19269
640.841	14410
640.901	15952
640.961	16017
641.021	16611
641.082	16776
641.142	22792
641.202	17557
641.262	12688
641.322	15599
641.382	13241
641.442	15672
641.502	15728
641.562	15544
641.622	13307
641.682	15749
641.742	14385
641.802	15492
641.861	17308
641.921	17201
641.981	18246
642.041	16941
642.101	21396
642.161	15816
642.221	14446
642.280	13788
642.340	14021
642.400	13176
642.460	14909
642.519	13846
642.579	14274
642.639	16183
642.698	11510
642.758	16152
642.818	14847
642.877	14223
642.937	15935
642.997	17191
643.056	23481
643.116	15103
643.175	15337
643.235	13496
643.294	14444
643.354	14937
643.414	15249
643.473	15794
643.532	15405
643.592	16916
643.651	19971
643.711	27934
643.770	43265
643.830	84653
643.889	159988
643.948	46566
644.008	17016
644.067	14408
644.126	13638
644.186	13651
644.245	13633
644.304	11250
644.363	14440
644.423	11724
644.482	12206
644.541	12883
644.600	11281
644.659	14946
644.719	13699
644.778	18240
644.837	19178
644.896	28105
644.955	43947
645.014	40931
645.073	48679
645.132	19216
645.191	14362
645.250	12317
645.309	15069
645.368	13436
645.427	14322
645.486	13359
645.545	17091
645.604	12702
645.663	13165
645.722	12443
645.781	13706
645.840	13613
645.898	13599
645.957	15834
646.016	16476
646.075	23323
646.134	35598
646.192	78236
646.251	106659
646.310	24723
646.369	13252
646.427	12919
646.486	11747
646.545	12902
646.603	12475
646.662	12302
646.721	11819
646.779	11090
646.838	11005
646.896	13042
646.955	12118
647.014	15250
647.072	15104
647.131	24474
647.189	16300
647.248	10970
647.306	11235
647.365	12840
647.423	10438
647.481	11924
647.540	10252
647.598	11145
647.657	10306
647.715	11760
647.773	10350
647.832	12990
647.890	11580
647.948	12797
648.007	14477
648.065	14745
648.123	18271
648.181	27463
648.240	54096
648.298	47723
648.356	15740
648.414	13594
648.472	12706
648.531	12482
648.589	12227
648.647	11530
648.705	11282
648.763	11657
648.821	12548
648.879	11531
648.937	11984
648.995	12030
649.053	13283
649.111	15232
649.169	18042
649.227	23229
649.285	33841
649.343	69631
649.401	54080
649.459	60224
649.516	69945
649.574	100022
649.632	250495
649.690	301704
649.748	89999
649.806	119730
649.863	182385
649.921	53258
649.979	23224
650.037	16104
650.094	12558
650.152	14607
650.210	11445
650.268	12380
650.325	11730
650.383	11708
650.440	9920
650.498	11122
650.556	10645
650.613	9473
650.671	9719
650.728	11425
650.786	11348
650.843	10752
650.901	8605
650.958	11069
651.016	10273
651.073	10381
651.131	9531
651.188	10429
651.246	10676
651.303	9607
651.360	10114
651.418	10483
651.475	10539
651.532	8554
651.590	9455
651.647	9009
651.704	10392
651.762	9458
651.819	9917
651.876	9667
651.933	9197
651.990	10426
652.048	8677
652.105	9377
652.162	9974
652.219	8831
652.276	10335
652.333	9884
652.390	11054
652.448	12994
652.505	17151
652.562	22558
652.619	33459
652.676	81617
652.733	80110
652.790	17438
652.847	9580
652.904	11308
652.961	9140
653.017	8921
653.074	9780
653.131	10513
653.188	8487
653.245	9291
653.302	8948
653.359	9640
653.415	9070
653.472	8352
653.529	9934
653.586	7708
653.642	7735
653.699	9265
653.756	8061
653.813	8364
653.869	9445
653.926	7640
653.983	8408
654.039	8173
654.096	8617
654.152	10244
654.209	8068
654.266	9539
654.322	8420
654.379	11035
654.435	11508
654.492	12143
654.548	15887
654.605	22445
654.661	12285
654.717	10216
654.774	10266
654.830	10391
654.887	10559
654.943	10545
655.000	10737
655.056	9727
655.112	10332
655.168	9337
655.225	10626
655.281	11860
655.337	14735
655.394	22248
655.450	16499
655.506	15892
655.562	23498
655.618	19125
655.675	8999
655.731	9691
655.787	9192
655.843	10185
655.899	9506
655.955	10069
656.011	10351
656.067	8863
656.123	10785
656.179	12201
656.235	12375
656.291	9968
656.347	11285
656.403	10766
656.459	10955
656.515	11318
656.571	11458
656.627	10544
656.683	10785
656.739	11103
656.795	9932
656.850	10074
656.906	11167
656.962	11367
657.018	7993
657.074	9644
657.129	9483
657.185	9013
657.241	9910
657.297	9047
657.352	10094
657.408	8974
657.464	10652
657.519	9571
657.575	8304
657.630	9279
657.686	8319
657.742	8941
657.797	9676
657.853	8899
657.908	10071
657.964	8981
658.019	8718
658.075	10361
658.130	9926
658.186	8111
658.241	9219
658.297	7457
658.352	8992
658.407	8654
658.463	8398
658.518	9468
658.573	9631
658.629	7898
658.684	7711
658.739	10339
658.795	7926
658.850	8947
658.905	9922
658.960	8775
659.016	9009
659.071	10228
659.126	10498
659.181	11735
659.236	17533
659.291	18354
659.346	18347
659.401	24963
659.457	41032
659.512	70753
659.567	27421
659.622	12023
659.677	10467
659.732	9368
659.787	10587
659.842	10876
659.897	13233
659.952	10068
660.007	8932
660.061	9124
660.116	8453
660.171	8387
660.226	8704
660.281	10002
660.336	8589
660.391	9162
660.445	8623
660.500	10160
660.555	8560
660.610	9122
660.664	8940
660.719	8630
660.774	8856
660.828	9451
660.883	9480
660.938	10117
660.992	7812
661.047	9083
661.101	8205
661.156	8511
661.211	7502
661.265	8607
661.320	8863
661.374	9205
661.429	8316
661.483	8739
661.538	8960
661.592	8436
661.647	8535
661.701	9207
661.755	8896
661.810	9757
661.864	9396
661.919	9262
661.973	9928
662.027	9015
662.081	8342
662.136	8877
662.190	9999
662.244	10327
662.299	9182
662.353	9533
662.407	8369
662.461	9198
662.515	9978
662.569	10673
662.624	10193
662.678	9640
662.732	8891
662.786	9354
662.840	10562
662.894	10007
662.948	8472
663.002	8928
663.056	9773
663.110	8092
663.164	9423
663.218	8603
663.272	8348
663.326	10203
663.380	10346
663.434	9297
663.488	8627
663.542	10136
663.595	9852
663.649	9562
663.703	10225
663.757	10410
663.811	8971
663.864	8888
663.918	9172
663.972	9421
664.026	8858
664.079	9178
664.133	9382
664.187	9172
664.240	8588
664.294	9706
664.348	9043
664.401	9684
664.455	8508
664.508	8822
664.562	9883
664.615	9739
664.669	8018
664.722	8884
664.776	9101
664.829	8689
664.883	9247
664.936	9696
664.990	9809
665.043	10855
665.097	11602
665.150	12954
665.203	10470
665.257	11386
665.310	10067
665.363	11062
665.417	10692
665.470	10858
665.523	11225
665.576	10434
665.630	11032
665.683	10743
665.736	10663
665.789	10853
665.842	9782
665.895	10279
665.949	10706
666.002	10135
666.055	10421
666.108	11245
666.161	10390
666.214	11144
666.267	10034
666.320	11519
666.373	11043
666.426	10612
666.479	9963
666.532	11866
666.585	12316
666.638	13015
666.691	12233
666.744	13410
666.796	12470
666.849	11452
666.902	10697
666.955	10899
667.008	9359
667.060	8992
667.113	9099
667.166	9909
667.219	10284
667.271	11933
667.324	11715
667.377	15625
667.430	18579
667.482	32373
667.535	26345
667.587	13342
667.640	11590
667.693	12899
667.745	15944
667.798	17120
667.850	12007
667.903	11200
667.955	10183
668.008	10861
668.060	12995
668.113	13633
668.165	12939
668.218	12929
668.270	11750
668.322	12022
668.375	11076
668.427	12338
668.479	11120
668.532	11385
668.584	11574
668.636	10854
668.689	11448
668.741	11751
668.793	11739
668.845	11624
668.898	12288
668.950	11450
669.002	12432
669.054	11944
669.106	13603
669.158	14252
669.211	14729
669.263	17514
669.315	28214
669.367	36822
669.419	18569
669.471	14397
669.523	13735
669.575	14320
669.627	12430
669.679	11677
669.731	11474
669.783	12710
669.835	11605
669.886	10843
669.938	11489
669.990	12726
670.042	11113
670.094	13231
670.146	13508
670.197	13776
670.249	15381
670.301	17756
670.353	23081
670.404	30599
670.456	40844
670.508	58813
670.560	87829
670.611	138321
670.663	229277
670.715	517407
670.766	810787
670.818	275370
670.869	55662
670.921	29858
670.972	23420
671.024	18811
671.075	16535
671.127	16039
671.178	14306
671.230	13674
671.281	13284
671.333	13419
671.384	14008
671.436	14408
671.487	14435
671.538	13856
671.590	14128
671.641	15718
671.692	16140
671.744	19537
671.795	18650
671.846	14222
671.897	12422
671.949	13333
672.000	11985
672.051	12339
672.102	13008
672.153	12177
672.204	11133
672.256	12773
672.307	12465
672.358	11959
672.409	12155
672.460	12943
672.511	11370
672.562	12326
672.613	11634
672.664	11668
672.715	11508
672.766	11583
672.817	11058
672.868	11599
672.919	10634
672.970	11596
673.021	11265
673.071	10187
673.122	10779
673.173	11853
673.224	10811
673.275	10402
673.326	10184
673.376	11123
673.427	10328
673.478	10724
673.528	10980
673.579	11352
673.630	10323
673.680	11043
673.731	10285
673.782	9892
673.832	10778
673.883	11735
673.934	10416
673.984	10185
674.035	11057
674.085	11186
674.136	10984
674.186	12249
674.237	13569
674.287	17014
674.338	12308
674.388	10899
674.438	9837
674.489	11048
674.539	11350
674.589	11002
674.640	11341
674.690	9930
674.740	12245
674.791	11783
674.841	12317
674.891	10943
674.942	10633
674.992	9972
675.042	9928
675.092	10293
675.142	9756
675.193	10596
675.243	9813
675.293	10900
675.343	10581
675.393	10682
675.443	10533
675.493	10192
675.543	9397
675.593	10868
675.643	10489
675.693	9235
675.743	10165
675.793	9536
675.843	9497
675.893	10238
675.943	10099
675.993	10722
676.043	9388
676.093	10195
676.142	9025
676.192	10204
676.242	10100
676.292	10020
676.341	10226
676.391	10724
676.441	9209
676.491	8927
676.540	9147
676.590	9029
676.640	9955
676.689	9817
676.739	8647
676.789	10038
676.838	8827
676.888	9291
676.937	9308
676.987	9029
677.037	9205
677.086	7583
677.136	8282
677.185	9146
677.235	8345
677.284	8062
677.333	7677
677.383	8775
677.432	7628
677.482	8196
677.531	8567
677.580	9085
677.630	7983
677.679	8130
677.728	8344
677.778	9234
677.827	7934
677.876	8577
677.925	7774
677.975	8250
678.024	8940
678.073	8882
678.122	9608
678.171	10535
678.220	9847
678.269	10391
678.319	9682
678.368	9414
678.417	9905
678.466	9148
678.515	10080
678.564	10529
678.613	9636
678.662	8751
678.711	9899
678.760	9877
678.809	8539
678.857	9391
678.906	9780
678.955	9775
679.004	9642
679.053	8516
679.102	9245
679.151	9850
679.199	9378
679.248	9173
679.297	9129
679.346	9835
679.394	9173
679.443	8809
679.492	8712
679.540	9108
679.589	9846
679.638	9726
679.686	8264
679.735	8383
679.784	8542
679.832	9279
679.881	7496
679.929	8164
679.978	7191
680.026	8720
680.075	8497
680.123	8312
680.172	7378
680.220	8298
680.268	7552
680.317	8512
680.365	8633
680.414	7805
680.462	8362
680.510	7908
680.559	7621
680.607	7821
680.655	7267
680.703	8104
680.752	7980
680.800	7265
680.848	8064
680.896	6621
680.945	7895
680.993	7682
681.041	7968
681.089	7616
681.137	7153
681.185	6671
681.233	7856
681.258	8055
681.281	8219
681.329	7296
681.377	7807
681.380	7819
681.425	7505
681.473	8903
681.502	8699
681.521	8506
681.569	9268
681.617	8357
681.624	8424
681.665	8668
681.713	8051
681.745	8375
681.761	8493
681.809	8014
681.857	8733
681.867	8704
681.904	8479
681.952	9328
681.989	8301
682.000	7962
682.048	8550
682.096	7878
682.111	8118
682.143	8513
682.191	7922
682.233	9096
682.239	9251
682.286	8320
682.334	8361
682.354	8444
682.382	8475
682.430	8899
682.476	8122
682.477	8083
682.525	7990
682.572	8102
682.598	8150
682.620	8152
682.667	8670
682.715	9126
682.720	9201
682.763	9701
682.810	9392
682.841	9096
682.857	8863
682.905	8425
682.952	8970
682.963	9259
683.000	10209
683.047	9244
683.085	9724
683.095	9823
683.142	8859
683.190	8441
683.206	8474
683.237	8521
683.284	9196
683.328	9233
683.332	9210
683.379	9442
683.426	8851
683.449	9360
683.473	9898
683.521	9664
683.568	9942
683.571	9936
683.615	9419
683.662	9551
683.693	9332
683.709	9204
683.757	9027
683.804	9800
683.814	9704
683.851	9342
683.898	9390
683.936	9273
683.945	9216
683.992	9847
684.039	10133
684.057	9974
684.086	9769
684.133	10677
684.179	10342
684.180	10298
684.227	10957
684.274	10777
684.300	10558
684.321	10440
684.368	9817
684.415	11472
684.422	11374
684.462	10455
684.509	10351
684.543	9907
684.556	9774
684.603	9872
684.649	9985
684.665	9866
684.696	9653
684.743	10962
684.786	10715
684.790	10701
684.837	10645
684.883	12235
684.908	12128
684.930	11769
684.977	12906
685.023	11781
685.029	11782
685.070	11692
685.117	11245
685.150	11798
685.164	12085
685.210	12438
685.257	13091
685.272	12999
685.303	12596
685.350	12813
685.393	12525
685.396	12524
685.443	13339
685.490	13698
685.514	14250
685.536	14321
685.583	13376
685.629	12451
685.636	12439
685.675	12586
685.722	12322
685.757	12534
685.768	12633
685.815	12740
685.861	13448
685.878	13678
685.908	13986
685.954	13345
686.000	14323
686.000	14345
686.047	15371
686.093	16834
686.121	17313
686.139	16854
686.185	14728
686.232	14379
686.242	14258
686.278	14101
686.324	13453
686.363	12781
686.370	12783
686.416	12931
686.463	14762
686.484	14920
686.509	15061
686.555	14874
686.601	14416
686.606	14515
686.647	14525
686.693	13092
686.727	12831
686.739	12947
686.785	13209
686.831	13359
686.848	13446
686.877	13286
686.923	11915
686.969	11699
686.969	11699
687.015	12449
687.061	13186
687.090	13554
687.107	13688
687.153	12666
687.199	12932
687.211	12800
687.245	12742
687.291	13441
687.332	13940
687.336	13961
687.382	14535
687.428	13810
687.453	14060
687.474	14008
687.520	13066
687.565	13187
687.574	12914
687.611	12237
687.657	12393
687.695	13057
687.702	13243
687.748	13204
687.794	13573
687.816	13711
687.839	13540
687.885	12891
687.931	12805
687.937	12872
687.976	13767
688.022	13827
688.058	14151
688.067	14170
688.113	13732
688.158	13959
688.179	13946
688.204	13938
688.249	13913
688.295	14133
688.300	14122
688.340	14221
688.386	14601
688.421	14515
688.431	14466
688.477	14646
688.522	14031
688.542	14417
688.567	14854
688.613	14653
688.658	14328
688.663	14270
688.703	14083
688.749	14573
688.784	14868
688.794	14913
688.839	14221
688.884	14351
688.905	14282
688.930	14242
688.975	13816
689.020	14120
689.026	14094
689.065	14173
689.110	14244
689.146	14311
689.155	14268
689.201	14073
689.246	13853
689.267	13826
689.291	14026
689.336	14184
689.381	14755
689.388	14764
689.426	14811
689.471	14477
689.509	14089
689.516	13966
689.561	14219
689.606	13686
689.630	13513
689.651	13704
689.696	14159
689.741	14598
689.750	14772
689.785	15081
689.830	14836
689.871	14288
689.875	14267
689.920	14404
689.965	14520
689.992	14573
690.010	14688
690.054	14791
690.099	15153
690.112	15110
690.144	14978
690.189	15055
690.233	15091
690.233	15106
690.278	15292
690.323	14999
690.354	14818
690.367	15013
690.412	15464
690.457	16041
690.474	16531
690.501	17009
690.546	16863
690.590	16764
690.595	16739
690.635	17432
690.680	18418
690.716	19395
690.724	19776
690.769	21898
690.813	24219
690.836	25032
690.857	27078
690.902	31784
690.946	37943
690.957	39218
690.991	49316
691.035	65592
691.077	81048
691.080	81357
691.124	79006
691.168	73900
691.198	71782
691.213	67424
691.257	55675
691.301	43740
691.318	39601
691.346	36424
691.390	30714
691.434	25155
691.439	24544
691.478	23789
691.522	23006
691.559	21538
691.567	21365
691.611	21278
691.655	20222
691.680	19931
691.699	19686
691.743	18997
691.787	18142
691.800	17927
691.831	17986
691.875	17998
691.919	17858
691.921	17829
691.964	18171
692.008	18503
692.041	18853
692.052	18919
692.096	18806
692.139	18950
692.162	18889
692.183	18806
692.227	18828
692.271	18330
692.282	18348
692.315	18664
692.359	18695
692.402	18807
692.403	18838
692.447	18489
692.490	18837
692.523	18968
692.534	19067
692.578	19944
692.622	19645
692.643	19439
692.666	18845
692.709	18435
692.753	17643
692.763	17433
692.797	17532
692.840	17637
692.884	17934
692.884	17970
692.928	18431
692.971	19075
693.004	19502
693.015	19593
693.059	19481
693.102	19781
693.124	19810
693.146	20366
693.189	21590
693.233	22745
693.245	23046
693.276	23754
693.320	24788
693.363	25094
693.365	25093
693.407	26884
693.450	28573
693.485	29841
693.493	30760
693.537	35168
693.580	40142
693.605	42900
693.624	47787
693.667	59356
693.710	71408
693.725	75832
693.753	96465
693.797	130718
693.840	166013
693.845	169245
693.883	163933
693.926	153771
693.966	146091
693.970	143457
694.013	114944
694.056	87613
694.086	68689
694.099	65476
694.142	55342
694.185	44973
694.206	40031
694.229	38457
694.272	35460
694.315	32182
694.326	31348
694.358	30617
694.401	29485
694.444	28334
694.446	28218
694.487	26920
694.530	25587
694.566	24249
694.573	24019
694.616	22665
694.659	21064
694.686	19890
694.702	19713
694.745	19347
694.787	18918
694.806	18655
694.830	18578
694.873	18455
694.916	18525
694.926	18439
694.959	18536
695.002	18763
695.044	18741
695.046	18715
695.087	19011
695.130	19221
695.166	19236
695.172	19252
695.215	18858
695.258	19033
695.286	18815
695.301	18726
695.343	18442
695.386	18362
695.406	18102
695.428	17936
695.471	17807
695.514	17657
695.526	17575
695.556	17746
695.599	18037
695.641	18135
695.646	18121
695.684	18033
695.726	17680
695.766	17533
695.769	17583
695.811	17625
695.854	17853
695.886	17858
695.896	17859
695.938	17704
695.981	17417
696.005	17324
696.023	17533
696.065	17967
696.108	18324
696.125	18463
696.150	18432
696.192	18184
696.235	18024
696.245	17929
696.277	18080
696.319	18152
696.361	18464
696.365	18441
696.404	18657
696.446	18870
696.485	18810
696.488	18837
696.530	18818
696.572	18749
696.604	18647
696.614	18584
696.656	18154
696.698	17782
696.724	17373
696.740	17378
696.783	17578
696.825	17763
696.844	17700
696.867	17675
696.909	17575
696.951	17633
696.964	17573
696.992	17317
697.034	16932
697.076	16516
697.083	16410
697.118	16869
697.160	17450
697.202	17841
697.203	17813
697.244	17781
697.286	17652
697.323	17437
697.327	17455
697.369	17263
697.411	17063
697.442	17010
697.453	17235
697.494	17773
697.536	18356
697.562	18721
697.578	18807
697.620	18785
697.661	18792
697.682	18841
697.703	19319
697.744	19986
697.786	20822
697.801	21013
697.828	21002
697.869	20915
697.911	20939
697.921	20892
697.952	20225
697.994	19208
698.035	18184
698.040	18016
698.077	17600
698.118	17125
698.160	16613
698.160	16568
698.201	17117
698.243	17606
698.279	18028
698.284	18063
698.325	17995
698.367	17909
698.399	17732
698.408	17684
698.449	17309
698.491	16981
698.518	16705
698.532	16932
698.573	17477
698.614	18043
698.638	18335
698.656	18300
698.697	18099
698.738	17864
698.757	17721
698.779	18062
698.820	18619
698.862	19187
698.877	19350
698.903	19502
698.944	19666
698.985	19829
698.996	19828
699.026	19523
699.067	19028
699.116	18395
699.235	17580
699.354	17680
699.474	18093
699.593	21508
699.713	20767
699.832	17482
699.951	20290
700.070	17502
700.190	17401
700.309	18497
700.428	20960
700.547	19331
700.667	18481
700.786	21505
700.905	18202
701.024	19141
701.143	18301
701.262	16769
701.381	17511
701.500	18087
701.619	19725
701.738	16939
701.857	16257
701.976	16060
702.095	15047
702.214	17792
702.333	19512
702.452	16805
702.571	15705
702.690	15435
702.809	15988
702.928	15221
703.047	16275
703.165	16146
703.284	15651
703.403	15929
703.522	18630
703.640	18558
703.759	23505
703.878	32919
703.997	18237
704.115	15748
704.234	15891
704.353	15462
704.471	14803
704.590	13243
704.708	15893
704.827	14181
704.946	17037
705.064	17578
705.183	16278
705.301	20065
705.420	28984
705.538	28082
705.656	31153
705.775	54672
705.893	180953
706.012	223288
706.130	32429
706.249	23563
706.367	23211
706.485	24535
706.604	22624
706.722	23053
706.840	26987
706.958	25143
707.077	20814
707.195	19774
707.313	19670
707.431	19918
707.549	19631
707.668	19521
707.786	21046
707.904	19560
708.022	18489
708.140	17574
708.258	19207
708.376	19688
708.494	19026
708.612	21907
708.730	29892
708.848	27936
708.966	25944
709.084	24680
709.202	23498
709.320	23644
709.438	24127
709.556	24583
709.674	23824
709.791	24341
709.909	22398
710.027	22464
710.145	22600
710.263	22639
710.380	22649
710.498	22063
710.616	22281
710.733	23110
710.851	24644
710.969	25013
711.086	23397
711.204	23202
711.322	23217
711.439	23646
711.557	25704
711.674	24854
711.792	29187
711.909	47258
712.027	60094
712.144	25147
712.262	22829
712.379	26370
712.497	34896
712.614	34086
712.732	28672
712.849	27491
712.966	30758
713.084	36843
713.201	28807
713.318	29123
713.436	27002
713.553	27524
713.670	28378
713.787	30670
713.905	31721
714.022	27147
714.139	25349
714.256	28113
714.373	28724
714.490	32350
714.608	43959
714.725	116414
714.842	122430
714.959	29734
715.076	25856
715.193	24679
715.310	25605
715.427	23039
715.544	22493
715.661	23501
715.778	24089
715.895	25875
716.011	26642
716.128	23669
716.245	23720
716.362	27900
716.479	29344
716.596	23073
716.713	22878
716.829	23418
716.946	22114
717.063	20875
717.180	21965
717.296	21428
717.413	21659
717.530	21081
717.646	20797
717.763	21107
717.880	19480
717.996	20969
718.113	21089
718.229	20644
718.346	19689
718.462	20118
718.579	26644
718.695	43754
718.812	35506
718.928	32474
719.045	23312
719.161	19461
719.277	20123
719.394	22504
719.510	27464
719.626	20487
719.743	23870
719.859	21926
719.975	23295
720.092	39042
720.208	69606
720.324	25916
720.440	20904
720.557	25228
720.673	35967
720.789	51872
720.905	105805
721.021	35573
721.137	19043
721.253	20557
721.369	20763
721.486	23308
721.602	33459
721.718	19877
721.834	17380
721.950	19054
722.066	17986
722.181	17674
722.297	18845
722.413	18382
722.529	17003
722.645	17598
722.761	18505
722.877	19845
722.993	17197
723.108	16708
723.224	16356
723.340	17038
723.456	15154
723.571	16968
723.687	14920
723.803	15890
723.918	16389
724.034	16273
724.150	16713
724.265	19380
724.381	41187
724.497	51539
724.612	16834
724.728	14226
724.843	15562
724.959	19342
725.074	39510
725.190	43773
725.305	18660
725.421	15960
725.536	13888
725.651	13691
725.767	14638
725.882	14161
725.997	14393
726.113	13972
726.228	14113
726.343	14126
726.459	13234
726.574	15019
726.689	12922
726.804	14327
726.920	14549
727.035	14130
727.150	15553
727.265	13375
727.380	15154
727.495	14754
727.610	14757
727.725	21051
727.841	40367
727.956	128608
728.071	74658
728.186	17115
728.301	12997
728.416	14627
728.531	13191
728.645	11638
728.760	14173
728.875	12971
728.990	12949
729.105	12974
729.220	13209
729.335	13771
729.449	11571
729.564	11896
729.679	11931
729.794	11560
729.908	13699
730.023	13029
730.138	11003
730.253	11209
730.367	11056
730.482	10373
730.596	11056
730.711	12212
730.826	10988
730.940	10809
731.055	12767
731.169	10935
731.284	9973
731.398	11514
731.513	13492
731.627	13537
731.742	13845
731.856	14956
731.970	11212
732.085	11265
732.199	11267
732.313	13377
732.428	17932
732.542	31810
732.656	22032
732.771	11686
732.885	10624
732.999	11014
733.113	12354
733.227	11786
733.342	9780
733.456	10639
733.570	9456
733.684	10943
733.798	10655
733.912	9311
734.026	9288
734.140	9990
734.254	11352
734.368	22098
734.482	26242
734.596	10152
734.710	8860
734.824	8859
734.938	9376
735.052	9795
735.166	12860
735.280	10248
735.393	9369
735.507	10528
735.621	14875
735.735	26928
735.849	12735
735.962	9885
736.076	10953
736.190	10181
736.303	15797
736.417	19849
736.531	9356
736.644	9679
736.758	7630
736.872	8248
736.985	8893
737.099	7858
737.212	8495
737.326	8819
737.439	9295
737.553	9103
737.666	9182
737.780	9042
737.893	7877
738.007	9080
738.120	7798
738.233	9075
738.347	8336
738.460	8556
738.573	9822
738.687	9428
738.800	10457
738.913	13622
739.026	12024
739.140	18328
739.253	19912
739.366	10544
739.479	8877
739.592	8084
739.705	8548
739.818	8550
739.932	9340
740.045	10000
740.158	9026
740.271	8687
740.384	8167
740.497	8484
740.610	8455
740.723	8754
740.836	9519
740.949	9708
741.062	12756
741.174	11350
741.287	8384
741.400	7944
741.513	8581
741.626	10317
741.739	11389
741.851	8826
741.964	8132
742.077	8278
742.189	8471
742.302	11095
742.415	9547
742.527	8472
742.640	7845
742.753	7747
742.865	7318
742.978	8498
743.090	7271
743.203	8137
743.316	7220
743.428	7485
743.541	7961
743.653	7649
743.766	7043
743.878	7940
743.990	10670
744.103	13081
744.215	11010
744.327	8873
744.440	10498
744.552	16281
744.664	9950
744.777	7487
744.889	7286
745.001	7447
745.113	7181
745.226	7556
745.338	8395
745.450	7753
745.562	7543
745.674	7927
745.786	7939
745.898	10206
746.010	10391
746.122	9087
746.234	10141
746.347	7801
746.459	8776
746.570	7122
746.682	8797
746.794	11485
746.906	9418
747.018	8029
747.130	7666
747.242	8149
747.354	6944
747.466	8809
747.577	7729
747.689	8122
747.801	7605
747.913	7092
748.024	7338
748.136	7052
748.248	7771
748.359	7577
748.471	8619
748.583	9236
748.694	17922
748.806	23990
748.918	11640
749.029	8731
749.141	9069
749.252	8755
749.364	10343
749.475	19298
749.587	13390
749.698	7227
749.809	7490
749.921	7049
750.032	7407
750.144	7504
750.255	8211
750.366	7305
750.478	7769
750.589	7765
750.700	9190
750.811	9043
750.923	10728
751.034	20457
751.145	21616
751.256	7771
751.367	7347
751.479	7461
751.590	6778
751.701	7129
751.812	6285
751.923	7173
752.034	7568
752.145	7034
752.256	7325
752.367	7029
752.478	7121
752.589	7692
752.700	7085
752.811	7602
752.922	7442
753.032	8834
753.143	8886
753.254	7412
753.365	8326
753.476	7425
753.586	7774
753.697	7455
753.808	7399
753.919	6841
754.029	7342
754.140	8394
754.251	7953
754.361	7883
754.472	7864
754.582	8201
754.693	7585
754.804	8375
754.914	7020
755.025	7583
755.135	7987
755.246	8471
755.356	7131
755.466	8265
755.577	7575
755.687	8120
755.798	7485
755.908	8513
756.018	8077
756.129	7617
756.239	8167
756.349	8771
756.460	7662
756.570	8693
756.680	8367
756.790	10031
756.900	10821
757.011	9430
757.121	8785
757.231	9337
757.341	8394
757.451	8578
757.561	9027
757.671	9349
757.781	7797
757.891	9828
758.001	9425
758.111	9963
758.221	10179
758.331	11676
758.441	11994
758.551	13676
758.661	13029
758.771	10918
758.880	10158
758.990	10730
759.100	11335
759.210	10693
759.320	10821
759.429	11433
759.539	11533
759.649	11064
759.758	11069
759.868	12057
759.978	11379
760.087	11679
760.197	12440
760.307	12309
760.416	12517
760.526	11502
760.635	13750
760.745	13379
760.854	14414
760.964	16193
761.073	15238
761.182	13724
761.292	14001
761.401	16823
761.511	15484
761.620	15157
761.729	15602
761.839	17650
761.948	18723
762.057	18187
762.166	18695
762.276	16538
762.385	19286
762.494	20026
762.603	20576
762.712	20438
762.822	22061
762.931	23166
763.040	22968
763.149	23952
763.258	25665
763.367	26891
763.476	28232
763.585	28936
763.694	31755
763.803	33453
763.912	35175
764.021	35704
764.130	38798
764.238	42758
764.347	44765
764.456	46257
764.565	51674
764.674	55467
764.783	58624
764.891	66223
765.000	75311
765.109	83774
765.217	95450
765.326	111926
765.435	133717
765.543	158253
765.652	192090
765.761	244663
765.869	318493
765.978	435045
766.086	611163
766.195	864279
766.303	1107006
766.412	992495
766.520	1104014
766.629	1101091
766.737	749002
766.846	511393
766.954	368553
767.062	287922
767.171	248298
767.279	178619
767.387	141017
767.496	118086
767.604	102728
767.712	89865
767.820	79690
767.928	75263
768.037	69109
768.145	64676
768.253	62653
768.361	61101
768.469	62589
768.577	63074
768.685	66724
768.793	71792
768.901	79218
769.009	90489
769.117	109668
769.225	140283
769.333	191505
769.441	277510
769.549	429566
769.657	698702
769.765	970622
769.873	967204
769.981	971804
770.088	589168
770.196	358425
770.304	247347
770.412	182325
770.519	143828
770.627	114891
770.735	94820
770.842	81356
770.950	72115
771.058	63140
771.165	56045
771.273	50797
771.380	46229
771.488	42821
771.595	39603
771.703	36673
771.810	35154
771.918	32416
772.025	30843
772.133	29607
772.240	27790
772.348	26491
772.455	25712
772.562	23000
772.670	22961
772.777	22316
772.884	21171
772.991	20035
773.099	19787
773.206	18415
773.313	19074
773.420	18107
773.528	16353
773.635	16295
773.742	16423
773.849	15891
773.956	15494
774.063	14817
774.170	14823
774.277	15660
774.384	14394
774.491	13606
774.598	14304
774.705	13817
774.812	15229
774.919	13865
775.026	14032
775.133	13503
775.239	12661
775.346	12315
775.453	12127
775.560	11939
775.667	12617
775.773	11145
775.880	11568
775.987	11024
776.093	11202
776.200	11049
776.307	11053
776.413	10541
776.520	10224
776.627	11055
776.733	11151
776.840	9138
776.946	11894
777.053	13854
777.159	19351
777.266	12534
777.372	17985
777.478	14087
777.585	12550
777.691	9118
777.798	10906
777.904	14859
778.010	28812
778.117	15821
778.223	10223
778.329	8720
778.435	8949
778.542	8654
778.648	8015
778.754	8194
778.860	8921
778.966	9043
779.072	9016
779.178	8605
779.284	8433
779.391	8782
779.497	9723
779.603	16103
779.708	24609
779.815	55025
779.920	181440
780.026	239696
780.132	44537
780.238	15204
780.344	11632
780.450	11236
780.556	8836
780.661	8777
780.767	7742
780.873	7816
780.979	8163
781.085	6880
781.190	7473
781.296	6795
781.402	6706
781.507	6239
781.613	6888
781.719	5873
781.824	6962
781.930	6827
782.035	6873
782.141	6277
782.246	5935
782.352	6686
782.457	5782
782.563	5797
782.668	6594
782.773	6412
782.879	5928
782.984	6880
783.090	8064
783.195	11025
783.300	7786
783.405	7019
783.511	6507
783.616	6961
783.721	6126
783.826	6851
783.932	6807
784.037	5896
784.142	5323
784.247	6634
784.352	6248
784.457	6354
784.562	5800
784.667	5156
784.772	5601
784.877	5177
784.982	6122
785.087	5073
785.192	6163
785.297	4827
785.402	4876
785.507	5302
785.611	5314
785.716	5944
785.821	5672
785.926	5762
786.031	5481
786.135	4799
786.240	4742
786.345	2905
786.450	5944
786.554	4558
786.659	4934
786.763	3718
786.868	6108
786.973	5657
787.077	5041
787.182	5128
787.286	4506
787.391	4215
787.495	4344
787.600	4006
787.704	4223
787.809	5376
787.913	4423
788.017	4277
788.122	5208
788.226	5189
788.330	3911
788.435	3554
788.539	4376
788.643	4561
788.747	4243
788.852	3721
788.956	3825
789.060	5005
789.164	3522
789.268	3440
789.372	4729
789.476	4543
789.580	4253
789.684	3925
789.788	5574
789.892	3291
789.996	4960
790.100	4425
790.204	5007
790.308	4449
790.412	6528
790.516	12727
790.620	10256
790.724	5871
790.828	5395
790.931	4407
791.035	8851
791.139	8188
791.242	3834
791.346	4773
791.450	3795
791.554	3658
791.657	3760
791.761	5212
791.864	4425
791.968	3499
792.072	4087
792.175	4061
792.279	4313
792.382	3714
792.486	3826
792.589	4044
792.693	4187
792.796	2953
792.899	4083
793.003	4446
793.106	2536
793.209	3298
793.313	5146
793.416	3212
793.519	5127
793.623	6491
793.726	9757
793.829	5281
793.932	3743
794.035	4122
794.138	5953
794.242	5748
794.345	8897
794.448	15487
794.551	34534
794.654	106404
794.757	142035
794.860	28384
794.963	8179
795.066	4974
795.169	6241
795.272	3460
795.375	4773
795.477	3244
795.580	4056
795.683	2041
795.786	3961
795.889	2508
795.991	4735
796.094	4733
796.197	3460
796.300	4158
796.402	2820
796.505	3084
796.608	3051
796.710	3763
796.813	3440
796.915	2980
797.018	2960
797.120	3701
797.223	1767
797.326	3046
797.428	3073
797.530	3278
797.633	4229
797.735	4072
797.838	7402
797.940	5947
798.042	2561
798.145	2917
798.247	4344
798.349	1973
798.452	3078
798.554	2230
798.656	1593
798.758	3455
798.860	2955
798.962	2326
799.065	2524
799.167	2282
799.269	3815
799.371	3676
799.473	3967
799.575	4059
799.677	6118
799.779	5562
799.881	6901
799.983	4672
800.085	3786
800.187	3061
800.289	2461
800.390	3554
800.492	2451
800.594	3967
800.696	2283
800.798	2541
800.899	2534
801.001	1614
801.103	1833
801.205	3140
801.306	3395
801.408	1738
801.509	2573
801.611	2715
801.713	2897
801.814	1995
801.916	2522
802.017	2430
802.119	2084
802.220	1967
802.322	1876
802.423	5667
802.525	2687
802.626	2569
802.727	3558
802.829	3481
802.930	-201
803.031	3403
803.133	2289
803.234	3060
803.335	2780
803.436	1497
803.538	2371
803.639	1416
803.740	2343
803.841	767
803.942	1967
804.043	2181
804.144	1643
804.245	2384
804.346	2623
804.447	2480
804.548	4812
804.649	6388
804.750	1928
804.851	1694
804.952	2465
805.053	1917
805.154	1076
805.255	3106
805.355	1736
805.456	1858
805.557	1223
805.658	2187
805.758	2967
805.859	1841
805.960	2148
806.061	1325
806.161	1101
806.262	2363
806.362	1552
806.463	1774
806.564	2854
806.664	2434
806.765	4216
806.865	3888
806.966	2416
807.066	685
807.166	2653
807.267	2654
807.367	1424
807.468	2414
807.568	965
807.668	1763
807.769	3005
807.869	972
807.969	2461
808.069	2439
808.170	1911
808.270	2119
808.370	2202
808.470	4002
808.570	3247
808.670	1766
808.770	2573
808.870	1335
808.970	1672
809.070	1461
809.170	1396
809.271	1972
809.370	1709
809.470	1763
809.570	1279
809.670	-50
809.770	2203
809.870	2210
809.970	1739
810.070	2126
810.169	2184
810.269	729
810.369	2231
810.469	1901
810.568	1629
810.668	1086
810.768	1308
810.867	1703
810.967	837
811.066	1517
811.166	1254
811.265	2509
811.365	1555
811.464	701
811.564	1610
811.663	2214
811.763	27
811.862	1406
811.962	2516
812.061	1992
812.160	629
812.260	1812
812.359	2090
812.458	2185
812.557	4275
812.657	5282
812.756	2714
812.855	1746
812.954	569
813.053	1835
813.153	1431
813.252	958
813.351	1797
813.450	1603
813.549	1188
813.648	1668
813.747	1735
813.846	1694
813.945	724
814.044	1773
814.143	1088
814.242	2292
814.341	1057
814.439	2281
814.538	2140
814.637	927
814.736	1287
814.835	2133
814.933	1327
815.032	1314
815.131	439
815.229	1414
815.328	1753
815.427	990
815.525	1800
815.624	1255
815.722	1832
815.821	2666
815.919	1718
816.018	1447
816.116	2716
816.215	1259
816.313	1736
816.412	2029
816.510	1634
816.609	2634
816.707	1432
816.805	1497
816.904	1312
817.002	2272
817.100	2684
817.198	2276
817.296	1740
817.395	2136
817.493	3493
817.591	2788
817.689	4006
817.787	3421
817.885	6900
817.983	11975
818.081	23721
818.179	56324
818.277	134514
818.375	124656
818.473	38203
818.571	14310
818.669	10685
818.767	9283
818.865	8105
818.963	10064
819.061	12500
819.158	22971
819.256	51581
819.354	117905
819.452	254786
819.549	174701
819.647	49731
819.745	19991
819.842	11758
819.940	8893
820.038	5316
820.135	4442
820.233	5312
820.330	3419
820.428	2363
820.525	4000
820.623	2881
820.720	2391
820.818	2475
820.915	3653
821.012	5023
821.110	2236
821.207	3765
821.304	2093
821.402	1905
821.499	4158
821.596	5075
821.693	3675
821.791	3556
821.888	3654
821.985	8419
822.082	6881
822.179	3547
822.276	2795
822.373	1721
822.470	2110
822.567	1407
822.664	433
822.761	2922
822.858	301
822.955	1953
823.052	2137
823.149	1308
823.246	1212
823.343	1276
823.440	1707
823.536	817
823.633	786
823.730	1826
823.827	2255
823.923	1184
824.020	1542
824.117	2246
824.213	1268
824.310	2515
824.407	867
824.503	508
824.600	1324
824.696	768
824.793	2275
824.889	754
824.986	1665
825.082	1208
825.179	1528
825.275	725
825.371	1120
825.468	1935
825.564	810
825.660	1923
825.757	957
825.853	1639
825.949	625
826.045	1550
826.142	909
826.238	1119
826.334	1849
826.430	77
826.526	1570
826.622	874
826.718	1248
826.814	863
826.910	1846
827.006	370
827.102	514
827.198	1497
827.294	941
827.390	1598
827.486	1211
827.582	195
827.678	-252
827.774	1699
827.869	251
827.965	2109
828.061	525
828.157	753
828.252	511
828.348	614
828.444	1734
828.539	-62
828.635	410
828.731	2077
828.826	330
828.922	2115
829.017	639
829.113	1050
829.208	576
829.304	493
829.399	2792
829.495	1400
829.590	1659
829.685	316
829.781	953
829.876	94
829.971	975
830.066	1017
830.162	1315
830.257	698
830.352	367
830.447	1613
830.543	1338
830.638	367
830.733	1943
830.828	1477
830.923	1449
831.018	1719
831.113	637
831.208	734
831.303	822
831.398	958
831.493	79
831.588	516
831.683	99
831.778	1470
831.873	1182
831.967	1843
832.062	140
832.157	64
832.252	1506
832.346	1297
832.441	2915
832.536	3394
832.631	7759
832.725	7280
832.820	679
832.914	569
833.009	989
833.104	1238
833.198	3361
833.293	1457
833.387	388
833.482	1167
833.576	116
833.670	1732
833.765	1472
833.859	507
833.954	2473
834.048	1472
834.142	1349
834.237	1056
834.331	512
834.425	1355
834.519	202
834.613	1602
834.708	665
834.802	1421
834.896	506
834.990	1104
835.084	722
835.178	1837
835.272	879
835.366	564
835.460	1059
835.554	894
835.648	446
835.742	46
835.836	1354
835.930	-59
836.024	1566
836.117	1840
836.211	839
836.305	2901
836.399	4619
836.493	1342
836.586	1391
836.680	136
836.774	191
836.867	763
836.961	923
837.055	173
837.148	422
837.242	1059
837.335	216
837.429	642
837.522	287
837.616	2569
837.709	5243
837.803	3729
837.896	1631
837.989	1599
838.083	3145
838.176	7272
838.269	6601
838.363	2049
838.456	1044
838.549	2797
838.642	4205
838.735	10265
838.829	5408
838.922	432
839.015	656
839.108	-130
839.201	936
839.294	374
839.387	1790
839.480	138
839.573	2249
839.666	4337
839.759	822
839.852	0
839.945	949
840.038	-16
840.131	283
840.223	853
840.316	527
840.409	314
840.502	-575
840.594	2044
840.687	321
840.780	539
840.873	104
840.965	2585
841.058	2728
841.150	5828
841.243	3079
841.336	1248
841.428	755
841.521	1232
841.613	726
841.706	1249
841.798	1091
841.890	1099
841.983	133
842.075	678
842.167	1844
842.260	1442
842.352	2774
842.444	3477
842.537	7045
842.629	10183
842.721	1840
842.813	1168
842.905	-75
842.997	1086
843.090	1734
843.182	3694
843.274	7359
843.366	16930
843.458	31800
843.550	20449
843.642	3029
843.734	1056
843.826	2498
843.918	2953
844.009	1777
844.101	1011
844.193	1336
844.285	837
844.377	907
844.469	1451
844.560	2218
844.652	2853
844.744	816
844.835	1509
844.927	1041
845.019	1150
845.110	1419
845.202	937
845.293	314
845.385	-176
845.476	393
845.568	1286
845.659	1246
845.751	1432
845.842	588
845.934	-378
846.025	-444
846.116	1089
846.208	-302
846.299	678
846.390	1125
846.482	811
846.573	1510
846.664	2734
846.755	3946
846.846	4027
846.937	151
847.029	822
847.120	423
847.211	586
847.302	1119
847.393	-263
847.484	649
847.575	738
847.666	523
847.757	241
847.847	935
847.938	1694
848.029	163
848.120	325
848.211	1017
848.302	346
848.392	219
848.483	1751
848.574	-143
848.664	473
848.755	356
848.846	999
848.936	-24
849.027	298
849.118	525
849.208	409
849.299	26
849.389	1850
849.480	1750
849.570	2921
849.661	4969
849.751	6846
849.841	3412
849.932	981
850.022	-97
850.112	916
850.203	220
850.293	409
850.383	737
850.474	866
850.564	1186
850.654	1140
850.744	286
850.834	114
850.924	634
851.014	1202
851.104	-211
851.194	1097
851.284	1513
851.374	2619
851.464	1506
851.554	1213
851.644	1666
851.734	4152
851.824	4478
851.914	2960
852.004	7110
852.094	5444
852.183	1140
852.273	1348
852.363	226
852.452	764
852.542	568
852.632	1121
852.721	591
852.811	-366
852.901	615
852.990	410
853.080	772
853.169	417
853.259	-170
853.348	362
853.438	652
853.527	802
853.617	552
853.706	2638
853.795	3854
853.885	8756
853.974	16351
854.063	30434
854.152	52491
854.242	18972
854.331	3121
854.420	1282
854.509	1095
854.598	1687
854.687	1178
854.777	1856
854.866	687
854.955	1157
855.044	-115
855.133	774
855.222	925
855.311	334
855.400	1468
855.488	692
855.577	2015
855.666	3580
855.755	6207
855.844	8568
855.933	12560
856.021	4482
856.110	714
856.199	-89
856.288	1032
856.376	445
856.465	118
856.554	814
856.642	897
856.731	493
856.819	831
856.908	-53
856.996	1116
857.085	651
857.173	143
857.262	985
857.350	143
857.438	775
857.527	834
857.615	336
857.703	1446
857.792	815
857.880	621
857.968	-243
858.056	-49
858.145	619
858.233	397
858.321	17
858.409	978
858.497	184
858.585	-377
858.673	145
858.761	24
858.849	-252
858.937	-204
859.025	662
859.113	375
859.201	759
859.289	317
859.377	286
859.465	830
859.552	-113
859.640	856
859.728	769
859.816	174
859.903	595
859.991	275
860.079	828
860.166	127
860.254	236
860.342	660
860.429	79
860.517	199
860.604	1235
860.692	217
860.779	357
860.867	-90
860.954	484
861.042	774
861.129	675
861.216	280
861.304	105
861.391	448
861.478	1064
861.565	421
861.653	1815
861.740	-330
861.827	-397
861.914	-121
862.001	-696
862.089	441
862.176	337
862.263	-81
862.350	-894
862.437	424
862.524	-119
862.611	463
862.698	294
862.785	770
862.871	1341
862.958	-526
863.045	115
863.132	285
863.219	91
863.306	-332
863.392	82
863.479	565
863.566	403
863.652	-39
863.739	-466
863.826	477
863.912	-372
863.999	-351
864.086	-296
864.172	-532
864.259	-157
864.345	504
864.432	452
864.518	204
864.604	252
864.691	88
864.777	314
864.863	155
864.950	-37
865.036	-787
865.122	583
865.209	580
865.295	229
865.381	125
865.467	679
865.553	1018
865.639	957
865.726	1511
865.812	4317
865.898	8480
865.984	12759
866.070	25029
866.156	28140
866.242	6355
866.328	1254
866.414	-152
866.499	662
866.585	191
866.671	378
866.757	108
866.843	793
866.928	-378
867.014	614
867.100	898
867.186	952
867.271	2663
867.357	2591
867.442	2448
867.528	1286
867.614	1065
867.699	-113
867.785	1884
867.870	1022
867.956	1909
868.041	1650
868.127	879
868.212	2581
868.297	1173
868.383	1259
868.468	2380
868.553	4454
868.639	5257
868.724	10900
868.809	9377
868.894	1994
868.979	662
869.065	368
869.150	264
869.235	377
869.320	313
869.405	83
869.490	305
869.575	11
869.660	301
869.745	327
869.830	-575
869.915	550
870.000	282
870.085	586
870.169	-340
870.254	228
870.339	-418
870.424	-185
870.509	517
870.593	236
870.678	20
870.763	577
870.847	363
870.932	-433
871.016	963
871.101	-293
871.186	-956
871.270	-193
871.355	-119
871.439	-16
871.523	-227
871.608	-294
871.692	261
871.777	339
871.861	604
871.945	-523
872.030	549
872.114	288
872.198	-141
872.282	-241
872.367	-162
872.451	-204
872.535	440
872.619	-22
872.703	16
872.787	333
872.871	-115
872.955	-448
873.039	-606
873.123	-564
873.207	105
873.291	-316
873.375	-123
873.459	63
873.543	-532
873.627	-98
873.711	65
873.794	-188
873.878	-641
873.962	84
874.045	97
874.129	-436
874.137	-385
874.213	119
874.245	215
874.296	372
874.352	51
874.380	-110
874.460	-55
874.464	-53
874.547	-274
874.568	-201
874.631	9
874.676	649
874.714	1186
874.784	781
874.798	707
874.881	1027
874.892	920
874.965	145
874.999	277
875.048	464
875.107	155
875.131	31
875.215	-183
875.215	-181
875.298	639
875.323	283
875.381	-514
875.430	132
875.465	546
875.538	214
875.548	174
875.631	283
875.646	142
875.714	-550
875.753	-517
875.798	-487
875.861	219
875.881	459
875.964	418
875.968	424
876.047	479
876.076	417
876.130	326
876.183	731
876.213	925
876.291	817
876.296	821
876.379	768
876.398	682
876.462	237
876.506	421
876.545	612
876.613	-40
876.628	-187
876.711	294
876.721	260
876.794	118
876.828	121
876.877	120
876.935	644
876.960	843
877.043	862
877.043	861
877.125	770
877.150	763
877.208	879
877.258	1099
877.291	1225
877.365	639
877.374	582
877.456	868
877.472	998
877.539	1325
877.579	1163
877.622	1160
877.687	1239
877.704	1205
877.787	1297
877.794	1271
877.869	1171
877.901	1256
877.952	1281
878.008	1104
878.034	1073
878.115	784
878.117	777
878.199	429
878.222	594
878.282	1186
878.329	1227
878.364	1153
878.437	1021
878.447	1039
878.529	420
878.544	530
878.611	851
878.651	777
878.694	854
878.758	1341
878.776	1441
878.858	1027
878.865	1019
878.941	929
878.972	968
879.023	1073
879.078	894
879.105	875
879.185	949
879.187	946
879.269	1902
879.292	1496
879.351	826
879.399	964
879.433	861
879.506	867
879.516	930
879.598	1264
879.613	1321
879.680	1291
879.720	1430
879.762	1662
879.827	1225
879.844	1041
879.926	1412
879.933	1423
880.007	2151
880.040	2208
880.089	2040
880.147	2381
880.171	2716
880.253	5251
880.254	5260
880.335	6787
880.360	7310
880.417	9909
880.467	14781
880.499	17819
880.574	21630
880.580	21447
880.662	8014
880.680	6401
880.744	2988
880.787	2116
880.825	1979
880.893	1697
880.907	1568
880.989	1476
881.000	1424
881.070	1718
881.106	1795
881.152	1613
881.213	1215
881.233	1179
881.315	1181
881.319	1181
881.396	1338
881.426	1363
881.478	1417
881.532	1750
881.559	1780
881.639	1335
881.641	1339
881.722	1647
881.745	1554
881.803	1310
881.852	1459
881.885	1576
881.958	2232
881.966	2292
882.047	2142
882.064	2159
882.129	3001
882.171	3631
882.210	4368
882.277	5763
882.291	5699
882.372	3782
882.383	3587
882.454	2357
882.489	1650
882.535	1397
882.596	1569
882.616	1652
882.697	1717
882.702	1747
882.778	2345
882.808	2231
882.859	1748
882.914	1732
882.940	1888
883.020	1795
883.021	1801
883.102	1655
883.127	1648
883.183	1918
883.233	2161
883.264	2095
883.339	1648
883.345	1641
883.426	2013
883.445	2030
883.507	2149
883.551	1936
883.587	1844
883.657	2462
883.668	2608
883.749	2637
883.763	2717
883.830	2494
883.869	2249
883.910	2198
883.975	2306
883.991	2322
884.072	2166
884.081	2120
884.152	1708
884.187	1616
884.233	2062
884.292	2664
884.314	2502
884.394	1744
884.398	1702
884.475	2384
884.504	2498
884.555	2276
884.610	2284
884.636	2241
884.716	2095
884.716	2108
884.797	2386
884.821	2567
884.877	2657
884.927	2513
884.958	2430
885.033	2580
885.038	2585
885.118	2175
885.139	2022
885.199	1958
885.244	2062
885.279	2369
885.350	3055
885.359	3063
885.439	2739
885.456	2691
885.520	2949
885.561	3152
885.600	2995
885.667	2582
885.680	2679
885.760	3316
885.773	3368
885.840	3389
885.878	3444
885.920	3752
885.984	4160
886.000	3925
886.080	2782
886.089	2640
886.160	3056
886.195	3254
886.240	3446
886.300	3441
886.320	3414
886.400	3699
886.406	3694
886.480	3624
886.511	3646
886.560	4026
886.616	4117
886.640	4022
886.720	3870
886.722	3849
886.800	3256
886.827	3083
886.879	3143
886.932	3147
886.959	3444
887.038	4166
887.039	4182
887.119	4200
887.143	4181
887.198	4366
887.248	4456
887.278	4240
887.354	3581
887.358	3595
887.437	3689
887.459	3693
887.517	3872
887.564	3941
887.596	3934
887.669	3893
887.676	3893
887.755	3902
887.774	3804
887.835	4197
887.880	4632
887.914	4320
887.985	3491
887.994	3523
888.073	3713
888.090	3758
888.153	3494
888.195	3219
888.232	3497
888.300	4048
888.311	4108
888.391	4387
888.405	4425
888.470	4289
888.510	4137
888.549	4175
888.615	4286
888.628	4357
888.708	4600
888.720	4632
888.787	4042
888.825	3627
888.866	3892
888.930	4315
888.945	4402
889.024	4753
889.035	4791
889.103	4438
889.140	4178
889.182	4014
889.245	3769
889.261	3826
889.340	4022
889.349	4035
889.419	4232
889.454	4290
889.498	4393
889.559	4524
889.577	4505
889.656	4356
889.664	4331
889.735	4244
889.768	4179
889.814	4403
889.873	4673
889.978	5133
890.083	4994
890.187	4725
890.292	5391
890.397	5331
890.501	3859
890.606	4491
890.710	4237
890.815	5382
890.919	4482
891.024	4122
891.128	5035
891.233	4727
891.337	5722
891.442	5581
891.546	4564
891.650	4346
891.755	4178
891.859	5593
891.963	4004
892.068	5584
892.172	3906
892.276	4530
892.380	3887
892.484	4699
892.589	4475
892.693	3902
892.797	4601
892.901	4047
893.005	4621
893.109	5084
893.213	3538
893.317	4520
893.421	3322
893.525	2770
893.629	4739
893.733	3615
893.837	4502
893.941	4547
894.045	6988
894.148	11304
894.252	22633
894.356	10659
894.460	4488
894.564	5215
894.667	3476
894.771	3828
894.875	2852
894.978	4240
895.082	3359
895.186	4615
895.289	4146
895.393	3260
895.496	4268
895.600	2750
895.703	3509
895.807	4003
895.910	3366
896.014	3932
896.117	3301
896.221	3889
896.324	3520
896.427	2993
896.531	3713
896.634	3338
896.737	4261
896.840	3529
896.944	3312
897.047	3609
897.150	2800
897.253	3189
897.356	3324
897.460	3424
897.563	3639
897.666	3946
897.769	2820
897.872	3345
897.975	2472
898.078	3628
898.181	3221
898.284	3494
898.387	3355
898.490	3910
898.593	2037
898.695	3369
898.798	2481
898.901	4117
899.004	2869
899.107	3371
899.209	3745
899.312	3307
899.415	3446
899.518	3562
899.620	3268
899.723	4255
899.826	5347
899.928	6491
900.031	3187
900.133	3827
900.236	2681
900.338	3273
900.441	2457
900.543	3583
900.646	2860
900.748	3302
900.851	3034
900.953	2797
901.055	3174
901.158	3633
901.260	3497
901.362	3795
901.465	3501
901.567	3899
901.669	2858
901.771	2778
901.873	3004
901.976	3560
902.078	2694
902.180	3646
902.282	2763
902.384	2991
902.486	3181
902.588	2953
902.690	4285
902.792	3745
902.894	3898
902.996	2378
903.098	2790
903.200	3374
903.302	2849
903.404	3516
903.505	2985
903.607	3538
903.709	2739
903.811	3441
903.913	3464
904.014	3402
904.116	3726
904.218	3143
904.319	3013
904.421	4023
904.523	4092
904.624	2686
904.726	2532
904.827	3383
904.929	2749
905.030	2701
905.132	2438
905.233	3382
905.335	3024
905.436	3627
905.537	3532
905.639	4307
905.740	3652
905.841	3204
905.943	3400
906.044	4365
906.145	3271
906.247	2276
906.348	2962
906.449	3730
906.550	2232
906.651	2622
906.752	2408
906.854	3502
906.955	2556
907.056	3274
907.157	2874
907.258	3646
907.359	2170
907.460	3248
907.561	3088
907.662	3384
907.762	2745
907.863	2702
907.964	2538
908.065	3503
908.166	3014
908.267	3324
908.367	3014
908.468	3295
908.569	3322
908.670	4684
908.770	4257
908.871	4341
908.971	4149
909.072	3793
909.173	2837
909.273	3985
909.374	2755
909.474	3297
909.575	3329
909.675	3279
909.776	3229
909.876	2949
909.977	2342
910.077	3801
910.177	2815
910.278	3595
910.378	3681
910.478	3121
910.579	3868
910.679	4232
910.779	2681
910.879	4003
910.980	2515
911.080	3364
911.180	2150
911.280	2527
911.380	2917
911.480	3507
911.580	3355
911.680	2623
911.780	2939
911.880	4221
911.980	2143
912.080	2671
912.180	2924
912.280	3039
912.380	2709
912.480	3656
912.580	2489
912.679	2807
912.779	3254
912.879	2968
912.979	2425
913.078	3058
913.178	2772
913.278	2280
913.377	2434
913.477	2789
913.577	2620
913.676	3900
913.776	3275
913.875	3255
913.975	3583
914.074	3095
914.174	2931
914.273	2555
914.373	3550
914.472	2619
914.572	2741
914.671	2661
914.770	2581
914.870	3207
914.969	3259
915.068	2826
915.167	3045
915.267	2557
915.366	2305
915.465	2636
915.564	2351
915.663	3490
915.763	2183
915.862	2973
915.961	3129
916.060	2512
916.159	2200
916.258	2683
916.357	2485
916.456	3857
916.555	2682
916.654	3211
916.752	1877
916.851	2898
916.950	2777
917.049	3135
917.148	2827
917.247	2964
917.345	2849
917.444	2699
917.543	3016
917.642	2578
917.740	2797
917.839	3118
917.937	2276
918.036	2989
918.135	2080
918.233	2296
918.332	2418
918.430	2171
918.529	2834
918.627	1844
918.726	2538
918.824	3701
918.923	2529
919.021	3203
919.119	2147
919.218	2941
919.316	2164
919.414	3230
919.512	2619
919.611	2263
919.709	2215
919.807	3404
919.905	1899
920.003	3667
920.102	3025
920.200	2951
920.298	2287
920.396	3123
920.494	2650
920.592	2788
920.690	2621
920.788	2057
920.886	2834
920.984	3262
921.082	2634
921.180	3330
921.277	3243
921.375	2443
921.473	3338
921.571	2748
921.669	2533
921.766	3238
921.864	3698
921.962	3806
922.060	2289
922.157	2461
922.255	2568
922.352	3257
922.450	2349
922.548	2737
922.645	2662
922.743	3206
922.840	2601
922.938	3380
923.035	3117
923.133	3274
923.230	3248
923.327	3495
923.425	2526
923.522	3726
923.619	3293
923.717	3104
923.814	2931
923.911	3287
924.008	3371
924.106	3172
924.203	2424
924.300	2944
924.397	2005
924.494	3877
924.591	3701
924.688	2208
924.786	3316
924.883	3738
924.979	2995
925.077	3225
925.173	2910
925.270	4750
925.367	3319
925.464	3131
925.561	2683
925.658	3841
925.755	3539
925.852	3441
925.948	4404
926.045	4409
926.142	3522
926.239	4158
926.335	4706
926.432	4686
926.529	4098
926.625	5100
926.722	3724
926.818	3054
926.915	3262
927.011	3286
927.108	2674
927.204	2632
927.301	2679
927.397	2636
927.494	2493
927.590	3188
927.687	1788
927.783	3225
927.879	2159
927.976	2997
928.072	2856
928.168	3193
928.264	2802
928.361	2381
928.457	4200
928.553	2659
928.649	2693
928.745	2711
928.841	3309
928.937	3427
929.033	2719
929.129	3215
929.225	2439
929.321	3347
929.417	2854
929.513	3285
929.609	2586
929.705	2160
929.801	2477
929.897	2597
929.993	2802
930.089	2956
930.184	2888
930.280	2711
930.376	3188
930.471	2752
930.567	2482
930.663	3260
930.758	2713
930.854	2892
930.950	2095
931.045	2639
931.141	3061
931.236	3275
931.332	1895
931.427	2877
931.523	2094
931.618	3253
931.714	3238
931.809	2955
931.905	3025
932.000	3064
932.095	1849
932.191	3520
932.286	2288
932.381	2836
932.476	2575
932.572	2995
932.667	2836
932.762	1799
932.857	2488
932.952	2807
933.047	2348
933.142	2511
933.237	2232
933.332	2107
933.427	3095
933.522	2535
933.617	2850
933.712	3023
933.807	2334
933.902	2176
933.997	2721
934.092	2667
934.187	2375
934.282	2854
934.376	2661
934.471	2742
934.566	1912
934.661	3316
934.755	2811
934.850	2681
934.945	2310
935.039	2812
935.134	2362
935.228	2468
935.323	2556
935.417	2984
935.512	2925
935.606	3198
935.701	1812
935.795	2731
935.890	2562
935.984	2939
936.079	1567
936.173	2426
936.267	2484
936.362	2670
936.456	2079
936.550	3650
936.644	2629
936.738	3808
936.833	5230
936.927	11614
937.021	10463
937.115	4160
937.209	2228
937.303	3311
937.397	2025
937.491	2225
937.585	2644
937.679	2673
937.773	1563
937.867	2065
937.961	2125
938.055	2092
938.149	2467
938.243	2513
938.337	1764
938.430	2582
938.524	2306
938.618	3439
938.712	3462
938.805	2932
938.899	3209
938.993	2534
939.086	2748
939.180	4771
939.274	4331
939.367	2127
939.461	2682
939.554	2318
939.648	2544
939.741	2065
939.835	2271
939.928	2786
940.022	3111
940.115	2268
940.208	2471
940.302	2443
940.395	1837
940.488	2150
940.582	1924
940.675	1598
940.768	2491
940.861	1555
940.954	2137
941.048	2403
941.141	1733
941.234	2291
941.327	1770
941.420	2310
941.513	2216
941.606	2780
941.699	2464
941.792	2288
941.885	1470
941.978	2111
942.071	2483
942.164	1212
942.257	1784
942.349	2903
942.442	974
942.535	1888
942.628	1472
942.721	1872
942.813	498
942.906	3218
942.999	998
943.091	1853
943.184	2373
943.277	1693
943.369	1896
943.462	1028
943.554	2260
943.647	2173
943.739	2309
943.832	1947
943.924	1409
944.017	2004
944.109	1464
944.201	2401
944.294	1646
944.386	1903
944.478	1671
944.571	1929
944.663	2158
944.755	2079
944.847	2917
944.940	1921
945.032	595
945.124	1614
945.216	2924
945.308	2140
945.400	2400
945.492	2954
945.584	2788
945.676	1208
945.768	1312
945.860	2662
945.952	1287
946.044	2364
946.136	1818
946.228	1613
946.320	1047
946.412	824
946.503	2091
946.595	2936
946.687	2060
946.779	1337
946.870	1933
946.962	1510
947.054	2985
947.145	2116
947.237	1892
947.329	2232
947.420	1573
947.512	1599
947.603	1559
947.695	1341
947.786	703
947.878	2057
947.969	908
948.061	1497
948.152	1515
948.243	1539
948.335	2124
948.426	1387
948.517	943
948.609	1548
948.700	1003
948.791	1915
948.882	2128
948.973	2045
949.065	2117
949.156	1924
949.247	1155
949.338	1412
949.429	2124
949.520	1850
949.611	384
949.702	2485
949.793	1685
949.884	1709
949.975	1288
950.066	1577
950.157	1797
950.247	1992
950.338	1460
950.429	1301
950.520	2173
950.611	2149
950.701	1795
950.792	2247
950.883	1099
950.973	1865
951.064	1793
951.155	1463
951.245	2125
951.336	2918
951.427	417
951.517	2424
951.608	1575
951.698	946
951.788	1402
951.879	1652
951.969	2042
952.060	1565
952.150	1133
952.240	1241
952.331	-912
952.421	3427
952.511	1278
952.602	1236
952.692	1561
952.782	1699
952.872	1759
952.962	1879
953.052	463
953.143	1591
953.233	1829
953.323	1760
953.413	1199
953.503	1914
953.593	1638
953.683	1462
953.773	1995
953.863	1800
953.953	1551
954.042	1332
954.132	2794
954.222	1882
954.312	1790
954.402	2173
954.492	3460
954.581	4493
954.671	2469
954.761	742
954.850	2348
954.940	1309
955.030	1607
955.119	1801
955.209	1511
955.298	648
955.388	1835
955.477	2228
955.567	1341
955.656	2280
955.746	2180
955.835	1805
955.925	1958
956.014	2698
956.103	2111
956.193	2682
956.282	1769
956.371	1452
956.461	1851
956.550	1780
956.639	1521
956.728	1781
956.817	1106
956.906	2999
956.995	2512
957.085	2316
957.174	1819
957.263	2076
957.352	1713
957.441	2378
957.530	1456
957.619	2532
957.708	2133
957.796	2619
957.885	2801
957.974	2191
958.063	3139
958.152	1561
958.241	3454
958.329	3116
958.418	3172
958.507	2600
958.596	4138
958.684	3423
958.773	4163
958.861	3993
958.950	3724
959.039	4137
959.127	4183
959.216	4855
959.304	3612
959.393	3710
959.481	3705
959.570	4606
959.658	3000
959.746	4516
959.835	5780
959.923	7365
960.011	3881
960.100	3427
960.188	3294
960.276	2984
960.365	2710
960.453	2605
960.541	2021
960.629	2556
960.717	3532
960.805	3596
960.893	4040
960.981	2707
961.069	2879
961.158	2200
961.245	2590
961.333	2568
961.421	1143
961.509	2507
961.597	3177
961.685	2010
961.773	1797
961.861	2104
961.949	1822
962.036	968
962.124	1854
962.212	1190
962.299	1394
962.387	1842
962.475	1650
962.562	1881
962.650	1574
962.738	1588
962.825	1151
962.913	2400
963.000	1738
963.088	775
963.175	2126
963.263	1870
963.350	1616
963.438	2270
963.525	2636
963.612	6560
963.700	12429
963.787	20582
963.874	9173
963.962	2038
964.049	1987
964.136	2211
964.223	703
964.310	2557
964.398	773
964.485	2038
964.572	2695
964.659	4827
964.746	3055
964.833	1721
964.920	1343
965.007	2003
965.094	1629
965.181	953
965.268	1662
965.355	1863
965.441	1291
965.528	155
965.615	1284
965.702	1395
965.789	702
965.875	908
965.962	712
966.049	805
966.136	414
966.222	671
966.309	1053
966.395	730
966.482	1407
966.569	855
966.655	850
966.742	801
966.828	1375
966.915	839
967.001	1021
967.087	1263
967.174	1934
967.260	2911
967.347	4091
967.433	8724
967.519	12648
967.605	4459
967.692	1060
967.778	453
967.864	702
967.950	890
968.036	245
968.123	922
968.209	843
968.295	419
968.381	1841
968.467	1245
968.553	265
968.639	1617
968.725	-181
968.811	2798
968.897	1921
968.983	89
969.069	248
969.154	1359
969.240	1855
969.326	17
969.412	674
969.497	201
969.583	-167
969.669	832
969.755	832
969.840	889
969.926	1105
970.012	485
970.097	1562
970.183	1555
970.268	1360
970.354	3389
970.439	5463
970.525	8689
970.610	2743
970.696	2568
970.781	587
970.866	115
970.952	1061
971.037	1007
971.122	571
971.208	520
971.293	806
971.378	-143
971.463	287
971.549	819
971.634	986
971.719	1239
971.804	546
971.889	2676
971.974	-252
972.059	41
972.144	718
972.229	678
972.314	133
972.399	1104
972.484	241
972.569	1812
972.654	2055
972.739	5063
972.824	4434
972.908	1339
972.993	797
973.078	1346
973.163	174
973.247	1563
973.332	-562
973.417	1984
973.501	274
973.586	693
973.671	736
973.755	579
973.840	1048
973.924	1724
974.009	921
974.093	823
974.178	3239
974.262	4367
974.346	3158
974.431	1344
974.515	-160
974.600	781
974.684	-27
974.768	1015
974.852	1227
974.937	-143
975.021	566
975.105	203
975.189	613
975.273	1623
975.358	190
975.442	-520
975.526	533
975.610	-98
975.694	-584
975.778	1055
975.862	551
975.946	-1428
976.030	1120
976.114	273
976.198	324
976.281	354
976.365	480
976.449	132
976.533	620
976.617	64
976.700	395
976.784	1299
976.868	948
976.951	1897
977.035	1061
977.119	580
977.202	456
977.286	1310
977.369	213
977.453	553
977.536	-405
977.620	377
977.703	616
977.787	41
977.870	1428
977.953	1523
978.037	-575
978.120	2235
978.203	3278
978.287	3397
978.370	1733
978.453	693
978.536	112
978.620	2104
978.703	2037
978.786	873
978.869	491
978.952	-649
979.035	442
979.118	1240
979.201	-740
979.284	112
979.367	-150
979.450	599
979.533	-1002
979.616	-473
979.699	-148
979.782	712
979.865	949
979.948	-130
980.030	-114
980.113	-135
980.196	-213
980.279	646
980.361	-134
980.444	522
980.526	-7
980.609	-70
980.692	-512
980.774	207
980.857	-658
980.939	818
981.022	84
981.104	-331
981.187	49
981.269	610
981.352	519
981.434	-342
981.516	-500
981.599	1465
981.681	-243
981.763	195
981.846	-129
981.928	-373
982.010	0
982.092	-151
982.174	544
982.256	-358
982.339	32
982.421	217
982.503	-249
982.585	-687
982.667	349
982.749	413
982.831	196
982.913	-380
982.995	984
983.077	183
983.158	777
983.240	-474
983.322	623
983.404	633
983.486	-712
983.568	166
983.649	-1161
983.731	-49
983.813	342
983.894	299
983.976	-68
984.058	471
984.139	1110
984.221	-774
984.302	232
984.384	-334
984.465	-861
984.547	83
984.628	-634
984.710	-78
984.791	-338
984.872	316
984.954	-346
985.035	257
985.116	-825
985.198	-427
985.279	987
985.360	-420
985.441	-583
985.522	560
985.604	-1297
985.685	-1239
985.766	506
985.847	120
985.928	-636
986.009	189
986.090	-174
986.171	533
986.252	-550
986.333	680
986.414	103
986.495	274
986.576	-832
986.656	-259
986.737	171
986.818	-86
986.899	-980
986.980	-214
987.060	421
987.141	-420
987.222	533
987.302	532
987.383	426
987.464	-203
987.544	397
987.625	-218
987.705	304
987.786	238
987.866	-435
987.947	-98
988.027	-98
988.108	-213
988.188	-963
988.268	49
988.349	229
988.429	-831
988.509	56
988.589	-485
988.670	-1338
988.750	1236
988.830	-656
988.910	-1137
988.990	-548
989.070	-72
989.151	27
989.231	-1225
989.311	-328
989.391	521
989.471	-978
989.551	-566
989.631	-564
989.711	761
989.791	-1555
989.870	-741
989.950	728
990.030	-138
990.110	-1141
990.190	-231
990.269	-774
990.349	387
990.429	-192
990.509	-149
990.588	-254
990.668	-408
990.747	-1509
990.827	-339
990.907	635
990.986	-1336
991.066	-167
991.145	-455
991.225	-114
991.304	-449
991.383	508
991.463	-64
991.542	-424
991.622	-990
991.701	-402
991.780	-782
991.859	-905
991.939	-208
992.018	147
992.097	-195
992.176	-154
992.256	-372
992.335	-1040
992.414	613
992.493	-919
992.572	-394
992.651	382
992.730	-542
992.809	-621
992.888	-631
992.967	-517
993.046	25
993.125	-474
993.203	-59
993.282	-458
993.361	-1271
993.440	-519
993.519	-1749
993.597	302
993.676	-863
993.755	-438
993.834	-519
993.912	-659
993.991	520
994.069	-1306
994.148	76
994.226	-496
994.305	-299
994.384	-752
994.462	388
994.540	-1678
994.619	-288
994.697	-576
994.776	-453
994.854	-146
994.932	-367
995.011	-784
995.089	-1184
995.167	-1459
995.245	242
995.324	-326
995.402	-525
995.480	-2058
995.558	626
995.636	-951
995.714	-979
995.792	-282
995.870	-568
995.948	-397
996.026	-194
996.104	-2071
996.182	-47
996.260	-792
996.338	201
996.416	-1955
996.494	-370
996.572	-77
996.649	-964
996.727	-1732
996.805	-445
996.883	-1217
996.960	-1417
997.038	-351
997.116	-229
997.193	-1771
997.271	-1077
997.348	-1405
997.426	-806
997.504	-1447
997.581	-594
997.658	-205
997.736	-669
997.813	-1558
997.891	-523
997.968	-1243
998.046	-475
998.123	-557
998.200	-415
998.277	-1563
998.355	-320
998.432	-2045
998.509	-525
998.586	-214
998.663	-684
998.741	-861
998.818	-561
998.895	-1481
998.972	5
999.049	-1183
999.126	-218
999.203	-1193
999.280	-1348
999.357	-1224
999.434	-1379
999.511	-825
999.587	-363
999.664	-1591
999.741	-324
999.818	-861
999.895	-603
999.971	-1509
1000.048	-554
1000.125	-155
1000.202	-1299
1000.278	-827
1000.355	-570
1000.431	-921
1000.508	-1440
1000.584	-946
1000.661	-223
1000.738	-1125
1000.814	-44
1000.890	-467
1000.967	-544
1001.043	-719
1001.120	-1565
1001.196	-866
1001.272	-1392
1001.349	-1047
1001.425	-270
1001.501	-947
1001.577	-561
1001.654	-688
1001.730	-728
1001.806	-1223
1001.882	-1487
1001.958	-604
1002.034	-978
1002.110	33
1002.186	-1086
1002.262	-1597
1002.338	-573
1002.414	-370
1002.490	-709
1002.566	-319
1002.642	-1376
1002.718	-124
1002.794	-657
1002.870	-1761
1002.945	-1066
1003.021	-1425
1003.097	-1079
1003.173	482
1003.248	-2295
1003.324	-1317
1003.400	-902
1003.475	-1925
1003.551	-1172
1003.626	-737
1003.702	-1288
1003.777	-1449
1003.853	-733
1003.928	-2158
1004.004	-1065
1004.079	-185
1004.155	-665
1004.230	-1769
1004.305	273
1004.381	-688
1004.456	-959
1004.531	-668
1004.607	-827
1004.682	-1095
1004.757	-681
1004.832	-1101
1004.907	-1011
1004.982	-1139
1005.057	-1003
1005.133	-2019
1005.208	-798
1005.283	-1476
1005.358	-460
1005.433	-1804
1005.508	-429
1005.583	-2493
1005.657	-1011
1005.732	-1173
1005.807	-1528
1005.882	-1327
1005.957	-969
1006.032	-702
1006.106	-403
1006.181	-1416
1006.256	-1154
1006.331	-1665
1006.405	-2000
1006.480	-667
1006.554	-1677
1006.629	-1019
1006.704	-1765
1006.778	-1501
1006.853	78
1006.927	-1984
1007.002	-968
1007.076	-1807
1007.150	-1426
1007.225	-836
1007.299	-1144
1007.373	-2119
1007.448	-1468
1007.522	-717
1007.596	-431
1007.671	-1019
1007.745	-349
1007.819	-2332
1007.893	-1091
1007.967	-713
1008.041	-2153
1008.115	-870
1008.190	-1435
1008.264	-992
1008.338	-1899
1008.412	-1761
1008.486	-1732
1008.560	-1392
1008.633	-994
1008.707	-1444
1008.781	-609
1008.855	-1797
1008.929	-960
1009.003	-2252
1009.076	-1679
1009.150	-1064
1009.224	-1659
1009.298	-1510
1009.371	-1355
1009.445	-1118
1009.519	-1741
1009.592	-1805
1009.666	-1318
1009.739	-1570
1009.813	-1953
1009.886	-932
1009.960	-1910
1010.033	-1129
1010.107	-477
1010.180	-2256
1010.253	-944
1010.327	-1361
1010.400	-814
1010.473	-1276
1010.547	71
1010.620	-1736
1010.693	-367
1010.766	-1853
1010.840	174
1010.913	-1098
1010.986	-1452
1011.059	-1750
1011.132	-1216
1011.205	-755
1011.278	-813
1011.351	-1266
1011.424	-591
1011.497	-2069
1011.570	-965
1011.643	-1397
1011.716	-1184
1011.789	-2059
1011.862	-1134
1011.934	-1337
1012.007	-2133
1012.080	-1387
1012.153	-1487
1012.225	-183
1012.298	-1318
1012.371	-1671
1012.443	-1013
1012.516	-1950
1012.588	-1434
1012.661	-1223
1012.733	-1703
1012.806	-78
1012.879	-1768
1012.951	-2359
1013.023	-1229
1013.096	-1631
1013.168	-2396
1013.241	-851
1013.313	-1382
1013.385	-1087
1013.458	-1330
1013.530	-830
1013.602	-2601
1013.674	-1442
1013.746	-967
1013.819	-1471
1013.891	-1146
1013.963	-1987
1014.035	-2001
1014.107	-1665
1014.179	-782
1014.251	-1775
1014.323	-972
1014.395	-1345
1014.467	-916
1014.539	-765
1014.611	-1490
1014.683	-782
1014.754	-1376
1014.826	-1881
1014.898	-1418
1014.970	-2730
1015.042	-522
1015.113	-1405
1015.185	-1367
1015.257	-1837
1015.328	-1180
1015.400	-1485
1015.471	-1921
1015.543	-2393
1015.615	-1331
1015.686	-1828
1015.757	-1752
1015.829	-1443
1015.901	-972
1015.972	-1920
1016.043	-732
1016.115	-1848
1016.186	-1720
1016.257	-1965
1016.328	-844
1016.400	-1262
1016.471	-1295
1016.542	-2469
1016.613	-1526
1016.685	-1986
1016.756	-1448
1016.827	-2240
1016.898	-2028
1016.969	-1277
1017.040	-1773
1017.111	-2130
1017.182	-2221
1017.253	-1200
1017.324	-2462
1017.395	-1961
1017.466	-715
1017.537	-1531
1017.608	-1778
1017.678	-1231
1017.749	-2591
1017.820	-1916
1017.891	-1969
1017.961	-1499
1018.032	-2551
1018.103	-1694
1018.173	-1529
1018.244	-2258
1018.315	-954
1018.385	-1321
1018.456	-1523
1018.526	-2340
1018.597	-1402
1018.667	-1813
1018.738	-1805
1018.808	-1188
1018.878	-1845
1018.949	-2045
1019.019	-1736
1019.089	-1464
1019.160	-1020
1019.230	-1511
1019.300	-1179
1019.371	-2413
1019.441	-1699
1019.511	-1895
1019.581	-1536
1019.651	-1936
1019.721	-1691
1019.791	-1916
1019.861	-1621
1019.931	-1519
1020.001	-2152
1020.071	-1619
1020.141	-2216
1020.211	-1515
1020.281	-1668
1020.351	-2075
1020.421	-817
1020.491	-821
1020.560	-2751
1020.630	-1524
1020.700	-1054
1020.770	-1044
1020.839	-1150
1020.909	-1362
1020.979	-1659
1021.048	-1913
1021.118	-1542
1021.187	-1166
1021.257	-1149
1021.326	-1751
1021.396	-2386
1021.465	-1899
1021.535	-915
1021.604	-1885
1021.674	-1334
1021.743	-1324
1021.812	-1564
1021.882	-2204
1021.951	-1405
1022.020	-2484
1022.089	-1873
1022.159	-1828
1022.228	-1530
1022.297	-2244
1022.366	-2285
1022.435	-2401
1022.504	-1688
1022.573	-1590
1022.642	-1739
1022.711	-2078
1022.781	-1975
1022.849	-1922
1022.918	-1627
1022.987	-1923
1023.056	-2055
1023.125	-2046
1023.194	-1142
1023.263	-1616
1023.331	-1318
1023.400	-2689
1023.469	-2100
1023.538	-2001
1023.606	-1554
1023.675	-1896
1023.744	-1833
1023.812	-2456
1023.881	-752
1023.949	-2134
1024.018	-1895
1024.086	-2152
1024.155	-1501
1024.223	-1933
1024.292	-2044
1024.360	-2706
1024.429	-1974
1024.497	-2675
1024.565	-1762
1024.634	-2218
1024.702	-1390
1024.770	-2158
1024.838	-2017
1024.907	-1896
1024.975	-1765
1025.043	-1050
1025.111	-1818
1025.179	-1429
1025.247	-1295
1025.315	-2033
1025.383	-1741
1025.451	-2204
1025.519	-1854
1025.587	-2247
1025.655	-1190
1025.723	-1991
1025.791	-2007
1025.859	-1656
1025.927	-1674
1025.995	-2696
1026.062	-2059
1026.130	-2437
1026.198	-1592
1026.266	-2233
1026.333	-1328
1026.401	-1525
1026.469	-1818
1026.536	-1526
1026.604	-1951
1026.671	-2451
1026.739	-1570
1026.806	-2092
1026.874	-1089
1026.941	-1774
1027.009	-1200
1027.076	-2991
1027.144	-1823
1027.211	-2222
1027.278	-1889
1027.345	-1881
1027.413	-1016
1027.480	-2298
1027.547	-1642
1027.614	-1876
1027.682	-1729
1027.749	-2779
1027.816	-1364
1027.883	-1966
1027.950	-1056
1028.017	-2571
1028.084	-1881
1028.151	-2452
1028.218	-1735
1028.285	-2086
1028.352	-1839
1028.419	-2981
1028.486	-1279
1028.553	-1795
1028.619	-1136
1028.686	-1935
1028.753	-2303
1028.820	-2497
1028.886	-881
1028.953	-2902
1029.020	-1490
1029.086	-2223
1029.153	-2166
1029.220	-1572
1029.286	-961
1029.353	-1886
1029.419	-1650
1029.486	-2070
1029.552	-2146
1029.619	-1501
1029.685	-1807
1029.751	-2044
1029.818	-1242
1029.884	-2205
1029.951	-614
1030.017	-2173
1030.083	-1190
1030.149	-2501
1030.216	-2097
1030.282	-2162
1030.348	-1727
1030.414	-2420
1030.480	-1702
1030.546	-2363
1030.612	-2111
1030.678	-2747
1030.744	-2295
1030.810	-2547
1030.876	-1247
1030.942	-2094
1031.008	-1941
1031.074	-2550
1031.140	-1772
1031.206	-1715
1031.272	-2318
1031.337	-2921
1031.403	-1681
1031.469	-2386
1031.534	-1976
1031.600	-1378
1031.666	-1521
1031.731	-2099
1031.797	-1451
1031.863	-2374
1031.928	-1443
1031.994	-1821
1032.059	-2050
1032.125	-2638
1032.190	-2541
1032.256	-2197
1032.321	-1493
1032.386	-1670
1032.452	-1903
1032.517	-2002
1032.582	-2209
1032.647	-2613
1032.713	-1487
1032.778	-2028
1032.843	-2329
1032.908	-2143
1032.974	-1670
1033.039	-2202
1033.104	-1388
1033.169	-2720
1033.234	-1918
1033.299	-2020
1033.364	-1623
1033.429	-1505
1033.494	-1817
1033.559	-3028
1033.624	-1867
1033.688	-1966
1033.753	-1978
1033.818	-2360
1033.883	-1763
1033.948	-1790
1034.013	-1542
1034.077	-1455
1034.142	-784
1034.207	-1782
1034.271	-909
1034.336	-831
1034.400	-1237
1034.465	-1362
1034.530	-266
1034.594	-1593
1034.658	-2061
1034.723	-2297
1034.787	-1476
1034.852	-1850
1034.916	-2226
1034.981	-1888
1035.045	-1549
1035.109	-2210
1035.173	-1083
1035.238	-1946
1035.302	-1542
1035.366	-2201
1035.430	-2335
1035.495	-2495
1035.559	-1487
1035.623	-2501
1035.687	-2359
1035.751	-2674
1035.815	-1792
1035.879	-1370
1035.943	-1936
1036.007	-1963
1036.071	-1640
1036.135	-1686
1036.198	-1492
1036.262	-2408
1036.326	-1714
1036.390	-1851
1036.454	-644
1036.517	-1143
1036.581	-1568
1036.645	-776
1036.709	-603
1036.772	-1625
1036.836	-1600
1036.900	-2420
1036.963	-1507
1037.026	-2181
1037.090	-2535
1037.154	-2510
1037.217	-2404
1037.280	-2966
1037.344	-1863
1037.407	-2438
1037.471	-1803
1037.534	-2119
1037.597	-1666
1037.661	-2169
1037.724	-1917
1037.787	-1918
1037.850	-2533
1037.913	-2754
1037.977	-1604
1038.040	-2577
1038.103	-1671
1038.166	-2314
1038.229	-1655
1038.292	-2094
1038.355	-1605
1038.418	-1854
1038.481	-1358
1038.544	-2154
1038.607	-1522
1038.670	-1876
1038.732	-1924
1038.795	-2013
1038.858	-2480
1038.921	-2345
1038.984	-1595
1039.046	-1831
1039.109	-1629
1039.172	-1571
1039.234	-2087
1039.297	-2456
1039.360	-1961
1039.422	-1363
1039.485	-1192
1039.547	-2245
1039.610	-1799
1039.672	-1792
1039.734	-1410
1039.797	-1864
1039.859	-1601
1039.922	-2602
1039.984	-1973
1040.046	-2665
1040.109	-1809
1040.171	-2378
1040.233	-1445
1040.295	-2356
1040.358	-2713
1040.420	-1576
1040.482	-1599
1040.544	-2447
1040.606	-1993
1040.668	-2018
1040.730	-1857
1040.792	-1755
1040.854	-2257
1040.916	-2121
1040.978	-2017
1041.040	-1677
1041.102	-2236
1041.164	-2252
1041.225	-1564
1041.287	-2817
1041.349	-2298
1041.411	-1661
1041.472	-1470
1041.534	-2946
1041.596	-1789
1041.657	-1880
1041.719	-1946
1041.781	-2320
1041.842	-1698
1041.904	-2655
1041.965	-2324
1042.027	-1738
1042.088	-1479
1042.150	-1529
1042.211	-2182
1042.272	-1861
1042.334	-2525
1042.395	-2515
1042.456	-1946
1042.518	-1818
1042.579	-2016
1042.640	-2762
1042.701	-2321
1042.763	-2164
1042.824	-2278
1042.885	-2167
1042.946	-1385
1043.007	-2287
1043.068	-2345
1043.129	-2726
1043.190	-1639
1043.251	-2608
1043.312	-1677
1043.373	-1989
1043.434	-2249
1043.495	-2210
1043.556	-2389
1043.616	-2307
1043.677	-1303
1043.738	-2644
1043.799	-2624
1043.859	-1316
1043.920	-1408
1043.981	-2299
1044.041	-1636
1044.102	-3063
1044.162	-1471
1044.223	-2463
1044.284	-2326
1044.344	-2284
1044.405	-2097
1044.465	-1514
1044.525	-2107
1044.586	-1620
1044.646	-1932
1044.707	-2407
1044.767	-1440
1044.827	-2154
1044.887	-1555
1044.948	-1801
1045.008	-2246
1045.068	-2278
1045.128	-1714
1045.188	-1730
1045.249	-935
1045.309	-2130
1045.369	-2177
1045.429	-2176
1045.489	-1929
1045.549	-1882
1045.609	-1488
1045.669	-2250
1045.729	-1365
1045.789	-1103
1045.848	-1494
1045.908	-2382
1045.968	-1505
1046.028	-2087
1046.088	-1495
1046.147	-1147
1046.207	-1621
1046.267	-1656
1046.326	-1185
1046.386	-1540
1046.446	-476
1046.505	-1223
1046.565	-1044
1046.624	-1153
1046.684	-778
1046.743	-312
1046.803	-420
1046.862	-764
1046.922	0
