'Start Wavelength	183.907
'End Wavelength	1046.922
'Gate Delay	5.000
'Gate Width (ms)	1.050
'Laser Output Level	0.000
'X Position	0.000
'Y Position	0.000
'Z Position	0.000
'Grid Point Number	1.000
'Shot Number	100.000
183.907	-48.000
183.977	615.000
184.047	789
184.116	726
184.186	774
184.256	-497
184.325	410
184.395	-1629
184.465	-135
184.534	-622
184.604	-30
184.674	315
184.743	422
184.813	170
184.883	-25
184.952	-379
185.022	511
185.092	335
185.161	155
185.231	319
185.301	-333
185.370	1016
185.440	56
185.509	224
185.579	550
185.649	228
185.718	622
185.788	1074
185.857	295
185.927	-393
185.996	-161
186.066	-696
186.136	-68
186.205	228
186.275	347
186.344	164
186.414	103
186.483	-843
186.553	712
186.622	1298
186.692	221
186.761	-244
186.831	1081
186.900	-159
186.970	1122
187.039	935
187.109	883
187.178	586
187.248	-259
187.317	-344
187.387	114
187.456	1333
187.526	642
187.595	197
187.664	24
187.734	13
187.803	722
187.873	504
187.942	388
188.012	628
188.081	485
188.150	679
188.220	299
188.289	1388
188.358	388
188.428	302
188.497	299
188.567	804
188.636	-449
188.705	166
188.775	235
188.844	43
188.913	879
188.983	-792
189.052	859
189.121	-359
189.191	246
189.260	907
189.329	358
189.399	-56
189.468	568
189.537	-642
189.606	730
189.676	85
189.745	124
189.814	437
189.883	-712
189.953	389
190.022	388
190.091	1138
190.161	2780
190.230	317
190.299	338
190.368	174
190.437	104
190.507	551
190.576	345
190.645	142
190.714	761
190.783	-240
190.853	1320
190.922	1236
190.991	-160
191.060	-238
191.129	145
191.198	651
191.268	625
191.337	879
191.406	86
191.475	235
191.544	598
191.613	634
191.682	196
191.752	-191
191.821	339
191.890	40
191.959	1008
192.028	167
192.097	-60
192.166	72
192.235	129
192.304	857
192.373	-39
192.442	699
192.511	535
192.580	672
192.650	36
192.719	507
192.788	646
192.857	-150
192.926	1388
192.995	236
193.064	664
193.133	1748
193.202	2476
193.271	1311
193.340	1330
193.409	1490
193.478	1520
193.547	1710
193.615	3427
193.684	2974
193.753	3021
193.822	1685
193.891	824
193.960	1100
194.029	443
194.098	985
194.167	508
194.236	680
194.305	835
194.374	520
194.443	796
194.512	394
194.580	463
194.649	1156
194.718	1851
194.787	551
194.856	821
194.925	962
194.994	1198
195.062	498
195.131	798
195.200	1136
195.269	1260
195.338	1080
195.407	1375
195.475	935
195.544	1313
195.613	903
195.682	1117
195.751	1301
195.819	1241
195.888	660
195.957	1739
196.026	1539
196.094	1390
196.163	608
196.232	1462
196.301	1676
196.369	1024
196.438	1099
196.507	414
196.576	957
196.644	1261
196.713	860
196.782	629
196.850	1532
196.919	852
196.988	-61
197.056	146
197.125	1712
197.194	1263
197.262	994
197.331	769
197.400	473
197.468	405
197.537	552
197.606	1229
197.674	1541
197.743	3184
197.812	632
197.880	2045
197.949	1639
198.017	3239
198.086	2353
198.155	1359
198.223	568
198.292	2343
198.360	1501
198.429	373
198.497	1396
198.566	2401
198.635	3188
198.703	1987
198.772	1584
198.840	2404
198.909	2658
198.977	1878
199.046	1529
199.114	979
199.183	1600
199.251	507
199.320	1149
199.388	1029
199.457	767
199.525	376
199.594	1486
199.662	1495
199.731	567
199.799	1605
199.867	1046
199.936	560
200.004	1793
200.073	1137
200.141	1335
200.210	918
200.278	521
200.346	1237
200.415	933
200.483	1225
200.552	885
200.620	1042
200.688	1596
200.757	1337
200.825	370
200.893	1128
200.962	1568
201.030	1534
201.098	-17
201.167	1493
201.235	1687
201.303	1518
201.372	1309
201.440	1598
201.508	1190
201.577	1806
201.645	1393
201.713	854
201.781	1334
201.850	2409
201.918	1967
201.986	977
202.055	1394
202.123	842
202.191	1101
202.259	1537
202.327	880
202.396	1497
202.464	1113
202.532	1531
202.600	4321
202.669	3000
202.737	1643
202.805	1462
202.873	2186
202.941	1320
203.009	848
203.078	1566
203.146	1045
203.214	949
203.282	708
203.350	2217
203.418	955
203.487	2296
203.555	1333
203.623	1572
203.691	1486
203.759	1098
203.827	1484
203.895	1629
203.963	726
204.031	1410
204.099	1488
204.168	1306
204.236	1576
204.304	1912
204.372	538
204.440	1598
204.508	1342
204.576	1291
204.644	2057
204.712	1596
204.780	1408
204.848	1193
204.916	1238
204.984	1435
205.052	1076
205.120	1428
205.188	1512
205.256	1258
205.324	1682
205.392	1112
205.460	1208
205.528	991
205.596	2181
205.664	1159
205.732	2084
205.799	3105
205.867	6046
205.935	1509
206.003	2226
206.071	2356
206.139	1359
206.207	1703
206.275	2083
206.343	1255
206.411	2130
206.478	970
206.546	1609
206.614	1645
206.682	2219
206.750	2009
206.818	3328
206.885	2477
206.953	992
207.021	2654
207.089	2195
207.157	1130
207.225	1591
207.292	1567
207.360	1817
207.428	1922
207.496	1389
207.563	1551
207.631	1912
207.699	1068
207.767	1417
207.834	1717
207.902	1849
207.970	1174
208.038	1786
208.105	1978
208.173	1615
208.241	2235
208.309	3485
208.376	2575
208.444	3399
208.512	2199
208.579	1636
208.647	1963
208.715	3111
208.782	1573
208.850	2521
208.918	1980
208.985	1900
209.053	2289
209.120	2692
209.188	1278
209.256	2348
209.323	1666
209.391	3241
209.459	3652
209.526	2407
209.594	1946
209.661	1675
209.729	1814
209.796	2405
209.864	2355
209.932	934
209.999	3505
210.067	2977
210.134	2653
210.202	2778
210.269	3552
210.337	3798
210.404	2250
210.472	1987
210.539	2171
210.607	2016
210.674	2625
210.742	2589
210.809	2385
210.877	3107
210.944	2701
211.012	1469
211.079	3742
211.146	2225
211.214	2430
211.281	2955
211.349	3361
211.416	2108
211.484	3613
211.551	2308
211.618	2652
211.686	2779
211.753	2006
211.821	2403
211.888	1983
211.955	3009
212.023	2738
212.090	2070
212.157	2735
212.225	2926
212.292	5072
212.359	6380
212.427	14007
212.494	8266
212.561	3440
212.629	2860
212.696	3060
212.763	2535
212.831	2507
212.898	3454
212.965	2417
213.032	3309
213.100	3675
213.167	2414
213.234	3543
213.301	3349
213.369	3373
213.436	3189
213.503	2682
213.570	3373
213.638	2967
213.705	1644
213.772	1265
213.839	2501
213.906	3522
213.973	2760
214.041	2791
214.108	2761
214.175	2297
214.242	3293
214.309	2100
214.376	2748
214.444	2695
214.511	3268
214.578	2910
214.645	3411
214.712	3765
214.779	4138
214.846	3100
214.913	4360
214.980	3574
215.048	4348
215.115	5045
215.182	4360
215.249	3051
215.316	3340
215.383	3105
215.450	2581
215.517	3125
215.584	3207
215.651	2574
215.718	2470
215.785	2880
215.852	3025
215.919	3709
215.986	3156
216.053	2075
216.120	2036
216.187	2926
216.254	3158
216.321	2260
216.388	3117
216.455	2477
216.522	2942
216.589	4162
216.656	5028
216.722	5922
216.789	5409
216.856	4790
216.923	4762
216.990	4228
217.057	3848
217.124	3258
217.191	5257
217.258	5944
217.324	6869
217.391	7472
217.458	6144
217.525	4789
217.592	3841
217.659	2661
217.725	4195
217.792	4239
217.859	4733
217.926	2582
217.993	3114
218.059	3346
218.126	2851
218.193	2027
218.260	1935
218.327	2243
218.393	2172
218.460	2472
218.527	1850
218.594	2055
218.660	4033
218.727	4483
218.794	2325
218.860	2660
218.927	1378
218.994	1935
219.061	1661
219.127	2186
219.194	4388
219.261	2095
219.327	1764
219.394	2566
219.461	1595
219.527	2882
219.594	3271
219.661	2612
219.727	895
219.794	1945
219.860	2037
219.927	2352
219.994	4083
220.060	6494
220.127	6111
220.193	4734
220.260	4054
220.326	5632
220.393	8589
220.460	11803
220.526	7697
220.593	5523
220.659	5401
220.726	4309
220.792	9748
220.859	11005
220.925	13374
220.992	18173
221.058	15841
221.125	13406
221.191	10043
221.258	5971
221.324	3981
221.391	3732
221.457	2268
221.524	3104
221.590	4639
221.657	9910
221.723	7730
221.789	6966
221.856	6735
221.922	4200
221.989	3227
222.055	2837
222.121	1416
222.188	5277
222.254	2579
222.321	2293
222.387	2113
222.453	2646
222.520	1266
222.586	1429
222.652	2288
222.719	1057
222.785	2641
222.851	2332
222.918	1553
222.984	1744
223.050	1367
223.116	937
223.183	2504
223.249	1442
223.315	1559
223.382	1369
223.448	1651
223.514	1137
223.580	1478
223.647	1341
223.713	1540
223.779	1702
223.845	2076
223.911	1806
223.978	397
224.044	1975
224.110	1518
224.176	2256
224.242	1748
224.309	687
224.375	2146
224.441	2024
224.507	1217
224.573	1111
224.639	2978
224.705	1096
224.772	1756
224.838	1864
224.904	2243
224.970	2011
225.036	1349
225.102	1975
225.168	2813
225.234	1601
225.300	2005
225.366	2577
225.432	1727
225.499	1664
225.565	2454
225.631	1386
225.697	2867
225.763	3062
225.829	3528
225.895	3689
225.961	4486
226.027	5108
226.093	3902
226.159	5968
226.225	7931
226.291	17085
226.357	27413
226.423	16552
226.489	9267
226.554	5735
226.620	5258
226.686	7031
226.752	9880
226.818	16359
226.884	31290
226.950	30830
227.016	14149
227.082	8910
227.148	5689
227.214	5267
227.279	5510
227.345	3303
227.411	3992
227.477	4349
227.543	8843
227.609	9171
227.674	6449
227.740	3686
227.806	3387
227.872	3146
227.938	2544
228.003	4487
228.069	3276
228.135	2083
228.201	2545
228.267	2164
228.332	3323
228.398	2871
228.464	2288
228.530	1823
228.595	2137
228.661	1629
228.727	3802
228.792	4123
228.858	2057
228.924	1442
228.990	4812
229.055	2704
229.121	3492
229.187	2320
229.252	2752
229.318	1394
229.384	3088
229.449	3529
229.515	662
229.581	1042
229.646	3056
229.712	2317
229.777	4726
229.843	4563
229.909	4722
229.974	4673
230.040	4564
230.105	3692
230.171	3669
230.236	5077
230.302	6444
230.368	6011
230.433	3043
230.499	3506
230.564	3296
230.630	2447
230.695	3006
230.761	3345
230.826	1500
230.892	4860
230.957	2080
231.023	2941
231.088	3335
231.154	2726
231.219	3558
231.284	3380
231.350	4137
231.415	1992
231.481	2947
231.546	2179
231.612	2490
231.677	1614
231.742	2236
231.808	3943
231.873	2408
231.939	-387
232.004	4597
232.069	5551
232.135	2728
232.200	2450
232.265	2823
232.331	1365
232.396	1507
232.461	1790
232.527	1545
232.592	1761
232.657	1919
232.723	3046
232.788	2853
232.853	2847
232.918	1759
232.984	1243
233.049	1712
233.114	2148
233.179	3279
233.245	4686
233.310	4964
233.375	1430
233.440	2618
233.506	2656
233.571	1981
233.636	2200
233.701	1508
233.766	3418
233.832	3965
233.897	1938
233.962	1538
234.027	3503
234.092	3123
234.157	2660
234.222	3200
234.288	2755
234.353	8707
234.418	8765
234.483	5949
234.548	4246
234.613	4382
234.678	3799
234.743	3160
234.808	10150
234.873	6270
234.938	5101
235.004	3169
235.069	2855
235.134	2174
235.199	3932
235.264	2973
235.329	2317
235.394	2962
235.459	4729
235.524	2843
235.589	3653
235.654	2533
235.719	1399
235.784	3157
235.849	3314
235.913	5190
235.978	5674
236.043	6415
236.108	4081
236.173	3816
236.238	4247
236.303	3397
236.368	2548
236.433	5211
236.498	6698
236.563	6871
236.627	12176
236.692	37862
236.757	36528
236.822	14458
236.887	10023
236.952	8506
237.017	6274
237.081	8270
237.146	9377
237.211	19826
237.276	38276
237.341	58237
237.405	32844
237.470	13953
237.535	8568
237.600	5826
237.664	5733
237.729	4894
237.794	6011
237.859	14190
237.923	8938
237.988	4835
238.053	6280
238.118	5494
238.182	10878
238.247	12296
238.312	5006
238.376	4808
238.441	2745
238.506	4303
238.570	2770
238.635	4170
238.700	2701
238.764	1840
238.829	5567
238.893	6481
238.958	4860
239.023	4160
239.087	3127
239.152	3832
239.216	2034
239.281	2981
239.346	2603
239.410	2810
239.475	3019
239.539	10070
239.604	8970
239.668	4300
239.733	3713
239.797	5076
239.862	14380
239.926	13613
239.991	6253
240.055	2601
240.120	2411
240.184	3298
240.249	1512
240.313	2822
240.378	2449
240.442	6447
240.507	11033
240.571	4602
240.635	5783
240.700	7060
240.764	3712
240.829	3154
240.893	1513
240.957	2355
241.022	6147
241.086	11267
241.151	4984
241.215	2760
241.279	4691
241.344	6096
241.408	4524
241.472	3051
241.537	5003
241.601	3849
241.665	2966
241.730	3529
241.794	4686
241.858	2945
241.922	3704
241.987	4197
242.051	3089
242.115	2065
242.179	3351
242.244	2689
242.308	4362
242.372	3879
242.436	2774
242.501	3930
242.565	3142
242.629	2611
242.693	4195
242.757	2312
242.822	2907
242.886	3494
242.950	3782
243.014	2571
243.078	4186
243.142	3980
243.206	3080
243.271	3487
243.335	3422
243.399	6553
243.463	17671
243.527	49833
243.591	20023
243.655	7292
243.719	4292
243.783	5374
243.847	8536
243.911	10524
243.975	10774
244.040	8273
244.104	5598
244.168	3894
244.232	6037
244.296	8695
244.360	10137
244.424	3878
244.488	3961
244.552	4316
244.615	2106
244.679	3123
244.743	4171
244.807	4021
244.871	3399
244.935	3667
244.999	2127
245.063	2773
245.127	4290
245.191	7175
245.255	7457
245.319	5190
245.383	4201
245.446	5059
245.510	2885
245.574	3516
245.638	3721
245.702	2315
245.766	8494
245.829	6311
245.893	3397
245.957	3797
246.021	4223
246.085	4418
246.149	4530
246.212	10983
246.276	17429
246.340	8156
246.404	5905
246.467	5658
246.531	7562
246.595	5932
246.659	6019
246.722	3874
246.786	6757
246.850	6960
246.913	9150
246.977	4019
247.041	4623
247.104	4720
247.168	4289
247.232	10350
247.295	22121
247.359	11633
247.423	5823
247.486	9327
247.550	7378
247.614	5040
247.677	6752
247.741	4910
247.804	4115
247.868	5631
247.932	8727
247.995	20837
248.059	9260
248.122	4406
248.186	6342
248.249	9005
248.313	31069
248.376	35576
248.440	22852
248.503	8486
248.567	8531
248.630	9033
248.694	14464
248.757	17878
248.821	36652
248.884	24490
248.948	19198
249.011	26697
249.075	40516
249.138	37162
249.202	15504
249.265	8917
249.328	11320
249.392	8122
249.455	8036
249.519	5605
249.582	7656
249.645	11893
249.709	10362
249.772	6864
249.835	5890
249.899	6787
249.962	7332
250.025	5737
250.089	12967
250.152	20303
250.215	11396
250.279	7086
250.342	8231
250.405	7611
250.468	7327
250.532	9546
250.595	13660
250.658	42477
250.721	78875
250.785	32502
250.848	17076
250.911	10369
250.974	8721
251.038	11143
251.101	22830
251.164	13050
251.227	13004
251.290	12657
251.354	17901
251.417	60149
251.480	70255
251.543	47469
251.606	108032
251.669	95045
251.732	39653
251.795	33685
251.859	33890
251.922	71197
251.985	50480
252.048	19894
252.111	13846
252.174	11646
252.237	20552
252.300	43546
252.363	48036
252.426	92543
252.489	44974
252.552	21887
252.615	12574
252.678	14941
252.741	30900
252.804	42467
252.867	94969
252.930	61608
252.993	31816
253.056	19610
253.119	14207
253.182	10163
253.245	18690
253.308	15430
253.371	13346
253.434	11286
253.497	10304
253.559	19760
253.622	15021
253.685	17950
253.748	21891
253.811	9869
253.874	10623
253.937	9631
254.000	9078
254.062	13219
254.125	22190
254.188	19249
254.251	18701
254.314	9114
254.376	15586
254.439	17663
254.502	15540
254.565	13581
254.628	25983
254.690	17147
254.753	9812
254.816	7968
254.878	8613
254.941	13430
255.004	15836
255.067	7092
255.129	8276
255.192	4646
255.255	4084
255.317	6582
255.380	4704
255.443	3366
255.505	2908
255.568	3687
255.631	4051
255.693	4016
255.756	3808
255.819	4280
255.881	2919
255.944	3473
256.006	3545
256.069	3685
256.132	3374
256.194	5313
256.257	9443
256.319	7568
256.382	7545
256.444	6687
256.507	5565
256.569	4708
256.632	5149
256.694	7120
256.757	19971
256.819	65284
256.882	31957
256.944	12093
257.007	9170
257.069	7912
257.132	5688
257.194	6177
257.257	4808
257.319	5047
257.381	6186
257.444	14758
257.506	68018
257.569	87772
257.631	38859
257.693	19874
257.756	9515
257.818	8046
257.880	6564
257.943	6327
258.005	5509
258.067	4823
258.130	4078
258.192	6421
258.254	10564
258.317	7010
258.379	4723
258.441	11393
258.503	12396
258.566	10861
258.628	17247
258.690	5639
258.753	6062
258.815	10418
258.877	6994
258.939	4566
259.001	4946
259.064	3334
259.126	4140
259.188	6879
259.250	5597
259.312	6090
259.375	11978
259.437	9929
259.499	5870
259.561	4806
259.623	4616
259.685	4358
259.747	4183
259.809	9613
259.872	21711
259.934	30104
259.996	33365
260.058	10401
260.120	4584
260.182	4037
260.244	3806
260.306	3262
260.368	4047
260.430	3870
260.492	7465
260.554	13019
260.616	9810
260.678	16790
260.740	24686
260.802	7700
260.864	5805
260.926	3856
260.988	5456
261.050	4608
261.112	8584
261.174	22997
261.236	20168
261.298	7131
261.359	9795
261.421	16000
261.483	5713
261.545	5268
261.607	3148
261.669	4392
261.731	5547
261.793	16160
261.854	9146
261.916	6862
261.978	4495
262.040	4849
262.102	3918
262.164	6350
262.225	6584
262.287	4588
262.349	10489
262.411	10895
262.472	5307
262.534	5585
262.596	14319
262.658	5907
262.719	3535
262.781	5374
262.843	12731
262.904	8077
262.966	6217
263.028	7063
263.090	24154
263.151	76074
263.213	28849
263.275	13845
263.336	6314
263.398	5361
263.459	3395
263.521	3403
263.583	10000
263.644	8090
263.706	4376
263.767	2725
263.829	3342
263.891	2032
263.952	1553
264.014	2704
264.075	4409
264.137	11723
264.198	7001
264.260	3318
264.321	3182
264.383	7062
264.444	20072
264.506	6787
264.567	4531
264.629	6629
264.690	13985
264.752	6102
264.813	4861
264.875	3145
264.936	3686
264.998	2977
265.059	2942
265.120	4039
265.182	5655
265.243	34040
265.305	42479
265.366	10506
265.427	5076
265.489	4694
265.550	2604
265.611	4569
265.673	3706
265.734	3523
265.795	3685
265.857	3449
265.918	3402
265.979	9103
266.040	54725
266.102	53869
266.163	16187
266.224	9756
266.286	6281
266.347	3956
266.408	4728
266.469	3903
266.530	3305
266.592	3348
266.653	6985
266.714	12489
266.775	5101
266.836	3491
266.898	2967
266.959	4961
267.020	4761
267.081	4329
267.142	3423
267.203	2943
267.264	3542
267.326	4976
267.387	3083
267.448	2557
267.509	4433
267.570	2699
267.631	3039
267.692	2763
267.753	3979
267.814	3234
267.875	6414
267.936	16434
267.997	8095
268.058	7650
268.119	4336
268.180	3652
268.241	3035
268.302	3216
268.363	2339
268.424	3398
268.485	3595
268.546	2524
268.607	2114
268.668	2651
268.729	2087
268.790	2847
268.851	3530
268.912	8704
268.972	12291
269.033	5996
269.094	2661
269.155	2743
269.216	2396
269.277	3053
269.338	2742
269.398	2774
269.459	3663
269.520	5059
269.581	6120
269.642	8280
269.702	5786
269.763	4337
269.824	3160
269.885	4181
269.945	9273
270.006	3290
270.067	2802
270.128	2121
270.188	2084
270.249	1805
270.310	2715
270.370	2882
270.431	2794
270.492	2262
270.553	2279
270.613	7054
270.674	14276
270.734	6894
270.795	3817
270.856	5555
270.916	4455
270.977	3335
271.038	4192
271.098	4409
271.159	6639
271.219	7827
271.280	2779
271.340	2944
271.401	3650
271.462	7526
271.522	5221
271.583	3941
271.643	3993
271.704	3628
271.764	4072
271.825	9853
271.885	30406
271.946	46188
272.006	16295
272.066	17573
272.127	34858
272.187	13463
272.248	7364
272.308	6230
272.369	22038
272.429	14874
272.489	10331
272.550	11135
272.610	11457
272.671	9365
272.731	6922
272.791	10107
272.852	7228
272.912	7333
272.972	4526
273.033	3231
273.093	6430
273.153	7352
273.214	5309
273.274	5662
273.334	16419
273.394	36899
273.455	16615
273.515	14026
273.575	31940
273.635	15240
273.696	14590
273.756	32266
273.816	16752
273.876	8651
273.936	12930
273.997	24096
274.057	8702
274.117	6622
274.177	8732
274.237	37561
274.297	36322
274.358	21277
274.418	25764
274.478	22778
274.538	8905
274.598	5780
274.658	16168
274.718	24556
274.778	12028
274.838	5449
274.898	9306
274.958	29967
275.018	29635
275.078	23174
275.138	10269
275.198	5155
275.258	4595
275.318	4842
275.378	9784
275.438	11580
275.498	6997
275.558	12833
275.618	31751
275.678	25119
275.738	15248
275.798	12296
275.858	6373
275.918	3482
275.978	5675
276.038	5511
276.098	4545
276.157	7833
276.217	24295
276.277	13023
276.337	9905
276.397	4502
276.457	6715
276.517	4420
276.576	3504
276.636	4185
276.696	7438
276.756	14653
276.815	12022
276.875	5799
276.935	6072
276.995	6802
277.055	4862
277.114	3805
277.174	5619
277.234	20540
277.293	9876
277.353	5984
277.413	4786
277.472	4744
277.532	5583
277.592	5326
277.651	18667
277.711	43391
277.771	14379
277.830	43981
277.890	42747
277.950	22798
278.009	71779
278.069	30313
278.128	27920
278.188	44655
278.248	18936
278.307	44560
278.367	31394
278.426	9743
278.486	6680
278.545	5120
278.605	4744
278.664	4535
278.724	4297
278.783	10440
278.843	35738
278.902	12272
278.962	7252
279.021	7432
279.081	9202
279.140	9096
279.199	9251
279.259	8689
279.318	9541
279.378	12974
279.437	17993
279.496	55492
279.556	169256
279.615	155402
279.675	47880
279.734	23893
279.793	27813
279.853	44690
279.912	20540
279.971	11577
280.031	11218
280.090	17122
280.149	32622
280.208	25521
280.268	107809
280.327	132726
280.386	37815
280.445	23664
280.505	21092
280.564	10003
280.623	7810
280.682	11779
280.742	19819
280.801	8119
280.860	5411
280.919	5107
280.978	5225
281.037	3933
281.097	4746
281.156	5016
281.215	4536
281.274	3850
281.333	20409
281.392	19996
281.451	5290
281.510	4551
281.569	4430
281.628	4108
281.688	3217
281.747	4573
281.806	5271
281.865	4650
281.924	3391
281.983	3543
282.042	2151
282.101	3235
282.160	3841
282.219	2518
282.278	3637
282.337	12806
282.396	10876
282.454	4455
282.513	5756
282.572	19784
282.631	13766
282.690	5290
282.749	3829
282.808	5460
282.867	4517
282.926	5040
282.985	3459
283.043	3055
283.102	3278
283.161	4439
283.220	8337
283.279	24258
283.338	8442
283.396	5836
283.455	5249
283.514	5205
283.573	8823
283.631	7391
283.690	4633
283.749	3964
283.808	9401
283.866	12978
283.925	5930
283.984	5462
284.043	6690
284.101	7724
284.160	5464
284.219	7633
284.277	7558
284.336	9368
284.395	29579
284.453	28682
284.512	11667
284.570	13948
284.629	13688
284.688	14301
284.746	16316
284.805	18211
284.863	24212
284.922	32154
284.981	37645
285.039	51461
285.098	82527
285.156	162081
285.215	199139
285.273	195979
285.332	186895
285.390	111292
285.449	68879
285.507	45741
285.566	32669
285.624	26184
285.683	20339
285.741	16900
285.799	13888
285.858	12735
285.916	12741
285.975	9726
286.033	8119
286.091	7463
286.150	7132
286.208	6074
286.267	7363
286.325	6651
286.383	9894
286.442	9304
286.500	5729
286.558	5074
286.616	4537
286.675	6793
286.733	6449
286.791	4932
286.850	6318
286.908	7587
286.966	12811
287.024	6867
287.083	4967
287.141	3828
287.199	4976
287.257	7024
287.315	6411
287.374	5614
287.432	12463
287.490	9847
287.548	5341
287.606	5039
287.664	4401
287.723	6187
287.781	8339
287.839	5494
287.897	6426
287.955	9580
288.013	12030
288.071	22253
288.129	84966
288.187	243618
288.245	131348
288.303	42677
288.361	22833
288.419	14565
288.477	10868
288.535	7327
288.593	6202
288.651	5356
288.709	4424
288.767	4708
288.825	4500
288.883	4318
288.941	4239
288.999	3982
289.057	3103
289.115	2663
289.173	2840
289.231	3893
289.289	3949
289.346	4105
289.404	4045
289.462	6816
289.520	7906
289.578	4211
289.636	2510
289.694	2979
289.751	2806
289.809	2112
289.867	2914
289.925	3698
289.983	5440
290.040	2766
290.098	1989
290.156	3314
290.214	4782
290.271	2794
290.329	2350
290.387	2568
290.444	1823
290.502	498
290.560	2741
290.617	2449
290.675	2573
290.733	2215
290.790	3692
290.848	2280
290.906	2925
290.963	3453
291.021	3218
291.078	2506
291.136	2906
291.194	8944
291.251	24109
291.309	8366
291.366	3078
291.424	3266
291.481	2763
291.539	3157
291.596	4491
291.654	2326
291.711	1402
291.769	2210
291.826	6624
291.884	5834
291.941	2416
291.999	2792
292.056	3604
292.114	3555
292.171	2335
292.228	3671
292.286	3747
292.343	6479
292.401	9012
292.458	5968
292.515	4110
292.573	5628
292.630	5273
292.687	4269
292.745	3318
292.802	4421
292.859	11256
292.917	24015
292.974	15478
293.031	4353
293.089	3591
293.146	2750
293.203	2487
293.260	2276
293.318	3105
293.375	5289
293.432	3268
293.489	3685
293.546	3169
293.604	3878
293.661	11450
293.718	36333
293.775	19664
293.832	9420
293.889	8894
293.947	7645
294.004	4211
294.061	4606
294.118	9954
294.175	23389
294.232	27696
294.289	13157
294.346	6447
294.403	6330
294.460	3659
294.517	3721
294.574	2996
294.631	3634
294.688	3139
294.745	8400
294.802	36899
294.859	43270
294.916	17182
294.973	9014
295.030	8245
295.087	6550
295.144	4790
295.201	3943
295.258	3502
295.315	4620
295.372	14202
295.429	31102
295.486	14643
295.542	6961
295.599	15001
295.656	28324
295.713	19005
295.770	29564
295.827	12141
295.883	5697
295.940	5063
295.997	8992
296.054	9218
296.111	4029
296.167	3157
296.224	3641
296.281	2686
296.338	2800
296.394	3743
296.451	3558
296.508	11663
296.564	26310
296.621	15868
296.678	30482
296.734	48440
296.791	18971
296.848	9098
296.904	9825
296.961	20165
297.018	33021
297.074	27004
297.131	11310
297.187	7824
297.244	8181
297.301	27914
297.357	58832
297.414	22046
297.470	9385
297.527	5942
297.583	5701
297.640	5191
297.696	4082
297.753	2850
297.809	2977
297.866	2435
297.922	2315
297.979	2975
298.035	3419
298.092	7123
298.148	19101
298.204	21409
298.261	8715
298.317	12506
298.374	37543
298.430	25314
298.486	10819
298.543	7713
298.599	8992
298.656	11728
298.712	15437
298.768	38599
298.824	30991
298.881	10929
298.937	6690
298.993	5048
299.050	5992
299.106	5944
299.162	4725
299.218	5547
299.275	4102
299.331	3951
299.387	8006
299.443	32329
299.500	43026
299.556	20416
299.612	10026
299.668	8970
299.724	13703
299.780	16695
299.837	7298
299.893	9614
299.949	32228
300.005	42590
300.061	30773
300.117	55053
300.173	27957
300.229	12176
300.285	15365
300.341	17113
300.397	9375
300.453	5862
300.510	5226
300.566	6697
300.622	7277
300.678	24450
300.734	44041
300.790	33651
300.845	38139
300.901	26485
300.957	38661
301.013	29496
301.069	11506
301.125	7918
301.181	8275
301.237	7245
301.293	4233
301.349	4814
301.405	5333
301.461	6236
301.516	10552
301.572	7963
301.628	10355
301.684	9606
301.740	14029
301.796	26483
301.851	17255
301.907	25509
301.963	23392
302.019	32077
302.074	92145
302.130	100531
302.186	50832
302.242	21028
302.297	11969
302.353	11186
302.409	21993
302.464	21192
302.520	14655
302.576	34756
302.631	42994
302.687	26148
302.743	11748
302.798	7211
302.854	4987
302.910	5621
302.965	6080
303.021	12565
303.076	13247
303.132	14983
303.187	19015
303.243	11345
303.299	5752
303.354	4346
303.410	4463
303.465	3950
303.521	3668
303.576	3533
303.632	4675
303.687	9154
303.743	31301
303.798	28198
303.853	12476
303.909	7056
303.964	5496
304.020	7608
304.075	13675
304.130	11646
304.186	21837
304.241	23039
304.297	18318
304.352	10424
304.358	10008
304.407	6630
304.449	6024
304.463	5828
304.518	5534
304.539	5536
304.573	5533
304.629	3881
304.630	3940
304.684	6912
304.720	16615
304.739	21429
304.794	35020
304.811	30120
304.850	18369
304.902	8637
304.905	8030
304.960	6284
304.992	6384
305.015	6359
305.071	7104
305.083	6930
305.126	6293
305.173	3868
305.181	3481
305.236	3623
305.264	3742
305.292	3889
305.347	5071
305.354	5340
305.402	7152
305.445	7441
305.457	7476
305.512	8203
305.535	8070
305.567	7889
305.622	7070
305.626	7313
305.678	14064
305.716	29641
305.733	34818
305.788	40139
305.807	33992
305.843	24052
305.897	30182
305.898	30225
305.953	31704
305.988	21151
306.008	15554
306.063	9456
306.078	8702
306.118	7141
306.168	4298
306.173	4044
306.228	3959
306.259	3836
306.283	3847
306.338	3890
306.349	4040
306.393	4752
306.440	6051
306.448	6213
306.503	5744
306.530	5420
306.558	6275
306.613	13993
306.620	15110
306.668	22551
306.711	31494
306.723	32533
306.778	26800
306.801	20682
306.833	13888
306.888	6489
306.892	6250
306.943	4674
306.982	4161
306.997	3973
307.052	3745
307.072	3833
307.107	4286
307.162	4959
307.163	4982
307.217	7644
307.253	8930
307.272	9147
307.327	10226
307.343	9578
307.381	8315
307.434	7891
307.436	8105
307.491	15442
307.524	23972
307.546	26829
307.600	28389
307.614	25643
307.655	16299
307.704	9308
307.710	9018
307.765	9382
307.795	11120
307.819	13127
307.874	20494
307.885	20796
307.929	18402
307.975	15560
307.984	16231
308.038	23449
308.065	28892
308.093	52849
308.148	115671
308.156	129597
308.202	198044
308.246	242837
308.257	235425
308.312	128675
308.336	86123
308.366	64011
308.421	38972
308.426	36785
308.475	23961
308.517	17278
308.530	15888
308.585	13537
308.607	12802
308.639	12573
308.694	13203
308.697	13289
308.748	19328
308.787	26976
308.803	27350
308.857	22575
308.877	20220
308.912	19046
308.967	19982
308.967	20019
309.021	29433
309.058	37228
309.076	46868
309.130	81487
309.148	95012
309.185	169012
309.238	295114
309.239	296005
309.293	315630
309.328	295256
309.348	257665
309.402	131535
309.418	98540
309.457	68678
309.508	41656
309.511	41034
309.566	37271
309.598	37776
309.620	43622
309.674	63932
309.688	69719
309.729	69063
309.778	57070
309.783	55630
309.837	37807
309.868	29080
309.892	30294
309.946	37245
309.959	40339
310.001	49867
310.049	57502
310.055	55779
310.109	34087
310.139	21822
310.163	17602
310.218	11882
310.229	10906
310.272	8588
310.319	7016
310.326	6867
310.381	5869
310.409	5621
310.435	5674
310.489	5522
310.499	5553
310.543	5079
310.589	4633
310.598	4657
310.652	4784
310.679	4918
310.706	4651
310.760	3868
310.769	3738
310.814	3353
310.859	3225
310.868	3246
310.923	3320
310.948	3329
310.977	3565
311.031	4175
311.038	4257
311.085	4213
311.128	4032
311.139	4068
311.193	4352
311.218	4431
311.247	3981
311.301	3217
311.308	3127
311.356	3500
311.398	3780
311.410	3667
311.464	3130
311.488	2886
311.518	2869
311.572	2906
311.578	2918
311.626	4368
311.668	5682
311.680	5590
311.734	4971
311.758	4722
311.788	4500
311.842	4081
311.847	4043
311.896	5866
311.937	7504
311.950	7293
312.004	6274
312.027	5832
312.058	5048
312.112	3666
312.117	3534
312.165	3479
312.207	3449
312.297	4420
312.386	3911
312.476	4992
312.566	8188
312.656	4073
312.745	2821
312.835	3597
312.925	3862
313.015	3547
313.104	4248
313.194	3639
313.284	3369
313.374	5505
313.463	4313
313.553	4391
313.643	3503
313.732	3661
313.822	3182
313.912	4085
314.001	3958
314.091	5184
314.180	5303
314.270	5734
314.360	6024
314.449	5372
314.539	3476
314.628	3899
314.718	3891
314.808	5142
314.897	3169
314.987	4469
315.076	5299
315.166	6426
315.255	6080
315.345	5818
315.434	5622
315.524	5631
315.613	6402
315.703	10671
315.792	19577
315.881	71815
315.971	19739
316.060	11275
316.150	12436
316.239	12825
316.328	4776
316.418	3720
316.507	4208
316.597	5548
316.686	4645
316.775	6865
316.865	12332
316.954	4537
317.043	3189
317.133	3682
317.222	2733
317.311	3172
317.400	2518
317.490	6730
317.579	5730
317.668	5230
317.757	11028
317.847	35754
317.936	124478
318.025	35637
318.114	22533
318.203	10807
318.293	9227
318.382	16469
318.471	12049
318.560	17587
318.649	29765
318.738	6788
318.828	5542
318.917	6155
319.006	6126
319.095	17047
319.184	40936
319.273	22960
319.362	12336
319.451	5898
319.540	4286
319.629	12493
319.718	17778
319.807	7281
319.896	15720
319.985	52672
320.074	16821
320.163	4896
320.252	8032
320.341	7213
320.430	5770
320.519	9239
320.608	5216
320.697	4898
320.786	5117
320.875	6559
320.964	8866
321.053	14042
321.142	20415
321.230	19075
321.319	14925
321.408	32853
321.497	12638
321.586	14218
321.675	13312
321.764	13170
321.852	9307
321.941	19281
322.030	11424
322.119	13761
322.207	35096
322.296	19165
322.385	11144
322.474	16248
322.562	45859
322.651	19079
322.740	15658
322.829	20268
322.917	16932
323.006	12258
323.095	10446
323.183	6464
323.272	10153
323.361	20615
323.449	56971
323.538	17346
323.626	38619
323.715	20307
323.804	8519
323.892	34742
323.981	17988
324.069	5697
324.158	18441
324.246	16056
324.335	7377
324.424	11995
324.512	4472
324.601	5756
324.689	5328
324.778	8320
324.866	11913
324.954	3457
325.043	3598
325.131	7701
325.220	13713
325.308	14412
325.397	12225
325.485	7674
325.574	2802
325.662	3147
325.750	3689
325.839	3996
325.927	3017
326.015	3955
326.104	6017
326.192	7989
326.280	3036
326.369	3399
326.457	5800
326.545	10296
326.634	3583
326.722	2843
326.810	3133
326.898	3498
326.987	3514
327.075	9707
327.163	8788
327.251	3657
327.340	3416
327.428	4030
327.516	3020
327.604	3709
327.692	3067
327.781	3399
327.869	5864
327.957	4279
328.045	4339
328.133	2661
328.221	3159
328.309	3075
328.397	2587
328.485	3637
328.574	7292
328.662	23594
328.750	10857
328.838	4914
328.926	2985
329.014	2959
329.102	4130
329.190	11224
329.278	6537
329.366	2311
329.454	2403
329.542	3198
329.630	2559
329.718	3054
329.806	4397
329.893	4137
329.981	3534
330.069	6672
330.157	34540
330.245	99981
330.333	45448
330.421	6517
330.509	7809
330.597	27142
330.684	15306
330.772	5449
330.860	5987
330.948	7661
331.036	2994
331.123	1820
331.211	2404
331.299	3182
331.387	6475
331.475	12068
331.562	3800
331.650	2878
331.738	3263
331.825	4067
331.913	2032
332.001	2698
332.089	3225
332.176	5852
332.264	16268
332.352	11722
332.439	3700
332.527	2807
332.614	2761
332.702	4127
332.790	3091
332.877	8350
332.965	17737
333.052	6942
333.140	8219
333.228	21087
333.315	5083
333.403	3831
333.490	11072
333.578	10970
333.665	28893
333.753	11052
333.840	3260
333.928	5068
334.015	10684
334.103	18103
334.190	53322
334.278	12524
334.365	8820
334.452	7858
334.540	4147
334.627	4690
334.715	6576
334.802	13692
334.889	70940
334.977	68768
335.064	12137
335.151	5989
335.239	5489
335.326	6479
335.413	29229
335.501	33774
335.588	5332
335.675	4067
335.762	5440
335.850	9478
335.937	8534
336.024	21956
336.111	77288
336.199	35333
336.286	9463
336.373	5305
336.460	3629
336.547	3701
336.635	4444
336.722	4156
336.809	3262
336.896	5961
336.983	14905
337.070	37034
337.157	54045
337.245	41485
337.332	26458
337.419	4040
337.506	2439
337.593	3351
337.680	10606
337.767	30285
337.854	8145
337.941	10395
338.028	15640
338.115	4966
338.202	4999
338.289	11264
338.376	39674
338.463	11743
338.550	18851
338.637	17860
338.724	6933
338.811	11070
338.898	2333
338.984	2445
339.071	2804
339.158	4673
339.245	12408
339.332	7432
339.419	9334
339.506	8254
339.593	1094
339.679	3003
339.766	2328
339.853	3568
339.940	8595
340.027	3244
340.113	2762
340.200	4607
340.287	3268
340.374	4961
340.460	7457
340.547	2343
340.634	6710
340.720	27802
340.807	12983
340.894	2941
340.980	2850
341.067	3333
341.154	3793
341.240	5805
341.327	12171
341.414	5431
341.500	6960
341.587	3974
341.674	1684
341.760	8253
341.847	9834
341.933	3167
342.020	586
342.106	1703
342.193	3606
342.279	6242
342.366	5720
342.452	8800
342.539	4463
342.625	11124
342.712	27148
342.798	11360
342.885	3346
342.971	1501
343.058	1668
343.144	2294
343.230	2128
343.317	3535
343.403	1997
343.490	1726
343.576	2237
343.662	3100
343.749	3348
343.835	3152
343.921	7167
344.008	54222
344.094	118681
344.180	22399
344.267	8975
344.353	33983
344.439	31057
344.525	13195
344.612	6628
344.698	4456
344.784	2160
344.870	2536
344.957	2412
345.043	6397
345.129	3273
345.215	8080
345.301	4613
345.387	3039
345.474	1990
345.560	1582
345.646	1890
345.732	3716
345.818	3647
345.904	3923
345.990	2877
346.076	4345
346.162	6645
346.249	4047
346.335	1878
346.421	4813
346.507	15035
346.593	48914
346.679	8281
346.765	4257
346.851	3782
346.937	2786
347.023	2793
347.108	3791
347.194	2420
347.280	3569
347.366	3606
347.452	15900
347.538	60249
347.624	39967
347.710	29327
347.796	4348
347.882	2221
347.967	2247
348.053	3250
348.139	3143
348.225	1891
348.311	2763
348.397	2144
348.482	3573
348.568	4216
348.654	2039
348.740	5444
348.825	4376
348.911	6146
348.997	27404
349.083	51450
349.168	7107
349.254	3921
349.340	5103
349.425	1992
349.511	3798
349.597	3825
349.682	8472
349.768	33108
349.854	13001
349.939	3440
350.025	2217
350.110	2496
350.196	2036
350.282	901
350.367	2311
350.453	3951
350.538	4874
350.624	2937
350.709	2885
350.795	1633
350.880	2167
350.966	4140
351.051	5268
351.137	2943
351.222	3290
351.308	10197
351.393	28150
351.479	6828
351.564	3147
351.649	3278
351.735	2343
351.820	2076
351.906	2258
351.991	3311
352.076	18337
352.162	26236
352.247	4748
352.332	4185
352.418	8940
352.503	10318
352.588	39237
352.673	28239
352.759	6897
352.844	3057
352.929	3710
353.014	5486
353.100	4359
353.185	5431
353.270	9502
353.355	9960
353.441	3573
353.526	3566
353.611	9518
353.696	9891
353.781	6925
353.866	2464
353.952	3954
354.037	7906
354.122	19904
354.207	17552
354.292	6809
354.377	2770
354.462	2451
354.547	3753
354.632	3858
354.717	4952
354.802	6958
354.887	3039
354.972	2485
355.057	2103
355.142	2205
355.227	3219
355.312	5119
355.397	12692
355.482	32601
355.567	14342
355.652	10182
355.737	11934
355.822	38982
355.907	28389
355.991	5971
356.076	2452
356.161	2752
356.246	2108
356.331	2864
356.416	8134
356.501	67671
356.585	64027
356.670	8296
356.755	6461
356.840	8472
356.924	41639
357.009	153117
357.094	51018
357.179	11519
357.263	7655
357.348	7427
357.433	6619
357.517	5931
357.602	5533
357.687	4977
357.771	11505
357.856	43034
357.941	21820
358.025	32014
358.110	144999
358.195	61831
358.279	8028
358.364	6886
358.448	24945
358.533	70263
358.617	46968
358.702	48110
358.787	16487
358.871	9681
358.956	6952
359.040	3979
359.125	2982
359.209	3592
359.294	22004
359.378	35193
359.462	10712
359.547	4921
359.631	2408
359.716	1874
359.800	2905
359.885	4666
359.969	2267
360.053	3820
360.138	2944
360.222	5806
360.306	9196
360.391	8228
360.475	20934
360.559	43444
360.644	27364
360.728	17836
360.812	35832
360.896	97843
360.981	33455
361.065	15591
361.149	4899
361.233	4872
361.318	3272
361.402	5492
361.486	4279
361.570	3545
361.654	4416
361.739	12321
361.823	63183
361.907	96652
361.991	16030
362.075	9234
362.159	18534
362.243	15317
362.327	17466
362.411	24669
362.495	10794
362.580	5653
362.664	3938
362.748	4350
362.832	6879
362.916	11646
363.000	42990
363.084	105536
363.168	119425
363.252	25230
363.336	9251
363.420	11880
363.503	35852
363.587	40319
363.671	8066
363.755	6559
363.839	9431
363.923	5226
364.007	10970
364.091	11622
364.175	15970
364.258	65742
364.342	62673
364.426	94400
364.510	47059
364.594	17267
364.677	18210
364.761	85613
364.845	58476
364.929	16256
365.013	12149
365.096	11407
365.180	13163
365.264	16668
365.347	56690
365.431	23237
365.515	5262
365.598	3896
365.682	3922
365.766	4249
365.849	6093
365.933	4202
366.017	5718
366.100	3165
366.184	1669
366.267	3963
366.351	2715
366.435	2779
366.518	1430
366.602	2203
366.685	2905
366.769	3273
366.852	5266
366.936	9804
367.019	5937
367.103	3328
367.186	7215
367.270	2365
367.353	2054
367.436	3365
367.520	1873
367.603	4660
367.687	5197
367.770	11103
367.853	7009
367.937	24143
368.020	37659
368.104	7738
368.187	9006
368.270	11563
368.353	9035
368.437	12777
368.520	25416
368.603	16594
368.687	27301
368.770	50154
368.853	10988
368.936	9903
369.020	8637
369.103	3431
369.186	2122
369.269	2763
369.352	7404
369.436	10517
369.519	5206
369.602	1187
369.685	4171
369.768	2797
369.851	2382
369.934	2622
370.018	3195
370.101	8927
370.184	8033
370.267	4422
370.350	7979
370.433	13740
370.516	44138
370.599	67001
370.682	20336
370.765	25549
370.848	33779
370.931	62664
371.014	22527
371.097	3951
371.180	3641
371.263	3018
371.346	643
371.429	2548
371.511	2000
371.594	5678
371.677	9419
371.760	8642
371.843	8046
371.926	47704
372.009	107333
372.091	34382
372.174	23558
372.257	58464
372.340	21448
372.423	12525
372.505	14042
372.588	6088
372.671	19866
372.754	63079
372.836	30254
372.919	16193
373.002	29201
373.085	9428
373.167	9038
373.250	25776
373.332	55890
373.415	78338
373.498	155585
373.580	56607
373.663	91688
373.746	113082
373.828	21979
373.911	8709
373.993	8502
374.076	30298
374.159	26340
374.241	15650
374.324	51614
374.406	33393
374.489	45449
374.571	126576
374.654	48922
374.736	24056
374.819	77924
374.901	113467
374.983	115573
375.066	18862
375.148	7216
375.231	25069
375.313	47035
375.395	15908
375.478	4330
375.560	3720
375.643	5954
375.725	24822
375.807	102338
375.890	73854
375.972	23385
376.054	14227
376.136	20014
376.219	9674
376.301	30777
376.383	88925
376.465	32397
376.548	18064
376.630	24388
376.712	74614
376.794	33309
376.877	4875
376.959	2161
377.041	3941
377.123	4567
377.205	6769
377.287	871
377.369	2370
377.452	2662
377.534	2165
377.616	2776
377.698	2847
377.780	1831
377.862	3732
377.944	3024
378.026	1512
378.108	2598
378.190	1856
378.272	2163
378.354	2102
378.436	1267
378.518	3910
378.600	12383
378.682	12826
378.764	34377
378.846	27221
378.928	6908
379.010	9163
379.091	4938
379.173	2884
379.255	1955
379.337	4339
379.419	17084
379.501	50062
379.583	18566
379.664	5071
379.746	11817
379.828	33080
379.910	46216
379.991	40369
380.073	5585
380.155	5055
380.237	3283
380.318	3050
380.400	2771
380.482	8144
380.564	12189
380.645	10639
380.727	9922
380.809	6733
380.890	3639
380.972	2783
381.053	3540
381.135	5482
381.217	12212
381.298	35400
381.380	16637
381.461	15500
381.543	76353
381.624	91785
381.706	14227
381.787	6863
381.869	8751
381.951	32872
382.032	120556
382.113	74396
382.195	13454
382.276	11806
382.358	23057
382.439	65343
382.521	76524
382.602	116759
382.684	54444
382.765	99972
382.846	135079
382.928	218638
383.009	120589
383.090	90613
383.172	316817
383.253	443649
383.334	148251
383.416	115655
383.497	63269
383.578	37057
383.659	76470
383.741	280210
383.822	632393
383.903	323368
383.984	98494
384.066	131919
384.147	79473
384.228	18528
384.309	14004
384.390	11029
384.471	7741
384.553	7953
384.634	10714
384.715	11819
384.796	6671
384.877	9067
384.958	32909
385.039	39169
385.120	12186
385.201	6871
385.282	7596
385.363	8593
385.444	8463
385.525	16374
385.606	51200
385.687	43437
385.768	9574
385.849	12103
385.930	53907
386.011	90195
386.092	22503
386.173	6295
386.254	4389
386.335	5390
386.416	5367
386.496	21215
386.577	33140
386.658	11674
386.739	6248
386.820	6579
386.901	3783
386.981	6029
387.062	4587
387.143	9198
387.224	33816
387.304	30797
387.385	10967
387.466	6359
387.547	8666
387.627	6444
387.708	14854
387.789	61534
387.869	75762
387.950	19949
388.031	4286
388.111	2568
388.192	8024
388.273	11625
388.353	7030
388.434	4958
388.514	12823
388.595	59164
388.676	74179
388.756	32912
388.837	30950
388.917	18432
388.998	2977
389.078	4949
389.159	4473
389.239	2630
389.320	7109
389.400	5282
389.480	13869
389.561	36101
389.641	17484
389.722	6634
389.802	9988
389.883	16029
389.963	43361
390.043	25676
390.124	5822
390.204	12747
390.284	38402
390.365	24899
390.445	31645
390.525	122258
390.605	112766
390.686	24446
390.766	8139
390.846	6276
390.927	4357
391.007	3634
391.087	4928
391.167	5540
391.247	3241
391.328	5885
391.408	8116
391.488	6140
391.568	2389
391.648	5742
391.728	7727
391.808	8135
391.888	8685
391.969	21673
392.049	31256
392.129	14006
392.209	17312
392.289	42899
392.369	23415
392.449	14910
392.529	11501
392.609	12763
392.689	17219
392.769	45450
392.849	40474
392.929	31598
393.009	65023
393.089	61462
393.169	73254
393.248	237010
393.328	722654
393.408	757125
393.488	240751
393.568	70623
393.648	34731
393.728	22513
393.807	15221
393.887	14848
393.967	12195
394.047	12932
394.127	14883
394.206	26913
394.286	96366
394.366	400355
394.446	428283
394.525	103142
394.605	24823
394.685	16982
394.764	23599
394.844	35167
394.924	27954
395.003	11702
395.083	9132
395.163	8628
395.242	7345
395.322	8930
395.402	5814
395.481	9805
395.561	17566
395.640	43402
395.720	43738
395.799	47712
395.879	39785
395.958	38943
396.038	146200
396.117	518601
396.197	564094
396.276	169293
396.356	49896
396.435	30860
396.515	26109
396.594	31781
396.673	64682
396.753	238884
396.832	649481
396.912	481943
396.991	117423
397.070	34225
397.150	17162
397.229	15163
397.308	19520
397.388	31147
397.467	15989
397.546	7321
397.625	4597
397.705	8338
397.784	7440
397.863	4659
397.942	2965
398.022	3958
398.101	12113
398.180	31677
398.259	15460
398.338	6366
398.417	4126
398.497	3352
398.576	4098
398.655	1984
398.734	2909
398.813	2965
398.892	11159
398.971	33967
399.050	16101
399.129	2262
399.208	2076
399.287	2820
399.366	1554
399.445	1770
399.524	1743
399.603	1071
399.682	5113
399.761	14517
399.840	39192
399.919	29317
399.998	3966
400.077	988
400.156	49
400.235	3545
400.313	992
400.392	1831
400.471	16673
400.550	27990
400.629	6763
400.708	3313
400.786	2190
400.865	6496
400.944	5987
401.023	4652
401.102	216
401.180	715
401.259	1025
401.338	2168
401.416	3313
401.495	2505
401.574	2485
401.652	1447
401.731	3629
401.810	1629
401.888	752
401.967	836
402.046	1586
402.124	3693
402.203	2568
402.281	2899
402.360	2714
402.438	8689
402.517	4494
402.596	2096
402.674	1794
402.753	1541
402.831	1760
402.910	2617
402.988	10413
403.066	35623
403.145	19936
403.223	11999
403.302	27287
403.380	20115
403.459	18854
403.537	6725
403.615	2735
403.694	1364
403.772	2079
403.850	1164
403.929	632
404.007	54
404.085	3953
404.164	3834
404.242	1335
404.320	5301
404.398	11123
404.477	22584
404.555	92268
404.633	81666
404.711	12286
404.789	4914
404.868	1541
404.946	1209
405.024	684
405.102	892
405.180	361
405.258	-375
405.336	1540
405.415	749
405.493	3836
405.571	4178
405.649	920
405.727	234
405.805	3595
405.883	3081
405.961	2965
406.039	2087
406.117	775
406.195	4314
406.273	21163
406.351	77910
406.429	45136
406.507	4673
406.585	1335
406.663	2826
406.740	2832
406.818	2628
406.896	694
406.974	2420
407.052	5736
407.130	44799
407.208	62049
407.285	12035
407.363	1269
407.441	2077
407.519	2223
407.596	4898
407.674	27251
407.752	118661
407.830	91368
407.907	13268
407.985	2220
408.063	2370
408.141	642
408.218	2853
408.296	1199
408.373	1933
408.451	2073
408.529	1852
408.606	448
408.684	1093
408.762	816
408.839	1326
408.917	277
408.994	1278
409.072	190
409.149	1179
409.227	3878
409.304	4660
409.382	4032
409.459	5203
409.537	7642
409.614	6444
409.692	3867
409.769	5077
409.846	7756
409.924	10202
410.001	5171
410.079	3776
410.156	3054
410.233	3144
410.311	3171
410.388	1367
410.465	2422
410.543	1239
410.620	2128
410.697	2711
410.775	2442
410.852	949
410.929	3322
411.006	3997
411.083	1691
411.161	4258
411.238	4514
411.315	2523
411.392	1474
411.469	2764
411.547	1912
411.624	-562
411.701	400
411.778	2095
411.855	5032
411.932	2028
412.009	1439
412.086	1750
412.163	2078
412.240	1309
412.317	3083
412.394	1308
412.471	1381
412.548	776
412.625	1203
412.702	1438
412.779	3382
412.856	2857
412.933	-71
413.010	1237
413.087	2716
413.164	15099
413.241	21151
413.318	4697
413.395	3110
413.471	3902
413.548	1496
413.625	1205
413.702	1358
413.779	1041
413.855	60
413.932	491
414.009	-533
414.086	561
414.162	-246
414.239	3050
414.316	15289
414.393	35058
414.469	11450
414.546	703
414.623	169
414.699	1110
414.776	965
414.853	879
414.929	794
415.006	1080
415.082	579
415.159	476
415.236	1059
415.312	1744
415.389	3846
415.465	4628
415.542	1651
415.618	382
415.695	3108
415.771	1880
415.848	2383
415.924	1384
416.000	-404
416.077	1301
416.153	-766
416.230	107
416.306	425
416.383	143
416.459	1350
416.535	817
416.612	232
416.688	576
416.764	210
416.841	283
416.917	787
416.993	1190
417.069	1266
417.146	2010
417.222	2575
417.298	1619
417.374	-340
417.451	1632
417.527	1385
417.603	2191
417.679	830
417.755	1091
417.831	-28
417.908	1038
417.984	220
418.060	794
418.136	2611
418.212	5451
418.288	1781
418.364	991
418.440	5
418.516	2744
418.592	2257
418.668	6479
418.744	10095
418.820	7606
418.896	1287
418.972	416
419.048	588
419.124	4374
419.200	2736
419.276	1040
419.352	-370
419.428	703
419.504	651
419.579	2025
419.655	1599
419.731	1297
419.807	6283
419.883	11932
419.959	8337
420.034	2733
420.110	4810
420.186	21178
420.262	16542
420.337	2909
420.413	1913
420.489	1084
420.565	1806
420.640	660
420.716	1888
420.792	292
420.867	1236
420.943	1075
421.019	2636
421.094	3668
421.170	1469
421.245	430
421.321	2096
421.397	3391
421.472	21562
421.548	72862
421.623	40570
421.699	6601
421.774	3700
421.850	3322
421.925	6663
422.001	5992
422.076	4101
422.152	7251
422.227	10049
422.302	13514
422.378	20372
422.453	40307
422.529	102310
422.604	268796
422.679	391162
422.755	275997
422.830	103170
422.905	40865
422.981	21636
423.056	14335
423.131	9426
423.207	7657
423.282	6403
423.357	10094
423.432	6320
423.508	6481
423.583	11506
423.658	9487
423.733	3227
423.808	3477
423.883	4235
423.959	4636
424.034	4143
424.109	2741
424.184	1418
424.259	1489
424.334	875
424.409	274
424.484	88
424.559	1490
424.634	1623
424.709	2584
424.784	2693
424.859	1982
424.934	3014
425.009	14283
425.084	24747
425.159	8375
425.234	1770
425.309	1764
425.384	11358
425.459	18856
425.534	4272
425.609	870
425.683	-26
425.758	1651
425.833	440
425.908	2205
425.983	8258
426.058	25483
426.132	10919
426.207	1650
426.282	2195
426.357	1597
426.431	703
426.506	1440
426.581	158
426.655	491
426.730	589
426.805	362
426.879	1469
426.954	1256
427.029	3505
427.103	26395
427.178	65746
427.253	27447
427.327	2590
427.402	5334
427.476	17444
427.551	7744
427.625	825
427.700	1520
427.774	-246
427.849	1865
427.923	8
427.998	851
428.072	711
428.147	5688
428.221	29541
428.296	89989
428.370	45869
428.444	4093
428.519	2288
428.593	5706
428.667	4319
428.742	7027
428.816	10544
428.890	55091
428.965	91083
429.039	25717
429.113	7133
429.188	3037
429.262	733
429.336	3657
429.410	10322
429.485	6705
429.559	4378
429.633	4186
429.707	1762
429.781	8659
429.855	51624
429.930	80273
430.004	28029
430.078	29677
430.152	40219
430.226	116736
430.300	115932
430.374	16574
430.448	4322
430.522	11089
430.596	29408
430.670	27806
430.744	92096
430.818	122307
430.892	21424
430.966	2805
431.040	121
431.114	205
431.188	-589
431.262	43
431.336	-293
431.410	2874
431.484	7452
431.557	5536
431.631	1206
431.705	1974
431.779	19596
431.853	81266
431.927	53739
432.000	5952
432.074	1276
432.148	1360
432.222	386
432.295	489
432.369	-259
432.443	2478
432.516	25652
432.590	65494
432.664	22042
432.737	1440
432.811	-786
432.885	-781
432.958	-234
433.032	-688
433.106	-509
433.179	-584
433.253	-300
433.326	-79
433.400	-336
433.473	-541
433.547	-1333
433.620	473
433.694	1214
433.767	2270
433.841	306
433.914	-508
433.988	555
434.061	179
434.134	-361
434.208	-728
434.281	-1012
434.355	-625
434.428	-26
434.501	492
434.575	-564
434.648	53
434.721	-1238
434.795	-701
434.868	-1202
434.941	-521
435.014	-748
435.088	166
435.161	1312
435.234	3218
435.307	3141
435.381	1654
435.454	2559
435.527	3709
435.600	2963
435.673	2724
435.746	1633
435.819	974
435.892	555
435.966	421
436.039	-68
436.112	723
436.185	-1071
436.258	-416
436.331	-1072
436.404	-294
436.477	-775
436.550	-920
436.623	-261
436.696	97
436.769	121
436.842	141
436.915	-369
436.987	631
437.060	-61
437.133	553
437.206	-1117
437.279	-76
437.352	-798
437.425	-208
437.498	-395
437.570	2185
437.643	1816
437.716	-117
437.789	-274
437.861	1331
437.934	4819
438.007	2270
438.080	-835
438.152	687
438.225	3565
438.298	36551
438.370	96823
438.443	35949
438.516	5536
438.588	-9
438.661	-980
438.734	241
438.806	2
438.879	920
438.951	393
439.024	2054
439.096	395
439.169	202
439.241	-982
439.314	-391
439.386	-131
439.459	2120
439.531	2586
439.604	739
439.676	-98
439.749	-1103
439.821	-945
439.893	373
439.966	-410
440.038	175
440.110	595
440.183	-475
440.255	-71
440.327	1360
440.400	13289
440.472	57053
440.544	35934
440.617	3073
440.689	1767
440.761	3046
440.833	4176
440.905	2597
440.978	-683
441.050	-205
441.122	109
441.194	-869
441.266	-246
441.338	-216
441.411	1624
441.483	16294
441.555	23479
441.627	4059
441.699	800
441.771	1170
441.843	-418
441.915	632
441.987	112
442.059	377
442.131	116
442.203	1117
442.275	1540
442.347	2979
442.419	6449
442.491	42749
442.563	98147
442.635	37878
442.706	9922
442.778	7547
442.850	1489
442.922	1184
442.994	805
443.066	2007
443.137	1985
443.209	1904
443.281	3154
443.353	10038
443.425	52673
443.496	182641
443.568	171160
443.640	57982
443.711	9120
443.783	2834
443.855	1989
443.926	1230
443.998	424
444.070	1460
444.141	762
444.213	1924
444.285	3353
444.356	2551
444.428	2115
444.499	291
444.571	36
444.642	635
444.714	327
444.785	2796
444.857	1737
444.928	5116
445.000	3341
445.071	4238
445.143	4738
445.214	3650
445.285	7887
445.357	27087
445.428	118913
445.500	261533
445.571	155736
445.642	80464
445.714	23812
445.785	11785
445.856	4867
445.928	3732
445.999	2397
446.070	2029
446.141	1745
446.213	2869
446.284	864
446.355	1139
446.426	-122
446.497	396
446.569	927
446.640	3930
446.711	2982
446.782	-124
446.853	705
446.924	1026
446.995	401
447.066	885
447.138	1085
447.209	1132
447.280	-979
447.351	-246
447.422	-901
447.493	105
447.564	142
447.635	1633
447.706	97
447.777	-189
447.847	-371
447.918	-1211
447.989	251
448.060	849
448.131	3110
448.202	2791
448.273	2108
448.344	684
448.414	-45
448.485	-61
448.556	-119
448.627	-773
448.698	-97
448.768	-718
448.839	-760
448.910	778
448.981	1299
449.051	11
449.122	-1182
449.193	-9
449.263	192
449.334	130
449.405	796
449.475	3519
449.546	1180
449.616	1643
449.687	1153
449.758	477
449.828	-729
449.899	-371
449.969	-1464
450.040	24
450.110	595
450.181	587
450.251	-34
450.322	-312
450.392	-709
450.463	158
450.533	-1119
450.604	-402
450.674	-1404
450.744	107
450.815	-681
450.885	565
450.955	-281
451.026	-86
451.096	-876
451.166	30
451.237	1164
451.307	4938
451.377	1924
451.447	-641
451.518	-477
451.588	-942
451.658	-526
451.728	1544
451.799	4932
451.869	6700
451.939	276
452.009	-229
452.079	-827
452.149	490
452.219	1404
452.289	6261
452.360	4371
452.430	290
452.500	338
452.570	1874
452.640	4365
452.710	11198
452.780	13206
452.850	9823
452.920	7330
452.990	2384
453.060	1267
453.129	1639
453.199	1525
453.269	9080
453.339	19093
453.409	29153
453.479	27270
453.549	38798
453.619	38743
453.688	15467
453.758	1521
453.828	987
453.898	-73
453.968	-545
454.037	-285
454.087	218
454.107	402
454.168	-122
454.177	-228
454.247	128
454.249	103
454.316	-1182
454.330	-1005
454.386	-541
454.411	617
454.456	2272
454.492	3632
454.525	4830
454.574	2341
454.595	1242
454.655	485
454.665	368
454.734	737
454.736	845
454.804	2825
454.817	3625
454.873	6086
454.898	6451
454.943	7016
454.979	4429
455.013	2238
455.060	1636
455.082	1513
455.141	1880
455.152	1876
455.221	6137
455.222	6305
455.291	11280
455.303	12308
455.360	16118
455.384	23880
455.430	36633
455.465	27503
455.499	19294
455.546	11380
455.569	7428
455.627	5232
455.638	4891
455.707	418
455.708	444
455.777	1628
455.789	1561
455.846	909
455.869	842
455.916	745
455.950	723
455.985	609
456.031	902
456.054	1032
456.112	818
456.124	753
456.193	1304
456.193	1279
456.262	1414
456.274	1598
456.332	2205
456.355	1926
456.401	1236
456.436	1456
456.470	1612
456.516	824
456.540	486
456.597	662
456.609	633
456.678	1151
456.678	1133
456.747	912
456.759	845
456.817	463
456.840	687
456.886	986
456.920	955
456.955	1083
457.001	1573
457.024	1738
457.082	1777
457.093	1740
457.162	2356
457.163	2384
457.232	2336
457.243	2330
457.301	2309
457.324	1810
457.370	1164
457.405	1932
457.439	2564
457.485	2284
457.508	2232
457.566	3396
457.577	3701
457.646	4480
457.647	4529
457.715	9281
457.727	10366
457.784	16434
457.808	20568
457.853	23787
457.889	26288
457.922	25963
457.969	18852
457.991	19909
458.050	25370
458.060	26259
458.129	42598
458.130	43090
458.198	34691
458.211	30384
458.267	17664
458.292	12156
458.336	9190
458.372	9772
458.405	14349
458.453	22820
458.474	28387
458.533	47916
458.543	48551
458.611	64494
458.614	64720
458.680	35612
458.694	26718
458.749	12347
458.775	9175
458.818	5919
458.855	4548
458.887	3667
458.936	3374
458.955	3373
459.016	3450
459.024	3494
459.093	4604
459.097	4650
459.162	4757
459.177	4694
459.230	4688
459.257	5109
459.299	5392
459.338	5485
459.368	5668
459.418	5685
459.437	5254
459.499	4254
459.505	4226
459.574	3519
459.579	3510
459.643	3539
459.659	3501
459.711	3764
459.740	3889
459.780	3888
459.820	4282
459.849	4393
459.900	4345
459.917	4480
459.981	4777
459.986	4718
460.054	4687
460.061	4666
460.123	4994
460.141	5144
460.191	5661
460.222	5875
460.260	6215
460.302	6916
460.328	6613
460.382	5706
460.397	6071
460.462	7618
460.465	8024
460.534	17910
460.543	19278
460.602	48622
460.623	59772
460.671	90120
460.703	119576
460.739	102471
460.783	68085
460.808	57448
460.864	14228
460.876	10245
460.944	5541
460.945	5481
461.013	5459
461.024	5360
461.081	5525
461.104	6019
461.150	6024
461.184	5305
461.218	5021
461.264	5187
461.286	5179
461.345	5035
461.355	5038
461.423	5594
461.425	5588
461.491	5597
461.505	5707
461.559	9211
461.585	10834
461.628	13990
461.665	17339
461.696	17579
461.745	18401
461.764	16352
461.825	7421
461.832	7345
461.901	6130
461.905	6145
461.969	4945
461.985	4693
462.037	5753
462.065	6210
462.105	6437
462.145	6813
462.173	8281
462.225	11343
462.241	12045
462.305	14531
462.310	14146
462.378	8696
462.385	7897
462.446	6641
462.465	6423
462.514	6334
462.545	6300
462.582	6475
462.625	6985
462.650	6633
462.705	5579
462.718	5758
462.785	6737
462.786	6761
462.854	8022
462.865	8258
462.922	9140
462.945	9405
462.990	7601
463.025	6085
463.058	5877
463.104	5485
463.126	5352
463.184	5368
463.194	5562
463.262	6643
463.264	6682
463.330	6693
463.344	6643
463.398	6615
463.424	6656
463.466	6341
463.504	6080
463.533	6543
463.583	7193
463.601	7415
463.663	7915
463.669	7922
463.737	8306
463.743	8324
463.805	12641
463.823	13941
463.873	18448
463.903	21168
463.940	20384
463.982	19768
464.008	16549
464.062	8891
464.076	8620
464.142	6756
464.144	6742
464.211	6505
464.221	6496
464.279	6748
464.301	6799
464.347	7491
464.381	8184
464.414	8868
464.461	9556
464.482	10126
464.540	11811
464.550	11967
464.617	12709
464.620	12719
464.685	12040
464.699	11854
464.753	14086
464.779	15209
464.820	16207
464.859	17118
464.888	16024
464.938	14085
464.956	14297
465.018	14593
465.023	14561
465.091	14017
465.098	13941
465.158	13848
465.177	13833
465.226	13919
465.257	13906
465.293	13560
465.336	13040
465.361	13953
465.416	15915
465.428	16450
465.495	19519
465.496	19600
465.563	26907
465.575	28196
465.631	29762
465.654	30399
465.698	21131
465.734	13086
465.765	12821
465.813	12320
465.833	12193
465.893	12113
465.900	12071
465.968	11408
465.972	11341
466.035	12720
466.052	13076
466.102	13579
466.131	13805
466.170	13377
466.210	12844
466.237	13577
466.290	15041
466.304	15159
466.369	15356
466.372	15418
466.439	16486
466.449	16596
466.506	17308
466.528	17542
466.573	21467
466.607	24333
466.641	31407
466.687	41180
466.708	42855
466.766	47289
466.775	44499
466.842	22790
466.845	21713
466.909	19103
466.925	18473
466.977	18620
467.004	18663
467.044	19082
467.083	19445
467.111	20831
467.163	23307
467.178	24097
467.242	27154
467.245	26996
467.312	22551
467.321	21915
467.379	21302
467.400	21015
467.446	21823
467.480	22328
467.559	20263
467.638	18513
467.717	19545
467.796	20374
467.875	20630
467.955	19652
468.034	27112
468.113	45822
468.192	56184
468.271	22602
468.350	22287
468.429	25734
468.508	26381
468.588	20139
468.667	17233
468.746	16985
468.825	16243
468.904	15763
468.983	18026
469.062	22699
469.141	23660
469.220	15029
469.299	15680
469.378	18432
469.456	22211
469.535	19112
469.614	17819
469.693	18194
469.772	21566
469.851	26589
469.930	20314
470.009	18491
470.088	19055
470.166	23421
470.245	30019
470.324	33731
470.403	23657
470.482	18439
470.560	16962
470.639	17387
470.718	19119
470.797	16751
470.875	18175
470.954	20624
471.033	21851
471.111	13493
471.190	14110
471.269	13869
471.347	13477
471.426	16140
471.505	16956
471.583	18479
471.662	18308
471.740	16044
471.819	15532
471.898	15428
471.976	14714
472.055	16269
472.133	16324
472.212	21103
472.290	19079
472.369	15099
472.447	14270
472.526	12780
472.604	15172
472.683	16306
472.761	15678
472.839	15143
472.918	14264
472.996	14895
473.075	15590
473.153	15671
473.231	13143
473.310	16337
473.388	16776
473.466	14963
473.545	18489
473.623	20967
473.701	20558
473.780	15862
473.858	13868
473.936	17124
474.014	14812
474.093	17104
474.171	20113
474.249	22374
474.327	16285
474.405	13513
474.484	13318
474.562	14132
474.640	12726
474.718	14676
474.796	14901
474.874	14380
474.952	12608
475.030	13414
475.108	13675
475.187	17249
475.265	16330
475.343	21224
475.421	21427
475.499	14168
475.577	15091
475.655	16113
475.733	24848
475.811	35339
475.889	31243
475.966	20371
476.044	13125
476.122	16307
476.200	18454
476.278	13964
476.356	11589
476.434	14325
476.512	14943
476.590	18061
476.667	15538
476.745	12430
476.823	14543
476.901	12670
476.979	12812
477.056	12872
477.134	12768
477.212	13777
477.290	12503
477.367	10851
477.445	11368
477.523	10947
477.601	11296
477.678	11548
477.756	13292
477.834	13013
477.911	10913
477.989	12378
478.066	11666
478.144	13564
478.222	14909
478.299	21219
478.377	18069
478.454	12542
478.532	10910
478.609	11101
478.687	11586
478.764	11124
478.842	11836
478.919	12862
478.997	11603
479.074	10718
479.152	11037
479.229	14193
479.307	9615
479.384	9477
479.461	10095
479.539	11102
479.616	11981
479.694	10219
479.771	10887
479.848	11798
479.926	12107
480.003	13940
480.080	10385
480.157	9988
480.235	9629
480.312	9771
480.389	11404
480.467	14387
480.544	17247
480.621	12351
480.698	11591
480.775	12611
480.853	11653
480.930	10675
481.007	11873
481.084	14975
481.161	19076
481.238	14506
481.315	9848
481.392	10105
481.470	9847
481.547	10078
481.624	9714
481.701	10464
481.778	10863
481.855	11604
481.932	15239
482.009	21645
482.086	14828
482.163	11943
482.240	16998
482.317	24248
482.393	17514
482.470	11413
482.547	10636
482.624	10235
482.701	10138
482.778	10057
482.855	9061
482.932	9694
483.009	10033
483.085	13476
483.162	16667
483.239	16101
483.316	11093
483.393	10832
483.469	10833
483.546	11471
483.623	11697
483.699	10279
483.776	10462
483.853	11993
483.930	15999
484.006	32993
484.083	51921
484.160	44636
484.236	68196
484.313	47858
484.389	37171
484.466	34202
484.543	33380
484.619	34125
484.696	37380
484.772	34688
484.849	34455
484.925	31369
485.002	30347
485.078	32980
485.155	31206
485.231	28897
485.308	27875
485.384	28187
485.461	32985
485.537	42061
485.614	42936
485.690	27306
485.766	26872
485.843	29334
485.919	36523
485.995	35116
486.072	25243
486.148	25755
486.224	25386
486.301	25891
486.377	28502
486.453	28371
486.530	31220
486.606	40180
486.682	41743
486.758	42128
486.835	42031
486.911	39327
486.987	54175
487.063	62398
487.139	75190
487.215	57455
487.292	35241
487.368	31346
487.444	34897
487.520	44273
487.596	46807
487.672	83439
487.748	202681
487.824	255505
487.900	73534
487.976	37431
488.052	33815
488.128	36504
488.204	29093
488.280	26499
488.356	31060
488.432	44589
488.508	55313
488.584	28025
488.660	25047
488.736	24694
488.812	25587
488.888	32031
488.964	42325
489.039	76533
489.115	100404
489.191	53021
489.267	25243
489.343	22903
489.418	21516
489.494	21769
489.570	20331
489.646	23409
489.722	21338
489.797	21359
489.873	28738
489.949	45911
490.024	34714
490.100	19803
490.176	21360
490.251	24540
490.327	28496
490.403	20378
490.478	19726
490.554	16911
490.629	18735
490.705	17875
490.781	19961
490.856	17467
490.932	21014
491.007	20042
491.083	19399
491.158	17329
491.234	23426
491.309	35828
491.385	32247
491.460	17721
491.536	19057
491.611	18112
491.686	19917
491.762	24998
491.837	47763
491.913	71439
491.988	99505
492.063	104859
492.139	28464
492.214	21606
492.289	16371
492.365	15464
492.440	17860
492.515	16669
492.590	16193
492.666	14136
492.741	19216
492.816	22700
492.891	15546
492.967	15546
493.042	13888
493.117	14702
493.192	16147
493.267	29338
493.342	69834
493.418	80150
493.493	17363
493.568	13219
493.643	14445
493.718	16557
493.793	20677
493.868	24224
493.943	16976
494.018	14659
494.093	12038
494.168	13949
494.243	12029
494.318	11745
494.393	11733
494.468	12592
494.543	12178
494.618	14957
494.693	12092
494.768	12157
494.842	13013
494.917	12129
494.992	12994
495.067	12338
495.142	12189
495.217	13030
495.292	13801
495.366	15581
495.441	16480
495.516	21360
495.591	33657
495.665	104357
495.740	196636
495.815	57436
495.890	16830
495.964	12986
496.039	17796
496.114	17808
496.188	23733
496.263	20951
496.338	14156
496.412	16058
496.487	18436
496.561	19926
496.636	19199
496.710	17308
496.785	18620
496.860	19615
496.934	15855
497.009	16725
497.083	15598
497.158	17190
497.232	19898
497.307	23184
497.381	21746
497.455	25488
497.530	26949
497.604	23091
497.679	25406
497.753	36011
497.827	43487
497.902	42608
497.976	50494
498.050	107570
498.125	307963
498.199	238525
498.273	61675
498.348	53851
498.422	44292
498.496	41201
498.570	35069
498.645	27116
498.719	23851
498.793	26600
498.867	33579
498.941	48095
499.016	136012
499.090	283571
499.164	70815
499.238	18410
499.312	18398
499.386	23303
499.460	19782
499.534	18415
499.609	21789
499.683	25554
499.757	24629
499.831	63434
499.905	201065
499.979	137535
500.053	26271
500.127	28421
500.201	22912
500.275	16825
500.349	15348
500.422	18860
500.496	28781
500.570	59481
500.644	123050
500.718	174723
500.792	31240
500.866	16225
500.940	17931
501.013	14819
501.087	16788
501.161	30474
501.235	33694
501.309	69959
501.382	172264
501.456	112648
501.530	33839
501.603	48635
501.677	18651
501.751	11037
501.825	15491
501.898	28905
501.972	64977
502.046	32023
502.119	15166
502.193	35080
502.266	67882
502.340	28145
502.413	35193
502.487	54044
502.561	28922
502.634	12592
502.708	12699
502.781	11392
502.855	10887
502.928	8606
503.002	9370
503.075	9277
503.149	9868
503.222	10306
503.295	10113
503.369	12953
503.442	18198
503.516	56359
503.589	110178
503.662	60271
503.736	27335
503.809	57264
503.882	45023
503.956	77668
504.029	73183
504.102	112751
504.175	130545
504.249	40058
504.322	21113
504.395	14857
504.468	11473
504.542	10868
504.615	8116
504.688	9885
504.761	7702
504.834	11957
504.907	14656
504.980	21072
505.053	10980
505.127	15361
505.200	16079
505.273	11582
505.346	8080
505.419	6947
505.492	8342
505.565	6990
505.638	6499
505.711	6661
505.784	6887
505.857	6928
505.930	8704
506.003	6191
506.076	9151
506.149	9508
506.221	9681
506.294	12585
506.367	31630
506.440	89084
506.513	34745
506.586	12115
506.659	7367
506.731	8230
506.804	10069
506.877	13053
506.950	8653
507.022	7777
507.095	8060
507.168	11051
507.241	8674
507.313	6406
507.386	6957
507.459	12266
507.531	7917
507.604	6747
507.677	7141
507.749	5301
507.822	11434
507.894	24539
507.967	26604
508.040	15264
508.112	13900
508.185	13748
508.257	11983
508.330	18014
508.402	11202
508.475	11299
508.547	12137
508.620	13311
508.692	15097
508.765	11543
508.837	9237
508.909	10253
508.982	9438
509.054	11453
509.127	9689
509.199	9811
509.271	7917
509.344	8931
509.416	9025
509.488	9031
509.560	10329
509.633	11431
509.705	11469
509.777	10993
509.849	14743
509.922	10441
509.994	8860
510.066	11461
510.138	12477
510.210	26976
510.283	20282
510.355	17777
510.427	15060
510.499	13545
510.571	13463
510.643	14631
510.715	23108
510.787	15706
510.859	14786
510.931	16255
511.003	21158
511.076	18779
511.148	12896
511.219	12955
511.291	17372
511.363	17229
511.435	11368
511.507	10711
511.579	12475
511.651	13037
511.723	11704
511.795	10641
511.867	10619
511.939	14643
512.010	20138
512.082	16796
512.154	10948
512.226	13142
512.298	22139
512.369	26900
512.441	20613
512.513	19552
512.585	14846
512.656	16636
512.728	16803
512.800	14192
512.871	14651
512.943	13758
513.015	12163
513.086	14074
513.158	14400
513.230	13506
513.301	19391
513.373	20321
513.444	13314
513.516	11870
513.588	12523
513.659	15188
513.731	16431
513.802	14463
513.874	30435
513.945	41513
514.016	14927
514.088	12576
514.159	13978
514.231	20024
514.302	24693
514.374	18435
514.445	16605
514.516	27480
514.588	17739
514.659	15940
514.730	22606
514.802	20448
514.873	19359
514.944	20400
515.016	17534
515.087	18646
515.158	21440
515.229	24845
515.301	22041
515.372	27475
515.443	16811
515.514	14551
515.585	11974
515.656	13924
515.728	12897
515.799	12868
515.870	14731
515.941	14758
516.012	15831
516.083	22108
516.154	21136
516.225	25974
516.296	24008
516.367	22146
516.438	24519
516.509	32671
516.580	57616
516.651	199264
516.722	531934
516.793	157932
516.864	38121
516.935	35886
517.006	45504
517.077	70259
517.148	190621
517.219	687884
517.289	753574
517.360	150477
517.431	42947
517.502	23650
517.573	23045
517.643	22922
517.714	26574
517.785	25986
517.856	26816
517.926	31965
517.997	33871
518.068	42610
518.138	61740
518.209	122818
518.280	488153
518.350	1260680
518.421	355587
518.492	50167
518.562	34564
518.633	34017
518.703	38849
518.774	78443
518.845	181063
518.915	138121
518.986	41779
519.056	31453
519.127	45454
519.197	62806
519.268	107896
519.338	51818
519.408	23828
519.479	29124
519.549	18247
519.620	16289
519.690	13077
519.760	13562
519.831	13653
519.901	13040
519.971	13617
520.042	12397
520.112	13985
520.182	18771
520.253	19388
520.323	17476
520.393	36780
520.463	50323
520.534	41012
520.604	75427
520.674	24145
520.744	31442
520.814	94095
520.885	53405
520.955	43896
521.025	111123
521.095	31809
521.165	12552
521.235	10833
521.305	9902
521.375	11536
521.445	13992
521.515	15057
521.585	20355
521.655	15315
521.725	15699
521.795	12533
521.865	9274
521.935	16889
522.005	11918
522.075	9640
522.145	12318
522.215	12074
522.285	15477
522.355	19400
522.424	30345
522.494	24054
522.564	19889
522.634	44208
522.704	100587
522.774	26498
522.843	12362
522.913	11974
522.983	14644
523.053	10651
523.122	13046
523.192	19673
523.262	57953
523.331	37866
523.401	11894
523.471	9448
523.540	10936
523.610	7652
523.680	8816
523.749	9660
523.819	12868
523.888	10866
523.958	8164
524.027	10499
524.097	9956
524.166	9845
524.236	10542
524.305	11639
524.375	9359
524.444	7949
524.514	10679
524.583	9825
524.653	10809
524.722	12541
524.791	8983
524.861	10308
524.930	8620
524.999	9627
525.069	13169
525.138	11024
525.207	12253
525.277	10058
525.346	10777
525.415	10496
525.484	11795
525.554	12219
525.623	14987
525.692	16677
525.761	16092
525.830	17863
525.900	21513
525.969	34225
526.038	61011
526.107	145406
526.176	351471
526.245	225340
526.314	82653
526.383	197669
526.452	230312
526.522	422580
526.591	297178
526.660	67298
526.729	38929
526.797	52917
526.867	127616
526.935	455017
527.004	803670
527.073	320768
527.142	31220
527.211	17640
527.280	18608
527.349	15384
527.418	10089
527.487	11157
527.555	9835
527.624	8679
527.693	8157
527.762	9557
527.831	7250
527.899	9024
527.968	8015
528.037	6711
528.106	11810
528.174	17306
528.243	13412
528.312	20331
528.380	19651
528.449	7880
528.518	8956
528.586	5490
528.655	7950
528.723	7756
528.792	6269
528.861	7112
528.929	6076
528.998	8889
529.066	9742
529.135	11584
529.203	12387
529.272	14676
529.340	17734
529.409	16429
529.477	15201
529.545	16121
529.614	20587
529.682	22437
529.751	23046
529.819	28395
529.887	23246
529.956	19852
530.024	19786
530.092	18355
530.161	20051
530.229	24244
530.297	20216
530.365	19386
530.434	21647
530.502	19546
530.570	18713
530.638	15368
530.707	17785
530.775	17660
530.843	16193
530.911	16870
530.979	19138
531.047	19949
531.115	18885
531.183	17370
531.252	17406
531.320	16022
531.388	16302
531.456	18338
531.524	19266
531.592	21007
531.660	23524
531.728	19302
531.796	18918
531.864	19535
531.932	19878
532.000	20072
532.067	20822
532.135	22977
532.203	27278
532.271	25665
532.339	33420
532.407	54333
532.475	32851
532.542	24948
532.610	28590
532.678	40530
532.746	124238
532.814	197773
532.881	49457
532.949	25666
533.017	22697
533.084	21129
533.152	20211
533.220	19324
533.287	21942
533.355	21283
533.423	23041
533.490	20878
533.558	21228
533.625	20489
533.693	20907
533.761	20517
533.828	20390
533.896	20845
533.963	30059
534.031	32064
534.098	40180
534.166	24179
534.233	19787
534.300	21951
534.368	20602
534.435	20254
534.503	22585
534.570	26522
534.637	22914
534.705	24959
534.772	30484
534.840	53492
534.907	188214
534.974	164470
535.041	26122
535.109	18668
535.176	17356
535.243	17465
535.310	18146
535.378	15950
535.445	16323
535.512	15790
535.579	16396
535.646	14798
535.714	16286
535.781	18811
535.848	18814
535.915	18439
535.982	16675
536.049	16278
536.116	17095
536.183	14724
536.250	14261
536.317	15002
536.384	17562
536.451	20732
536.518	21645
536.585	15792
536.652	21301
536.719	25251
536.786	18117
536.853	17816
536.920	23473
536.987	30068
537.053	36473
537.120	122465
537.187	68683
537.254	15217
537.321	14721
537.388	15565
537.454	13493
537.521	12690
537.588	12809
537.654	15639
537.721	16734
537.788	15815
537.855	13449
537.921	13807
537.988	14022
538.055	14834
538.121	12124
538.188	14970
538.254	18926
538.321	29097
538.388	18893
538.454	13467
538.521	13864
538.587	13122
538.654	13406
538.720	12228
538.787	13099
538.853	12998
538.920	15033
538.986	13159
539.053	12655
539.119	13646
539.185	13063
539.252	16608
539.318	20333
539.385	17673
539.451	15962
539.517	17159
539.583	19978
539.650	42222
539.716	71409
539.782	19267
539.849	12290
539.915	13623
539.981	14276
540.047	14527
540.114	14018
540.180	15732
540.246	15554
540.312	18492
540.378	29570
540.444	28926
540.510	43554
540.576	83829
540.643	21505
540.709	12037
540.775	13508
540.841	13444
540.907	19411
540.973	28304
541.039	22026
541.105	18652
541.171	14163
541.237	13437
541.303	14535
541.369	16946
541.435	18354
541.500	25651
541.566	15894
541.632	11520
541.698	12038
541.764	11526
541.830	10743
541.896	10932
541.961	12415
542.027	11287
542.093	12706
542.159	14317
542.224	13416
542.290	18911
542.356	25633
542.421	24502
542.487	16023
542.553	12831
542.618	13410
542.684	12635
542.750	13360
542.815	16923
542.881	28510
542.947	83326
543.012	41623
543.078	11994
543.143	11366
543.209	12222
543.274	14546
543.340	17558
543.405	38354
543.471	40360
543.536	13687
543.602	11736
543.667	10930
543.732	13207
543.798	11945
543.863	12374
543.928	10965
543.994	10302
544.059	12313
544.124	11942
544.190	11614
544.255	13213
544.320	13364
544.386	12446
544.451	18065
544.516	17852
544.581	22371
544.646	59323
544.712	61261
544.777	16770
544.842	15013
544.907	14284
544.972	13642
545.037	14974
545.102	15821
545.168	15004
545.233	16178
545.298	16654
545.363	18475
545.428	21185
545.493	36890
545.558	58729
545.623	21747
545.688	15816
545.753	15869
545.818	15974
545.883	17397
545.947	15618
546.012	17698
546.077	15654
546.142	18670
546.207	17491
546.272	22359
546.337	20667
546.401	20713
546.466	20209
546.531	19316
546.596	22134
546.661	22045
546.725	22485
546.790	21782
546.855	23757
546.919	24659
546.984	27572
547.049	29581
547.113	32240
547.178	34893
547.243	39583
547.307	46164
547.372	49781
547.436	51431
547.501	51081
547.565	54553
547.630	51779
547.695	50668
547.759	50843
547.823	49289
547.888	49476
547.952	50630
548.017	53529
548.081	60979
548.146	57563
548.210	56041
548.274	59394
548.339	55243
548.403	50202
548.468	47617
548.532	48391
548.596	49810
548.660	49906
548.725	56129
548.789	60318
548.853	57711
548.917	54905
548.982	54597
549.046	48952
549.110	42914
549.174	45718
549.238	51623
549.303	55024
549.367	57010
549.431	52960
549.495	50508
549.559	51289
549.623	61349
549.687	67009
549.751	70599
549.815	77763
549.879	75108
549.943	72732
550.007	77979
550.071	74767
550.135	70371
550.199	64208
550.263	63386
550.327	61198
550.391	66708
550.455	69939
550.519	72580
550.582	78885
550.646	94008
550.710	88824
550.774	82719
550.838	84439
550.901	87535
550.965	92715
551.029	95722
551.093	104847
551.156	117609
551.220	144940
551.284	151724
551.347	109123
551.411	112263
551.475	104943
551.538	91136
551.602	83561
551.666	79860
551.729	72557
551.793	73225
551.856	71561
551.920	71449
551.983	70865
552.047	68614
552.110	69872
552.174	71433
552.237	72393
552.301	65062
552.364	63576
552.428	62158
552.491	65190
552.554	66313
552.618	66458
552.681	68704
552.745	69350
552.808	88828
552.871	96445
552.934	75756
552.998	66232
553.061	64644
553.124	60787
553.187	61869
553.251	64635
553.314	63761
553.377	66792
553.440	79604
553.503	119343
553.567	127869
553.630	70349
553.693	66917
553.756	66597
553.819	63174
553.882	61460
553.945	62848
554.008	62508
554.071	62021
554.134	62811
554.197	58481
554.260	57075
554.323	60251
554.386	59746
554.449	62934
554.512	62175
554.575	59456
554.638	57871
554.701	58295
554.764	56941
554.827	54596
554.889	52272
554.952	49256
555.015	49315
555.078	49017
555.141	50938
555.203	48926
555.266	48787
555.329	49818
555.391	46644
555.454	46938
555.517	46003
555.580	43888
555.642	42818
555.705	42287
555.768	41781
555.830	39886
555.893	38558
555.955	38917
556.018	37271
556.080	37773
556.143	38471
556.206	36858
556.268	38315
556.330	37878
556.393	36035
556.455	36868
556.518	38206
556.580	36612
556.643	31502
556.705	31635
556.767	30978
556.830	32382
556.892	32659
556.955	38119
557.017	32754
557.079	29799
557.142	29427
557.204	31815
557.266	42503
557.328	33941
557.391	25029
557.453	25282
557.515	26812
557.577	28836
557.639	27974
557.701	26358
557.764	25445
557.826	28308
557.888	29394
557.950	30282
558.012	35108
558.074	50394
558.136	121034
558.198	223655
558.260	63774
558.322	31896
558.384	32312
558.446	36027
558.508	40978
558.570	50392
558.632	72252
558.694	102665
558.756	164778
558.818	502284
558.880	886167
558.942	247008
559.003	236900
559.065	87755
559.127	43401
559.189	45345
559.251	56754
559.312	94728
559.374	249344
559.436	649729
559.498	221950
559.559	46274
559.621	44010
559.683	60137
559.744	110951
559.806	356486
559.868	386358
559.929	64357
559.991	50341
560.052	93912
560.114	230404
560.176	118859
560.237	146594
560.299	180729
560.360	33622
560.422	18787
560.483	17109
560.545	17028
560.606	16057
560.667	15578
560.729	14201
560.790	13978
560.852	14684
560.913	13471
560.974	14355
561.036	13876
561.097	13597
561.158	13825
561.220	13551
561.281	14111
561.342	14289
561.403	16611
561.465	18825
561.526	38497
561.587	38944
561.648	13856
561.709	12827
561.771	13232
561.832	12186
561.893	12479
561.954	12796
562.015	12202
562.076	11493
562.137	12916
562.198	12892
562.259	12669
562.320	11853
562.381	13905
562.442	17674
562.503	15157
562.564	12685
562.625	12157
562.686	12242
562.747	13221
562.808	11788
562.869	12661
562.930	13453
562.991	12420
563.051	11940
563.112	11353
563.173	11864
563.234	11813
563.294	11214
563.355	11653
563.416	11024
563.477	11495
563.537	11042
563.598	11395
563.659	12163
563.720	11574
563.780	11827
563.841	12003
563.901	12036
563.962	11514
564.023	11509
564.083	11771
564.144	11415
564.204	11212
564.265	10152
564.325	12627
564.386	18633
564.446	16055
564.507	9738
564.567	10820
564.628	11147
564.688	11674
564.749	10189
564.809	12708
564.869	12973
564.930	10328
564.990	11306
565.050	10983
565.111	11028
565.171	10703
565.231	11190
565.292	10602
565.352	10256
565.412	12760
565.472	10685
565.532	11386
565.593	10473
565.653	11949
565.713	12363
565.773	12622
565.833	14751
565.893	15002
565.953	11846
566.013	11795
566.074	12543
566.134	14956
566.194	18687
566.254	18000
566.314	13178
566.374	11739
566.434	13022
566.494	13484
566.554	12501
566.614	14051
566.673	13709
566.733	15409
566.793	14605
566.853	14793
566.913	14695
566.973	15547
567.033	16965
567.092	17136
567.152	15772
567.212	17644
567.272	15866
567.331	16721
567.391	17951
567.451	18723
567.511	22216
567.570	19898
567.630	16740
567.690	16597
567.749	16052
567.809	18731
567.868	20600
567.928	21320
567.988	24539
568.047	30089
568.107	37802
568.166	54529
568.226	87586
568.285	112299
568.345	84940
568.404	65202
568.464	51573
568.523	48378
568.582	50548
568.642	61140
568.701	83207
568.761	129388
568.820	197041
568.879	168796
568.939	112857
568.998	77930
569.057	58122
569.116	46352
569.176	35457
569.235	29647
569.294	25940
569.353	23994
569.413	20868
569.472	19027
569.531	17381
569.590	16892
569.649	15575
569.708	15081
569.767	16092
569.827	16913
569.886	15160
569.945	12664
570.004	13169
570.063	13243
570.122	13525
570.181	13286
570.240	13623
570.299	13932
570.358	14354
570.417	12056
570.475	11387
570.534	13038
570.593	13440
570.652	12982
570.711	11843
570.770	12366
570.829	12463
570.887	12799
570.946	12882
571.005	12133
571.064	11058
571.122	13161
571.181	12497
571.240	10779
571.299	9998
571.357	10610
571.416	10923
571.475	11476
571.533	11800
571.592	11786
571.650	10688
571.709	10390
571.768	10749
571.826	11795
571.885	10100
571.943	9420
572.002	8633
572.060	10689
572.119	9245
572.177	9045
572.236	8968
572.294	9715
572.352	9613
572.411	10030
572.469	9022
572.528	9106
572.586	10013
572.644	10984
572.703	12342
572.761	9737
572.819	9232
572.877	8812
572.936	8574
572.994	9197
573.052	8739
573.110	8910
573.169	8804
573.227	8642
573.285	8564
573.343	8974
573.401	8829
573.459	9413
573.517	8045
573.576	9011
573.634	9298
573.692	10087
573.750	7905
573.808	7762
573.866	8761
573.924	10457
573.982	9980
574.040	9295
574.098	8530
574.155	8119
574.213	7289
574.271	8830
574.329	8927
574.387	7871
574.445	7915
574.503	8328
574.560	7626
574.618	8659
574.676	7627
574.734	8354
574.792	8337
574.849	7831
574.907	7055
574.965	7195
575.022	7004
575.080	7953
575.138	7452
575.195	7943
575.253	7640
575.311	8567
575.368	7515
575.426	6730
575.483	8126
575.541	8353
575.598	7826
575.656	8371
575.713	7833
575.771	7286
575.828	6629
575.886	7683
575.943	8111
576.001	7427
576.058	7548
576.115	8143
576.173	8733
576.230	10145
576.287	10119
576.345	9025
576.402	7833
576.459	7662
576.517	7463
576.574	8638
576.631	7672
576.688	7297
576.746	7351
576.803	7435
576.860	6412
576.917	7260
576.974	6900
577.031	7977
577.089	6952
577.146	7891
577.203	7345
577.260	7895
577.317	7995
577.374	8223
577.431	8026
577.488	7990
577.545	6644
577.602	7189
577.659	7724
577.716	8754
577.773	8076
577.830	7314
577.886	6580
577.943	7657
578.000	8029
578.057	8182
578.114	7849
578.171	7778
578.227	8055
578.284	7810
578.341	8114
578.398	7702
578.454	8430
578.511	8872
578.568	8762
578.625	7727
578.681	7383
578.738	7750
578.794	7269
578.851	8476
578.908	8432
578.964	7881
579.021	8071
579.077	8329
579.134	7936
579.190	8222
579.247	8491
579.303	7827
579.360	7300
579.416	7948
579.473	8119
579.529	7742
579.586	7170
579.642	8212
579.698	7066
579.755	7839
579.811	8046
579.867	9292
579.924	8157
579.980	7903
580.036	9104
580.093	9880
580.149	11042
580.205	10191
580.261	8851
580.317	9768
580.374	9393
580.430	10306
580.486	9064
580.542	8070
580.598	8936
580.619	9019
580.654	9172
580.692	8729
580.710	8525
580.765	8080
580.767	8074
580.823	8254
580.838	8663
580.879	9774
580.911	9164
580.935	8742
580.984	9340
580.991	9432
581.047	9598
581.057	9618
581.103	9802
581.130	9513
581.159	9194
581.203	9398
581.215	9474
581.270	9807
581.276	9748
581.326	9270
581.349	9249
581.382	9220
581.422	8932
581.438	8817
581.494	9213
581.494	9201
581.550	8817
581.567	9154
581.606	9779
581.640	9219
581.661	8934
581.713	10017
581.717	10106
581.773	9527
581.786	9488
581.829	9353
581.859	9864
581.885	10369
581.932	9592
581.940	9455
581.996	10364
582.004	10233
582.052	9489
582.077	9678
582.107	9902
582.150	9730
582.163	9687
582.219	9707
582.223	9724
582.274	10089
582.296	10083
582.330	9888
582.368	10674
582.386	11167
582.441	10553
582.441	10554
582.497	10540
582.514	10614
582.552	11036
582.587	11405
582.608	11467
582.659	10640
582.663	10603
582.719	10793
582.732	10877
582.774	11065
582.805	10860
582.830	10755
582.877	11607
582.885	11728
582.941	12149
582.950	12232
582.996	12787
583.023	13386
583.052	14106
583.095	13818
583.107	13674
583.162	13403
583.168	13425
583.218	13574
583.240	12861
583.273	11999
583.313	11719
583.328	11597
583.384	11399
583.385	11380
583.439	10642
583.458	10653
583.494	10809
583.531	11298
583.549	11611
583.603	11478
583.605	11459
583.660	10669
583.676	10633
583.715	10722
583.748	11039
583.770	11229
583.820	11037
583.825	11003
583.881	11016
583.893	10893
583.936	10573
583.965	10736
583.991	10880
584.038	10817
584.046	10818
584.101	10928
584.110	11001
584.156	11428
584.183	11859
584.211	12061
584.255	11130
584.266	11001
584.321	11909
584.328	11945
584.376	11970
584.400	12079
584.431	12184
584.472	11989
584.486	11908
584.541	13053
584.545	13020
584.596	12664
584.617	12827
584.651	13004
584.689	13273
584.706	13393
584.761	13950
584.762	13952
584.816	13866
584.834	14198
584.871	14544
584.906	14378
584.926	14296
584.978	14261
584.980	14267
585.035	15073
585.051	15352
585.090	16055
585.123	16416
585.145	16663
585.195	18115
585.200	18299
585.254	19424
585.267	20097
585.309	22206
585.340	24154
585.364	25364
585.412	26419
585.419	26556
585.473	31089
585.484	32456
585.528	40005
585.556	48511
585.583	61557
585.628	94446
585.637	104927
585.692	213934
585.700	228143
585.747	278964
585.772	221663
585.801	124818
585.845	48302
585.856	38681
585.910	25427
585.917	24242
585.965	21861
585.989	20988
586.019	20300
586.061	20190
586.074	20198
586.128	20201
586.133	20129
586.183	19337
586.205	19415
586.237	19559
586.277	19630
586.292	19644
586.346	19646
586.349	19651
586.401	19395
586.421	19389
586.455	19654
586.493	20558
586.509	21095
586.564	22123
586.565	22247
586.618	27942
586.637	27366
586.672	24848
586.709	24174
586.727	24098
586.781	24539
586.781	24531
586.835	22774
586.853	22312
586.889	21739
586.925	21825
586.944	22035
586.996	22673
586.998	22690
587.052	24140
587.068	24230
587.106	24333
587.140	24559
587.161	24750
587.212	25675
587.215	25728
587.269	27226
587.284	27461
587.323	27960
587.356	28700
587.377	29273
587.427	30759
587.431	30857
587.485	32033
587.499	32408
587.539	33675
587.571	34897
587.593	36021
587.643	38567
587.648	38742
587.702	40797
587.715	41213
587.755	43465
587.786	45647
587.810	46947
587.858	49498
587.864	49880
587.917	54934
587.930	55918
587.971	60055
588.001	63631
588.025	66910
588.073	73417
588.079	74381
588.133	84310
588.145	86693
588.187	95608
588.217	101983
588.241	108406
588.288	121752
588.295	123833
588.348	143555
588.360	147942
588.402	167086
588.431	182551
588.456	197692
588.503	229150
588.510	234741
588.564	285899
588.575	298269
588.617	357932
588.646	405490
588.671	465034
588.718	592657
588.725	622345
588.778	879987
588.789	938572
588.832	1261360
588.861	1491198
588.886	1626314
588.932	1759733
588.939	1743241
588.993	1548600
589.004	1536698
589.047	1611638
589.075	1556449
589.100	1331588
589.147	917725
589.154	881859
589.207	654974
589.218	614170
589.261	562415
589.290	540015
589.314	561527
589.361	619970
589.368	644678
589.421	876888
589.433	933198
589.475	1255925
589.504	1474441
589.528	1538597
589.576	1550524
589.582	1532968
589.635	1405508
589.647	1352058
589.689	956419
589.718	694929
589.742	571239
589.790	357341
589.795	345946
589.849	253516
589.861	233660
589.902	197062
589.932	171255
589.955	157432
590.004	129466
590.009	127731
590.062	111355
590.075	107282
590.115	96600
590.146	88820
590.168	85528
590.218	78438
590.222	77852
590.275	70216
590.289	68275
590.328	65132
590.360	62351
590.381	60229
590.431	55787
590.435	55595
590.488	52073
590.503	50995
590.541	48524
590.574	46707
590.594	45766
590.645	43304
590.647	43243
590.700	41292
590.716	40704
590.753	39572
590.787	38547
590.806	37902
590.859	36271
590.859	36269
590.912	35462
590.930	35235
590.965	34283
591.001	33408
591.018	33135
591.071	31994
591.072	31977
591.124	31186
591.143	30930
591.177	30489
591.214	30044
591.230	30280
591.283	31157
591.285	31176
591.336	30061
591.356	29580
591.389	28973
591.427	28261
591.442	28207
591.495	27871
591.498	27845
591.547	26264
591.569	25534
591.600	25333
591.640	25128
591.653	25173
591.706	25316
591.711	25339
591.759	25027
591.782	24852
591.811	24945
591.853	25076
591.864	24973
591.917	24305
591.924	24249
591.969	24525
591.995	24576
592.022	24524
592.066	24557
592.075	24439
592.127	23682
592.137	23547
592.180	23637
592.208	23694
592.233	23596
592.279	23429
592.285	23359
592.338	22816
592.350	22704
592.390	22164
592.421	21767
592.443	21898
592.491	22246
592.495	22214
592.548	21933
592.562	21874
592.600	22152
592.633	22412
592.653	22327
592.704	22016
592.705	22128
592.775	21441
592.846	21491
592.916	21903
592.987	22599
593.058	23003
593.128	20809
593.199	21172
593.270	21033
593.341	21153
593.411	20262
593.482	21066
593.553	23048
593.623	22215
593.694	21615
593.764	22404
593.835	21800
593.906	21633
593.976	21822
594.047	22774
594.117	23900
594.188	24555
594.258	22588
594.329	22979
594.399	22519
594.470	23560
594.540	23014
594.611	24760
594.681	23742
594.751	24883
594.822	26580
594.892	26910
594.963	25692
595.033	26351
595.103	26557
595.174	26543
595.244	29017
595.314	30430
595.384	27329
595.455	27324
595.525	28714
595.595	28382
595.665	29239
595.736	27551
595.806	29304
595.876	29795
595.946	28922
596.016	30786
596.087	29579
596.157	30805
596.227	30920
596.297	32373
596.367	32912
596.437	37114
596.507	38105
596.577	37891
596.647	37129
596.717	37971
596.787	38590
596.857	38525
596.927	39096
596.997	39279
597.067	40136
597.137	41861
597.207	41071
597.277	40595
597.347	39152
597.417	37448
597.487	38041
597.557	39756
597.626	39482
597.696	40399
597.766	40824
597.836	40602
597.906	35563
597.975	35574
598.045	35306
598.115	36653
598.185	39549
598.254	45204
598.324	46811
598.394	48630
598.464	46111
598.533	45321
598.603	43301
598.672	41335
598.742	43632
598.812	43071
598.881	45077
598.951	44105
599.020	44498
599.090	46412
599.159	46796
599.229	45516
599.299	44584
599.368	45380
599.437	45918
599.507	43658
599.576	41174
599.646	41228
599.715	42273
599.785	40560
599.854	38236
599.924	40219
599.993	39089
600.062	39108
600.132	40675
600.201	43072
600.270	48617
600.340	50176
600.409	50578
600.478	50645
600.547	50953
600.617	47261
600.686	39603
600.755	37278
600.824	35804
600.894	34254
600.963	35760
601.032	35276
601.101	33826
601.170	33554
601.239	33461
601.308	34600
601.378	35136
601.447	34868
601.516	32905
601.585	35538
601.654	36574
601.723	37351
601.792	37865
601.861	40159
601.930	42310
601.999	41912
602.068	41497
602.137	41807
602.206	41422
602.275	42455
602.343	44659
602.412	44065
602.481	42464
602.550	44050
602.619	43922
602.688	44680
602.756	45663
602.825	45510
602.894	46412
602.963	45939
603.032	47043
603.100	46736
603.169	47188
603.238	47898
603.307	46645
603.375	47661
603.444	48593
603.513	47739
603.581	48560
603.650	51663
603.719	44958
603.787	45048
603.856	46592
603.924	47749
603.993	50161
604.061	51625
604.130	53551
604.198	55438
604.267	55841
604.335	57134
604.404	56180
604.472	57380
604.541	57479
604.609	60280
604.678	60299
604.746	60525
604.815	63103
604.883	62757
604.951	61459
605.020	62898
605.088	62125
605.156	61924
605.225	63345
605.293	62954
605.361	64109
605.429	63067
605.498	65119
605.566	65617
605.634	69522
605.702	70509
605.771	72584
605.839	73523
605.907	69748
605.975	68629
606.043	66589
606.111	67246
606.180	68727
606.248	67378
606.316	66851
606.384	66558
606.452	63492
606.520	62925
606.588	63744
606.656	62005
606.724	60843
606.792	56663
606.860	50999
606.928	46918
606.996	45621
607.064	44300
607.132	45883
607.200	48726
607.267	50025
607.335	51429
607.403	52725
607.471	51211
607.539	49614
607.607	49470
607.674	44048
607.742	43839
607.810	43963
607.878	44161
607.946	43972
608.013	46030
608.081	46892
608.149	47763
608.216	48672
608.284	51889
608.352	49074
608.419	48803
608.487	50874
608.555	48031
608.622	49601
608.690	52475
608.757	57967
608.825	60778
608.893	57005
608.960	54330
609.028	52959
609.095	52611
609.163	50535
609.230	45441
609.298	43049
609.365	44405
609.432	48747
609.500	51635
609.567	59729
609.635	70459
609.702	73166
609.769	69239
609.837	53541
609.904	46793
609.971	48555
610.039	57041
610.106	76514
610.173	151765
610.241	351822
610.308	185023
610.375	63276
610.442	50299
610.509	47745
610.577	49230
610.644	48223
610.711	50404
610.778	51140
610.845	53436
610.912	56236
610.980	60366
611.047	63508
611.114	59826
611.181	55747
611.248	53166
611.315	59824
611.382	58855
611.449	62938
611.516	64548
611.583	63347
611.650	63096
611.717	64801
611.784	66833
611.851	71227
611.918	77743
611.984	95770
612.051	146498
612.118	316786
612.185	786447
612.252	456420
612.319	109521
612.386	87582
612.452	77452
612.519	72738
612.586	72128
612.653	73719
612.719	75082
612.786	71440
612.853	66188
612.919	64168
612.986	65754
613.053	60698
613.120	58214
613.186	54859
613.253	56872
613.319	54709
613.386	55910
613.453	57249
613.519	59437
613.586	59187
613.652	64779
613.719	60012
613.785	60209
613.852	58087
613.918	57800
613.985	61859
614.051	71918
614.118	94929
614.184	89420
614.250	59828
614.317	58993
614.383	57836
614.449	57756
614.516	58888
614.582	59414
614.648	56891
614.715	57002
614.781	55327
614.847	56387
614.914	54395
614.980	54926
615.046	54409
615.112	56554
615.179	55861
615.245	59910
615.311	64184
615.377	80932
615.443	83482
615.509	65815
615.575	64021
615.642	61873
615.708	65224
615.774	70054
615.840	75440
615.906	88552
615.972	125631
616.038	221972
616.104	434713
616.170	987330
616.236	774133
616.302	167728
616.368	114299
616.434	81593
616.500	75914
616.565	83095
616.631	102615
616.697	84099
616.763	88180
616.829	133141
616.895	235586
616.961	216895
617.026	92693
617.092	63305
617.158	60973
617.224	58781
617.289	53345
617.355	50796
617.421	49641
617.487	51092
617.552	48189
617.618	46937
617.684	45981
617.749	48181
617.815	43757
617.880	42530
617.946	43340
618.012	44988
618.077	45194
618.143	44149
618.208	43181
618.274	48414
618.339	48025
618.405	39117
618.470	39770
618.536	39787
618.601	38432
618.667	34944
618.732	33914
618.798	34155
618.863	33300
618.928	32377
618.994	34675
619.059	35686
619.124	38133
619.190	34578
619.255	33050
619.320	32395
619.386	32665
619.451	31473
619.516	32108
619.581	31235
619.647	33025
619.712	33156
619.777	31006
619.842	31842
619.907	31906
619.972	32502
620.038	32299
620.103	31572
620.168	30587
620.233	33351
620.298	31030
620.363	32513
620.428	32530
620.493	33962
620.558	33248
620.623	35209
620.688	34094
620.753	33394
620.818	34491
620.883	35707
620.948	35449
621.013	34512
621.078	33494
621.143	32734
621.207	36369
621.272	34401
621.337	33786
621.402	34078
621.467	34639
621.532	33454
621.596	33727
621.661	32738
621.726	30862
621.791	31802
621.855	32749
621.920	33198
621.985	32761
622.049	35337
622.114	33324
622.179	34394
622.243	34196
622.308	36181
622.373	38901
622.437	35577
622.502	33801
622.566	33975
622.631	32231
622.695	35011
622.760	34760
622.824	34453
622.889	34000
622.953	33672
623.018	41107
623.082	41363
623.147	36930
623.211	35655
623.276	36495
623.340	32992
623.404	33241
623.469	32770
623.533	33568
623.597	32137
623.662	31597
623.726	28913
623.790	27397
623.854	26753
623.919	28008
623.983	28094
624.047	28276
624.111	29422
624.176	29753
624.240	30342
624.304	32749
624.368	29208
624.432	29968
624.496	31221
624.560	32688
624.625	32742
624.689	32136
624.753	33498
624.817	31582
624.881	30303
624.945	28248
625.009	26652
625.073	28413
625.137	28663
625.201	33424
625.265	31720
625.329	28879
625.393	30293
625.456	30183
625.520	30860
625.584	31597
625.648	32926
625.712	37337
625.776	45743
625.839	44846
625.903	28526
625.967	25208
626.031	30792
626.095	37971
626.158	29010
626.222	21350
626.286	21367
626.349	19388
626.413	17168
626.477	20042
626.540	19071
626.604	18898
626.668	19695
626.731	18366
626.795	18665
626.858	17955
626.922	18177
626.986	18586
627.049	16855
627.113	19645
627.176	19126
627.240	17532
627.303	17585
627.366	17793
627.430	18766
627.493	17461
627.557	17096
627.620	18114
627.684	18636
627.747	18668
627.810	16314
627.874	16409
627.937	14431
628.000	17040
628.064	16635
628.127	12839
628.190	14207
628.253	13280
628.317	11987
628.380	12753
628.443	12142
628.506	11834
628.569	11564
628.632	10227
628.696	11234
628.759	10843
628.822	9694
628.885	10216
628.948	10167
629.011	10470
629.074	10133
629.137	8844
629.200	9610
629.263	10611
629.326	8467
629.389	9336
629.452	9686
629.515	8856
629.578	8897
629.641	10567
629.704	9822
629.767	9676
629.830	9134
629.892	8837
629.955	8873
630.018	10133
630.081	9748
630.144	11121
630.207	8733
630.269	10552
630.332	9102
630.395	8404
630.458	8481
630.520	7491
630.583	9162
630.646	9622
630.708	8411
630.771	8194
630.834	9803
630.896	8157
630.959	8665
631.021	7863
631.084	8364
631.146	9231
631.209	10007
631.272	7765
631.334	8993
631.397	8509
631.459	9323
631.522	10230
631.584	10272
631.646	11698
631.709	11325
631.771	12483
631.834	12293
631.896	10357
631.958	9042
632.021	9311
632.083	8100
632.145	8986
632.208	8605
632.270	9248
632.332	7925
632.395	7824
632.457	8525
632.519	7566
632.581	10138
632.643	7865
632.706	8374
632.768	8212
632.830	9132
632.892	8427
632.954	7503
633.016	8247
633.078	7953
633.141	7739
633.203	8497
633.265	8350
633.327	8321
633.389	7898
633.451	9763
633.513	9310
633.575	10668
633.637	9274
633.698	9777
633.760	8911
633.822	8955
633.884	9577
633.946	9844
634.008	9254
634.070	11154
634.132	12014
634.193	12447
634.255	13485
634.317	13103
634.379	14029
634.441	12012
634.502	10582
634.564	10848
634.626	9277
634.687	10598
634.749	8239
634.811	8679
634.873	7885
634.934	7908
634.996	9111
635.057	7263
635.119	6965
635.181	8585
635.242	8838
635.304	7119
635.365	9851
635.427	8409
635.488	8764
635.550	7707
635.611	8345
635.673	6745
635.734	10746
635.796	8869
635.857	11273
635.918	10505
635.980	12689
636.041	12078
636.102	14673
636.164	14176
636.225	13843
636.286	10531
636.348	10652
636.409	9484
636.470	7411
636.531	8420
636.593	8447
636.654	8424
636.715	7380
636.776	7357
636.838	6897
636.899	7700
636.960	6592
637.021	7473
637.082	7119
637.143	7652
637.204	5562
637.265	5845
637.326	6596
637.387	7037
637.448	5700
637.509	6777
637.570	6547
637.631	6962
637.692	4860
637.753	4087
637.814	5872
637.875	6278
637.936	6977
637.997	5645
638.058	6200
638.119	6964
638.179	4877
638.240	5296
638.301	5323
638.362	5104
638.423	5181
638.483	7100
638.544	3999
638.605	6134
638.666	4854
638.726	6051
638.787	6765
638.848	5573
638.908	5828
638.969	5860
639.030	5173
639.090	5002
639.151	4046
639.211	5892
639.272	6766
639.332	9765
639.393	6598
639.453	5061
639.514	6060
639.574	6220
639.635	4637
639.695	5105
639.756	4039
639.816	5843
639.877	5327
639.937	9049
639.997	9960
640.058	5226
640.118	4117
640.178	6433
640.239	5231
640.299	4525
640.359	4580
640.420	5466
640.480	5958
640.540	6997
640.600	7032
640.661	7405
640.721	7120
640.781	12667
640.841	10999
640.901	6230
640.961	5194
641.021	5995
641.082	5563
641.142	7688
641.202	6662
641.262	2512
641.322	5061
641.382	3645
641.442	4788
641.502	3817
641.562	5255
641.622	4976
641.682	4951
641.742	6167
641.802	4307
641.861	5439
641.921	4892
641.981	5685
642.041	5637
642.101	5691
642.161	3706
642.221	4074
642.280	3611
642.340	4268
642.400	2797
642.460	5558
642.519	4289
642.579	4457
642.639	5147
642.698	2691
642.758	6384
642.818	4798
642.877	3924
642.937	4976
642.997	5328
643.056	6210
643.116	4171
643.175	6426
643.235	4879
643.294	5180
643.354	6384
643.414	7209
643.473	9221
643.532	11195
643.592	16402
643.651	29834
643.711	56535
643.770	117597
643.830	292687
643.889	598222
643.948	123731
644.008	20566
644.067	12473
644.126	8679
644.186	7611
644.245	6686
644.304	4682
644.363	8096
644.423	4329
644.482	5346
644.541	5625
644.600	4465
644.659	7922
644.719	9050
644.778	15525
644.837	27721
644.896	60997
644.955	135687
645.014	40982
645.073	10351
645.132	6717
645.191	6749
645.250	5184
645.309	6981
645.368	6655
645.427	10064
645.486	14645
645.545	25885
645.604	7485
645.663	5931
645.722	5477
645.781	6572
645.840	7559
645.898	10662
645.957	16604
646.016	26063
646.075	53506
646.134	108523
646.192	295601
646.251	411434
646.310	52243
646.369	14108
646.427	10920
646.486	7177
646.545	6527
646.603	6576
646.662	5010
646.721	5176
646.779	4930
646.838	4482
646.896	7915
646.955	9596
647.014	16666
647.072	30641
647.131	86532
647.189	36993
647.248	4432
647.306	5422
647.365	4474
647.423	2709
647.481	4962
647.540	2208
647.598	3486
647.657	4027
647.715	3358
647.773	2666
647.832	3843
647.890	2162
647.948	2755
648.007	4019
648.065	2046
648.123	2692
648.181	4701
648.240	4468
648.298	3588
648.356	3472
648.414	2952
648.472	3635
648.531	3451
648.589	3238
648.647	2629
648.705	3505
648.763	3162
648.821	3478
648.879	3063
648.937	4831
648.995	5216
649.053	7422
649.111	12828
649.169	21346
649.227	39917
649.285	87162
649.343	248682
649.401	105487
649.459	18496
649.516	12356
649.574	10494
649.632	21697
649.690	23506
649.748	11521
649.806	13315
649.863	25686
649.921	60494
649.979	37052
650.037	6110
650.094	2109
650.152	4094
650.210	2359
650.268	3790
650.325	5467
650.383	7315
650.440	1258
650.498	2555
650.556	2414
650.613	1808
650.671	2348
650.728	1650
650.786	2230
650.843	3473
650.901	1253
650.958	2414
651.016	2387
651.073	1298
651.131	1704
651.188	953
651.246	2243
651.303	1126
651.360	2519
651.418	1270
651.475	1749
651.532	1153
651.590	1489
651.647	1356
651.704	1654
651.762	898
651.819	1791
651.876	1216
651.933	1423
651.990	2396
652.048	732
652.105	125
652.162	2071
652.219	1300
652.276	1888
652.333	1017
652.390	148
652.448	1714
652.505	2395
652.562	1834
652.619	2328
652.676	2977
652.733	4747
652.790	1518
652.847	1171
652.904	1795
652.961	847
653.017	851
653.074	1913
653.131	1632
653.188	443
653.245	1729
653.302	1174
653.359	634
653.415	1653
653.472	1356
653.529	2029
653.586	788
653.642	1010
653.699	2420
653.756	550
653.813	1408
653.869	1724
653.926	366
653.983	1001
654.039	1548
654.096	1324
654.152	2574
654.209	339
654.266	1422
654.322	474
654.379	1163
654.435	2404
654.492	700
654.548	2412
654.605	2453
654.661	3366
654.717	886
654.774	1619
654.830	1871
654.887	2150
654.943	1997
655.000	3076
655.056	2204
655.112	1564
655.168	468
655.225	1345
655.281	1760
655.337	1874
655.394	2047
655.450	2491
655.506	2252
655.562	2054
655.618	3066
655.675	1492
655.731	1270
655.787	1225
655.843	1649
655.899	1688
655.955	2656
656.011	2802
656.067	1969
656.123	4244
656.179	4242
656.235	5887
656.291	2942
656.347	4747
656.403	2840
656.459	2497
656.515	2464
656.571	1578
656.627	2190
656.683	1097
656.739	2576
656.795	2045
656.850	1371
656.906	2646
656.962	2180
657.018	937
657.074	1167
657.129	1790
657.185	2757
657.241	7639
657.297	3877
657.352	2276
657.408	932
657.464	2164
657.519	1084
657.575	1167
657.630	649
657.686	1707
657.742	237
657.797	590
657.853	309
657.908	1629
657.964	-342
658.019	1287
658.075	1260
658.130	1184
658.186	433
658.241	822
658.297	173
658.352	884
658.407	1306
658.463	126
658.518	961
658.573	2169
658.629	305
658.684	763
658.739	1552
658.795	937
658.850	1465
658.905	645
658.960	818
659.016	917
659.071	650
659.126	1210
659.181	1558
659.236	2700
659.291	2719
659.346	1150
659.401	1438
659.457	3240
659.512	1775
659.567	2101
659.622	1444
659.677	631
659.732	-539
659.787	1403
659.842	303
659.897	1092
659.952	861
660.007	670
660.061	1372
660.116	405
660.171	323
660.226	362
660.281	1907
660.336	532
660.391	1859
660.445	442
660.500	1087
660.555	1702
660.610	42
660.664	1621
660.719	1399
660.774	1851
660.828	1320
660.883	812
660.938	1216
660.992	-251
661.047	1404
661.101	25
661.156	286
661.211	245
661.265	-230
661.320	1672
661.374	1001
661.429	208
661.483	1150
661.538	-3
661.592	985
661.647	1527
661.701	2731
661.755	1509
661.810	912
661.864	224
661.919	125
661.973	1225
662.027	357
662.081	507
662.136	899
662.190	1577
662.244	-222
662.299	-57
662.353	761
662.407	385
662.461	-9
662.515	482
662.569	1150
662.624	1888
662.678	1104
662.732	1018
662.786	353
662.840	699
662.894	1038
662.948	1268
663.002	505
663.056	649
663.110	216
663.164	767
663.218	349
663.272	1096
663.326	546
663.380	1400
663.434	739
663.488	772
663.542	774
663.595	1
663.649	258
663.703	1227
663.757	559
663.811	155
663.864	-542
663.918	94
663.972	817
664.026	891
664.079	784
664.133	1395
664.187	1244
664.240	625
664.294	1120
664.348	926
664.401	478
664.455	782
664.508	1023
664.562	881
664.615	439
664.669	52
664.722	1048
664.776	412
664.829	1160
664.883	891
664.936	1084
664.990	947
665.043	937
665.097	869
665.150	658
665.203	491
665.257	284
665.310	248
665.363	659
665.417	1499
665.470	603
665.523	508
665.576	439
665.630	786
665.683	787
665.736	899
665.789	835
665.842	171
665.895	837
665.949	1067
666.002	872
666.055	457
666.108	728
666.161	1347
666.214	1340
666.267	1623
666.320	1267
666.373	1366
666.426	833
666.479	732
666.532	30
666.585	1007
666.638	1449
666.691	971
666.744	908
666.796	1151
666.849	589
666.902	1210
666.955	79
667.008	696
667.060	-150
667.113	364
667.166	-69
667.219	278
667.271	1245
667.324	675
667.377	993
667.430	1259
667.482	1622
667.535	1646
667.587	1420
667.640	979
667.693	772
667.745	2814
667.798	2313
667.850	1057
667.903	1447
667.955	1424
668.008	310
668.060	964
668.113	630
668.165	923
668.218	1058
668.270	1601
668.322	485
668.375	414
668.427	1237
668.479	1088
668.532	-57
668.584	548
668.636	971
668.689	1511
668.741	539
668.793	393
668.845	-106
668.898	1144
668.950	1018
669.002	849
669.054	491
669.106	975
669.158	1061
669.211	981
669.263	38
669.315	1449
669.367	1508
669.419	1259
669.471	2416
669.523	2780
669.575	4458
669.627	2315
669.679	931
669.731	1295
669.783	1661
669.835	2682
669.886	1363
669.938	1014
669.990	319
670.042	-123
670.094	941
670.146	99
670.197	993
670.249	1087
670.301	188
670.353	1558
670.404	2167
670.456	2204
670.508	3757
670.560	7617
670.611	11813
670.663	20788
670.715	54131
670.766	82315
670.818	19187
670.869	4063
670.921	1940
670.972	1475
671.024	604
671.075	1599
671.127	947
671.178	1140
671.230	1373
671.281	1834
671.333	1238
671.384	174
671.436	1685
671.487	2925
671.538	3544
671.590	6678
671.641	10407
671.692	19950
671.744	37947
671.795	22799
671.846	7870
671.897	3682
671.949	2703
672.000	1866
672.051	1167
672.102	1438
672.153	183
672.204	625
672.256	1270
672.307	786
672.358	898
672.409	493
672.460	458
672.511	581
672.562	-335
672.613	91
672.664	170
672.715	743
672.766	304
672.817	50
672.868	509
672.919	1014
672.970	330
673.021	347
673.071	-326
673.122	834
673.173	427
673.224	537
673.275	657
673.326	86
673.376	424
673.427	103
673.478	125
673.528	919
673.579	-200
673.630	-181
673.680	882
673.731	601
673.782	-959
673.832	848
673.883	749
673.934	198
673.984	206
674.035	888
674.085	310
674.136	992
674.186	468
674.237	800
674.287	1056
674.338	31
674.388	235
674.438	519
674.489	285
674.539	342
674.589	249
674.640	51
674.690	-127
674.740	-12
674.791	231
674.841	67
674.891	70
674.942	-70
674.992	-560
675.042	27
675.092	-194
675.142	727
675.193	142
675.243	202
675.293	210
675.343	46
675.393	166
675.443	385
675.493	299
675.543	257
675.593	-388
675.643	565
675.693	-46
675.743	6
675.793	-27
675.843	419
675.893	-798
675.943	754
675.993	-242
676.043	93
676.093	33
676.142	-33
676.192	-348
676.242	-295
676.292	169
676.341	768
676.391	-19
676.441	482
676.491	-96
676.540	-329
676.590	407
676.640	-773
676.689	381
676.739	-508
676.789	113
676.838	-332
676.888	-368
676.937	-291
676.987	314
677.037	-283
677.086	-1207
677.136	469
677.185	-1277
677.235	-627
677.284	19
677.333	482
677.383	-230
677.432	-774
677.482	802
677.531	-103
677.580	-366
677.630	-332
677.679	-1179
677.728	303
677.778	-432
677.827	-1
677.876	-656
677.925	-559
677.975	-122
678.024	-574
678.073	-212
678.122	299
678.171	-542
678.220	305
678.269	-116
678.319	956
678.368	-54
678.417	439
678.466	-283
678.515	605
678.564	-108
678.613	197
678.662	56
678.711	158
678.760	230
678.809	183
678.857	-670
678.906	508
678.955	-781
679.004	819
679.053	979
679.102	994
679.151	-153
679.199	-647
679.248	-448
679.297	15
679.346	-375
679.394	-580
679.443	-73
679.492	137
679.540	-343
679.589	343
679.638	-231
679.686	-254
679.735	327
679.784	-454
679.832	-19
679.881	-883
679.929	112
679.978	-82
680.026	-1070
680.075	-541
680.123	-435
680.172	-313
680.220	-490
680.268	-304
680.317	-1404
680.365	-600
680.414	-584
680.462	366
680.510	30
680.559	238
680.607	-301
680.655	-194
680.703	-954
680.752	-497
680.800	-54
680.848	51
680.896	-723
680.945	-184
680.993	278
681.041	-795
681.089	-267
681.137	27
681.185	-605
681.233	-623
681.258	-582
681.281	-553
681.329	-513
681.377	574
681.380	504
681.425	-969
681.473	-672
681.502	-143
681.521	197
681.569	507
681.617	-294
681.624	-281
681.665	-251
681.713	-140
681.745	-22
681.761	18
681.809	-160
681.857	320
681.867	338
681.904	372
681.952	-317
681.989	202
682.000	344
682.048	-53
682.096	-479
682.111	-381
682.143	-212
682.191	233
682.233	583
682.239	623
682.286	904
682.334	191
682.354	323
682.382	491
682.430	-209
682.476	46
682.477	43
682.525	194
682.572	207
682.598	-43
682.620	-280
682.667	632
682.715	67
682.720	30
682.763	-433
682.810	-34
682.841	249
682.857	403
682.905	-380
682.952	846
682.963	748
683.000	322
683.047	439
683.085	704
683.095	767
683.142	510
683.190	1005
683.206	871
683.237	589
683.284	1116
683.328	92
683.332	5
683.379	40
683.426	980
683.449	457
683.473	-103
683.521	71
683.568	723
683.571	718
683.615	589
683.662	762
683.693	644
683.709	545
683.757	717
683.804	596
683.814	612
683.851	644
683.898	274
683.936	436
683.945	477
683.992	734
684.039	1159
684.057	1018
684.086	774
684.133	468
684.179	880
684.180	884
684.227	842
684.274	1497
684.300	1297
684.321	1132
684.368	555
684.415	1006
684.422	928
684.462	376
684.509	681
684.543	1137
684.556	1325
684.603	725
684.649	686
684.665	768
684.696	925
684.743	783
684.786	899
684.790	908
684.837	1329
684.883	1184
684.908	1422
684.930	1549
684.977	800
685.023	1064
685.029	1065
685.070	1102
685.117	1349
685.150	1178
685.164	1111
685.210	1312
685.257	1613
685.272	1757
685.303	2030
685.350	1432
685.393	1373
685.396	1371
685.443	796
685.490	1529
685.514	1660
685.536	1674
685.583	2013
685.629	1363
685.636	1404
685.675	1588
685.722	1373
685.757	1703
685.768	1843
685.815	571
685.861	1922
685.878	1748
685.908	1478
685.954	1639
686.000	1640
686.000	1637
686.047	1682
686.093	1845
686.121	1819
686.139	1756
686.185	1826
686.232	1701
686.242	1609
686.278	1324
686.324	2013
686.363	1568
686.370	1473
686.416	2170
686.463	1803
686.484	1808
686.509	1889
686.555	1128
686.601	1880
686.606	1860
686.647	1600
686.693	1965
686.727	1896
686.739	1899
686.785	1511
686.831	1585
686.848	1835
686.877	2166
686.923	1456
686.969	1908
686.969	1911
687.015	1429
687.061	2080
687.090	2301
687.107	2374
687.153	2129
687.199	2177
687.211	1969
687.245	1614
687.291	1753
687.332	2263
687.336	2294
687.382	2803
687.428	2285
687.453	2531
687.474	2717
687.520	2094
687.565	2305
687.574	2255
687.611	2304
687.657	3018
687.695	3216
687.702	3373
687.748	4575
687.794	6514
687.816	6622
687.839	5698
687.885	4241
687.931	3437
687.937	3243
687.976	2789
688.022	2906
688.058	2397
688.067	2332
688.113	2362
688.158	2932
688.179	2788
688.204	2549
688.249	2558
688.295	2463
688.300	2455
688.340	2395
688.386	1742
688.421	1791
688.431	1866
688.477	1941
688.522	2468
688.542	2539
688.567	2584
688.613	2654
688.658	2809
688.663	2816
688.703	2810
688.749	2318
688.784	2622
688.794	2715
688.839	2589
688.884	2394
688.905	2444
688.930	2481
688.975	2314
689.020	2958
689.026	2893
689.065	2655
689.110	2419
689.146	2971
689.155	3098
689.201	3177
689.246	2813
689.267	3044
689.291	3149
689.336	2906
689.381	2618
689.388	2539
689.426	2282
689.471	2174
689.509	2092
689.516	2088
689.561	1996
689.606	2511
689.630	2330
689.651	2163
689.696	2291
689.741	2343
689.750	2307
689.785	2288
689.830	2539
689.871	2533
689.875	2535
689.920	2473
689.965	2915
689.992	2723
690.010	2627
690.054	2600
690.099	2791
690.112	2837
690.144	2834
690.189	2556
690.233	2812
690.233	2819
690.278	2270
690.323	2831
690.354	2718
690.367	2752
690.412	3302
690.457	2882
690.474	3140
690.501	3273
690.546	3134
690.590	2828
690.595	2767
690.635	2656
690.680	2879
690.716	2967
690.724	2956
690.769	3398
690.813	3178
690.836	3197
690.857	3426
690.902	3803
690.946	4258
690.957	4339
690.991	5009
691.035	6364
691.077	7303
691.080	7307
691.124	6627
691.168	6141
691.198	5969
691.213	5706
691.257	5339
691.301	3854
691.318	3571
691.346	3602
691.390	3476
691.434	3450
691.439	3420
691.478	3394
691.522	3667
691.559	3782
691.567	3823
691.611	3850
691.655	4142
691.680	3927
691.699	3566
691.743	3461
691.787	3111
691.800	3003
691.831	3172
691.875	3487
691.919	3653
691.921	3643
691.964	3130
692.008	3089
692.041	2937
692.052	3058
692.096	2996
692.139	3908
692.162	3940
692.183	3730
692.227	3678
692.271	3515
692.282	3411
692.315	3299
692.359	3511
692.402	3897
692.403	3909
692.447	3652
692.490	3710
692.523	3802
692.534	3887
692.578	3739
692.622	4310
692.643	4234
692.666	3948
692.709	3781
692.753	2940
692.763	2871
692.797	3221
692.840	3628
692.884	4191
692.884	4201
692.928	3566
692.971	3516
693.004	3340
693.015	3407
693.059	3587
693.102	3885
693.124	4020
693.146	4004
693.189	3625
693.233	3468
693.245	3498
693.276	3852
693.320	3878
693.363	4044
693.365	4047
693.407	4230
693.450	4010
693.485	4055
693.493	4183
693.537	4655
693.580	4972
693.605	5304
693.624	5553
693.667	6046
693.710	6503
693.725	6719
693.753	8391
693.797	11005
693.840	13848
693.845	14044
693.883	12742
693.926	11642
693.966	10873
693.970	10754
694.013	8751
694.056	7328
694.086	6094
694.099	5908
694.142	5369
694.185	4789
694.206	4536
694.229	4514
694.272	4460
694.315	4447
694.326	4374
694.358	4359
694.401	4663
694.444	4690
694.446	4688
694.487	5130
694.530	5307
694.566	5613
694.573	5542
694.616	4899
694.659	4221
694.686	3859
694.702	3969
694.745	4010
694.787	4405
694.806	4559
694.830	4589
694.873	4419
694.916	4378
694.926	4306
694.959	4298
695.002	4162
695.044	4146
695.046	4144
695.087	4550
695.130	4714
695.166	4800
695.172	4795
695.215	4743
695.258	4593
695.286	4603
695.301	4606
695.343	4410
695.386	4263
695.406	4177
695.428	4177
695.471	4172
695.514	4115
695.526	4102
695.556	4366
695.599	4668
695.641	5104
695.646	5125
695.684	5171
695.726	5207
695.766	5118
695.769	5109
695.811	4982
695.854	4716
695.886	4525
695.896	4547
695.938	4474
695.981	4580
696.005	4546
696.023	4631
696.065	4712
696.108	5067
696.125	5178
696.150	5195
696.192	5099
696.235	4955
696.245	4935
696.277	4848
696.319	4619
696.361	4423
696.365	4400
696.404	4670
696.446	4832
696.485	5060
696.488	5091
696.530	5056
696.572	5317
696.604	5408
696.614	5368
696.656	5096
696.698	4873
696.724	4711
696.740	4786
696.783	4972
696.825	5185
696.844	5278
696.867	5346
696.909	5187
696.951	5226
696.964	5270
696.992	5377
697.034	5241
697.076	5130
697.083	5126
697.118	5477
697.160	5721
697.202	6078
697.203	6068
697.244	5686
697.286	5264
697.323	4921
697.327	4960
697.369	5130
697.411	5333
697.442	5430
697.453	5437
697.494	5491
697.536	5440
697.562	5451
697.578	5585
697.620	5832
697.661	6070
697.682	6168
697.703	6242
697.744	6354
697.786	6588
697.801	6623
697.828	6768
697.869	6867
697.911	7057
697.921	7084
697.952	6756
697.994	6281
698.035	5807
698.040	5737
698.077	5811
698.118	5786
698.160	5817
698.160	5799
698.201	5824
698.243	5826
698.279	5834
698.284	5863
698.325	5917
698.367	6043
698.399	6091
698.408	6067
698.449	5864
698.491	5692
698.518	5559
698.532	5628
698.573	5777
698.614	5943
698.638	6011
698.656	6014
698.697	5979
698.738	5947
698.757	5918
698.779	6046
698.820	6254
698.862	6464
698.877	6522
698.903	6622
698.944	6759
698.985	6888
698.996	6905
699.026	6668
699.067	6314
699.116	5874
699.235	5629
699.354	6241
699.474	6512
699.593	6625
699.713	6770
699.832	6345
699.951	6747
700.070	7544
700.190	6080
700.309	6540
700.428	6307
700.547	6317
700.667	6292
700.786	6306
700.905	6336
701.024	6245
701.143	4920
701.262	5097
701.381	5339
701.500	5839
701.619	7279
701.738	6233
701.857	5731
701.976	6662
702.095	5108
702.214	6293
702.333	6017
702.452	5802
702.571	5194
702.690	5829
702.809	4891
702.928	6554
703.047	5051
703.165	5704
703.284	5184
703.403	5606
703.522	6425
703.640	6572
703.759	6500
703.878	7730
703.997	5346
704.115	5260
704.234	5222
704.353	5191
704.471	4676
704.590	5076
704.708	5395
704.827	4563
704.946	4407
705.064	5003
705.183	4839
705.301	6383
705.420	6311
705.538	5511
705.656	5040
705.775	6508
705.893	11792
706.012	13734
706.130	5083
706.249	6161
706.367	5070
706.485	6380
706.604	4474
706.722	6361
706.840	8262
706.958	16930
707.077	8966
707.195	4707
707.313	5012
707.431	4832
707.549	4607
707.668	4331
707.786	4590
707.904	4727
708.022	5018
708.140	4775
708.258	4951
708.376	5046
708.494	4543
708.612	4901
708.730	5341
708.848	5304
708.966	5862
709.084	6202
709.202	5865
709.320	5990
709.438	3922
709.556	5715
709.674	4985
709.791	5104
709.909	4342
710.027	4883
710.145	5430
710.263	4786
710.380	5226
710.498	5365
710.616	5771
710.733	5046
710.851	5036
710.969	5525
711.086	4578
711.204	6035
711.322	4929
711.439	4678
711.557	4523
711.674	4402
711.792	4567
711.909	5597
712.027	5822
712.144	4749
712.262	4373
712.379	3799
712.497	5819
712.614	6829
712.732	5302
712.849	6145
712.966	5959
713.084	7164
713.201	4961
713.318	5781
713.436	4655
713.553	5577
713.670	5612
713.787	6268
713.905	5700
714.022	5519
714.139	5506
714.256	8586
714.373	12021
714.490	24501
714.608	69578
714.725	318631
714.842	309808
714.959	19166
715.076	8428
715.193	6847
715.310	6775
715.427	5291
715.544	5446
715.661	4811
715.778	4724
715.895	4889
716.011	5349
716.128	4887
716.245	5391
716.362	6760
716.479	6617
716.596	5296
716.713	4746
716.829	4909
716.946	4650
717.063	4078
717.180	3990
717.296	4767
717.413	3345
717.530	4263
717.646	4579
717.763	4622
717.880	2757
717.996	3462
718.113	3421
718.229	4765
718.346	3001
718.462	4246
718.579	5848
718.695	10900
718.812	6280
718.928	5228
719.045	3972
719.161	4172
719.277	4354
719.394	4097
719.510	4504
719.626	4585
719.743	6427
719.859	9498
719.975	20115
720.092	86366
720.208	188880
720.324	19430
720.440	5626
720.557	6168
720.673	8901
720.789	8587
720.905	13897
721.021	5310
721.137	3175
721.253	4124
721.369	3244
721.486	4013
721.602	5090
721.718	3323
721.834	3236
721.950	4256
722.066	2404
722.181	4138
722.297	3494
722.413	3735
722.529	3382
722.645	4094
722.761	3214
722.877	2488
722.993	3940
723.108	4313
723.224	3363
723.340	3876
723.456	2893
723.571	3246
723.687	2386
723.803	2262
723.918	2450
724.034	2615
724.150	2158
724.265	3336
724.381	4725
724.497	7335
724.612	2437
724.728	3111
724.843	3374
724.959	3548
725.074	5550
725.190	6201
725.305	3123
725.421	2241
725.536	2548
725.651	2976
725.767	2345
725.882	3133
725.997	2084
726.113	2410
726.228	2810
726.343	1890
726.459	2148
726.574	2696
726.689	2232
726.804	2315
726.920	1906
727.035	2230
727.150	2633
727.265	2517
727.380	2785
727.495	3530
727.610	2863
727.725	2884
727.841	2649
727.956	6466
728.071	4461
728.186	2194
728.301	2058
728.416	3594
728.531	2782
728.645	2968
728.760	3265
728.875	3555
728.990	4238
729.105	3015
729.220	2036
729.335	2822
729.449	2538
729.564	2395
729.679	1920
729.794	2518
729.908	1669
730.023	3118
730.138	1764
730.253	2174
730.367	1807
730.482	2706
730.596	2197
730.711	3388
730.826	4688
730.940	5052
731.055	2710
731.169	3009
731.284	1913
731.398	2570
731.513	2114
731.627	3453
731.742	2439
731.856	3303
731.970	3493
732.085	5372
732.199	7484
732.313	12031
732.428	33420
732.542	102085
732.656	54820
732.771	9388
732.885	4733
732.999	4291
733.113	4113
733.227	4538
733.342	2806
733.456	3180
733.570	3312
733.684	3608
733.798	3055
733.912	3067
734.026	3211
734.140	3497
734.254	2431
734.368	4004
734.482	5112
734.596	3142
734.710	2453
734.824	2739
734.938	2732
735.052	2670
735.166	2811
735.280	3641
735.393	3002
735.507	3220
735.621	3441
735.735	4312
735.849	3093
735.962	2348
736.076	3528
736.190	2377
736.303	3875
736.417	3976
736.531	2695
736.644	2583
736.758	1522
736.872	3040
736.985	2891
737.099	2798
737.212	2473
737.326	3040
737.439	2502
737.553	3388
737.666	2598
737.780	2422
737.893	2284
738.007	3066
738.120	1478
738.233	2385
738.347	2663
738.460	3302
738.573	2400
738.687	2649
738.800	2411
738.913	4051
739.026	2262
739.140	2555
739.253	2250
739.366	3080
739.479	1610
739.592	2257
739.705	1273
739.818	2946
739.932	2446
740.045	3360
740.158	2790
740.271	2543
740.384	2176
740.497	3445
740.610	2928
740.723	2514
740.836	3549
740.949	3577
741.062	3755
741.174	3665
741.287	1543
741.400	2242
741.513	2647
741.626	4765
741.739	2753
741.851	2691
741.964	2649
742.077	3002
742.189	3161
742.302	5895
742.415	4129
742.527	3498
742.640	2302
742.753	2012
742.865	1978
742.978	2090
743.090	2561
743.203	2245
743.316	1996
743.428	1756
743.541	1685
743.653	1597
743.766	2134
743.878	1758
743.990	2068
744.103	4235
744.215	5507
744.327	3003
744.440	2834
744.552	4264
744.664	1834
744.777	2129
744.889	485
745.001	1852
745.113	1137
745.226	1084
745.338	1640
745.450	1911
745.562	695
745.674	1394
745.786	1942
745.898	1652
746.010	1176
746.122	2066
746.234	2856
746.347	1200
746.459	1579
746.570	2756
746.682	3563
746.794	8560
746.906	2917
747.018	2090
747.130	441
747.242	1736
747.354	1365
747.466	2319
747.577	318
747.689	2396
747.801	2056
747.913	1811
748.024	837
748.136	1923
748.248	1117
748.359	1570
748.471	1368
748.583	2015
748.694	692
748.806	2795
748.918	1151
749.029	1541
749.141	1853
749.252	1860
749.364	1561
749.475	4562
749.587	2079
749.698	832
749.809	941
749.921	1683
750.032	604
750.144	1246
750.255	759
750.366	816
750.478	1133
750.589	1616
750.700	1090
750.811	1318
750.923	1243
751.034	5135
751.145	5358
751.256	932
751.367	1350
751.479	694
751.590	1230
751.701	1454
751.812	1480
751.923	1222
752.034	1263
752.145	1702
752.256	605
752.367	1583
752.478	474
752.589	1810
752.700	740
752.811	1131
752.922	547
753.032	1438
753.143	1398
753.254	1118
753.365	1725
753.476	1092
753.586	420
753.697	1314
753.808	329
753.919	1085
754.029	1158
754.140	1791
754.251	702
754.361	1271
754.472	493
754.582	881
754.693	399
754.804	1447
754.914	178
755.025	654
755.135	281
755.246	1244
755.356	409
755.466	2279
755.577	553
755.687	1324
755.798	1023
755.908	653
756.018	608
756.129	1660
756.239	883
756.349	1600
756.460	338
756.570	1731
756.680	457
756.790	834
756.900	772
757.011	662
757.121	446
757.231	115
757.341	651
757.451	734
757.561	-468
757.671	1119
757.781	721
757.891	1481
758.001	395
758.111	1278
758.221	1358
758.331	1581
758.441	734
758.551	1512
758.661	1726
758.771	1709
758.880	1196
758.990	881
759.100	887
759.210	763
759.320	983
759.429	994
759.539	1158
759.649	514
759.758	1397
759.868	1707
759.978	1607
760.087	2313
760.197	1821
760.307	1750
760.416	1290
760.526	1110
760.635	1263
760.745	1917
760.854	2204
760.964	2023
761.073	2201
761.182	2292
761.292	1258
761.401	1854
761.511	914
761.620	1790
761.729	1328
761.839	1216
761.948	931
762.057	2068
762.166	1003
762.276	988
762.385	1713
762.494	1517
762.603	540
762.712	1438
762.822	749
762.931	1340
763.040	123
763.149	1058
763.258	766
763.367	1341
763.476	1052
763.585	1683
763.694	1711
763.803	1914
763.912	1396
764.021	1587
764.130	1072
764.238	1999
764.347	1625
764.456	1969
764.565	1799
764.674	2012
764.783	1645
764.891	2021
765.000	2768
765.109	3210
765.217	2652
765.326	4027
765.435	4649
765.543	5716
765.652	5620
765.761	8381
765.869	12946
765.978	21932
766.086	36388
766.195	78227
766.303	202247
766.412	481917
766.520	371364
766.629	115348
766.737	42094
766.846	23000
766.954	14188
767.062	12442
767.171	10082
767.279	7965
767.387	4976
767.496	4458
767.604	3385
767.712	3136
767.820	4001
767.928	3847
768.037	2633
768.145	3425
768.253	3096
768.361	3257
768.469	3075
768.577	2850
768.685	2339
768.793	3704
768.901	2943
769.009	4712
769.117	3871
769.225	5833
769.333	9032
769.441	15319
769.549	28672
769.657	71020
769.765	227826
769.873	385841
769.981	135542
770.088	33015
770.196	14645
770.304	10469
770.412	7525
770.519	4529
770.627	4029
770.735	3465
770.842	2700
770.950	3139
771.058	2672
771.165	2760
771.273	2183
771.380	2460
771.488	3001
771.595	2379
771.703	1626
771.810	2247
771.918	1341
772.025	2501
772.133	2429
772.240	1934
772.348	2882
772.455	1950
772.562	1004
772.670	2350
772.777	2006
772.884	2329
772.991	1564
773.099	2417
773.206	1145
773.313	2649
773.420	1475
773.528	643
773.635	1714
773.742	2103
773.849	1757
773.956	2151
774.063	896
774.170	1739
774.277	1004
774.384	1318
774.491	778
774.598	2170
774.705	1323
774.812	1414
774.919	844
775.026	1313
775.133	2084
775.239	1880
775.346	450
775.453	1182
775.560	234
775.667	1988
775.773	686
775.880	1557
775.987	1285
776.093	2201
776.200	-82
776.307	782
776.413	1541
776.520	1507
776.627	1471
776.733	1159
776.840	-25
776.946	4099
777.053	6403
777.159	14755
777.266	6492
777.372	12687
777.478	9342
777.585	4805
777.691	1171
777.798	1715
777.904	1656
778.010	2895
778.117	1342
778.223	1028
778.329	1397
778.435	1468
778.542	1035
778.648	1284
778.754	-376
778.860	1626
778.966	821
779.072	953
779.178	670
779.284	1985
779.391	-118
779.497	123
779.603	1715
779.708	-305
779.815	1125
779.920	3720
780.026	4976
780.132	1560
780.238	-7
780.344	431
780.450	1529
780.556	375
780.661	684
780.767	899
780.873	-3
780.979	1022
781.085	-304
781.190	524
781.296	201
781.402	1436
781.507	864
781.613	1051
781.719	175
781.824	1024
781.930	1464
782.035	938
782.141	964
782.246	508
782.352	201
782.457	660
782.563	203
782.668	1100
782.773	23
782.879	889
782.984	569
783.090	1755
783.195	1438
783.300	1169
783.405	613
783.511	1236
783.616	993
783.721	641
783.826	-214
783.932	1559
784.037	655
784.142	233
784.247	589
784.352	1078
784.457	332
784.562	1271
784.667	441
784.772	1057
784.877	-341
784.982	1418
785.087	-619
785.192	739
785.297	83
785.402	977
785.507	-301
785.611	985
785.716	286
785.821	301
785.926	554
786.031	1299
786.135	-66
786.240	449
786.345	-1222
786.450	1156
786.554	64
786.659	132
786.763	-999
786.868	433
786.973	1231
787.077	610
787.182	-282
787.286	692
787.391	450
787.495	375
787.600	291
787.704	-51
787.809	-6
787.913	451
788.017	427
788.122	1019
788.226	-105
788.330	-572
788.435	-935
788.539	190
788.643	-1203
788.747	667
788.852	-329
788.956	569
789.060	873
789.164	-98
789.268	-693
789.372	-54
789.476	-567
789.580	-644
789.684	-602
789.788	610
789.892	-319
789.996	136
790.100	-559
790.204	609
790.308	-294
790.412	-56
790.516	336
790.620	644
790.724	-430
790.828	-348
790.931	-1071
791.035	1311
791.139	-433
791.242	-781
791.346	368
791.450	24
791.554	-754
791.657	-704
791.761	531
791.864	1198
791.968	758
792.072	-358
792.175	-817
792.279	785
792.382	489
792.486	497
792.589	-408
792.693	998
792.796	-791
792.899	773
793.003	676
793.106	-1213
793.209	-257
793.313	1632
793.416	-927
793.519	1717
793.623	371
793.726	1898
793.829	453
793.932	549
794.035	-1093
794.138	1155
794.242	648
794.345	656
794.448	893
794.551	874
794.654	3529
794.757	3137
794.860	287
794.963	-16
795.066	-968
795.169	794
795.272	-242
795.375	729
795.477	-1390
795.580	-45
795.683	-946
795.786	611
795.889	-1611
795.991	514
796.094	610
796.197	-997
796.300	-53
796.402	-1029
796.505	-759
796.608	-174
796.710	124
796.813	579
796.915	-625
797.018	675
797.120	-655
797.223	-1106
797.326	309
797.428	-138
797.530	-636
797.633	-298
797.735	558
797.838	-8
797.940	59
798.042	-36
798.145	-450
798.247	837
798.349	-2175
798.452	277
798.554	-257
798.656	-610
798.758	628
798.860	-56
798.962	-781
799.065	-713
799.167	-1477
799.269	1298
799.371	762
799.473	1086
799.575	-994
799.677	518
799.779	1018
799.881	-424
799.983	262
800.085	287
800.187	-293
800.289	-543
800.390	94
800.492	-377
800.594	1043
800.696	-92
800.798	0
800.899	-618
801.001	-1089
801.103	-132
801.205	-1273
801.306	94
801.408	-881
801.509	930
801.611	-571
801.713	-96
801.814	-808
801.916	-557
802.017	-834
802.119	-1157
802.220	-156
802.322	-1398
802.423	1205
802.525	-1090
802.626	-559
802.727	-25
802.829	114
802.930	-1717
803.031	973
803.133	268
803.234	-1365
803.335	53
803.436	-1873
803.538	-414
803.639	-1049
803.740	632
803.841	-287
803.942	-36
804.043	168
804.144	-1173
804.245	-34
804.346	-1122
804.447	-979
804.548	607
804.649	1208
804.750	-1095
804.851	-909
804.952	-179
805.053	-770
805.154	-291
805.255	-274
805.355	831
805.456	-102
805.557	-137
805.658	-2229
805.758	56
805.859	-774
805.960	120
806.061	-913
806.161	-202
806.262	-714
806.362	-423
806.463	-1084
806.564	331
806.664	-334
806.765	222
806.865	-394
806.966	-1199
807.066	-1068
807.166	380
807.267	-95
807.367	-393
807.468	1
807.568	-930
807.668	-435
807.769	38
807.869	-454
807.969	-503
808.069	-449
808.170	262
808.270	-941
808.370	315
808.470	652
808.570	-925
808.670	-742
808.770	-584
808.870	-1697
808.970	-473
809.070	-877
809.170	-1522
809.271	-434
809.370	-79
809.470	-582
809.570	172
809.670	-877
809.770	-472
809.870	-230
809.970	32
810.070	-1120
810.169	249
810.269	-2335
810.369	1167
810.469	-1174
810.568	-439
810.668	-1650
810.768	-87
810.867	131
810.967	-239
811.066	-906
811.166	-272
811.265	-329
811.365	-356
811.464	-1687
811.564	17
811.663	-412
811.763	-1699
811.862	-818
811.962	37
812.061	-1284
812.160	-628
812.260	-584
812.359	-758
812.458	-1293
812.557	480
812.657	-1061
812.756	215
812.855	-419
812.954	190
813.053	-894
813.153	-490
813.252	-1181
813.351	-738
813.450	-196
813.549	-1083
813.648	-381
813.747	-903
813.846	604
813.945	-631
814.044	-1117
814.143	-120
814.242	-583
814.341	-687
814.439	-453
814.538	105
814.637	-175
814.736	1095
814.835	-133
814.933	-35
815.032	353
815.131	154
815.229	833
815.328	448
815.427	-147
815.525	947
815.624	-30
815.722	607
815.821	539
815.919	-66
816.018	-787
816.116	1163
816.215	466
816.313	1685
816.412	168
816.510	1301
816.609	2917
816.707	2053
816.805	1030
816.904	445
817.002	638
817.100	3031
817.198	2592
817.296	2682
817.395	2874
817.493	4686
817.591	3409
817.689	6071
817.787	7210
817.885	14607
817.983	26592
818.081	58681
818.179	137714
818.277	336291
818.375	265518
818.473	74853
818.571	29757
818.669	19614
818.767	16258
818.865	16494
818.963	19177
819.061	29121
819.158	51457
819.256	110366
819.354	254959
819.452	505537
819.549	311915
819.647	95639
819.745	39481
819.842	24288
819.940	15082
820.038	11287
820.135	8317
820.233	7004
820.330	4451
820.428	5046
820.525	4609
820.623	3710
820.720	2166
820.818	2999
820.915	2323
821.012	3388
821.110	1717
821.207	2556
821.304	1665
821.402	2224
821.499	3228
821.596	6029
821.693	2081
821.791	2105
821.888	654
821.985	3046
822.082	2037
822.179	2889
822.276	777
822.373	1445
822.470	-250
822.567	872
822.664	-693
822.761	1252
822.858	-310
822.955	919
823.052	335
823.149	103
823.246	90
823.343	424
823.440	217
823.536	96
823.633	-56
823.730	521
823.827	-123
823.923	384
824.020	1073
824.117	848
824.213	364
824.310	94
824.407	-813
824.503	365
824.600	-641
824.696	220
824.793	580
824.889	761
824.986	-254
825.082	-15
825.179	413
825.275	-14
825.371	-557
825.468	-232
825.564	-886
825.660	485
825.757	-364
825.853	715
825.949	-1445
826.045	89
826.142	-142
826.238	56
826.334	-210
826.430	-636
826.526	-211
826.622	-496
826.718	-853
826.814	-960
826.910	-129
827.006	-889
827.102	-1894
827.198	878
827.294	226
827.390	-273
827.486	214
827.582	-1612
827.678	-1792
827.774	-367
827.869	-1188
827.965	730
828.061	-1470
828.157	122
828.252	-649
828.348	-1494
828.444	527
828.539	-1037
828.635	-957
828.731	887
828.826	-905
828.922	-336
829.017	-983
829.113	887
829.208	-1518
829.304	-624
829.399	345
829.495	-586
829.590	18
829.685	-535
829.781	-567
829.876	-1384
829.971	-208
830.066	-295
830.162	-1059
830.257	-161
830.352	-1565
830.447	-161
830.543	-703
830.638	-1323
830.733	-41
830.828	-475
830.923	-474
831.018	34
831.113	-270
831.208	-1447
831.303	-526
831.398	-976
831.493	-764
831.588	307
831.683	-1540
831.778	-817
831.873	-1089
831.967	-409
832.062	-1297
832.157	-659
832.252	-985
832.346	72
832.441	250
832.536	111
832.631	1272
832.725	741
832.820	-984
832.914	-1127
833.009	-553
833.104	-264
833.198	651
833.293	-434
833.387	-396
833.482	-645
833.576	-1597
833.670	40
833.765	-812
833.859	-668
833.954	-142
834.048	-1048
834.142	-990
834.237	-89
834.331	-1094
834.425	-626
834.519	-1379
834.613	587
834.708	-948
834.802	-438
834.896	-913
834.990	-920
835.084	-788
835.178	-1525
835.272	-1628
835.366	-928
835.460	332
835.554	-701
835.648	-783
835.742	-1163
835.836	-295
835.930	-570
836.024	-96
836.117	385
836.211	-1370
836.305	-478
836.399	2
836.493	-1687
836.586	-916
836.680	-1166
836.774	-1626
836.867	740
836.961	-1160
837.055	-1405
837.148	-750
837.242	-305
837.335	-868
837.429	83
837.522	-1251
837.616	-172
837.709	-1075
837.803	-498
837.896	-1372
837.989	-264
838.083	-551
838.176	163
838.269	-1176
838.363	433
838.456	-1891
838.549	336
838.642	-762
838.735	2239
838.829	201
838.922	-1451
839.015	-1398
839.108	-788
839.201	-1088
839.294	-320
839.387	-953
839.480	-1098
839.573	-1106
839.666	-1437
839.759	-1770
839.852	-1792
839.945	-656
840.038	-628
840.131	-1937
840.223	-1148
840.316	-726
840.409	-977
840.502	-1162
840.594	-119
840.687	-1595
840.780	105
840.873	-1559
840.965	-934
841.058	-1375
841.150	-146
841.243	-1299
841.336	-423
841.428	-873
841.521	-1373
841.613	-1670
841.706	-567
841.798	-930
841.890	-1217
841.983	-2531
842.075	-291
842.167	-1049
842.260	-665
842.352	-1006
842.444	-597
842.537	-626
842.629	1166
842.721	-876
842.813	-468
842.905	-1484
842.997	-272
843.090	-994
843.182	-284
843.274	-521
843.366	2003
843.458	2417
843.550	1571
843.642	-729
843.734	-517
843.826	-1249
843.918	-564
844.009	-384
844.101	-1748
844.193	-1550
844.285	-627
844.377	-113
844.469	1607
844.560	2229
844.652	767
844.744	-507
844.835	-809
844.927	-880
845.019	-665
845.110	-1426
845.202	-671
845.293	-1185
845.385	-1414
845.476	-737
845.568	-323
845.659	-2124
845.751	-329
845.842	-1792
845.934	-1110
846.025	-1757
846.116	-348
846.208	-1630
846.299	-1648
846.390	-1049
846.482	-74
846.573	-1290
846.664	-675
846.755	-1226
846.846	135
846.937	-2649
847.029	-715
847.120	-1411
847.211	-898
847.302	-954
847.393	-1047
847.484	-760
847.575	-865
847.666	-2388
847.757	-795
847.847	-1389
847.938	1061
848.029	-470
848.120	-949
848.211	-668
848.302	-1196
848.392	-1575
848.483	-693
848.574	-1394
848.664	-1203
848.755	-1750
848.846	-562
848.936	-1162
849.027	-1250
849.118	-624
849.208	-1800
849.299	-601
849.389	851
849.480	3636
849.570	9708
849.661	18165
849.751	32004
849.841	9562
849.932	70
850.022	-833
850.112	153
850.203	-507
850.293	-1341
850.383	-1922
850.474	-1226
850.564	-1904
850.654	-273
850.744	-1745
850.834	-1575
850.924	-1259
851.014	-249
851.104	-2198
851.194	-585
851.284	-1033
851.374	-218
851.464	-1250
851.554	-962
851.644	-1278
851.734	-365
851.824	-1066
851.914	-318
852.004	-353
852.094	-1372
852.183	-993
852.273	-1367
852.363	-1069
852.452	-436
852.542	-1651
852.632	-1722
852.721	-1539
852.811	-1000
852.901	-1356
852.990	-1139
853.080	-733
853.169	-409
853.259	-1144
853.348	-247
853.438	-475
853.527	1192
853.617	1802
853.706	5468
853.795	12344
853.885	30465
853.974	59980
854.063	109263
854.152	172671
854.242	61667
854.331	8053
854.420	3392
854.509	1256
854.598	1580
854.687	199
854.777	520
854.866	-542
854.955	479
855.044	-1343
855.133	-332
855.222	-823
855.311	-407
855.400	-1036
855.488	-557
855.577	-1083
855.666	190
855.755	-910
855.844	218
855.933	-998
856.021	-498
856.110	-880
856.199	-894
856.288	-1268
856.376	-1342
856.465	-1923
856.554	-934
856.642	-1253
856.731	-121
856.819	-1322
856.908	-451
856.996	-1105
857.085	-1133
857.173	-1026
857.262	-1351
857.350	-748
857.438	-789
857.527	-764
857.615	-947
857.703	-947
857.792	-1160
857.880	-1766
857.968	-1823
858.056	-1468
858.145	-325
858.233	-1874
858.321	-1417
858.409	-725
858.497	-1403
858.585	-1427
858.673	-1153
858.761	-2176
858.849	-689
858.937	-1180
859.025	-1148
859.113	-755
859.201	-1533
859.289	-1205
859.377	-1518
859.465	-695
859.552	-822
859.640	-2164
859.728	-303
859.816	-1167
859.903	-637
859.991	-1476
860.079	-1118
860.166	-1141
860.254	-820
860.342	-1582
860.429	-1312
860.517	-1226
860.604	-741
860.692	-1433
860.779	-919
860.867	-2105
860.954	-885
861.042	-2278
861.129	-1140
861.216	-1369
861.304	-1160
861.391	-1118
861.478	-980
861.565	-1444
861.653	-95
861.740	-2203
861.827	-634
861.914	-1191
862.001	-1692
862.089	-1524
862.176	-713
862.263	-1632
862.350	-1310
862.437	-1606
862.524	-2016
862.611	-823
862.698	144
862.785	-884
862.871	91
862.958	-1103
863.045	-1114
863.132	-1208
863.219	-1105
863.306	-2876
863.392	-976
863.479	-1642
863.566	-1408
863.652	367
863.739	-1241
863.826	-814
863.912	-360
863.999	-1268
864.086	-635
864.172	-1144
864.259	-1153
864.345	-601
864.432	-779
864.518	-1899
864.604	-657
864.691	-1366
864.777	-307
864.863	-527
864.950	123
865.036	-857
865.122	821
865.209	-22
865.295	1067
865.381	1055
865.467	1257
865.553	699
865.639	3132
865.726	5416
865.812	14000
865.898	28897
865.984	43948
866.070	82742
866.156	89080
866.242	21250
866.328	4312
866.414	1120
866.499	889
866.585	231
866.671	301
866.757	-64
866.843	264
866.928	274
867.014	219
867.100	291
867.186	-407
867.271	-206
867.357	672
867.442	-276
867.528	-720
867.614	-175
867.699	420
867.785	799
867.870	2239
867.956	1990
868.041	1560
868.127	-128
868.212	1535
868.297	1186
868.383	510
868.468	587
868.553	1858
868.639	553
868.724	2540
868.809	1781
868.894	-372
868.979	-715
869.065	-878
869.150	-1459
869.235	-582
869.320	-1155
869.405	-1161
869.490	-1131
869.575	-539
869.660	-1387
869.745	-329
869.830	-1872
869.915	-1010
870.000	-523
870.085	-598
870.169	-40
870.254	233
870.339	-892
870.424	-1215
870.509	-333
870.593	102
870.678	-1141
870.763	-632
870.847	-875
870.932	-6
871.016	-893
871.101	524
871.186	-1087
871.270	-259
871.355	-949
871.439	303
871.523	-726
871.608	-97
871.692	-1369
871.777	-202
871.861	-438
871.945	-437
872.030	-646
872.114	-1565
872.198	-1370
872.282	-894
872.367	-532
872.451	-1513
872.535	-994
872.619	-724
872.703	-849
872.787	-492
872.871	-1239
872.955	-1160
873.039	-1195
873.123	-1499
873.207	-343
873.291	-901
873.375	-967
873.459	-689
873.543	-1796
873.627	-523
873.711	-795
873.794	-559
873.878	-652
873.962	-1290
874.045	-589
874.129	-939
874.137	-935
874.213	-890
874.245	-806
874.296	-672
874.352	-974
874.380	-1127
874.460	-935
874.464	-926
874.547	-872
874.568	-608
874.631	135
874.676	-226
874.714	-547
874.784	-251
874.798	-184
874.881	-48
874.892	-114
874.965	-523
874.999	-702
875.048	-1019
875.107	-396
875.131	-121
875.215	-532
875.215	-532
875.298	-571
875.323	-612
875.381	-653
875.430	-446
875.465	-342
875.538	-475
875.548	-498
875.631	-540
875.646	-767
875.714	-1777
875.753	-1253
875.798	-652
875.861	-723
875.881	-746
875.964	99
875.968	61
876.047	-608
876.076	-432
876.130	-108
876.183	-255
876.213	-333
876.291	350
876.296	395
876.379	-492
876.398	-475
876.462	-448
876.506	-551
876.545	-663
876.613	-927
876.628	-918
876.711	-27
876.721	1
876.794	-191
876.828	-569
876.877	-963
876.935	-391
876.960	-175
877.043	-161
877.043	-157
877.125	876
877.150	593
877.208	-116
877.258	-5
877.291	104
877.365	-35
877.374	-74
877.456	623
877.472	447
877.539	-97
877.579	-3
877.622	44
877.687	266
877.704	361
877.787	340
877.794	283
877.869	-541
877.901	-297
877.952	310
878.008	170
878.034	-95
878.115	-206
878.117	-197
878.199	-1024
878.222	-693
878.282	266
878.329	311
878.364	174
878.437	280
878.447	312
878.529	-681
878.544	-507
878.611	260
878.651	-236
878.694	-610
878.758	239
878.776	431
878.858	71
878.865	108
878.941	298
878.972	-55
879.023	-380
879.078	-199
879.105	-77
879.185	-54
879.187	-55
879.269	728
879.292	400
879.351	-609
879.399	-234
879.433	255
879.506	109
879.516	26
879.598	-514
879.613	-586
879.680	-265
879.720	126
879.762	216
879.827	-347
879.844	-423
879.926	289
879.933	296
880.007	71
880.040	-9
880.089	94
880.147	672
880.171	965
880.253	2123
880.254	2126
880.335	2769
880.360	3060
880.417	4446
880.467	6896
880.499	8723
880.574	11394
880.580	11235
880.662	3496
880.680	2429
880.744	776
880.787	242
880.825	-166
880.893	190
880.907	310
880.989	135
881.000	165
881.070	114
881.106	-337
881.152	-747
881.213	-10
881.233	229
881.315	-394
881.319	-381
881.396	247
881.426	255
881.478	87
881.532	256
881.559	317
881.639	92
881.641	88
881.722	317
881.745	156
881.803	261
881.852	421
881.885	175
881.958	312
881.966	383
882.047	579
882.064	576
882.129	342
882.171	445
882.210	855
882.277	1165
882.291	1090
882.372	442
882.383	371
882.454	545
882.489	587
882.535	320
882.596	-34
882.616	-91
882.697	272
882.702	259
882.778	377
882.808	343
882.859	-149
882.914	-343
882.940	-263
883.020	-271
883.021	-261
883.102	13
883.127	355
883.183	625
883.233	218
883.264	6
883.339	222
883.345	225
883.426	-270
883.445	-371
883.507	142
883.551	544
883.587	492
883.657	757
883.668	834
883.749	593
883.763	571
883.830	184
883.869	219
883.910	563
883.975	396
883.991	258
884.072	228
884.081	233
884.152	995
884.187	970
884.233	558
884.292	436
884.314	406
884.394	177
884.398	165
884.475	201
884.504	117
884.555	254
884.610	678
884.636	724
884.716	502
884.716	512
884.797	1365
884.821	1339
884.877	629
884.927	428
884.958	448
885.033	422
885.038	406
885.118	-49
885.139	-215
885.199	84
885.244	456
885.279	443
885.350	346
885.359	406
885.439	706
885.456	734
885.520	284
885.561	218
885.600	403
885.667	394
885.680	343
885.760	344
885.773	293
885.840	674
885.878	980
885.920	917
885.984	587
886.000	574
886.080	482
886.089	478
886.160	704
886.195	747
886.240	842
886.300	1045
886.320	1038
886.400	1015
886.406	1005
886.480	895
886.511	796
886.560	728
886.616	457
886.640	461
886.720	954
886.722	951
886.800	412
886.827	244
886.879	672
886.932	1020
886.959	1061
887.038	1344
887.039	1353
887.119	1077
887.143	1076
887.198	1246
887.248	1212
887.278	1297
887.354	1530
887.358	1519
887.437	1184
887.459	1036
887.517	1422
887.564	1803
887.596	1506
887.669	744
887.676	780
887.755	1061
887.774	1186
887.835	738
887.880	238
887.914	341
887.985	595
887.994	701
888.073	1568
888.090	1737
888.153	1402
888.195	1155
888.232	981
888.300	790
888.311	817
888.391	714
888.405	709
888.470	1023
888.510	1160
888.549	1159
888.615	1365
888.628	1278
888.708	420
888.720	296
888.787	1010
888.825	1411
888.866	1349
888.930	1224
888.945	1156
889.024	761
889.035	704
889.103	629
889.140	563
889.182	591
889.245	614
889.261	756
889.340	1451
889.349	1519
889.419	1512
889.454	1500
889.498	1372
889.559	1185
889.577	1218
889.656	1318
889.664	1321
889.735	1478
889.768	1538
889.814	1740
889.873	1992
889.978	515
890.083	1543
890.187	1587
890.292	1084
890.397	569
890.501	1588
890.606	760
890.710	1471
890.815	1826
890.919	1405
891.024	1356
891.128	1168
891.233	934
891.337	1940
891.442	1084
891.546	1015
891.650	819
891.755	525
891.859	1570
891.963	1110
892.068	1391
892.172	939
892.276	922
892.380	1321
892.484	1401
892.589	1238
892.693	1536
892.797	1508
892.901	724
893.005	1505
893.109	690
893.213	1832
893.317	871
893.421	305
893.525	-99
893.629	539
893.733	448
893.837	1454
893.941	285
894.045	1514
894.148	-713
894.252	1132
894.356	986
894.460	998
894.564	646
894.667	1633
894.771	202
894.875	617
894.978	1
895.082	1554
895.186	1268
895.289	1224
895.393	912
895.496	1045
895.600	598
895.703	278
895.807	609
895.910	455
896.014	1179
896.117	876
896.221	1508
896.324	855
896.427	755
896.531	852
896.634	602
896.737	1312
896.840	810
896.944	716
897.047	790
897.150	1032
897.253	598
897.356	1831
897.460	305
897.563	828
897.666	862
897.769	1724
897.872	626
897.975	1409
898.078	884
898.181	194
898.284	433
898.387	1708
898.490	931
898.593	1025
898.695	453
898.798	1055
898.901	91
899.004	798
899.107	646
899.209	691
899.312	1594
899.415	635
899.518	676
899.620	1300
899.723	919
899.826	861
899.928	945
900.031	902
900.133	650
900.236	358
900.338	82
900.441	-29
900.543	624
900.646	433
900.748	791
900.851	1739
900.953	923
901.055	1301
901.158	992
901.260	462
901.362	319
901.465	381
901.567	16
901.669	1170
901.771	-13
901.873	765
901.976	194
902.078	944
902.180	715
902.282	656
902.384	717
902.486	914
902.588	568
902.690	1352
902.792	406
902.894	1192
902.996	186
903.098	842
903.200	-252
903.302	547
903.404	325
903.505	1448
903.607	-80
903.709	798
903.811	596
903.913	918
904.014	-26
904.116	718
904.218	232
904.319	992
904.421	2498
904.523	1769
904.624	457
904.726	968
904.827	1092
904.929	1250
905.030	632
905.132	1767
905.233	26
905.335	1303
905.436	448
905.537	206
905.639	595
905.740	889
905.841	837
905.943	1344
906.044	256
906.145	1197
906.247	792
906.348	363
906.449	724
906.550	847
906.651	-36
906.752	880
906.854	425
906.955	1209
907.056	361
907.157	864
907.258	450
907.359	-160
907.460	706
907.561	1132
907.662	853
907.762	-145
907.863	20
907.964	1312
908.065	727
908.166	32
908.267	429
908.367	251
908.468	676
908.569	724
908.670	1439
908.770	1284
908.871	525
908.971	1281
909.072	664
909.173	874
909.273	-375
909.374	812
909.474	449
909.575	930
909.675	628
909.776	921
909.876	493
909.977	1184
910.077	856
910.177	942
910.278	378
910.378	519
910.478	57
910.579	991
910.679	1440
910.779	672
910.879	1236
910.980	623
911.080	471
911.180	105
911.280	-2
911.380	738
911.480	176
911.580	-71
911.680	665
911.780	1144
911.880	1010
911.980	879
912.080	159
912.180	1209
912.280	475
912.380	1276
912.480	290
912.580	946
912.679	523
912.779	892
912.879	997
912.979	524
913.078	763
913.178	418
913.278	11
913.377	946
913.477	729
913.577	698
913.676	539
913.776	996
913.875	839
913.975	1125
914.074	-675
914.174	1187
914.273	43
914.373	1182
914.472	558
914.572	458
914.671	503
914.770	180
914.870	463
914.969	1029
915.068	303
915.167	1322
915.267	493
915.366	724
915.465	153
915.564	1920
915.663	177
915.763	1442
915.862	1255
915.961	322
916.060	427
916.159	1003
916.258	227
916.357	1249
916.456	1402
916.555	1040
916.654	273
916.752	282
916.851	981
916.950	803
917.049	431
917.148	1443
917.247	723
917.345	926
917.444	-576
917.543	912
917.642	593
917.740	850
917.839	417
917.937	1122
918.036	1013
918.135	922
918.233	757
918.332	369
918.430	919
918.529	1257
918.627	993
918.726	1246
918.824	452
918.923	381
919.021	859
919.119	261
919.218	425
919.316	1105
919.414	442
919.512	862
919.611	1043
919.709	968
919.807	801
919.905	2011
920.003	995
920.102	872
920.200	869
920.298	886
920.396	365
920.494	1671
920.592	667
920.690	1317
920.788	472
920.886	1300
920.984	707
921.082	567
921.180	1609
921.277	1762
921.375	828
921.473	1741
921.571	1599
921.669	1412
921.766	1738
921.864	1959
921.962	2189
922.060	2023
922.157	1797
922.255	2462
922.352	1508
922.450	1962
922.548	1687
922.645	2269
922.743	2181
922.840	2977
922.938	4115
923.035	4890
923.133	3162
923.230	4586
923.327	5121
923.425	4716
923.522	4035
923.619	4897
923.717	4291
923.814	3375
923.911	3325
924.008	4057
924.106	3925
924.203	3624
924.300	3512
924.397	3624
924.494	4427
924.591	3488
924.688	4073
924.786	4134
924.883	3593
924.979	4097
925.077	3712
925.173	4346
925.270	2999
925.367	3106
925.464	4597
925.561	3817
925.658	4461
925.755	3567
925.852	4041
925.948	4361
926.045	4100
926.142	4563
926.239	4724
926.335	4418
926.432	4493
926.529	4684
926.625	4923
926.722	4323
926.818	3265
926.915	3666
927.011	3559
927.108	3845
927.204	2532
927.301	2892
927.397	3750
927.494	4175
927.590	1975
927.687	2837
927.783	3301
927.879	3351
927.976	2736
928.072	3217
928.168	3401
928.264	3989
928.361	2901
928.457	4199
928.553	3204
928.649	3023
928.745	3103
928.841	3157
928.937	3369
929.033	3288
929.129	2868
929.225	4231
929.321	3606
929.417	2368
929.513	3029
929.609	2744
929.705	2413
929.801	2898
929.897	2360
929.993	2653
930.089	2383
930.184	3011
930.280	3432
930.376	3302
930.471	2324
930.567	2433
930.663	2805
930.758	1947
930.854	2710
930.950	2192
931.045	1500
931.141	2214
931.236	3217
931.332	2505
931.427	2102
931.523	3027
931.618	2878
931.714	2211
931.809	2837
931.905	3824
932.000	1634
932.095	1543
932.191	2641
932.286	3324
932.381	2339
932.476	1336
932.572	1903
932.667	2274
932.762	1707
932.857	1964
932.952	2143
933.047	2332
933.142	1435
933.237	2099
933.332	1945
933.427	2848
933.522	2636
933.617	1841
933.712	1265
933.807	2394
933.902	2548
933.997	2673
934.092	1687
934.187	2421
934.282	2489
934.376	3045
934.471	2030
934.566	2248
934.661	1699
934.755	3382
934.850	2247
934.945	2058
935.039	1863
935.134	2248
935.228	2247
935.323	3495
935.417	2999
935.512	1378
935.606	1757
935.701	2417
935.795	2035
935.890	2609
935.984	1579
936.079	1727
936.173	2265
936.267	1966
936.362	1732
936.456	1323
936.550	2203
936.644	2500
936.738	972
936.833	1577
936.927	1249
937.021	1950
937.115	937
937.209	1596
937.303	2187
937.397	1943
937.491	1905
937.585	3202
937.679	2574
937.773	1139
937.867	1823
937.961	1751
938.055	1960
938.149	2457
938.243	994
938.337	1410
938.430	1201
938.524	4017
938.618	4217
938.712	2445
938.805	1239
938.899	1403
938.993	2339
939.086	2957
939.180	4168
939.274	4088
939.367	1831
939.461	2751
939.554	1435
939.648	1950
939.741	1491
939.835	2107
939.928	2333
940.022	3424
940.115	1337
940.208	2191
940.302	2511
940.395	2653
940.488	1336
940.582	2282
940.675	873
940.768	1459
940.861	1330
940.954	2259
941.048	1018
941.141	1275
941.234	323
941.327	1390
941.420	1830
941.513	2700
941.606	81
941.699	2576
941.792	1440
941.885	989
941.978	1077
942.071	1748
942.164	776
942.257	2015
942.349	895
942.442	1701
942.535	399
942.628	1588
942.721	1906
942.813	790
942.906	2200
942.999	2095
943.091	-229
943.184	1090
943.277	540
943.369	931
943.462	509
943.554	908
943.647	325
943.739	2369
943.832	1714
943.924	-113
944.017	781
944.109	107
944.201	671
944.294	831
944.386	1191
944.478	1316
944.571	1232
944.663	1824
944.755	929
944.847	1468
944.940	1404
945.032	332
945.124	273
945.216	1645
945.308	1317
945.400	469
945.492	337
945.584	1343
945.676	1404
945.768	893
945.860	946
945.952	1445
946.044	932
946.136	472
946.228	1266
946.320	303
946.412	266
946.503	1200
946.595	1729
946.687	830
946.779	-283
946.870	515
946.962	-156
947.054	694
947.145	1533
947.237	1108
947.329	925
947.420	1483
947.512	746
947.603	447
947.695	185
947.786	611
947.878	-67
947.969	1034
948.061	-135
948.152	-323
948.243	125
948.335	604
948.426	-210
948.517	823
948.609	1180
948.700	755
948.791	221
948.882	-149
948.973	-58
949.065	1328
949.156	876
949.247	-355
949.338	-331
949.429	-179
949.520	374
949.611	437
949.702	452
949.793	-670
949.884	256
949.975	162
950.066	-734
950.157	829
950.247	353
950.338	492
950.429	-485
950.520	235
950.611	-44
950.701	808
950.792	1226
950.883	596
950.973	191
951.064	736
951.155	479
951.245	1028
951.336	491
951.427	862
951.517	1193
951.608	1425
951.698	-115
951.788	451
951.879	-863
951.969	-751
952.060	-256
952.150	726
952.240	1387
952.331	-127
952.421	1514
952.511	-323
952.602	-42
952.692	60
952.782	-429
952.872	-743
952.962	-329
953.052	-241
953.143	-449
953.233	458
953.323	571
953.413	864
953.503	559
953.593	375
953.683	249
953.773	-269
953.863	-328
953.953	-59
954.042	-373
954.132	-128
954.222	-72
954.312	-2
954.402	-524
954.492	353
954.581	601
954.671	379
954.761	-788
954.850	806
954.940	-1201
955.030	-243
955.119	-232
955.209	-212
955.298	-264
955.388	1272
955.477	681
955.567	-1173
955.656	345
955.746	163
955.835	-375
955.925	433
956.014	320
956.103	169
956.193	55
956.282	-252
956.371	178
956.461	280
956.550	-961
956.639	372
956.728	159
956.817	32
956.906	-854
956.995	78
957.085	-30
957.174	-180
957.263	-1009
957.352	3
957.441	431
957.530	592
957.619	151
957.708	515
957.796	-514
957.885	707
957.974	-549
958.063	-213
958.152	-1132
958.241	65
958.329	-969
958.418	-100
958.507	-485
958.596	553
958.684	-747
958.773	930
958.861	-96
958.950	-394
959.039	-712
959.127	1243
959.216	43
959.304	-308
959.393	-727
959.481	634
959.570	468
959.658	-31
959.746	-422
959.835	707
959.923	488
960.011	342
960.100	71
960.188	-227
960.276	-224
960.365	-25
960.453	-68
960.541	-1507
960.629	-255
960.717	-574
960.805	-715
960.893	-48
960.981	-906
961.069	1702
961.158	131
961.245	537
961.333	-592
961.421	-388
961.509	-434
961.597	-503
961.685	-268
961.773	-822
961.861	-1177
961.949	867
962.036	-1468
962.124	-606
962.212	26
962.299	-631
962.387	-953
962.475	-346
962.562	-1086
962.650	293
962.738	292
962.825	-220
962.913	628
963.000	-332
963.088	-147
963.175	240
963.263	26
963.350	-88
963.438	-431
963.525	-128
963.612	510
963.700	1009
963.787	4582
963.874	2460
963.962	476
964.049	-180
964.136	-671
964.223	-1288
964.310	-371
964.398	-419
964.485	-11
964.572	413
964.659	1072
964.746	359
964.833	-475
964.920	-151
965.007	-1103
965.094	739
965.181	518
965.268	-236
965.355	-307
965.441	137
965.528	-1370
965.615	681
965.702	-380
965.789	135
965.875	-329
965.962	47
966.049	-899
966.136	1159
966.222	-91
966.309	635
966.395	-835
966.482	89
966.569	-463
966.655	859
966.742	-1014
966.828	-62
966.915	-700
967.001	-771
967.087	-905
967.174	-236
967.260	82
967.347	796
967.433	180
967.519	2357
967.605	507
967.692	14
967.778	256
967.864	-660
967.950	-450
968.036	77
968.123	-300
968.209	-581
968.295	-1054
968.381	1143
968.467	-938
968.553	-1199
968.639	-121
968.725	-654
968.811	315
968.897	266
968.983	-677
969.069	-375
969.154	-713
969.240	506
969.326	-860
969.412	-474
969.497	-927
969.583	-609
969.669	641
969.755	254
969.840	122
969.926	870
970.012	-142
970.097	2142
970.183	-297
970.268	186
970.354	527
970.439	478
970.525	716
970.610	-323
970.696	332
970.781	364
970.866	-1009
970.952	429
971.037	-1529
971.122	58
971.208	-103
971.293	42
971.378	-1255
971.463	-462
971.549	-81
971.634	-142
971.719	-611
971.804	-260
971.889	42
971.974	-125
972.059	-249
972.144	233
972.229	-671
972.314	-542
972.399	-362
972.484	-241
972.569	-66
972.654	-349
972.739	1100
972.824	782
972.908	123
972.993	-364
973.078	-1094
973.163	82
973.247	-427
973.332	-1616
973.417	-135
973.501	-562
973.586	241
973.671	-380
973.755	-258
973.840	283
973.924	269
974.009	418
974.093	-116
974.178	1620
974.262	415
974.346	1051
974.431	166
974.515	-840
974.600	-839
974.684	457
974.768	-1018
974.852	615
974.937	-1180
975.021	1426
975.105	-265
975.189	-319
975.273	-347
975.358	-628
975.442	-1771
975.526	174
975.610	-742
975.694	93
975.778	555
975.862	567
975.946	-1853
976.030	1142
976.114	-677
976.198	-202
976.281	-890
976.365	336
976.449	-1330
976.533	698
976.617	-1222
976.700	-409
976.784	-355
976.868	-725
976.951	538
977.035	44
977.119	-431
977.202	452
977.286	-122
977.369	-356
977.453	248
977.536	101
977.620	-521
977.703	72
977.787	-752
977.870	436
977.953	882
978.037	-608
978.120	-118
978.203	698
978.287	282
978.370	53
978.453	-832
978.536	538
978.620	17
978.703	1314
978.786	-625
978.869	-564
978.952	-1134
979.035	1523
979.118	-496
979.201	160
979.284	-406
979.367	-852
979.450	-715
979.533	-1331
979.616	-201
979.699	-206
979.782	-100
979.865	421
979.948	-682
980.030	-27
980.113	-86
980.196	-1726
980.279	-758
980.361	35
980.444	-688
980.526	-77
980.609	-511
980.692	384
980.774	806
980.857	-813
980.939	708
981.022	219
981.104	-727
981.187	289
981.269	105
981.352	626
981.434	-249
981.516	-362
981.599	1085
981.681	-155
981.763	-300
981.846	284
981.928	-721
982.010	479
982.092	-577
982.174	618
982.256	-522
982.339	-358
982.421	-538
982.503	533
982.585	-1385
982.667	-889
982.749	-212
982.831	-62
982.913	-576
982.995	184
983.077	-594
983.158	596
983.240	-1988
983.322	686
983.404	519
983.486	-65
983.568	48
983.649	170
983.731	-146
983.813	458
983.894	701
983.976	-768
984.058	281
984.139	1146
984.221	-926
984.302	1082
984.384	-383
984.465	-980
984.547	-243
984.628	-804
984.710	113
984.791	-675
984.872	-722
984.954	-169
985.035	-698
985.116	-507
985.198	-159
985.279	606
985.360	-888
985.441	-98
985.522	41
985.604	65
985.685	-2049
985.766	-17
985.847	677
985.928	-632
986.009	-572
986.090	22
986.171	-237
986.252	-249
986.333	-273
986.414	-30
986.495	-509
986.576	365
986.656	-188
986.737	-615
986.818	-753
986.899	-366
986.980	-788
987.060	775
987.141	-567
987.222	728
987.302	-477
987.383	164
987.464	11
987.544	67
987.625	-650
987.705	546
987.786	-33
987.866	-484
987.947	-129
988.027	524
988.108	-57
988.188	618
988.268	576
988.349	401
988.429	-508
988.509	-143
988.589	-310
988.670	-1523
988.750	1409
988.830	-165
988.910	-81
988.990	-339
989.070	36
989.151	924
989.231	-635
989.311	839
989.391	-602
989.471	256
989.551	-142
989.631	-529
989.711	207
989.791	-818
989.870	51
989.950	418
990.030	-530
990.110	589
990.190	-576
990.269	-324
990.349	-505
990.429	306
990.509	-268
990.588	-738
990.668	-88
990.747	-273
990.827	-949
990.907	-306
990.986	-640
991.066	168
991.145	-902
991.225	54
991.304	-899
991.383	234
991.463	-499
991.542	405
991.622	-1180
991.701	-612
991.780	-570
991.859	-13
991.939	-926
992.018	-71
992.097	-376
992.176	535
992.256	-528
992.335	-476
992.414	-34
992.493	-1128
992.572	-1057
992.651	-17
992.730	-489
992.809	266
992.888	-1186
992.967	-811
993.046	177
993.125	-1073
993.203	-271
993.282	-603
993.361	-234
993.440	-398
993.519	-1083
993.597	-502
993.676	-1420
993.755	18
993.834	-467
993.912	-1568
993.991	23
994.069	-1015
994.148	-1179
994.226	-1087
994.305	-1521
994.384	-836
994.462	463
994.540	-1234
994.619	-1029
994.697	-943
994.776	-1397
994.854	-32
994.932	-1546
995.011	-339
995.089	-653
995.167	-296
995.245	-624
995.324	-1197
995.402	-1074
995.480	-942
995.558	-441
995.636	-1205
995.714	-1041
995.792	121
995.870	-1889
995.948	-779
996.026	-1000
996.104	-1338
996.182	-1172
996.260	-1940
996.338	-765
996.416	-1275
996.494	-783
996.572	-422
996.649	-1659
996.727	-2075
996.805	-717
996.883	-929
996.960	-1577
997.038	-665
997.116	-436
997.193	-2135
997.271	-1500
997.348	-1452
997.426	-315
997.504	-1323
997.581	-1276
997.658	-253
997.736	-2067
997.813	-1856
997.891	-1257
997.968	-1463
998.046	-819
998.123	-1116
998.200	-391
998.277	-468
998.355	-1390
998.432	-1433
998.509	-1097
998.586	-275
998.663	-692
998.741	-1417
998.818	-1249
998.895	-1701
998.972	-527
999.049	-1231
999.126	-1762
999.203	-18
999.280	-1478
999.357	-2059
999.434	-1280
999.511	-1037
999.587	-1124
999.664	-1217
999.741	-1091
999.818	-710
999.895	-1152
999.971	-1220
1000.048	-1672
1000.125	-775
1000.202	-2031
1000.278	-1458
1000.355	-721
1000.431	-1193
1000.508	-2618
1000.584	-516
1000.661	-1738
1000.738	-1711
1000.814	-1325
1000.890	-196
1000.967	-1955
1001.043	-780
1001.120	-2652
1001.196	-1052
1001.272	-1603
1001.349	-1758
1001.425	-1182
1001.501	-957
1001.577	-2193
1001.654	-1732
1001.730	-1758
1001.806	-972
1001.882	-2633
1001.958	-909
1002.034	-626
1002.110	-513
1002.186	-1662
1002.262	-1354
1002.338	-1501
1002.414	-864
1002.490	-1029
1002.566	-1869
1002.642	-2156
1002.718	-860
1002.794	-1412
1002.870	-1854
1002.945	-1697
1003.021	-919
1003.097	-1430
1003.173	-1319
1003.248	-1681
1003.324	-575
1003.400	-1851
1003.475	-1952
1003.551	-2017
1003.626	-1220
1003.702	-2270
1003.777	-1455
1003.853	-1327
1003.928	-1627
1004.004	-1108
1004.079	-1537
1004.155	-1303
1004.230	-2641
1004.305	-1270
1004.381	-1664
1004.456	-2373
1004.531	-1259
1004.607	-1771
1004.682	-1544
1004.757	-1552
1004.832	-1449
1004.907	-2036
1004.982	-1060
1005.057	-1864
1005.133	-1218
1005.208	-1602
1005.283	-1156
1005.358	-1510
1005.433	-2195
1005.508	-1095
1005.583	-2054
1005.657	-1637
1005.732	-313
1005.807	-1720
1005.882	-1372
1005.957	-1659
1006.032	-1108
1006.106	-2150
1006.181	-1156
1006.256	-2313
1006.331	-1484
1006.405	-2199
1006.480	-1649
1006.554	-1656
1006.629	-957
1006.704	-2045
1006.778	-1115
1006.853	-830
1006.927	-2027
1007.002	-1746
1007.076	-1072
1007.150	-1739
1007.225	-899
1007.299	-1858
1007.373	-1687
1007.448	-1668
1007.522	-608
1007.596	-1644
1007.671	-1919
1007.745	-1852
1007.819	-1774
1007.893	-2209
1007.967	-1261
1008.041	-2355
1008.115	-1547
1008.190	-2362
1008.264	-1141
1008.338	-2616
1008.412	-1978
1008.486	-2571
1008.560	-1549
1008.633	-1743
1008.707	-1591
1008.781	-1330
1008.855	-2062
1008.929	-1298
1009.003	-1757
1009.076	-2119
1009.150	-1233
1009.224	-1285
1009.298	-1388
1009.371	-2288
1009.445	-991
1009.519	-2150
1009.592	-2402
1009.666	-1481
1009.739	-1853
1009.813	-2467
1009.886	-1345
1009.960	-2829
1010.033	-1513
1010.107	-1480
1010.180	-2286
1010.253	-1871
1010.327	-1959
1010.400	-1731
1010.473	-1446
1010.547	-1439
1010.620	-1300
1010.693	-1609
1010.766	-2108
1010.840	-1966
1010.913	-990
1010.986	-2155
1011.059	-1881
1011.132	-1746
1011.205	-1373
1011.278	-1564
1011.351	-1362
1011.424	-1585
1011.497	-1359
1011.570	-1986
1011.643	-1763
1011.716	-3059
1011.789	-1506
1011.862	-1916
1011.934	-1208
1012.007	-2583
1012.080	-1984
1012.153	-1344
1012.225	-1170
1012.298	-2821
1012.371	-1520
1012.443	-1190
1012.516	-2364
1012.588	-1433
1012.661	-1444
1012.733	-2704
1012.806	-1741
1012.879	-2115
1012.951	-1073
1013.023	-2102
1013.096	-1572
1013.168	-1978
1013.241	-893
1013.313	-1804
1013.385	-2703
1013.458	-1997
1013.530	-726
1013.602	-2123
1013.674	-1727
1013.746	-2250
1013.819	-1152
1013.891	-1373
1013.963	-2369
1014.035	-2214
1014.107	-1818
1014.179	-2225
1014.251	-1851
1014.323	-1174
1014.395	-1801
1014.467	-2327
1014.539	-1768
1014.611	-2681
1014.683	-2142
1014.754	-2363
1014.826	-2468
1014.898	-2674
1014.970	-2206
1015.042	-1416
1015.113	-2325
1015.185	-3046
1015.257	-2575
1015.328	-2316
1015.400	-2054
1015.471	-1656
1015.543	-2388
1015.615	-2574
1015.686	-1984
1015.757	-2766
1015.829	-1702
1015.901	-1502
1015.972	-2237
1016.043	-2424
1016.115	-2157
1016.186	-1902
1016.257	-2048
1016.328	-1667
1016.400	-1220
1016.471	-2584
1016.542	-2192
1016.613	-1900
1016.685	-1576
1016.756	-2136
1016.827	-1890
1016.898	-2981
1016.969	-1511
1017.040	-1789
1017.111	-2497
1017.182	-1604
1017.253	-1627
1017.324	-2932
1017.395	-2073
1017.466	-1936
1017.537	-2410
1017.608	-1740
1017.678	-2138
1017.749	-2047
1017.820	-2779
1017.891	-2876
1017.961	-2139
1018.032	-1720
1018.103	-2044
1018.173	-2162
1018.244	-2147
1018.315	-2410
1018.385	-1269
1018.456	-1903
1018.526	-2594
1018.597	-2141
1018.667	-2449
1018.738	-3345
1018.808	-2481
1018.878	-2371
1018.949	-2786
1019.019	-2015
1019.089	-2021
1019.160	-2185
1019.230	-1779
1019.300	-2167
1019.371	-2062
1019.441	-2294
1019.511	-2325
1019.581	-2521
1019.651	-1775
1019.721	-2619
1019.791	-2388
1019.861	-2042
1019.931	-2382
1020.001	-2264
1020.071	-1881
1020.141	-2292
1020.211	-1767
1020.281	-2405
1020.351	-2135
1020.421	-2978
1020.491	-1526
1020.560	-2394
1020.630	-1915
1020.700	-1771
1020.770	-2097
1020.839	-2382
1020.909	-1010
1020.979	-2589
1021.048	-1977
1021.118	-2729
1021.187	-1760
1021.257	-3496
1021.326	-1736
1021.396	-2653
1021.465	-2396
1021.535	-2494
1021.604	-2684
1021.674	-2962
1021.743	-2298
1021.812	-2466
1021.882	-1754
1021.951	-2835
1022.020	-2140
1022.089	-2721
1022.159	-2394
1022.228	-2305
1022.297	-2366
1022.366	-3227
1022.435	-1976
1022.504	-2156
1022.573	-2626
1022.642	-2141
1022.711	-1788
1022.781	-3027
1022.849	-1612
1022.918	-2529
1022.987	-1409
1023.056	-2042
1023.125	-2414
1023.194	-2632
1023.263	-1933
1023.331	-2862
1023.400	-3115
1023.469	-2819
1023.538	-1459
1023.606	-2495
1023.675	-1948
1023.744	-2469
1023.812	-2194
1023.881	-2791
1023.949	-2488
1024.018	-2526
1024.086	-2216
1024.155	-2117
1024.223	-1927
1024.292	-2341
1024.360	-1160
1024.429	-2383
1024.497	-1979
1024.565	-2988
1024.634	-2458
1024.702	-2065
1024.770	-2348
1024.838	-2268
1024.907	-1896
1024.975	-2890
1025.043	-2056
1025.111	-1804
1025.179	-1596
1025.247	-2270
1025.315	-2166
1025.383	-2483
1025.451	-3096
1025.519	-3022
1025.587	-1886
1025.655	-2505
1025.723	-2312
1025.791	-2539
1025.859	-1718
1025.927	-1336
1025.995	-2453
1026.062	-2734
1026.130	-2216
1026.198	-2700
1026.266	-3075
1026.333	-1514
1026.401	-1778
1026.469	-2572
1026.536	-2053
1026.604	-2102
1026.671	-2257
1026.739	-2112
1026.806	-1675
1026.874	-3005
1026.941	-1981
1027.009	-2940
1027.076	-2536
1027.144	-2407
1027.211	-2975
1027.278	-3227
1027.345	-2002
1027.413	-2746
1027.480	-2585
1027.547	-2642
1027.614	-2487
1027.682	-1491
1027.749	-1752
1027.816	-2902
1027.883	-1911
1027.950	-2307
1028.017	-2900
1028.084	-2784
1028.151	-2504
1028.218	-2439
1028.285	-2624
1028.352	-3094
1028.419	-2892
1028.486	-2575
1028.553	-1932
1028.619	-2468
1028.686	-1664
1028.753	-2861
1028.820	-2058
1028.886	-2455
1028.953	-2695
1029.020	-2168
1029.086	-2506
1029.153	-2496
1029.220	-2995
1029.286	-2385
1029.353	-3033
1029.419	-2659
1029.486	-2233
1029.552	-1967
1029.619	-2712
1029.685	-2441
1029.751	-2601
1029.818	-1762
1029.884	-2346
1029.951	-1217
1030.017	-2287
1030.083	-1820
1030.149	-1910
1030.216	-2117
1030.282	-2039
1030.348	-2683
1030.414	-2769
1030.480	-2994
1030.546	-3016
1030.612	-2047
1030.678	-3212
1030.744	-1831
1030.810	-1946
1030.876	-2626
1030.942	-2745
1031.008	-2458
1031.074	-2310
1031.140	-2518
1031.206	-2395
1031.272	-3338
1031.337	-1654
1031.403	-1752
1031.469	-2270
1031.534	-3198
1031.600	-2030
1031.666	-2936
1031.731	-2608
1031.797	-2827
1031.863	-2119
1031.928	-2903
1031.994	-1586
1032.059	-2234
1032.125	-2315
1032.190	-2291
1032.256	-2754
1032.321	-3240
1032.386	-2939
1032.452	-1378
1032.517	-2305
1032.582	-3103
1032.647	-2586
1032.713	-2230
1032.778	-2139
1032.843	-2271
1032.908	-1907
1032.974	-2474
1033.039	-2249
1033.104	-3040
1033.169	-2217
1033.234	-2893
1033.299	-2024
1033.364	-1783
1033.429	-2538
1033.494	-2187
1033.559	-1963
1033.624	-2211
1033.688	-2203
1033.753	-2423
1033.818	-2055
1033.883	-2414
1033.948	-1414
1034.013	-2540
1034.077	-1487
1034.142	-2043
1034.207	-773
1034.271	-1499
1034.336	172
1034.400	-1551
1034.465	-965
1034.530	-1069
1034.594	-1570
1034.658	-2574
1034.723	-2659
1034.787	-2122
1034.852	-1746
1034.916	-2115
1034.981	-2195
1035.045	-1685
1035.109	-1851
1035.173	-2050
1035.238	-3249
1035.302	-2585
1035.366	-2456
1035.430	-2435
1035.495	-2474
1035.559	-2103
1035.623	-1826
1035.687	-2450
1035.751	-1820
1035.815	-1288
1035.879	-1687
1035.943	-2955
1036.007	-2122
1036.071	-1877
1036.135	-1653
1036.198	-2276
1036.262	-1611
1036.326	-2852
1036.390	-2052
1036.454	-1149
1036.517	-1841
1036.581	-2615
1036.645	-1321
1036.709	-1796
1036.772	-2197
1036.836	-2376
1036.900	-1588
1036.963	-2925
1037.026	-1870
1037.090	-2436
1037.154	-1998
1037.217	-2220
1037.280	-2680
1037.344	-1787
1037.407	-2571
1037.471	-2276
1037.534	-1611
1037.597	-2128
1037.661	-1915
1037.724	-2545
1037.787	-1535
1037.850	-3046
1037.913	-2450
1037.977	-1999
1038.040	-2243
1038.103	-2127
1038.166	-2087
1038.229	-2579
1038.292	-2229
1038.355	-2688
1038.418	-2205
1038.481	-1992
1038.544	-2178
1038.607	-2574
1038.670	-1675
1038.732	-2013
1038.795	-2466
1038.858	-2682
1038.921	-1301
1038.984	-1975
1039.046	-2342
1039.109	-2858
1039.172	-2010
1039.234	-2395
1039.297	-2300
1039.360	-1906
1039.422	-2546
1039.485	-2233
1039.547	-3109
1039.610	-2834
1039.672	-1813
1039.734	-2637
1039.797	-1959
1039.859	-2355
1039.922	-2221
1039.984	-2233
1040.046	-1822
1040.109	-2183
1040.171	-1965
1040.233	-2605
1040.295	-2267
1040.358	-2343
1040.420	-1997
1040.482	-3203
1040.544	-2364
1040.606	-2101
1040.668	-2219
1040.730	-2482
1040.792	-2094
1040.854	-2595
1040.916	-1922
1040.978	-3484
1041.040	-1297
1041.102	-2816
1041.164	-2568
1041.225	-2372
1041.287	-1923
1041.349	-3570
1041.411	-2022
1041.472	-2400
1041.534	-2097
1041.596	-2343
1041.657	-2059
1041.719	-1690
1041.781	-1723
1041.842	-2544
1041.904	-2192
1041.965	-2486
1042.027	-2089
1042.088	-2012
1042.150	-2298
1042.211	-2530
1042.272	-1941
1042.334	-2786
1042.395	-2091
1042.456	-2550
1042.518	-1939
1042.579	-1873
1042.640	-2522
1042.701	-2564
1042.763	-1897
1042.824	-2647
1042.885	-2274
1042.946	-1657
1043.007	-1514
1043.068	-3121
1043.129	-1835
1043.190	-2301
1043.251	-2225
1043.312	-2135
1043.373	-2104
1043.434	-2750
1043.495	-2809
1043.556	-2467
1043.616	-2382
1043.677	-2672
1043.738	-2334
1043.799	-2369
1043.859	-2426
1043.920	-3098
1043.981	-1789
1044.041	-2187
1044.102	-2643
1044.162	-2145
1044.223	-1407
1044.284	-2990
1044.344	-1992
1044.405	-2307
1044.465	-2261
1044.525	-1627
1044.586	-2175
1044.646	-2230
1044.707	-2338
1044.767	-2127
1044.827	-1977
1044.887	-2587
1044.948	-2149
1045.008	-2563
1045.068	-2298
1045.128	-2341
1045.188	-2495
1045.249	-1412
1045.309	-2501
1045.369	-2273
1045.429	-2154
1045.489	-2280
1045.549	-2131
1045.609	-2601
1045.669	-1838
1045.729	-1146
1045.789	-1872
1045.848	-2047
1045.908	-1603
1045.968	-1881
1046.028	-1896
1046.088	-2416
1046.147	-1350
1046.207	-2691
1046.267	-1549
1046.326	-1486
1046.386	-1932
1046.446	-2352
1046.505	-955
1046.565	-904
1046.624	-1067
1046.684	-1540
1046.743	-1415
1046.803	-1107
1046.862	-245
1046.922	0
