'Start Wavelength	183.907
'End Wavelength	1046.922
'Gate Delay	5.000
'Gate Width (ms)	1.050
'Laser Output Level	0.000
'X Position	0.000
'Y Position	0.000
'Z Position	0.000
'Grid Point Number	1.000
'Shot Number	100.000
183.907	1344.000
183.977	293.000
184.047	1111
184.116	2
184.186	1199
184.256	423
184.325	1213
184.395	42
184.465	1441
184.534	248
184.604	799
184.674	790
184.743	750
184.813	432
184.883	506
184.952	604
185.022	636
185.092	235
185.161	481
185.231	353
185.301	1259
185.370	778
185.440	-669
185.509	213
185.579	357
185.649	775
185.718	884
185.788	671
185.857	365
185.927	-358
185.996	242
186.066	2
186.136	147
186.205	430
186.275	1372
186.344	544
186.414	952
186.483	-405
186.553	1970
186.622	2818
186.692	1411
186.761	758
186.831	964
186.900	-14
186.970	1664
187.039	151
187.109	2543
187.178	1203
187.248	889
187.317	1053
187.387	698
187.456	1125
187.526	1323
187.595	282
187.664	1457
187.734	941
187.803	1804
187.873	1222
187.942	3294
188.012	966
188.081	356
188.150	1093
188.220	2686
188.289	2469
188.358	1518
188.428	1170
188.497	334
188.567	2164
188.636	945
188.705	344
188.775	1252
188.844	161
188.913	2205
188.983	661
189.052	1702
189.121	803
189.191	862
189.260	1283
189.329	1062
189.399	638
189.468	1615
189.537	355
189.606	1482
189.676	1274
189.745	1708
189.814	1906
189.883	1233
189.953	1857
190.022	1933
190.091	3677
190.161	5685
190.230	2907
190.299	1254
190.368	1611
190.437	1965
190.507	1348
190.576	2249
190.645	1153
190.714	1077
190.783	896
190.853	787
190.922	945
190.991	1122
191.060	1230
191.129	1628
191.198	1938
191.268	413
191.337	283
191.406	1509
191.475	1218
191.544	1643
191.613	1073
191.682	1578
191.752	1637
191.821	1133
191.890	1533
191.959	1328
192.028	1207
192.097	1638
192.166	1771
192.235	1657
192.304	1402
192.373	1118
192.442	687
192.511	778
192.580	1318
192.650	1739
192.719	1967
192.788	2065
192.857	948
192.926	587
192.995	1622
193.064	1300
193.133	2445
193.202	3370
193.271	3687
193.340	3570
193.409	3062
193.478	4099
193.547	4923
193.615	6493
193.684	6158
193.753	4380
193.822	2885
193.891	2277
193.960	2005
194.029	2114
194.098	1665
194.167	1590
194.236	1496
194.305	1405
194.374	1116
194.443	1772
194.512	2256
194.580	2166
194.649	2749
194.718	3292
194.787	1786
194.856	1833
194.925	2267
194.994	1906
195.062	2434
195.131	3081
195.200	2850
195.269	4311
195.338	2647
195.407	1609
195.475	1666
195.544	3513
195.613	3387
195.682	3123
195.751	3599
195.819	3294
195.888	2485
195.957	4320
196.026	3746
196.094	2908
196.163	3662
196.232	4068
196.301	3051
196.369	3008
196.438	2940
196.507	2050
196.576	2958
196.644	1570
196.713	1929
196.782	2841
196.850	1957
196.919	2549
196.988	1922
197.056	2504
197.125	2469
197.194	2981
197.262	1573
197.331	2545
197.400	2401
197.468	2157
197.537	2077
197.606	2417
197.674	3131
197.743	6952
197.812	3192
197.880	6238
197.949	4769
198.017	5833
198.086	5397
198.155	2520
198.223	2558
198.292	6937
198.360	3596
198.429	2302
198.497	3074
198.566	4603
198.635	7979
198.703	3633
198.772	3264
198.840	7120
198.909	8171
198.977	3138
199.046	3415
199.114	2790
199.183	2825
199.251	2445
199.320	2382
199.388	2251
199.457	2468
199.525	3331
199.594	2320
199.662	2197
199.731	2940
199.799	2802
199.867	2373
199.936	3098
200.004	3160
200.073	3247
200.141	1950
200.210	2081
200.278	2626
200.346	3301
200.415	4235
200.483	4416
200.552	4146
200.620	3033
200.688	2508
200.757	2936
200.825	2987
200.893	3134
200.962	2904
201.030	3053
201.098	3020
201.167	3501
201.235	2464
201.303	3264
201.372	2949
201.440	3196
201.508	3713
201.577	4172
201.645	3165
201.713	4155
201.781	3118
201.850	4765
201.918	3705
201.986	3800
202.055	3216
202.123	3298
202.191	3231
202.259	2984
202.327	2537
202.396	2450
202.464	3633
202.532	4626
202.600	12689
202.669	8677
202.737	4384
202.805	2960
202.873	3379
202.941	2992
203.009	3026
203.078	2935
203.146	3026
203.214	2684
203.282	3055
203.350	3842
203.418	2793
203.487	2998
203.555	2754
203.623	3559
203.691	2998
203.759	3446
203.827	2510
203.895	3399
203.963	3012
204.031	4105
204.099	4288
204.168	2980
204.236	3311
204.304	3383
204.372	3325
204.440	3530
204.508	2773
204.576	3340
204.644	3255
204.712	3164
204.780	3029
204.848	4172
204.916	2694
204.984	3509
205.052	3805
205.120	3880
205.188	3401
205.256	3544
205.324	3894
205.392	3493
205.460	3957
205.528	3623
205.596	3676
205.664	4244
205.732	3275
205.799	8179
205.867	13734
205.935	5751
206.003	4435
206.071	3811
206.139	3226
206.207	4209
206.275	4256
206.343	3143
206.411	3551
206.478	4242
206.546	3722
206.614	4300
206.682	4033
206.750	4125
206.818	5181
206.885	5810
206.953	2804
207.021	3923
207.089	3542
207.157	3717
207.225	3097
207.292	4269
207.360	4065
207.428	4910
207.496	4175
207.563	3547
207.631	3516
207.699	3820
207.767	3292
207.834	4147
207.902	5411
207.970	4772
208.038	3732
208.105	4093
208.173	4192
208.241	6005
208.309	6250
208.376	5637
208.444	8768
208.512	5760
208.579	3791
208.647	5789
208.715	6807
208.782	4469
208.850	4871
208.918	5013
208.985	4687
209.053	5978
209.120	5197
209.188	4265
209.256	4332
209.323	4423
209.391	6270
209.459	6632
209.526	4348
209.594	4624
209.661	4273
209.729	4899
209.796	4444
209.864	5903
209.932	3524
209.999	6168
210.067	5915
210.134	6037
210.202	5622
210.269	8750
210.337	7779
210.404	5642
210.472	5529
210.539	5419
210.607	5993
210.674	7142
210.742	5177
210.809	4664
210.877	6870
210.944	7722
211.012	5550
211.079	8136
211.146	5586
211.214	5451
211.281	8039
211.349	8452
211.416	5626
211.484	7100
211.551	5101
211.618	6101
211.686	6559
211.753	5841
211.821	5637
211.888	5630
211.955	7316
212.023	6234
212.090	6006
212.157	6007
212.225	6255
212.292	10115
212.359	15415
212.427	36051
212.494	19865
212.561	9470
212.629	7773
212.696	6475
212.763	6888
212.831	5970
212.898	6256
212.965	5661
213.032	7192
213.100	7013
213.167	6126
213.234	8162
213.301	7095
213.369	6017
213.436	6066
213.503	6005
213.570	7803
213.638	10285
213.705	6788
213.772	5583
213.839	7885
213.906	8640
213.973	6777
214.041	6689
214.108	6887
214.175	6664
214.242	6547
214.309	6941
214.376	7326
214.444	7305
214.511	8567
214.578	7197
214.645	7184
214.712	8404
214.779	7561
214.846	7161
214.913	10629
214.980	9280
215.048	9437
215.115	10089
215.182	10136
215.249	7602
215.316	7369
215.383	7170
215.450	8329
215.517	7000
215.584	6390
215.651	7215
215.718	6145
215.785	8120
215.852	8123
215.919	8922
215.986	9201
216.053	6733
216.120	5896
216.187	8203
216.254	7625
216.321	6841
216.388	6894
216.455	8731
216.522	7877
216.589	9430
216.656	14009
216.722	16061
216.789	10491
216.856	10304
216.923	9518
216.990	8913
217.057	9189
217.124	10674
217.191	10412
217.258	12214
217.324	13923
217.391	13381
217.458	10928
217.525	10006
217.592	9699
217.659	7778
217.725	9393
217.792	12215
217.859	12102
217.926	7854
217.993	7081
218.059	6532
218.126	6087
218.193	6144
218.260	5738
218.327	5533
218.393	6310
218.460	5486
218.527	5736
218.594	6692
218.660	11814
218.727	13607
218.794	6766
218.860	6241
218.927	5819
218.994	5419
219.061	5617
219.127	7554
219.194	11240
219.261	6714
219.327	4965
219.394	6303
219.461	4463
219.527	5522
219.594	9582
219.661	7291
219.727	5031
219.794	6224
219.860	6761
219.927	7064
219.994	9902
220.060	18922
220.127	14901
220.193	11157
220.260	9765
220.326	13475
220.393	17855
220.460	21353
220.526	16649
220.593	12277
220.659	12428
220.726	13079
220.792	24306
220.859	24651
220.925	28392
220.992	32995
221.058	31298
221.125	31264
221.191	24530
221.258	13340
221.324	9069
221.391	8981
221.457	7423
221.524	8361
221.590	9048
221.657	25015
221.723	20568
221.789	16832
221.856	16661
221.922	11002
221.989	8023
222.055	7756
222.121	6104
222.188	9770
222.254	8744
222.321	7349
222.387	5868
222.453	5441
222.520	5742
222.586	4668
222.652	5510
222.719	5162
222.785	5598
222.851	5879
222.918	5020
222.984	5386
223.050	5454
223.116	4802
223.183	6428
223.249	5176
223.315	4003
223.382	5082
223.448	5014
223.514	4203
223.580	4915
223.647	4733
223.713	4605
223.779	4785
223.845	5299
223.911	5267
223.978	3746
224.044	5732
224.110	3562
224.176	5526
224.242	5361
224.309	3977
224.375	4063
224.441	4354
224.507	4638
224.573	4404
224.639	5979
224.705	4590
224.772	4694
224.838	5114
224.904	5877
224.970	5224
225.036	4798
225.102	5511
225.168	6535
225.234	5788
225.300	4993
225.366	5110
225.432	5270
225.499	5777
225.565	6514
225.631	7086
225.697	6962
225.763	7599
225.829	8524
225.895	10475
225.961	13762
226.027	13319
226.093	11162
226.159	15016
226.225	20411
226.291	41313
226.357	58794
226.423	37304
226.489	22181
226.554	17296
226.620	13752
226.686	19242
226.752	27863
226.818	41911
226.884	75575
226.950	68750
227.016	33571
227.082	21018
227.148	15556
227.214	15225
227.279	13499
227.345	11737
227.411	11600
227.477	15129
227.543	27706
227.609	30582
227.674	18089
227.740	11951
227.806	10341
227.872	8641
227.938	9149
228.003	12912
228.069	8287
228.135	6627
228.201	6820
228.267	6931
228.332	9118
228.398	11269
228.464	10179
228.530	5367
228.595	6423
228.661	5408
228.727	11526
228.792	10951
228.858	5842
228.924	6210
228.990	9722
229.055	8004
229.121	10087
229.187	6543
229.252	7522
229.318	6468
229.384	6569
229.449	9383
229.515	4677
229.581	4258
229.646	7103
229.712	8018
229.777	16798
229.843	19379
229.909	13253
229.974	12947
230.040	12331
230.105	9159
230.171	10284
230.236	11976
230.302	15157
230.368	15670
230.433	10954
230.499	9808
230.564	9966
230.630	7653
230.695	7045
230.761	8405
230.826	5793
230.892	12853
230.957	8188
231.023	6939
231.088	7925
231.154	7183
231.219	6825
231.284	10338
231.350	12694
231.415	7191
231.481	7107
231.546	6150
231.612	6496
231.677	5869
231.742	5591
231.808	7504
231.873	5673
231.939	4681
232.004	12837
232.069	13347
232.135	7596
232.200	6267
232.265	5559
232.331	4948
232.396	4534
232.461	4586
232.527	5323
232.592	5967
232.657	6017
232.723	9237
232.788	7368
232.853	6358
232.918	5158
232.984	5176
233.049	5886
233.114	8246
233.179	10082
233.245	11598
233.310	13277
233.375	5628
233.440	6390
233.506	8128
233.571	8288
233.636	5472
233.701	5531
233.766	9172
233.832	12202
233.897	7485
233.962	7212
234.027	9657
234.092	9192
234.157	8316
234.222	8636
234.288	10351
234.353	23562
234.418	22906
234.483	14983
234.548	12066
234.613	10623
234.678	10808
234.743	9968
234.808	24830
234.873	19091
234.938	11083
235.004	9227
235.069	9146
235.134	8050
235.199	8948
235.264	7671
235.329	7718
235.394	7375
235.459	9811
235.524	9050
235.589	8564
235.654	7826
235.719	6821
235.784	8021
235.849	8864
235.913	14431
235.978	16302
236.043	18328
236.108	10649
236.173	9121
236.238	10701
236.303	8450
236.368	9447
236.433	12760
236.498	21375
236.563	18404
236.627	33055
236.692	98662
236.757	95204
236.822	40978
236.887	27098
236.952	22069
237.017	18207
237.081	20480
237.146	26705
237.211	50158
237.276	98364
237.341	157173
237.405	89971
237.470	40547
237.535	25038
237.600	18002
237.664	13509
237.729	13084
237.794	15682
237.859	31438
237.923	22991
237.988	14126
238.053	15649
238.118	15216
238.182	34564
238.247	33060
238.312	17656
238.376	13388
238.441	10909
238.506	11471
238.570	7032
238.635	8918
238.700	8008
238.764	8081
238.829	15487
238.893	20110
238.958	13653
239.023	14368
239.087	8998
239.152	10309
239.216	9088
239.281	8924
239.346	8207
239.410	8171
239.475	9379
239.539	29110
239.604	28394
239.668	12582
239.733	10056
239.797	18733
239.862	46937
239.926	42664
239.991	19310
240.055	10400
240.120	9225
240.184	8338
240.249	7811
240.313	7907
240.378	7988
240.442	17000
240.507	31302
240.571	13755
240.635	14268
240.700	19837
240.764	10860
240.829	8816
240.893	6933
240.957	7638
241.022	16717
241.086	30116
241.151	17440
241.215	8806
241.279	11113
241.344	16503
241.408	12715
241.472	10368
241.537	11513
241.601	10435
241.665	8377
241.730	9401
241.794	10534
241.858	10374
241.922	11505
241.987	10746
242.051	8722
242.115	8490
242.179	8615
242.244	8483
242.308	9514
242.372	10301
242.436	12033
242.501	10782
242.565	8120
242.629	8934
242.693	9055
242.757	8248
242.822	9353
242.886	9740
242.950	9572
243.014	9923
243.078	11419
243.142	12883
243.206	10469
243.271	11502
243.335	11792
243.399	16435
243.463	46908
243.527	125358
243.591	47393
243.655	21054
243.719	12438
243.783	14263
243.847	19684
243.911	25731
243.975	33215
244.040	26880
244.104	13979
244.168	11327
244.232	17589
244.296	23540
244.360	25194
244.424	15705
244.488	11725
244.552	11032
244.615	8578
244.679	9134
244.743	12537
244.807	14923
244.871	10574
244.935	9389
244.999	7836
245.063	10185
245.127	10852
245.191	16395
245.255	17936
245.319	15048
245.383	14460
245.446	11881
245.510	9470
245.574	11097
245.638	11239
245.702	11484
245.766	28753
245.829	18095
245.893	12723
245.957	11289
246.021	13439
246.085	12850
246.149	15319
246.212	34794
246.276	58710
246.340	27937
246.404	18635
246.467	17640
246.531	29155
246.595	18074
246.659	15137
246.722	14579
246.786	20153
246.850	19466
246.913	26762
246.977	14242
247.041	13056
247.104	15081
247.168	14952
247.232	33829
247.295	74663
247.359	41241
247.423	18132
247.486	31464
247.550	21094
247.614	15928
247.677	21862
247.741	14745
247.804	13107
247.868	15373
247.932	30832
247.995	72062
248.059	30185
248.122	16427
248.186	19647
248.249	32682
248.313	110467
248.376	122576
248.440	82664
248.503	34176
248.567	24608
248.630	34572
248.694	48522
248.757	59516
248.821	123741
248.884	79350
248.948	65985
249.011	93857
249.075	137734
249.138	124506
249.202	50971
249.265	30158
249.328	30781
249.392	27382
249.455	22820
249.519	19272
249.582	23479
249.645	36448
249.709	28686
249.772	19554
249.835	17834
249.899	20120
249.962	19452
250.025	17739
250.089	43610
250.152	63093
250.215	32453
250.279	22867
250.342	22377
250.405	20985
250.468	21052
250.532	26304
250.595	37286
250.658	111185
250.721	195519
250.785	83036
250.848	43716
250.911	26220
250.974	24325
251.038	34169
251.101	74480
251.164	40462
251.227	39098
251.290	35171
251.354	45274
251.417	157112
251.480	172880
251.543	117596
251.606	271352
251.669	231860
251.732	100554
251.795	94959
251.859	95119
251.922	183936
251.985	124231
252.048	49414
252.111	38257
252.174	36235
252.237	64091
252.300	142598
252.363	137973
252.426	240100
252.489	120292
252.552	58740
252.615	39715
252.678	42566
252.741	102688
252.804	124553
252.867	243423
252.930	170389
252.993	93544
253.056	53549
253.119	40834
253.182	29194
253.245	44995
253.308	39357
253.371	38964
253.434	37006
253.497	33187
253.559	65305
253.622	49271
253.685	54464
253.748	57936
253.811	29484
253.874	32600
253.937	33340
254.000	27247
254.062	44871
254.125	73582
254.188	59681
254.251	56213
254.314	27376
254.376	46599
254.439	54443
254.502	43475
254.565	47277
254.628	85114
254.690	51164
254.753	28214
254.816	24554
254.878	26120
254.941	48622
255.004	55617
255.067	24580
255.129	25351
255.192	16774
255.255	14546
255.317	20065
255.380	14995
255.443	12076
255.505	13086
255.568	12257
255.631	12820
255.693	14531
255.756	11276
255.819	11867
255.881	11327
255.944	10407
256.006	10701
256.069	10788
256.132	10561
256.194	14537
256.257	27882
256.319	22401
256.382	23299
256.444	17845
256.507	14715
256.569	13714
256.632	15160
256.694	22171
256.757	54621
256.819	171035
256.882	81885
256.944	32317
257.007	24366
257.069	24726
257.132	17651
257.194	16312
257.257	15590
257.319	16966
257.381	20166
257.444	42010
257.506	181566
257.569	218219
257.631	93576
257.693	53337
257.756	26656
257.818	22770
257.880	15866
257.943	16096
258.005	15455
258.067	13851
258.130	14343
258.192	16840
258.254	30312
258.317	21179
258.379	14587
258.441	37128
258.503	38058
258.566	33167
258.628	44868
258.690	16384
258.753	16562
258.815	29731
258.877	20864
258.939	12654
259.001	12394
259.064	12678
259.126	14797
259.188	18837
259.250	14767
259.312	15667
259.375	27743
259.437	24466
259.499	14315
259.561	11984
259.623	13109
259.685	13465
259.747	14091
259.809	30115
259.872	57433
259.934	85441
259.996	88822
260.058	29613
260.120	14979
260.182	12026
260.244	11598
260.306	10383
260.368	12297
260.430	11821
260.492	22093
260.554	34442
260.616	25313
260.678	51789
260.740	68026
260.802	21104
260.864	17106
260.926	13936
260.988	15143
261.050	14017
261.112	29393
261.174	65133
261.236	52812
261.298	21787
261.359	26743
261.421	40987
261.483	16696
261.545	15121
261.607	11277
261.669	11043
261.731	18959
261.793	45716
261.854	27788
261.916	17602
261.978	15150
262.040	15107
262.102	11994
262.164	18482
262.225	16887
262.287	12737
262.349	34323
262.411	28194
262.472	14635
262.534	18219
262.596	38831
262.658	16761
262.719	12170
262.781	14486
262.843	35563
262.904	21311
262.966	17250
263.028	18188
263.090	64224
263.151	176606
263.213	68605
263.275	39564
263.336	19006
263.398	13274
263.459	11470
263.521	12289
263.583	32464
263.644	24400
263.706	12333
263.767	9294
263.829	9574
263.891	8279
263.952	8223
264.014	8787
264.075	14997
264.137	34314
264.198	19920
264.260	10108
264.321	9256
264.383	24532
264.444	56993
264.506	20525
264.567	13675
264.629	20093
264.690	44802
264.752	20534
264.813	15372
264.875	10778
264.936	12102
264.998	10981
265.059	10964
265.120	11933
265.182	17568
265.243	81727
265.305	97183
265.366	27704
265.427	15270
265.489	13440
265.550	10227
265.611	13116
265.673	13910
265.734	11767
265.795	11041
265.857	10190
265.918	12615
265.979	24893
266.040	136093
266.102	131258
266.163	40571
266.224	28757
266.286	16882
266.347	12132
266.408	12064
266.469	12830
266.530	11355
266.592	10878
266.653	20214
266.714	38367
266.775	15031
266.836	11368
266.898	9631
266.959	16151
267.020	12730
267.081	10225
267.142	9727
267.203	9227
267.264	9048
267.326	12133
267.387	9723
267.448	8780
267.509	9648
267.570	10025
267.631	8608
267.692	8578
267.753	11085
267.814	8837
267.875	19351
267.936	45285
267.997	23216
268.058	20761
268.119	13981
268.180	11963
268.241	10376
268.302	10011
268.363	9848
268.424	10743
268.485	11138
268.546	9356
268.607	7737
268.668	7985
268.729	8260
268.790	9849
268.851	10617
268.912	27477
268.972	36002
269.033	19015
269.094	10476
269.155	9320
269.216	8833
269.277	9693
269.338	9375
269.398	8793
269.459	12364
269.520	15706
269.581	19063
269.642	23321
269.702	17679
269.763	13276
269.824	10939
269.885	15271
269.945	23708
270.006	11580
270.067	8788
270.128	8875
270.188	8684
270.249	9434
270.310	8283
270.370	8291
270.431	9375
270.492	8237
270.553	9608
270.613	21550
270.674	43615
270.734	21815
270.795	12731
270.856	16604
270.916	15670
270.977	9868
271.038	12651
271.098	14010
271.159	20998
271.219	23195
271.280	11426
271.340	9022
271.401	11661
271.462	23186
271.522	17222
271.583	11991
271.643	11974
271.704	12956
271.764	15515
271.825	32457
271.885	103317
271.946	148716
272.006	52918
272.066	61936
272.127	115073
272.187	42526
272.248	23489
272.308	22138
272.369	72993
272.429	45771
272.489	31632
272.550	33345
272.610	33834
272.671	28687
272.731	20544
272.791	32587
272.852	24548
272.912	20153
272.972	13450
273.033	13103
273.093	19642
273.153	21340
273.214	16645
273.274	15964
273.334	50081
273.394	109384
273.455	48121
273.515	40815
273.575	93861
273.635	41320
273.696	45209
273.756	100771
273.816	45714
273.876	24369
273.936	36865
273.997	65266
274.057	25139
274.117	20274
274.177	27561
274.237	120754
274.297	109605
274.358	64978
274.418	81861
274.478	66149
274.538	28048
274.598	19869
274.658	48087
274.718	69440
274.778	34767
274.838	19511
274.898	29645
274.958	88756
275.018	99476
275.078	70911
275.138	30192
275.198	18219
275.258	14990
275.318	16699
275.378	31838
275.438	36502
275.498	22783
275.558	39878
275.618	95407
275.678	76196
275.738	46313
275.798	34747
275.858	19432
275.918	12477
275.978	16818
276.038	17563
276.098	13658
276.157	25303
276.217	74873
276.277	37486
276.337	27777
276.397	16237
276.457	20018
276.517	14246
276.576	11293
276.636	12900
276.696	20887
276.756	45577
276.815	37690
276.875	18177
276.935	19339
276.995	18810
277.055	14211
277.114	13623
277.174	19236
277.234	60513
277.293	31055
277.353	17858
277.413	13063
277.472	13976
277.532	16758
277.592	16387
277.651	51626
277.711	102001
277.771	38392
277.830	113998
277.890	96752
277.950	64153
278.009	178489
278.069	75635
278.128	68926
278.188	102447
278.248	45368
278.307	109003
278.367	70000
278.426	25703
278.486	17844
278.545	14561
278.605	14090
278.664	13951
278.724	16016
278.783	36024
278.843	102136
278.902	35501
278.962	21712
279.021	21814
279.081	26521
279.140	28223
279.199	24843
279.259	24706
279.318	26013
279.378	31500
279.437	46743
279.496	146249
279.556	380383
279.615	344226
279.675	109959
279.734	56884
279.793	76547
279.853	121050
279.912	50529
279.971	30310
280.031	26881
280.090	45679
280.149	80699
280.208	61412
280.268	254064
280.327	294543
280.386	86490
280.445	59924
280.505	56347
280.564	27380
280.623	23048
280.682	33962
280.742	55047
280.801	21377
280.860	16517
280.919	14566
280.978	14142
281.037	13446
281.097	13109
281.156	13972
281.215	13067
281.274	16116
281.333	63319
281.392	54037
281.451	16459
281.510	12534
281.569	12129
281.628	11647
281.688	10228
281.747	12369
281.806	13258
281.865	10315
281.924	10688
281.983	11756
282.042	8633
282.101	9430
282.160	10299
282.219	9122
282.278	10863
282.337	39078
282.396	29403
282.454	13237
282.513	16255
282.572	57948
282.631	36831
282.690	14101
282.749	11555
282.808	14702
282.867	14420
282.926	15093
282.985	11320
283.043	9543
283.102	11187
283.161	12970
283.220	27389
283.279	65227
283.338	24424
283.396	16067
283.455	15655
283.514	15520
283.573	25159
283.631	21126
283.690	14501
283.749	12485
283.808	28603
283.866	34618
283.925	15598
283.984	14761
284.043	20327
284.101	21710
284.160	16159
284.219	19689
284.277	19116
284.336	27972
284.395	79700
284.453	70943
284.512	30930
284.570	37157
284.629	34780
284.688	31581
284.746	35542
284.805	40619
284.863	51546
284.922	64720
284.981	80299
285.039	114475
285.098	190373
285.156	393822
285.215	568703
285.273	592407
285.332	447637
285.390	249829
285.449	153140
285.507	104367
285.566	76662
285.624	59160
285.683	48041
285.741	40196
285.799	35206
285.858	31408
285.916	29525
285.975	24310
286.033	21643
286.091	18608
286.150	17175
286.208	17017
286.267	19522
286.325	19764
286.383	29477
286.442	23728
286.500	15408
286.558	14089
286.616	13199
286.675	18239
286.733	17611
286.791	16167
286.850	16829
286.908	21009
286.966	35504
287.024	17555
287.083	13636
287.141	11410
287.199	13521
287.257	19167
287.315	14865
287.374	15970
287.432	36853
287.490	25855
287.548	16472
287.606	14170
287.664	12880
287.723	17139
287.781	23292
287.839	16183
287.897	19711
287.955	22302
288.013	29300
288.071	56553
288.129	206978
288.187	563865
288.245	301453
288.303	102623
288.361	54407
288.419	36629
288.477	26580
288.535	21304
288.593	17919
288.651	15692
288.709	13758
288.767	13655
288.825	13402
288.883	10968
288.941	12297
288.999	11234
289.057	11154
289.115	8902
289.173	10190
289.231	10735
289.289	11609
289.346	11529
289.404	13142
289.462	20464
289.520	22374
289.578	12632
289.636	8212
289.694	8281
289.751	8071
289.809	8404
289.867	9678
289.925	11899
289.983	15232
290.040	9521
290.098	8718
290.156	11183
290.214	12424
290.271	10491
290.329	9002
290.387	8198
290.444	7648
290.502	6180
290.560	7121
290.617	8794
290.675	8311
290.733	7390
290.790	10443
290.848	8647
290.906	10392
290.963	10620
291.021	9677
291.078	9905
291.136	10641
291.194	27895
291.251	63568
291.309	22710
291.366	10603
291.424	10682
291.481	9647
291.539	9682
291.596	10389
291.654	8237
291.711	7615
291.769	8693
291.826	21659
291.884	15687
291.941	8665
291.999	8406
292.056	11291
292.114	12535
292.171	9174
292.228	10518
292.286	13114
292.343	21436
292.401	26147
292.458	17131
292.515	12689
292.573	14460
292.630	13528
292.687	13269
292.745	11861
292.802	13138
292.859	33499
292.917	68115
292.974	43315
293.031	16365
293.089	12138
293.146	8857
293.203	8882
293.260	8064
293.318	10408
293.375	15535
293.432	11696
293.489	9574
293.546	10375
293.604	13691
293.661	42081
293.718	111084
293.775	56639
293.832	27952
293.889	22299
293.947	19405
294.004	14923
294.061	14643
294.118	30362
294.175	61033
294.232	68847
294.289	31827
294.346	18907
294.403	16413
294.460	15389
294.517	13459
294.574	12395
294.631	11936
294.688	12530
294.745	30555
294.802	113776
294.859	120410
294.916	46983
294.973	26414
295.030	21334
295.087	18912
295.144	15559
295.201	12689
295.258	12063
295.315	14803
295.372	45261
295.429	91069
295.486	40774
295.542	23274
295.599	44182
295.656	76337
295.713	57010
295.770	82197
295.827	35336
295.883	19062
295.940	17097
295.997	26299
296.054	26796
296.111	16557
296.167	12086
296.224	10349
296.281	10016
296.338	10334
296.394	10979
296.451	13298
296.508	36823
296.564	70281
296.621	44744
296.678	95061
296.734	146057
296.791	56140
296.848	29323
296.904	27758
296.961	58586
297.018	94602
297.074	72765
297.131	31627
297.187	21874
297.244	26728
297.301	88906
297.357	169435
297.414	65607
297.470	27602
297.527	19987
297.583	16709
297.640	16344
297.696	12885
297.753	11443
297.809	10615
297.866	10020
297.922	10937
297.979	10192
298.035	12117
298.092	20108
298.148	56334
298.204	55658
298.261	26446
298.317	41551
298.374	117238
298.430	74600
298.486	34156
298.543	26457
298.599	24784
298.656	30943
298.712	40243
298.768	85918
298.824	62473
298.881	26346
298.937	17095
298.993	14570
299.050	18836
299.106	17041
299.162	14691
299.218	16721
299.275	13838
299.331	14903
299.387	27457
299.443	103631
299.500	123633
299.556	56675
299.612	27983
299.668	26014
299.724	38640
299.780	41667
299.837	21751
299.893	28247
299.949	91225
300.005	112348
300.061	90653
300.117	152521
300.173	77650
300.229	35845
300.285	40699
300.341	45526
300.397	25198
300.453	18159
300.510	17034
300.566	18756
300.622	22021
300.678	70553
300.734	115563
300.790	92886
300.845	107539
300.901	74909
300.957	104326
301.013	76966
301.069	31736
301.125	22901
301.181	23849
301.237	18683
301.293	14287
301.349	13522
301.405	15253
301.461	18348
301.516	26899
301.572	23400
301.628	31490
301.684	29774
301.740	42865
301.796	70864
301.851	47139
301.907	70093
301.963	65638
302.019	100053
302.074	276495
302.130	287036
302.186	142079
302.242	61393
302.297	36916
302.353	32895
302.409	61246
302.464	56289
302.520	43581
302.576	101997
302.631	120335
302.687	70531
302.743	33674
302.798	20919
302.854	15751
302.910	16391
302.965	19788
303.021	36902
303.076	35746
303.132	44570
303.187	52591
303.243	28918
303.299	17533
303.354	13972
303.410	14599
303.465	13716
303.521	12319
303.576	13300
303.632	15028
303.687	30095
303.743	92709
303.798	81123
303.853	35187
303.909	20026
303.964	17996
304.020	24498
304.075	38779
304.130	33855
304.186	59518
304.241	61169
304.297	50152
304.352	28306
304.358	27152
304.407	17793
304.449	16770
304.463	16438
304.518	16485
304.539	16109
304.573	15484
304.629	15079
304.630	15243
304.684	24047
304.720	53795
304.739	68406
304.794	106307
304.811	91302
304.850	54840
304.902	26367
304.905	24609
304.960	18714
304.992	18408
305.015	18223
305.071	17598
305.083	17076
305.126	14862
305.173	12105
305.181	11730
305.236	10654
305.264	11527
305.292	12525
305.347	16347
305.354	16742
305.402	19081
305.445	19911
305.457	20112
305.512	22492
305.535	22911
305.567	23417
305.622	21807
305.626	22419
305.678	41580
305.716	86142
305.733	100670
305.788	111357
305.807	96341
305.843	73611
305.897	98645
305.898	98835
305.953	95858
305.988	63042
306.008	46162
306.063	29495
306.078	26572
306.118	20267
306.168	15088
306.173	14679
306.228	12832
306.259	11547
306.283	10771
306.338	11635
306.349	11870
306.393	13174
306.440	16059
306.448	16451
306.503	15807
306.530	15974
306.558	19779
306.613	39402
306.620	42434
306.668	67590
306.711	99265
306.723	101679
306.778	81088
306.801	61413
306.833	40361
306.888	21204
306.892	20339
306.943	15118
306.982	13565
306.997	13194
307.052	12802
307.072	12989
307.107	14144
307.162	17422
307.163	17479
307.217	23555
307.253	26678
307.272	27301
307.327	29196
307.343	27641
307.381	25237
307.434	24276
307.436	25019
307.491	49531
307.524	73583
307.546	80638
307.600	88115
307.614	80967
307.655	51797
307.704	26072
307.710	25221
307.765	28430
307.795	34060
307.819	38615
307.874	54351
307.885	54623
307.929	49539
307.975	43712
307.984	45570
308.038	64363
308.065	78953
308.093	138600
308.148	292002
308.156	325435
308.202	484536
308.246	579736
308.257	562059
308.312	323673
308.336	229827
308.366	177000
308.421	110309
308.426	104391
308.475	67568
308.517	45905
308.530	42631
308.585	36507
308.607	35106
308.639	35180
308.694	36472
308.697	36786
308.748	52806
308.787	70976
308.803	72057
308.857	62079
308.877	56412
308.912	54040
308.967	56473
308.967	56541
309.021	81722
309.058	101929
309.076	129937
309.130	226233
309.148	264032
309.185	432226
309.238	716945
309.239	719162
309.293	757575
309.328	708804
309.348	620924
309.402	329660
309.418	254445
309.457	185544
309.508	117277
309.511	115902
309.566	106701
309.598	105493
309.620	119741
309.674	164422
309.688	176270
309.729	170423
309.778	151404
309.783	148547
309.837	109241
309.868	88230
309.892	103244
309.946	146937
309.959	160053
310.001	195971
310.049	226785
310.055	218392
310.109	124032
310.139	71945
310.163	57910
310.218	34706
310.229	30807
310.272	26128
310.319	21825
310.326	21244
310.381	18509
310.409	17159
310.435	16647
310.489	15579
310.499	15467
310.543	15443
310.589	15516
310.598	15605
310.652	16296
310.679	16514
310.706	15415
310.760	12765
310.769	12428
310.814	12174
310.859	11774
310.868	11841
310.923	12323
310.948	12728
310.977	14269
311.031	17203
311.038	17574
311.085	16216
311.128	14576
311.139	14573
311.193	14705
311.218	14739
311.247	13730
311.301	11793
311.308	11546
311.356	12062
311.398	12506
311.410	12349
311.464	11662
311.488	11265
311.518	12120
311.572	13772
311.578	13955
311.626	20683
311.668	26646
311.680	25577
311.734	20066
311.758	17643
311.788	17547
311.842	17312
311.847	17273
311.896	22900
311.937	27799
311.950	27423
312.004	25466
312.027	24522
312.058	21267
312.112	15433
312.117	14833
312.165	13908
312.207	13098
312.297	19300
312.386	14961
312.476	19010
312.566	43646
312.656	19017
312.745	11202
312.835	13308
312.925	15964
313.015	13745
313.104	13621
313.194	12925
313.284	14573
313.374	23716
313.463	19659
313.553	14206
313.643	13630
313.732	11336
313.822	12467
313.912	15119
314.001	18383
314.091	18294
314.180	22958
314.270	23944
314.360	25489
314.449	23250
314.539	13792
314.628	13314
314.718	16610
314.808	18720
314.897	14811
314.987	16055
315.076	22187
315.166	26219
315.255	20180
315.345	24707
315.434	21168
315.524	20385
315.613	25410
315.703	37531
315.792	60497
315.881	163873
315.971	57127
316.060	44151
316.150	42661
316.239	39473
316.328	18043
316.418	16042
316.507	18182
316.597	25447
316.686	22206
316.775	26378
316.865	38169
316.954	15081
317.043	13479
317.133	17020
317.222	14197
317.311	14936
317.400	15091
317.490	25163
317.579	27999
317.668	19351
317.757	37434
317.847	97625
317.936	285178
318.025	115742
318.114	67066
318.203	39398
318.293	45658
318.382	85915
318.471	68631
318.560	84772
318.649	126428
318.738	30446
318.828	26880
318.917	27641
319.006	26055
319.095	64601
319.184	173882
319.273	113095
319.362	65881
319.451	22968
319.540	23817
319.629	63600
319.718	94725
319.807	33434
319.896	75973
319.985	219874
320.074	81509
320.163	22578
320.252	28994
320.341	27451
320.430	29139
320.519	50520
320.608	27269
320.697	22253
320.786	24456
320.875	32637
320.964	44421
321.053	71765
321.142	104149
321.230	98170
321.319	75382
321.408	168494
321.497	61448
321.586	69313
321.675	57987
321.764	57187
321.852	44045
321.941	102123
322.030	63061
322.119	74563
322.207	173512
322.296	74078
322.385	46359
322.474	76124
322.562	224912
322.651	94570
322.740	75306
322.829	89164
322.917	64976
323.006	55671
323.095	50428
323.183	29341
323.272	44109
323.361	80823
323.449	157848
323.538	56435
323.626	120025
323.715	59163
323.804	34076
323.892	112640
323.981	70330
324.069	23106
324.158	54061
324.246	46627
324.335	36424
324.424	61788
324.512	20942
324.601	29039
324.689	29006
324.778	36122
324.866	42058
324.954	16583
325.043	20372
325.131	32801
325.220	41086
325.308	46383
325.397	44515
325.485	27726
325.574	13302
325.662	15359
325.750	20025
325.839	13659
325.927	12301
326.015	18642
326.104	20339
326.192	24503
326.280	12974
326.369	14177
326.457	28339
326.545	56651
326.634	20840
326.722	11120
326.810	14291
326.898	14341
326.987	18646
327.075	49157
327.163	35407
327.251	14617
327.340	13846
327.428	16466
327.516	13615
327.604	14878
327.692	14007
327.781	15063
327.869	20976
327.957	18355
328.045	22090
328.133	11520
328.221	13890
328.309	14810
328.397	14066
328.485	20513
328.574	33237
328.662	120777
328.750	48154
328.838	17465
328.926	13688
329.014	12464
329.102	23196
329.190	53225
329.278	36827
329.366	11467
329.454	10164
329.542	10882
329.630	10611
329.718	13302
329.806	19828
329.893	17218
329.981	15525
330.069	27566
330.157	126409
330.245	346976
330.333	158586
330.421	28521
330.509	35803
330.597	146137
330.684	80335
330.772	24178
330.860	25155
330.948	33500
331.036	18737
331.123	10063
331.211	10925
331.299	13433
331.387	32065
331.475	54067
331.562	17782
331.650	10960
331.738	13288
331.825	14547
331.913	10815
332.001	10784
332.089	14273
332.176	23957
332.264	50568
332.352	39816
332.439	19527
332.527	15627
332.614	12134
332.702	14355
332.790	13768
332.877	32855
332.965	53421
333.052	24894
333.140	29903
333.228	70318
333.315	21434
333.403	16810
333.490	31845
333.578	40925
333.665	96721
333.753	45193
333.840	17889
333.928	18960
334.015	35556
334.103	67660
334.190	192218
334.278	52907
334.365	32914
334.452	29131
334.540	22370
334.627	23946
334.715	31677
334.802	58141
334.889	204984
334.977	187498
335.064	45996
335.151	27781
335.239	23876
335.326	29405
335.413	114327
335.501	134277
335.588	28081
335.675	23592
335.762	29802
335.850	44361
335.937	43681
336.024	89329
336.111	242732
336.199	115311
336.286	40490
336.373	24731
336.460	18275
336.547	17052
336.635	20944
336.722	20633
336.809	15146
336.896	26013
336.983	72653
337.070	160501
337.157	204298
337.245	121709
337.332	71878
337.419	16033
337.506	12864
337.593	14949
337.680	51695
337.767	133636
337.854	43079
337.941	47399
338.028	48959
338.115	19614
338.202	23611
338.289	42071
338.376	118456
338.463	39878
338.550	84823
338.637	79004
338.724	26822
338.811	33183
338.898	11826
338.984	12385
339.071	15043
339.158	21376
339.245	64461
339.332	34645
339.419	30875
339.506	27019
339.593	9698
339.679	15232
339.766	13236
339.853	21690
339.940	50723
340.027	15583
340.113	18406
340.200	25378
340.287	16392
340.374	26735
340.460	43428
340.547	19042
340.634	35672
340.720	136480
340.807	71646
340.894	13931
340.980	14738
341.067	14606
341.154	17272
341.240	31606
341.327	67499
341.414	22136
341.500	25309
341.587	15665
341.674	13861
341.760	46180
341.847	54465
341.933	16669
342.020	8276
342.106	9555
342.193	18981
342.279	36693
342.366	27382
342.452	47392
342.539	24179
342.625	62496
342.712	145316
342.798	57761
342.885	22530
342.971	9410
343.058	8159
343.144	11824
343.230	11937
343.317	14454
343.403	13223
343.490	9194
343.576	10485
343.662	13221
343.749	16462
343.835	18324
343.921	35814
344.008	241908
344.094	494442
344.180	97409
344.267	43155
344.353	146897
344.439	131682
344.525	67876
344.612	30772
344.698	28540
344.784	18478
344.870	12090
344.957	14734
345.043	27630
345.129	21303
345.215	44981
345.301	24899
345.387	15985
345.474	9509
345.560	10240
345.646	11364
345.732	12591
345.818	18537
345.904	16022
345.990	17544
346.076	14747
346.162	24355
346.249	14557
346.335	10849
346.421	14261
346.507	64841
346.593	202396
346.679	43782
346.765	14956
346.851	18336
346.937	18372
347.023	12573
347.108	18771
347.194	15293
347.280	14306
347.366	19660
347.452	68765
347.538	251829
347.624	176994
347.710	133619
347.796	20636
347.882	13019
347.967	11836
348.053	15201
348.139	13113
348.225	10854
348.311	13936
348.397	11406
348.482	19591
348.568	21537
348.654	14003
348.740	26552
348.825	30328
348.911	30857
348.997	118367
349.083	206429
349.168	29653
349.254	17577
349.340	16494
349.425	11423
349.511	21774
349.597	20794
349.682	49761
349.768	154065
349.854	65137
349.939	13537
350.025	13230
350.110	15878
350.196	11439
350.282	8849
350.367	9491
350.453	15801
350.538	17477
350.624	20175
350.709	18261
350.795	10936
350.880	14113
350.966	14513
351.051	19836
351.137	12978
351.222	14901
351.308	52272
351.393	139841
351.479	36360
351.564	14416
351.649	14687
351.735	10803
351.820	10436
351.906	12231
351.991	18171
352.076	90076
352.162	127973
352.247	25371
352.332	19846
352.418	41292
352.503	49804
352.588	204998
352.673	158441
352.759	35848
352.844	19416
352.929	23352
353.014	30511
353.100	18454
353.185	27466
353.270	53507
353.355	50443
353.441	16008
353.526	15488
353.611	48269
353.696	55376
353.781	32084
353.866	15718
353.952	18178
354.037	48672
354.122	108688
354.207	95648
354.292	35071
354.377	16473
354.462	14716
354.547	23599
354.632	18170
354.717	22140
354.802	29529
354.887	15215
354.972	12848
355.057	9956
355.142	11168
355.227	16651
355.312	31882
355.397	73843
355.482	172602
355.567	78198
355.652	54952
355.737	60413
355.822	178234
355.907	134402
355.991	23234
356.076	15300
356.161	13435
356.246	13349
356.331	15920
356.416	41350
356.501	262723
356.585	256482
356.670	40788
356.755	25657
356.840	40518
356.924	193685
357.009	621959
357.094	227405
357.179	57928
357.263	36919
357.348	37649
357.433	38968
357.517	37459
357.602	28691
357.687	23984
357.771	50802
357.856	187643
357.941	99100
358.025	157363
358.110	604061
358.195	276804
358.279	47049
358.364	36844
358.448	131768
358.533	338214
358.617	242400
358.702	229954
358.787	84603
358.871	54014
358.956	44659
359.040	16563
359.125	14088
359.209	20688
359.294	95800
359.378	159164
359.462	54004
359.547	23728
359.631	14931
359.716	14206
359.800	14732
359.885	21993
359.969	18604
360.053	15580
360.138	15576
360.222	28589
360.306	54008
360.391	40893
360.475	105276
360.559	211584
360.644	141909
360.728	93056
360.812	148943
360.896	377910
360.981	162484
361.065	84805
361.149	26019
361.233	27194
361.318	21890
361.402	24124
361.486	22169
361.570	18460
361.654	25418
361.739	68434
361.823	269784
361.907	372840
361.991	70719
362.075	50781
362.159	112440
362.243	84167
362.327	95123
362.411	107188
362.495	54446
362.580	31376
362.664	25967
362.748	28263
362.832	39508
362.916	76090
363.000	204155
363.084	435138
363.168	478751
363.252	122261
363.336	48071
363.420	57166
363.503	156468
363.587	167475
363.671	43232
363.755	38436
363.839	53355
363.923	32583
364.007	63792
364.091	70970
364.175	87686
364.258	279772
364.342	299721
364.426	390685
364.510	205167
364.594	88085
364.677	94064
364.761	344321
364.845	232074
364.929	93258
365.013	78137
365.096	62676
365.180	71105
365.264	72235
365.347	223787
365.431	93516
365.515	30756
365.598	22176
365.682	20768
365.766	27879
365.849	32034
365.933	23837
366.017	26445
366.100	20114
366.184	11955
366.267	15223
366.351	15241
366.435	14524
366.518	11589
366.602	13718
366.685	15289
366.769	19398
366.852	29484
366.936	54760
367.019	37117
367.103	23474
367.186	33559
367.270	15783
367.353	13011
367.436	15183
367.520	14178
367.603	23169
367.687	36252
367.770	63135
367.853	36786
367.937	107544
368.020	171206
368.104	43628
368.187	46469
368.270	66849
368.353	56044
368.437	57355
368.520	78855
368.603	72879
368.687	130516
368.770	230699
368.853	57531
368.936	53526
369.020	45443
369.103	22084
369.186	15009
369.269	19114
369.352	41445
369.436	55496
369.519	35097
369.602	18441
369.685	19675
369.768	23410
369.851	17607
369.934	13852
370.018	20929
370.101	52975
370.184	37300
370.267	25350
370.350	45900
370.433	71509
370.516	186527
370.599	234448
370.682	83436
370.765	134326
370.848	160618
370.931	271387
371.014	97389
371.097	24475
371.180	18879
371.263	13873
371.346	10735
371.429	14300
371.511	16075
371.594	33771
371.677	46134
371.760	42203
371.843	48493
371.926	231974
372.009	495214
372.091	158729
372.174	111467
372.257	243487
372.340	94141
372.423	65488
372.505	63615
372.588	34925
372.671	92146
372.754	275009
372.836	130803
372.919	74823
373.002	130148
373.085	51486
373.167	50246
373.250	130091
373.332	257130
373.415	340992
373.498	652790
373.580	255816
373.663	349672
373.746	448546
373.828	107455
373.911	44914
373.993	46899
374.076	128609
374.159	115964
374.241	75337
374.324	237938
374.406	157712
374.489	205474
374.571	533880
374.654	218734
374.736	110897
374.819	330735
374.901	474631
374.983	466927
375.066	87209
375.148	34772
375.231	110246
375.313	196121
375.395	80494
375.478	24832
375.560	19948
375.643	30315
375.725	109978
375.807	404067
375.890	274754
375.972	88404
376.054	61520
376.136	62645
376.219	37986
376.301	126173
376.383	348328
376.465	135442
376.548	96375
376.630	117557
376.712	300723
376.794	139572
376.877	20788
376.959	14295
377.041	18911
377.123	28644
377.205	33084
377.287	12066
377.369	14595
377.452	15967
377.534	15322
377.616	15605
377.698	15769
377.780	12764
377.862	17619
377.944	16441
378.026	11570
378.108	12263
378.190	12013
378.272	12272
378.354	10032
378.436	10403
378.518	23167
378.600	68249
378.682	71779
378.764	167978
378.846	128639
378.928	37690
379.010	57035
379.091	31811
379.173	15725
379.255	14641
379.337	25084
379.419	88538
379.501	230444
379.583	89818
379.664	26394
379.746	68464
379.828	170446
379.910	231020
379.991	187584
380.073	35212
380.155	24041
380.237	19558
380.318	14585
380.400	17201
380.482	40946
380.564	62647
380.645	57216
380.727	54153
380.809	32731
380.890	23468
380.972	17801
381.053	17866
381.135	22699
381.217	62953
381.298	175077
381.380	86558
381.461	75474
381.543	306074
381.624	362846
381.706	71076
381.787	35950
381.869	42972
381.951	147141
382.032	490982
382.113	312833
382.195	74806
382.276	49042
382.358	111290
382.439	284765
382.521	315091
382.602	458018
382.684	231914
382.765	418580
382.846	520151
382.928	729315
383.009	422534
383.090	357987
383.172	1064861
383.253	1384067
383.334	529649
383.416	455158
383.497	251496
383.578	159238
383.659	316870
383.741	990319
383.822	1910474
383.903	1026567
383.984	403775
384.066	546378
384.147	343791
384.228	83677
384.309	67823
384.390	52260
384.471	38385
384.553	41755
384.634	52255
384.715	55327
384.796	32192
384.877	45774
384.958	157276
385.039	193923
385.120	72524
385.201	35145
385.282	39175
385.363	37767
385.444	41288
385.525	73587
385.606	217122
385.687	182815
385.768	46358
385.849	63808
385.930	250492
386.011	401890
386.092	114577
386.173	31303
386.254	24448
386.335	25208
386.416	31321
386.496	105484
386.577	167555
386.658	57755
386.739	38097
386.820	31665
386.901	25902
386.981	26083
387.062	23458
387.143	47661
387.224	167375
387.304	149542
387.385	54917
387.466	36945
387.547	40109
387.627	34590
387.708	72185
387.789	283760
387.869	331605
387.950	90031
388.031	22268
388.111	22193
388.192	39160
388.273	52102
388.353	38277
388.434	30014
388.514	65175
388.595	253474
388.676	326595
388.756	166508
388.837	159081
388.917	101295
388.998	22826
389.078	21768
389.159	20924
389.239	21546
389.320	32883
389.400	33065
389.480	63322
389.561	166205
389.641	82071
389.722	34052
389.802	56092
389.883	77874
389.963	189207
390.043	111932
390.124	33346
390.204	63692
390.284	191845
390.365	123531
390.445	107495
390.525	276007
390.605	260379
390.686	99458
390.766	35694
390.846	22985
390.927	19615
391.007	21580
391.087	22441
391.167	23437
391.247	19620
391.328	26338
391.408	35210
391.488	28386
391.568	18247
391.648	30331
391.728	42785
391.808	40980
391.888	49050
391.969	102721
392.049	156017
392.129	67767
392.209	82085
392.289	192618
392.369	106366
392.449	70249
392.529	55985
392.609	55346
392.689	76539
392.769	201378
392.849	177300
392.929	131906
393.009	280472
393.089	261767
393.169	298453
393.248	843146
393.328	2000689
393.408	1996108
393.488	793481
393.568	274673
393.648	140883
393.728	90762
393.807	66949
393.887	55459
393.967	47962
394.047	52591
394.127	60683
394.206	88278
394.286	285531
394.366	1012882
394.446	1057216
394.525	283823
394.605	79728
394.685	61641
394.764	97468
394.844	156213
394.924	122817
395.003	54328
395.083	39180
395.163	35640
395.242	34055
395.322	34756
395.402	27078
395.481	35065
395.561	77982
395.640	193130
395.720	189802
395.799	200258
395.879	150966
395.958	123950
396.038	414270
396.117	1299159
396.197	1383736
396.276	469558
396.356	166044
396.435	118435
396.515	100489
396.594	133909
396.673	259246
396.753	807360
396.832	1834469
396.912	1426367
396.991	443381
397.070	138652
397.150	79756
397.229	60046
397.308	84080
397.388	143200
397.467	75533
397.546	33626
397.625	29016
397.705	35444
397.784	36858
397.863	23739
397.942	17922
398.022	19182
398.101	54803
398.180	137301
398.259	71897
398.338	28093
398.417	25489
398.497	17683
398.576	17820
398.655	14813
398.734	13151
398.813	16411
398.892	51649
398.971	147251
399.050	75762
399.129	15568
399.208	11575
399.287	12876
399.366	11408
399.445	12999
399.524	12006
399.603	14071
399.682	27898
399.761	71298
399.840	164572
399.919	121169
399.998	19493
400.077	10310
400.156	10338
400.235	13492
400.313	10971
400.392	20194
400.471	90906
400.550	146769
400.629	40226
400.708	17294
400.786	15329
400.865	33503
400.944	39974
401.023	23448
401.102	8820
401.180	8750
401.259	9764
401.338	12853
401.416	18697
401.495	17558
401.574	11231
401.652	11631
401.731	16705
401.810	14112
401.888	9335
401.967	8327
402.046	10649
402.124	16516
402.203	22902
402.281	14054
402.360	16594
402.438	41242
402.517	30120
402.596	12909
402.674	11128
402.753	9155
402.831	7779
402.910	12274
402.988	48210
403.066	147257
403.145	86133
403.223	50128
403.302	118898
403.380	88412
403.459	83113
403.537	36543
403.615	15664
403.694	8100
403.772	8439
403.850	8043
403.929	7845
404.007	10717
404.085	20316
404.164	23210
404.242	13044
404.320	27845
404.398	81698
404.477	135381
404.555	378992
404.633	325554
404.711	80577
404.789	36430
404.868	15495
404.946	10194
405.024	8085
405.102	8015
405.180	7661
405.258	7575
405.336	8564
405.415	10497
405.493	19772
405.571	18397
405.649	7669
405.727	9344
405.805	13395
405.883	13639
405.961	13685
406.039	15863
406.117	10906
406.195	23277
406.273	102893
406.351	325680
406.429	186872
406.507	28328
406.585	12345
406.663	15641
406.740	21929
406.818	18586
406.896	9807
406.974	12156
407.052	36987
407.130	199754
407.208	269967
407.285	53577
407.363	12742
407.441	12468
407.519	11276
407.596	16312
407.674	48021
407.752	135812
407.830	111613
407.907	32928
407.985	13580
408.063	10088
408.141	6179
408.218	13947
408.296	15019
408.373	14317
408.451	16763
408.529	17073
408.606	9154
408.684	7261
408.762	6633
408.839	6735
408.917	7233
408.994	9128
409.072	10454
409.149	11459
409.227	17559
409.304	24820
409.382	22849
409.459	25614
409.537	34823
409.614	33353
409.692	26486
409.769	26027
409.846	36211
409.924	43469
410.001	38527
410.079	27706
410.156	21194
410.233	21148
410.311	15903
410.388	12824
410.465	15700
410.543	14565
410.620	11050
410.697	14763
410.775	17535
410.852	10434
410.929	15453
411.006	21474
411.083	14540
411.161	26083
411.238	26371
411.315	13986
411.392	9594
411.469	16500
411.547	16486
411.624	9379
411.701	9866
411.778	14661
411.855	32773
411.932	18677
412.009	9419
412.086	8440
412.163	10528
412.240	13148
412.317	14488
412.394	13675
412.471	7154
412.548	7556
412.625	9022
412.702	11427
412.779	23214
412.856	16844
412.933	7009
413.010	7364
413.087	18143
413.164	86115
413.241	121004
413.318	31427
413.395	17710
413.471	28813
413.548	12662
413.625	8993
413.702	11548
413.779	9411
413.855	3909
413.932	4143
414.009	5296
414.086	5339
414.162	6116
414.239	17854
414.316	86067
414.393	182241
414.469	64534
414.546	7612
414.623	5736
414.699	6908
414.776	11515
414.853	8372
414.929	8130
415.006	7560
415.082	8657
415.159	7951
415.236	7155
415.312	9253
415.389	21397
415.465	30637
415.542	15870
415.618	11179
415.695	18825
415.771	13616
415.848	11593
415.924	9620
416.000	7392
416.077	5737
416.153	4364
416.230	2945
416.306	3999
416.383	5088
416.459	4383
416.535	4970
416.612	4858
416.688	5177
416.764	5823
416.841	6329
416.917	6313
416.993	7476
417.069	10548
417.146	15282
417.222	20779
417.298	13158
417.374	7868
417.451	10162
417.527	14358
417.603	16991
417.679	11894
417.755	9334
417.831	5680
417.908	4929
417.984	5238
418.060	6360
418.136	24020
418.212	34509
418.288	12358
418.364	6764
418.440	8639
418.516	15363
418.592	17104
418.668	38193
418.744	62771
418.820	44091
418.896	12127
418.972	6252
419.048	9064
419.124	27327
419.200	23752
419.276	8497
419.352	3712
419.428	6152
419.504	9795
419.579	13479
419.655	11490
419.731	13328
419.807	40009
419.883	75051
419.959	50752
420.034	14552
420.110	31650
420.186	115553
420.262	88200
420.337	17190
420.413	13942
420.489	10277
420.565	8744
420.640	9545
420.716	10471
420.792	8686
420.867	10134
420.943	10523
421.019	21575
421.094	18232
421.170	10972
421.245	9895
421.321	11674
421.397	14257
421.472	31548
421.548	78345
421.623	55338
421.699	24043
421.774	22535
421.850	22885
421.925	35626
422.001	35358
422.076	31691
422.152	41103
422.227	62504
422.302	76121
422.378	110828
422.453	206348
422.529	468901
422.604	1006896
422.679	1228331
422.755	987984
422.830	484809
422.905	207934
422.981	117838
423.056	78125
423.131	55965
423.207	43585
423.282	41715
423.357	56371
423.432	41790
423.508	36151
423.583	71163
423.658	55473
423.733	21754
423.808	23253
423.883	26750
423.959	25782
424.034	22461
424.109	17930
424.184	12126
424.259	12316
424.334	10645
424.409	8721
424.484	9841
424.559	12511
424.634	10496
424.709	16008
424.784	19005
424.859	13711
424.934	22868
425.009	84704
425.084	136881
425.159	49384
425.234	9764
425.309	11529
425.384	57635
425.459	99500
425.534	27191
425.609	8494
425.683	6636
425.758	6758
425.833	7694
425.908	12457
425.983	54879
426.058	143509
426.132	62413
426.207	12194
426.282	14681
426.357	12627
426.431	7036
426.506	7233
426.581	6466
426.655	7843
426.730	7120
426.805	7804
426.879	8470
426.954	9010
427.029	24961
427.103	131446
427.178	289088
427.253	120933
427.327	17032
427.402	32107
427.476	92006
427.551	48839
427.625	10227
427.700	8587
427.774	6228
427.849	8609
427.923	6424
427.998	7126
428.072	9906
428.147	26720
428.221	128097
428.296	346105
428.370	175047
428.444	23264
428.519	18443
428.593	32014
428.667	27285
428.742	34046
428.816	51256
428.890	218740
428.965	359418
429.039	111963
429.113	38587
429.188	16077
429.262	9046
429.336	22537
429.410	63965
429.485	40078
429.559	27617
429.633	22446
429.707	12755
429.781	43496
429.855	222583
429.930	325137
430.004	129609
430.078	143453
430.152	179256
430.226	433601
430.300	410217
430.374	73039
430.448	22880
430.522	55603
430.596	138484
430.670	118251
430.744	360689
430.818	465507
430.892	89009
430.966	17174
431.040	8444
431.114	5592
431.188	5670
431.262	5933
431.336	6465
431.410	17683
431.484	45277
431.557	33500
431.631	8239
431.705	14770
431.779	79303
431.853	301524
431.927	200078
432.000	23545
432.074	8157
432.148	8338
432.222	8185
432.295	4813
432.369	5072
432.443	17661
432.516	113846
432.590	273065
432.664	95687
432.737	12701
432.811	4876
432.885	3765
432.958	3749
433.032	3959
433.106	1788
433.179	2447
433.253	3608
433.326	4171
433.400	1921
433.473	3173
433.547	1850
433.620	5378
433.694	16523
433.767	15890
433.841	4230
433.914	5262
433.988	5968
434.061	4954
434.134	3703
434.208	3425
434.281	2106
434.355	4567
434.428	7243
434.501	6124
434.575	3766
434.648	4885
434.721	2855
434.795	3402
434.868	2231
434.941	2885
435.014	3176
435.088	6373
435.161	13717
435.234	19785
435.307	19802
435.381	11698
435.454	11154
435.527	15001
435.600	16930
435.673	13774
435.746	11177
435.819	9443
435.892	8242
435.966	7498
436.039	6024
436.112	5858
436.185	3299
436.258	3358
436.331	3445
436.404	3170
436.477	2604
436.550	3140
436.623	2454
436.696	2904
436.769	5876
436.842	4933
436.915	4677
436.987	8373
437.060	4367
437.133	3229
437.206	2684
437.279	3838
437.352	2644
437.425	4241
437.498	5856
437.570	17529
437.643	16537
437.716	4590
437.789	3067
437.861	12388
437.934	31569
438.007	14391
438.080	4606
438.152	6409
438.225	21072
438.298	151154
438.370	363962
438.443	140475
438.516	31253
438.588	8061
438.661	3018
438.734	4496
438.806	6101
438.879	7547
438.951	9327
439.024	16569
439.096	6804
439.169	3729
439.241	1964
439.314	3390
439.386	5422
439.459	9463
439.531	14959
439.604	6584
439.676	2666
439.749	2688
439.821	2551
439.893	3686
439.966	3151
440.038	6633
440.110	7493
440.183	4469
440.255	4609
440.327	10305
440.400	62678
440.472	237927
440.544	145667
440.617	17782
440.689	12329
440.761	17344
440.833	27295
440.905	16662
440.978	3145
441.050	3153
441.122	3339
441.194	3404
441.266	3807
441.338	4209
441.411	14173
441.483	85400
441.555	116307
441.627	22936
441.699	9719
441.771	9428
441.843	4914
441.915	4158
441.987	4115
442.059	4274
442.131	6772
442.203	11260
442.275	14828
442.347	16637
442.419	35387
442.491	177889
442.563	376999
442.635	140408
442.706	54625
442.778	39287
442.850	10530
442.922	7986
442.994	9545
443.066	15813
443.137	14046
443.209	14741
443.281	22549
443.353	53763
443.425	217912
443.496	674955
443.568	611517
443.640	211510
443.711	40878
443.783	18205
443.855	11988
443.926	8715
443.998	7423
444.070	9379
444.141	9826
444.213	17103
444.285	20144
444.356	15212
444.428	10294
444.499	6697
444.571	4406
444.642	6029
444.714	9188
444.785	16544
444.857	16250
444.928	28099
445.000	16685
445.071	20946
445.143	25892
445.214	25868
445.285	44629
445.357	126340
445.428	460242
445.500	884069
445.571	553862
445.642	295945
445.714	93719
445.785	54894
445.856	23293
445.928	25038
445.999	18115
446.070	12861
446.141	14620
446.213	18757
446.284	7867
446.355	7816
446.426	5179
446.497	5749
446.569	10221
446.640	20226
446.711	16701
446.782	5049
446.853	5473
446.924	8880
446.995	7610
447.066	5982
447.138	9246
447.209	5239
447.280	2574
447.351	1720
447.422	1782
447.493	5655
447.564	9251
447.635	16152
447.706	5400
447.777	2674
447.847	1844
447.918	2470
447.989	5674
448.060	7860
448.131	16659
448.202	18517
448.273	15168
448.344	6062
448.414	4629
448.485	4483
448.556	2529
448.627	2361
448.698	2304
448.768	2245
448.839	3372
448.910	9198
448.981	7903
449.051	5055
449.122	2351
449.193	1704
449.263	2927
449.334	3079
449.405	7392
449.475	20724
449.546	10970
449.616	11006
449.687	9537
449.758	4701
449.828	3194
449.899	2813
449.969	1732
450.040	3105
450.110	3353
450.181	4382
450.251	3491
450.322	2348
450.392	2343
450.463	2998
450.533	2112
450.604	3113
450.674	3243
450.744	3457
450.815	2254
450.885	3372
450.955	2310
451.026	2715
451.096	2217
451.166	4790
451.237	12037
451.307	25473
451.377	9440
451.447	3312
451.518	1611
451.588	2699
451.658	2936
451.728	7288
451.799	26420
451.869	26653
451.939	5295
452.009	2649
452.079	2932
452.149	3862
452.219	8161
452.289	31423
452.360	20161
452.430	5937
452.500	7085
452.570	10945
452.640	16673
452.710	42998
452.780	52336
452.850	45258
452.920	40192
452.990	12441
453.060	7458
453.129	11941
453.199	11812
453.269	39771
453.339	70612
453.409	101501
453.479	109141
453.549	152891
453.619	154497
453.688	50653
453.758	7936
453.828	4795
453.898	2869
453.968	3824
454.037	3288
454.087	3573
454.107	3679
454.168	2519
454.177	2331
454.247	2157
454.249	2195
454.316	2584
454.330	2961
454.386	4174
454.411	8086
454.456	14366
454.492	17413
454.525	20162
454.574	11497
454.595	7778
454.655	4358
454.665	3822
454.734	4722
454.736	4942
454.804	10909
454.817	14105
454.873	26340
454.898	26628
454.943	26812
454.979	17822
455.013	9973
455.060	7524
455.082	6858
455.141	8266
455.152	8894
455.221	28369
455.222	28966
455.291	58416
455.303	65945
455.360	91761
455.384	128583
455.430	182162
455.465	127087
455.499	79951
455.546	46423
455.569	31268
455.627	18739
455.638	16601
455.707	4806
455.708	4821
455.777	4164
455.789	4068
455.846	3432
455.869	3346
455.916	3229
455.950	3112
455.985	2937
456.031	3695
456.054	4022
456.112	3523
456.124	3448
456.193	3500
456.193	3479
456.262	3020
456.274	3561
456.332	6121
456.355	6256
456.401	5835
456.436	4726
456.470	3691
456.516	3280
456.540	3153
456.597	3235
456.609	3260
456.678	2242
456.678	2223
456.747	2185
456.759	2212
456.817	2708
456.840	2729
456.886	2624
456.920	2896
456.955	3226
457.001	3561
457.024	3879
457.082	4847
457.093	4998
457.162	8090
457.163	8126
457.232	7970
457.243	7619
457.301	5658
457.324	4710
457.370	3618
457.405	4203
457.439	4731
457.485	4673
457.508	4715
457.566	5464
457.577	5789
457.646	7963
457.647	8028
457.715	16235
457.727	18032
457.784	27328
457.808	36214
457.853	49445
457.889	57804
457.922	60096
457.969	42659
457.991	40234
458.050	45566
458.060	46515
458.129	79055
458.130	79921
458.198	89016
458.211	80346
458.267	43778
458.292	31653
458.336	20562
458.372	19554
458.405	24940
458.453	36269
458.474	43121
458.533	74936
458.543	77854
458.611	133040
458.614	133306
458.680	90042
458.694	73521
458.749	31324
458.775	22300
458.818	13286
458.855	10579
458.887	8550
458.936	7113
458.955	6805
459.016	5819
459.024	5712
459.093	6542
459.097	6560
459.162	6771
459.177	6841
459.230	7406
459.257	8334
459.299	8944
459.338	8346
459.368	8088
459.418	8759
459.437	8537
459.499	6139
459.505	6069
459.574	5183
459.579	5242
459.643	4862
459.659	4568
459.711	4806
459.740	5425
459.780	6050
459.820	6319
459.849	6243
459.900	6228
459.917	6263
459.981	6116
459.986	6071
460.054	6117
460.061	6107
460.123	6637
460.141	6789
460.191	7828
460.222	8704
460.260	9509
460.302	11808
460.328	11898
460.382	8050
460.397	7694
460.462	7585
460.465	7941
460.534	17200
460.543	18438
460.602	45131
460.623	56227
460.671	80756
460.703	109673
460.739	107197
460.783	79910
460.808	65654
460.864	14529
460.876	9414
460.944	6443
460.945	6403
461.013	6503
461.024	6411
461.081	6552
461.104	7163
461.150	7449
461.184	6752
461.218	6480
461.264	6253
461.286	6143
461.345	6591
461.355	6555
461.423	5748
461.425	5732
461.491	6967
461.505	7278
461.559	13139
461.585	15967
461.628	22611
461.665	29793
461.696	31978
461.745	38687
461.764	35191
461.825	11822
461.832	11233
461.901	7993
461.905	8099
461.969	7141
461.985	6521
462.037	6283
462.065	6379
462.105	7449
462.145	8701
462.173	11388
462.225	16592
462.241	17837
462.305	25090
462.310	24522
462.378	14402
462.385	12692
462.446	8228
462.465	7780
462.514	7692
462.545	7863
462.582	7925
462.625	7901
462.650	7447
462.705	6004
462.718	6199
462.785	7640
462.786	7680
462.854	9740
462.865	10256
462.922	12694
462.945	13548
462.990	10176
463.025	6764
463.058	6158
463.104	5618
463.126	5438
463.184	5685
463.194	5915
463.262	6698
463.264	6751
463.330	6842
463.344	6757
463.398	7069
463.424	7254
463.466	7303
463.504	7438
463.533	7630
463.583	7573
463.601	7743
463.663	8501
463.669	8897
463.737	13519
463.743	13998
463.805	20652
463.823	22428
463.873	29721
463.903	34644
463.940	35442
463.982	37103
464.008	30593
464.062	12647
464.076	11745
464.142	7570
464.144	7505
464.211	6891
464.221	6867
464.279	7652
464.301	7937
464.347	9201
464.381	10134
464.414	10965
464.461	11930
464.482	12866
464.540	15926
464.550	15854
464.617	14643
464.620	14600
464.685	13826
464.699	13426
464.753	13782
464.779	14304
464.820	14477
464.859	14403
464.888	14033
464.938	13310
464.956	13757
465.018	15370
465.023	15185
465.091	12676
465.098	12380
465.158	12729
465.177	12921
465.226	12679
465.257	12385
465.293	13074
465.336	13728
465.361	14871
465.416	17696
465.428	18841
465.495	25219
465.496	25309
465.563	33669
465.575	35250
465.631	41787
465.654	44692
465.698	28521
465.734	13686
465.765	12070
465.813	10072
465.833	10331
465.893	11898
465.900	11739
465.968	10012
465.972	9893
466.035	10879
466.052	11079
466.102	11538
466.131	11827
466.170	11815
466.210	11685
466.237	12170
466.290	13221
466.304	13269
466.369	13180
466.372	13232
466.439	14282
466.449	14399
466.506	17028
466.528	18028
466.573	25306
466.607	30677
466.641	40356
466.687	53823
466.708	58527
466.766	71764
466.775	66696
466.842	27169
466.845	25249
466.909	19580
466.925	18353
466.977	16575
467.004	15648
467.044	16057
467.083	16453
467.111	17909
467.163	20575
467.178	20985
467.242	22539
467.245	22512
467.312	21177
467.321	20969
467.379	20339
467.400	20051
467.446	21345
467.480	22219
467.559	19792
467.638	16340
467.717	17996
467.796	20638
467.875	24423
467.955	20310
468.034	32259
468.113	61346
468.192	85405
468.271	26212
468.350	24151
468.429	28104
468.508	27902
468.588	21187
468.667	18224
468.746	16715
468.825	16366
468.904	14906
468.983	20041
469.062	26650
469.141	32535
469.220	15007
469.299	13193
469.378	15730
469.456	18508
469.535	16009
469.614	15928
469.693	17677
469.772	23238
469.851	29724
469.930	20606
470.009	16766
470.088	18792
470.166	23698
470.245	34703
470.324	42871
470.403	30971
470.482	21582
470.560	18074
470.639	20109
470.718	24107
470.797	17719
470.875	19402
470.954	23953
471.033	25788
471.111	12478
471.190	11790
471.269	11239
471.347	12449
471.426	13066
471.505	15200
471.583	16137
471.662	15166
471.740	14009
471.819	13789
471.898	12759
471.976	12308
472.055	13806
472.133	15260
472.212	20850
472.290	19510
472.369	12841
472.447	13458
472.526	11818
472.604	13674
472.683	15457
472.761	16294
472.839	14005
472.918	14054
472.996	14480
473.075	16816
473.153	14895
473.231	13028
473.310	15791
473.388	16231
473.466	15024
473.545	19429
473.623	26022
473.701	25594
473.780	13176
473.858	11622
473.936	14659
474.014	13915
474.093	16864
474.171	24789
474.249	31285
474.327	19912
474.405	12492
474.484	12943
474.562	13676
474.640	13970
474.718	13849
474.796	14838
474.874	13578
474.952	11735
475.030	12328
475.108	13829
475.187	14951
475.265	16125
475.343	20932
475.421	22415
475.499	13552
475.577	15381
475.655	19978
475.733	37818
475.811	62347
475.889	53555
475.966	33385
476.044	13701
476.122	15890
476.200	18261
476.278	15545
476.356	11879
476.434	13337
476.512	14373
476.590	19559
476.667	16941
476.745	11453
476.823	13198
476.901	11767
476.979	12868
477.056	11800
477.134	12231
477.212	12234
477.290	13114
477.367	10082
477.445	10765
477.523	10675
477.601	11652
477.678	11468
477.756	14651
477.834	15376
477.911	10895
477.989	11523
478.066	11210
478.144	12725
478.222	16451
478.299	21199
478.377	20949
478.454	10837
478.532	10158
478.609	12881
478.687	14696
478.764	11027
478.842	13653
478.919	15447
478.997	13457
479.074	10974
479.152	13390
479.229	16648
479.307	11121
479.384	8346
479.461	9527
479.539	10401
479.616	13594
479.694	11293
479.771	12841
479.848	14187
479.926	18265
480.003	20774
480.080	11821
480.157	10047
480.235	10046
480.312	11351
480.389	12994
480.467	22144
480.544	25085
480.621	13672
480.698	13145
480.775	15344
480.853	14844
480.930	12192
481.007	13524
481.084	16215
481.161	20254
481.238	16945
481.315	9985
481.392	10229
481.470	10469
481.547	11256
481.624	11131
481.701	10960
481.778	11695
481.855	13511
481.932	22281
482.009	34691
482.086	24170
482.163	14777
482.240	21417
482.317	30727
482.393	24422
482.470	14486
482.547	15063
482.624	12888
482.701	13147
482.778	12804
482.855	12345
482.932	12326
483.009	11929
483.085	15610
483.162	20249
483.239	20002
483.316	14957
483.393	14304
483.469	13940
483.546	15181
483.623	15176
483.699	12333
483.776	13180
483.853	14975
483.930	25299
484.006	55032
484.083	86488
484.160	43546
484.236	56355
484.313	45105
484.389	34282
484.466	32396
484.543	32192
484.619	34786
484.696	37262
484.772	35718
484.849	34750
484.925	29138
485.002	27244
485.078	30694
485.155	30247
485.231	26091
485.308	26169
485.384	27430
485.461	37416
485.537	57896
485.614	65567
485.690	27453
485.766	27600
485.843	31980
485.919	50174
485.995	52152
486.072	26163
486.148	24644
486.224	24456
486.301	26401
486.377	31481
486.453	30319
486.530	29495
486.606	35081
486.682	41811
486.758	50761
486.835	58318
486.911	51186
486.987	82054
487.063	109936
487.139	147724
487.215	96922
487.292	41208
487.368	33684
487.444	39205
487.520	50718
487.596	63174
487.672	120959
487.748	316186
487.824	478407
487.900	194231
487.976	67601
488.052	48736
488.128	49136
488.204	38469
488.280	31859
488.356	39295
488.432	71813
488.508	102972
488.584	38436
488.660	29340
488.736	28963
488.812	30511
488.888	40091
488.964	64355
489.039	150583
489.115	223104
489.191	122805
489.267	31223
489.343	26623
489.418	22183
489.494	22086
489.570	20069
489.646	22812
489.722	23098
489.797	25252
489.873	40989
489.949	79892
490.024	67748
490.100	23815
490.176	24478
490.251	35042
490.327	44688
490.403	24670
490.478	20066
490.554	18284
490.629	19135
490.705	18929
490.781	22422
490.856	20831
490.932	26675
491.007	27996
491.083	24589
491.158	21640
491.234	31225
491.309	59094
491.385	58815
491.460	22394
491.536	24406
491.611	21533
491.686	26313
491.762	41841
491.837	94401
491.913	162591
491.988	222848
492.063	279411
492.139	64885
492.214	35075
492.289	20042
492.365	21682
492.440	25801
492.515	23689
492.590	22017
492.666	18933
492.741	28459
492.816	38314
492.891	24598
492.967	22440
493.042	22786
493.117	27822
493.192	39905
493.267	120817
493.342	419796
493.418	533750
493.493	58695
493.568	19011
493.643	19454
493.718	24135
493.793	37049
493.868	44774
493.943	28302
494.018	19532
494.093	16961
494.168	17124
494.243	14900
494.318	14905
494.393	15045
494.468	14580
494.543	16154
494.618	18806
494.693	16517
494.768	15417
494.842	15504
494.917	14458
494.992	18039
495.067	15728
495.142	15109
495.217	16574
495.292	16809
495.366	20173
495.441	24527
495.516	30979
495.591	62452
495.665	228244
495.740	491804
495.815	197667
495.890	29353
495.964	19407
496.039	22418
496.114	20403
496.188	25648
496.263	24902
496.338	18344
496.412	21214
496.487	26627
496.561	30262
496.636	31717
496.710	22723
496.785	25414
496.860	27292
496.934	22002
497.009	22855
497.083	21968
497.158	22901
497.232	27290
497.307	33904
497.381	29586
497.455	33944
497.530	43090
497.604	32102
497.679	34424
497.753	50317
497.827	63222
497.902	56119
497.976	71668
498.050	183159
498.125	577650
498.199	569111
498.273	99194
498.348	79863
498.422	65873
498.496	62772
498.570	56650
498.645	39880
498.719	36189
498.793	41842
498.867	59012
498.941	89879
499.016	256934
499.090	592623
499.164	205463
499.238	29761
499.312	27575
499.386	34268
499.460	30041
499.534	25684
499.609	31950
499.683	39918
499.757	44800
499.831	114086
499.905	390806
499.979	360978
500.053	54731
500.127	60519
500.201	50406
500.275	27064
500.349	25486
500.422	28453
500.496	51529
500.570	119643
500.644	245091
500.718	389324
500.792	85181
500.866	24872
500.940	30209
501.013	25216
501.087	27755
501.161	50424
501.235	68793
501.309	129760
501.382	337219
501.456	293233
501.530	70699
501.603	102007
501.677	41438
501.751	18182
501.825	26507
501.898	50356
501.972	127774
502.046	80596
502.119	26158
502.193	67460
502.266	139235
502.340	68492
502.413	63861
502.487	118986
502.561	68066
502.634	27424
502.708	23414
502.781	21248
502.855	16886
502.928	14268
503.002	13896
503.075	14273
503.149	15002
503.222	15203
503.295	16276
503.369	20828
503.442	32945
503.516	105781
503.589	246859
503.662	158934
503.736	55131
503.809	114807
503.882	107792
503.956	146189
504.029	165458
504.102	196038
504.175	266109
504.249	119022
504.322	52867
504.395	35487
504.468	23669
504.542	20273
504.615	15489
504.688	14944
504.761	14099
504.834	19278
504.907	27446
504.980	44873
505.053	21865
505.127	27262
505.200	31030
505.273	22402
505.346	14925
505.419	12339
505.492	12065
505.565	10321
505.638	11244
505.711	9157
505.784	9735
505.857	9005
505.930	11644
506.003	9103
506.076	13264
506.149	15783
506.221	18487
506.294	21584
506.367	59087
506.440	171922
506.513	97135
506.586	22005
506.659	14180
506.731	13647
506.804	18578
506.877	28770
506.950	16892
507.022	11794
507.095	15396
507.168	20761
507.241	14912
507.313	11723
507.386	14845
507.459	23332
507.531	15400
507.604	11465
507.677	11076
507.749	8824
507.822	17049
507.894	34653
507.967	37041
508.040	17506
508.112	16152
508.185	15605
508.257	17269
508.330	27137
508.402	15656
508.475	13923
508.547	15072
508.620	16603
508.692	24879
508.765	16038
508.837	11197
508.909	11370
508.982	12839
509.054	16115
509.127	13654
509.199	11173
509.271	10775
509.344	10161
509.416	11429
509.488	11706
509.560	12524
509.633	14816
509.705	18442
509.777	18475
509.849	27764
509.922	17686
509.994	11980
510.066	12267
510.138	13270
510.210	26916
510.283	23461
510.355	18709
510.427	17031
510.499	15542
510.571	16336
510.643	17321
510.715	33503
510.787	28777
510.859	18961
510.931	21408
511.003	31217
511.076	27926
511.148	14484
511.219	16186
511.291	25047
511.363	29048
511.435	15115
511.507	13287
511.579	13964
511.651	14596
511.723	13459
511.795	11659
511.867	12951
511.939	19282
512.010	36140
512.082	29062
512.154	15886
512.226	16593
512.298	24752
512.369	35114
512.441	27777
512.513	29418
512.585	21697
512.656	21780
512.728	24693
512.800	17314
512.871	17406
512.943	17083
513.015	14944
513.086	18183
513.158	20743
513.230	22450
513.301	36237
513.373	39292
513.444	21386
513.516	16768
513.588	16776
513.659	20074
513.731	26881
513.802	25020
513.874	59869
513.945	103225
514.016	34769
514.088	17131
514.159	20948
514.231	29468
514.302	35080
514.374	22576
514.445	22467
514.516	42273
514.588	31223
514.659	22096
514.730	37823
514.802	33131
514.873	25853
514.944	28428
515.016	25027
515.087	27740
515.158	32355
515.229	40499
515.301	27362
515.372	34601
515.443	25816
515.514	22253
515.585	17962
515.656	18741
515.728	18628
515.799	17624
515.870	20912
515.941	22009
516.012	22362
516.083	28146
516.154	34172
516.225	44656
516.296	41279
516.367	35433
516.438	39194
516.509	54770
516.580	96743
516.651	327114
516.722	997926
516.793	460201
516.864	77351
516.935	66039
517.006	75574
517.077	124242
517.148	341610
517.219	1195676
517.289	1722846
517.360	393723
517.431	105842
517.502	41362
517.573	38075
517.643	35655
517.714	39886
517.785	41893
517.856	43932
517.926	51752
517.997	58589
518.068	75968
518.138	110457
518.209	222521
518.280	869521
518.350	2531101
518.421	1062752
518.492	131466
518.562	74174
518.633	72872
518.703	86896
518.774	163681
518.845	357761
518.915	344580
518.986	124417
519.056	74297
519.127	103663
519.197	142756
519.268	235897
519.338	134825
519.408	42916
519.479	58851
519.549	41945
519.620	26841
519.690	20990
519.760	20685
519.831	22626
519.901	22851
519.971	18954
520.042	20726
520.112	24604
520.182	30749
520.253	36791
520.323	27782
520.393	55310
520.463	97367
520.534	68421
520.604	141551
520.674	51838
520.744	49742
520.814	160283
520.885	131549
520.955	77829
521.025	230663
521.095	91129
521.165	21096
521.235	19548
521.305	16819
521.375	17522
521.445	21406
521.515	31178
521.585	36249
521.655	33478
521.725	26892
521.795	21380
521.865	14353
521.935	23490
522.005	21241
522.075	15258
522.145	17394
522.215	21034
522.285	27742
522.355	37491
522.424	66250
522.494	58498
522.564	39897
522.634	91991
522.704	248712
522.774	94276
522.843	21717
522.913	23209
522.983	29899
523.053	21716
523.122	22448
523.192	40739
523.262	138775
523.331	134346
523.401	26052
523.471	15961
523.540	17964
523.610	13588
523.680	13777
523.749	14750
523.819	19949
523.888	19492
523.958	14581
524.027	14789
524.097	15313
524.166	15128
524.236	19689
524.305	18974
524.375	14735
524.444	13060
524.514	15990
524.583	16290
524.653	19710
524.722	23615
524.791	16834
524.861	15917
524.930	14914
524.999	18347
525.069	25657
525.138	19741
525.207	22267
525.277	18473
525.346	19006
525.415	19040
525.484	21240
525.554	25065
525.623	26182
525.692	28580
525.761	30385
525.830	33080
525.900	42280
525.969	69414
526.038	129341
526.107	283036
526.176	789119
526.245	674620
526.314	212755
526.383	403018
526.452	595746
526.522	869782
526.591	910523
526.660	217948
526.729	102157
526.797	111039
526.867	255728
526.935	942828
527.004	1779512
527.073	1079458
527.142	117461
527.211	46381
527.280	39975
527.349	38005
527.418	21915
527.487	22818
527.555	17762
527.624	15991
527.693	14100
527.762	16286
527.831	13736
527.899	14300
527.968	14079
528.037	13610
528.106	20806
528.174	40091
528.243	31106
528.312	44341
528.380	59203
528.449	18942
528.518	13752
528.586	10693
528.655	11582
528.723	11424
528.792	11190
528.861	13489
528.929	11857
528.998	11778
529.066	13808
529.135	17293
529.203	16959
529.272	19269
529.340	25814
529.409	23567
529.477	20876
529.545	24833
529.614	30123
529.682	34217
529.751	37747
529.819	42588
529.887	36831
529.956	28843
530.024	28434
530.092	26027
530.161	30873
530.229	44031
530.297	32950
530.365	26730
530.434	27390
530.502	28661
530.570	25746
530.638	23775
530.707	25290
530.775	24656
530.843	21318
530.911	24771
530.979	23814
531.047	26862
531.115	26765
531.183	24492
531.252	24193
531.320	23194
531.388	21901
531.456	25769
531.524	25631
531.592	29123
531.660	32963
531.728	26878
531.796	26948
531.864	26992
531.932	27282
532.000	29176
532.067	30427
532.135	33186
532.203	37362
532.271	42057
532.339	61200
532.407	129296
532.475	79925
532.542	42005
532.610	44151
532.678	68167
532.746	225758
532.814	496434
532.881	134872
532.949	38953
533.017	33978
533.084	30129
533.152	28535
533.220	30520
533.287	34472
533.355	31200
533.423	29841
533.490	29457
533.558	29264
533.625	29301
533.693	29347
533.761	29307
533.828	29229
533.896	31803
533.963	53269
534.031	63408
534.098	80294
534.166	44591
534.233	30278
534.300	31956
534.368	31846
534.435	30330
534.503	33025
534.570	43236
534.637	38397
534.705	40505
534.772	52878
534.840	101540
534.907	384980
534.974	500108
535.041	71685
535.109	35549
535.176	27121
535.243	27164
535.310	29203
535.378	26819
535.445	23371
535.512	22802
535.579	23208
535.646	21851
535.714	23027
535.781	25841
535.848	26288
535.915	26597
535.982	25530
536.049	26949
536.116	26086
536.183	24453
536.250	25427
536.317	25252
536.384	30380
536.451	41823
536.518	41868
536.585	32392
536.652	39632
536.719	52216
536.786	40945
536.853	32537
536.920	46672
536.987	71492
537.053	77844
537.120	260565
537.187	210974
537.254	29406
537.321	23662
537.388	24153
537.454	19594
537.521	17826
537.588	18912
537.654	21928
537.721	23495
537.788	23323
537.855	20684
537.921	22227
537.988	23399
538.055	21703
538.121	20304
538.188	25583
538.254	40898
538.321	73420
538.388	41889
538.454	22520
538.521	21206
538.587	19108
538.654	19951
538.720	18899
538.787	19386
538.853	21332
538.920	25449
538.986	25593
539.053	21968
539.119	23707
539.185	22182
539.252	28212
539.318	43631
539.385	31387
539.451	24879
539.517	26172
539.583	32718
539.650	76807
539.716	185808
539.782	52995
539.849	21867
539.915	22907
539.981	24651
540.047	29226
540.114	26218
540.180	26540
540.246	26179
540.312	38690
540.378	72935
540.444	69614
540.510	84153
540.576	213353
540.643	64894
540.709	21017
540.775	20681
540.841	21262
540.907	32824
540.973	55328
541.039	45718
541.105	40649
541.171	24051
541.237	21414
541.303	23563
541.369	28028
541.435	40025
541.500	61580
541.566	36818
541.632	20648
541.698	18676
541.764	20125
541.830	18510
541.896	18386
541.961	18982
542.027	19623
542.093	21655
542.159	23947
542.224	27193
542.290	41009
542.356	65006
542.421	66514
542.487	33485
542.553	24632
542.618	24382
542.684	22259
542.750	21993
542.815	28966
542.881	54054
542.947	188422
543.012	129421
543.078	21964
543.143	19405
543.209	21314
543.274	22593
543.340	28913
543.405	71342
543.471	112944
543.536	26734
543.602	19574
543.667	18003
543.732	19503
543.798	18914
543.863	19722
543.928	17581
543.994	17133
544.059	18567
544.124	18527
544.190	19004
544.255	20113
544.320	21696
544.386	23024
544.451	32530
544.516	38055
544.581	42634
544.646	119854
544.712	177354
544.777	34695
544.842	23353
544.907	24104
544.972	21104
545.037	22113
545.102	22956
545.168	23042
545.233	25353
545.298	27380
545.363	32113
545.428	38782
545.493	71572
545.558	151123
545.623	58316
545.688	25359
545.753	23484
545.818	23839
545.883	24232
545.947	24216
546.012	26763
546.077	28019
546.142	28596
546.207	30620
546.272	40462
546.337	39933
546.401	31808
546.466	31311
546.531	28909
546.596	33515
546.661	35187
546.725	33441
546.790	31516
546.855	34076
546.919	33369
546.984	38849
547.049	40813
547.113	47710
547.178	48644
547.243	56216
547.307	64418
547.372	74129
547.436	75239
547.501	70124
547.565	76157
547.630	80748
547.695	76194
547.759	74604
547.823	72739
547.888	68898
547.952	69611
548.017	74286
548.081	83905
548.146	88223
548.210	82086
548.274	79440
548.339	78231
548.403	70670
548.468	66724
548.532	67224
548.596	68748
548.660	69456
548.725	76795
548.789	85476
548.853	83940
548.917	76415
548.982	82993
549.046	76462
549.110	61295
549.174	61818
549.238	70432
549.303	76623
549.367	78982
549.431	75244
549.495	70162
549.559	69783
549.623	82017
549.687	93778
549.751	106805
549.815	107043
549.879	104681
549.943	98144
550.007	104757
550.071	106151
550.135	109042
550.199	93995
550.263	88457
550.327	87557
550.391	98888
550.455	100481
550.519	99405
550.582	108548
550.646	135955
550.710	137955
550.774	120351
550.838	123817
550.901	127788
550.965	138258
551.029	148014
551.093	167991
551.156	201199
551.220	269279
551.284	298968
551.347	200278
551.411	198429
551.475	190193
551.538	132823
551.602	119809
551.666	110789
551.729	103538
551.793	100660
551.856	102467
551.920	102607
551.983	102017
552.047	96021
552.110	98623
552.174	99052
552.237	100403
552.301	91560
552.364	86920
552.428	86150
552.491	89722
552.554	93154
552.618	93184
552.681	100090
552.745	102750
552.808	133887
552.871	160820
552.934	124984
552.998	102603
553.061	96337
553.124	91066
553.187	90710
553.251	97001
553.314	101400
553.377	109730
553.440	154469
553.503	359941
553.567	521190
553.630	142569
553.693	96712
553.756	92523
553.819	88632
553.882	85437
553.945	85519
554.008	85193
554.071	86429
554.134	85069
554.197	79688
554.260	77387
554.323	81771
554.386	83731
554.449	84268
554.512	83855
554.575	81434
554.638	81693
554.701	80721
554.764	77361
554.827	76347
554.889	71390
554.952	67379
555.015	66469
555.078	68316
555.141	69638
555.203	67802
555.266	67544
555.329	68799
555.391	65876
555.454	68525
555.517	66277
555.580	62796
555.642	59879
555.705	59235
555.768	59818
555.830	59350
555.893	54965
555.955	53574
556.018	53070
556.080	54087
556.143	56094
556.206	55729
556.268	55728
556.330	56651
556.393	56427
556.455	53701
556.518	63966
556.580	61784
556.643	49401
556.705	48086
556.767	47587
556.830	49142
556.892	54577
556.955	74139
557.017	59499
557.079	47485
557.142	48381
557.204	56450
557.266	94253
557.328	76939
557.391	42771
557.453	41621
557.515	44103
557.577	50904
557.639	52974
557.701	44798
557.764	43819
557.826	46354
557.888	51434
557.950	58530
558.012	70407
558.074	103863
558.136	258186
558.198	642072
558.260	223790
558.322	70045
558.384	66460
558.446	75959
558.508	87339
558.570	112012
558.632	175607
558.694	266385
558.756	379192
558.818	1098271
558.880	2425483
558.942	868842
559.003	678022
559.065	321930
559.127	105954
559.189	105519
559.251	132665
559.312	217204
559.374	548620
559.436	1680772
559.498	838641
559.559	134966
559.621	107080
559.683	136860
559.744	256543
559.806	829650
559.868	1225447
559.929	234915
559.991	125539
560.052	214609
560.114	619851
560.176	408499
560.237	352073
560.299	584655
560.360	123994
560.422	41668
560.483	34451
560.545	31522
560.606	30754
560.667	29035
560.729	27750
560.790	25922
560.852	25954
560.913	24333
560.974	25759
561.036	23938
561.097	24972
561.158	25421
561.220	25754
561.281	25131
561.342	26650
561.403	33543
561.465	46691
561.526	104501
561.587	131695
561.648	36279
561.709	25616
561.771	23370
561.832	24231
561.893	22231
561.954	21633
562.015	22729
562.076	22611
562.137	22201
562.198	22220
562.259	22726
562.320	23670
562.381	26339
562.442	39952
562.503	31937
562.564	22177
562.625	20168
562.686	21546
562.747	24482
562.808	21865
562.869	21308
562.930	23515
562.991	23739
563.051	21976
563.112	20626
563.173	21613
563.234	19718
563.294	21060
563.355	20377
563.416	21767
563.477	20989
563.537	20674
563.598	22350
563.659	22232
563.720	21762
563.780	22951
563.841	24142
563.901	22041
563.962	20237
564.023	20410
564.083	21962
564.144	22064
564.204	20913
564.265	22586
564.325	25035
564.386	43027
564.446	37682
564.507	20001
564.567	19459
564.628	20599
564.688	19847
564.749	20536
564.809	22672
564.869	25776
564.930	20738
564.990	21036
565.050	20499
565.111	19628
565.171	19773
565.231	19740
565.292	20587
565.352	19655
565.412	21606
565.472	21604
565.532	24216
565.593	21913
565.653	20212
565.713	21723
565.773	24695
565.833	30765
565.893	38867
565.953	23726
566.013	21389
566.074	22948
566.134	28796
566.194	41948
566.254	45121
566.314	30981
566.374	23964
566.434	24637
566.494	24934
566.554	25736
566.614	25276
566.673	26277
566.733	29425
566.793	29226
566.853	29598
566.913	29366
566.973	31105
567.033	31910
567.092	32195
567.152	31166
567.212	31125
567.272	32086
567.331	34473
567.391	34828
567.451	37101
567.511	43634
567.570	43792
567.630	32004
567.690	30719
567.749	31711
567.809	33926
567.868	37943
567.928	41104
567.988	47548
568.047	52882
568.107	64255
568.166	85166
568.226	124368
568.285	167686
568.345	152599
568.404	127824
568.464	110424
568.523	102392
568.582	103900
568.642	115862
568.701	139806
568.761	192480
568.820	277556
568.879	282583
568.939	227112
568.998	172058
569.057	136362
569.116	108491
569.176	89767
569.235	76190
569.294	66367
569.353	58638
569.413	52304
569.472	47061
569.531	42065
569.590	39338
569.649	36558
569.708	33561
569.767	34409
569.827	38004
569.886	33295
569.945	29175
570.004	28111
570.063	27679
570.122	28709
570.181	28816
570.240	30015
570.299	28863
570.358	29898
570.417	23708
570.475	23338
570.534	24733
570.593	25487
570.652	25992
570.711	26147
570.770	23531
570.829	25490
570.887	25847
570.946	29040
571.005	22507
571.064	22210
571.122	24839
571.181	26477
571.240	21793
571.299	19968
571.357	20849
571.416	21787
571.475	23600
571.533	23533
571.592	20873
571.650	22101
571.709	20036
571.768	21732
571.826	22696
571.885	20602
571.943	17931
572.002	18739
572.060	18671
572.119	17015
572.177	16773
572.236	16512
572.294	16432
572.352	17470
572.411	17974
572.469	16863
572.528	17134
572.586	17280
572.644	19621
572.703	25435
572.761	17955
572.819	17017
572.877	16363
572.936	15452
572.994	14884
573.052	15466
573.110	18244
573.169	17451
573.227	16202
573.285	15264
573.343	15746
573.401	16393
573.459	15979
573.517	15592
573.576	16540
573.634	17724
573.692	17595
573.750	17396
573.808	16689
573.866	17393
573.924	21343
573.982	20890
574.040	15994
574.098	15867
574.155	16363
574.213	15466
574.271	15444
574.329	17736
574.387	16011
574.445	15486
574.503	15271
574.560	13471
574.618	14098
574.676	14998
574.734	15330
574.792	14845
574.849	14426
574.907	13138
574.965	13376
575.022	12961
575.080	12816
575.138	14105
575.195	14882
575.253	15210
575.311	17600
575.368	14367
575.426	13218
575.483	14545
575.541	14594
575.598	12088
575.656	14652
575.713	13799
575.771	14392
575.828	13979
575.886	12945
575.943	14876
576.001	14712
576.058	14680
576.115	15743
576.173	17641
576.230	20396
576.287	24642
576.345	18957
576.402	16100
576.459	15406
576.517	15145
576.574	16248
576.631	15936
576.688	14297
576.746	13462
576.803	13644
576.860	13657
576.917	14616
576.974	13966
577.031	14279
577.089	14716
577.146	13209
577.203	14919
577.260	15828
577.317	15734
577.374	17016
577.431	15950
577.488	15893
577.545	14572
577.602	15001
577.659	15765
577.716	19659
577.773	23459
577.830	19005
577.886	15847
577.943	14645
578.000	14267
578.057	16759
578.114	16135
578.171	16101
578.227	19389
578.284	17913
578.341	18093
578.398	15894
578.454	17371
578.511	17909
578.568	18794
578.625	15608
578.681	14575
578.738	13850
578.794	14453
578.851	14936
578.908	15089
578.964	16176
579.021	15523
579.077	15075
579.134	15849
579.190	14049
579.247	13931
579.303	13433
579.360	14247
579.416	14255
579.473	13255
579.529	13315
579.586	14083
579.642	14238
579.698	14787
579.755	15315
579.811	14925
579.867	15260
579.924	15857
579.980	16657
580.036	18380
580.093	19576
580.149	23424
580.205	24628
580.261	21240
580.317	20649
580.374	20404
580.430	20745
580.486	19595
580.542	18681
580.598	18473
580.619	18243
580.654	17853
580.692	17889
580.710	17927
580.765	17405
580.767	17396
580.823	17859
580.838	17826
580.879	17759
580.911	18329
580.935	18763
580.984	16730
580.991	16458
581.047	17648
581.057	17621
581.103	17566
581.130	18187
581.159	18830
581.203	19555
581.215	19751
581.270	18912
581.276	18873
581.326	18542
581.349	18464
581.382	18357
581.422	18906
581.438	19136
581.494	18888
581.494	18878
581.550	17842
581.567	18475
581.606	19820
581.640	19186
581.661	18787
581.713	19463
581.717	19522
581.773	18761
581.786	18931
581.829	19433
581.859	18847
581.885	18409
581.932	19437
581.940	19599
581.996	19778
582.004	19784
582.052	19839
582.077	19349
582.107	18823
582.150	19706
582.163	19945
582.219	20565
582.223	20536
582.274	20278
582.296	20750
582.330	21422
582.368	22017
582.386	22351
582.441	21660
582.441	21655
582.497	23214
582.514	23411
582.552	24331
582.587	26896
582.608	28142
582.659	25685
582.663	25479
582.719	23032
582.732	23025
582.774	23374
582.805	23890
582.830	24250
582.877	25163
582.885	25386
582.941	26743
582.950	26989
582.996	28203
583.023	29839
583.052	31649
583.095	31452
583.107	31286
583.162	32473
583.168	32402
583.218	31617
583.240	31106
583.273	30006
583.313	28813
583.328	28566
583.384	28161
583.385	28138
583.439	26938
583.458	26545
583.494	25982
583.531	25996
583.549	26118
583.603	26605
583.605	26621
583.660	25970
583.676	26027
583.715	26183
583.748	26520
583.770	26751
583.820	27051
583.825	27081
583.881	27133
583.893	27250
583.936	27616
583.965	26734
583.991	26140
584.038	27120
584.046	27280
584.101	27951
584.110	27932
584.156	27861
584.183	28032
584.211	28130
584.255	28660
584.266	28924
584.321	29356
584.328	29470
584.376	30232
584.400	30683
584.431	31372
584.472	31361
584.486	31354
584.541	32826
584.545	32802
584.596	32851
584.617	33412
584.651	34791
584.689	35745
584.706	35778
584.761	36256
584.762	36239
584.816	36795
584.834	36970
584.871	37788
584.906	38253
584.926	38543
584.978	40388
584.980	40472
585.035	41155
585.051	41806
585.090	44473
585.123	46567
585.145	47888
585.195	51040
585.200	51548
585.254	58341
585.267	60962
585.309	71609
585.340	80456
585.364	85427
585.412	83306
585.419	83234
585.473	93662
585.484	97477
585.528	121552
585.556	147176
585.583	193881
585.628	297834
585.637	339023
585.692	690680
585.700	751299
585.747	969577
585.772	852390
585.801	555069
585.845	212674
585.856	171004
585.910	95045
585.917	88084
585.965	73857
585.989	68538
586.019	64773
586.061	61427
586.074	61061
586.128	59869
586.133	59800
586.183	59746
586.205	59336
586.237	58703
586.277	57195
586.292	56794
586.346	56099
586.349	56026
586.401	56926
586.421	57167
586.455	58110
586.493	60036
586.509	62208
586.564	69219
586.565	69480
586.618	89093
586.637	90403
586.672	82091
586.709	73464
586.727	71630
586.781	72925
586.781	73018
586.835	67206
586.853	65823
586.889	64250
586.925	62842
586.944	62848
586.996	63198
586.998	63354
587.052	65686
587.068	66354
587.106	67905
587.140	68900
587.161	69768
587.212	71911
587.215	72181
587.269	75017
587.284	75837
587.323	77619
587.356	78387
587.377	79965
587.427	84473
587.431	84917
587.485	88404
587.499	89260
587.539	92800
587.571	95877
587.593	98446
587.643	103560
587.648	104342
587.702	110491
587.715	112144
587.755	118761
587.786	122764
587.810	126134
587.858	133589
587.864	135004
587.917	147454
587.930	150121
587.971	162182
588.001	170643
588.025	178005
588.073	192514
588.079	195237
588.133	217391
588.145	222234
588.187	244836
588.217	260517
588.241	277398
588.288	311704
588.295	317635
588.348	364270
588.360	374234
588.402	424692
588.431	459932
588.456	497099
588.503	572016
588.510	587068
588.564	709480
588.575	736367
588.617	882314
588.646	990667
588.671	1136558
588.718	1435861
588.725	1510979
588.778	2120925
588.789	2253180
588.832	2909282
588.861	3374826
588.886	3582530
588.932	3805535
588.939	3796981
588.993	3497824
589.004	3478234
589.047	3608470
589.075	3529268
589.100	3108884
589.147	2304881
589.154	2223901
589.207	1652698
589.218	1543335
589.261	1422716
589.290	1357133
589.314	1412539
589.361	1543742
589.368	1607505
589.421	2155987
589.433	2281436
589.475	2943203
589.504	3408167
589.528	3530985
589.576	3552732
589.582	3535618
589.635	3347498
589.647	3261698
589.689	2386619
589.718	1786483
589.742	1481703
589.790	928346
589.795	902459
589.849	669666
589.861	617221
589.902	527813
589.932	461177
589.955	425564
590.004	351285
590.009	347527
590.062	301088
590.075	289374
590.115	266334
590.146	247951
590.168	239111
590.218	218217
590.222	217452
590.275	200870
590.289	196246
590.328	187534
590.360	179494
590.381	175180
590.431	163670
590.435	163562
590.488	155038
590.503	152243
590.541	147962
590.574	143655
590.594	141833
590.645	136005
590.647	136198
590.700	131157
590.716	129409
590.753	127482
590.787	124835
590.806	124253
590.859	121446
590.859	121734
590.912	117295
590.930	115690
590.965	115185
591.001	113978
591.018	113744
591.071	111646
591.072	111286
591.124	109913
591.143	109033
591.177	108479
591.214	107054
591.230	107717
591.283	109134
591.285	108843
591.336	109383
591.356	109170
591.389	108735
591.427	107162
591.442	105817
591.495	99661
591.498	98894
591.547	98449
591.569	97884
591.600	98093
591.640	97414
591.653	97556
591.706	97013
591.711	96632
591.759	98051
591.782	98346
591.811	100146
591.853	101873
591.864	101514
591.917	97822
591.924	96987
591.969	97147
591.995	96715
592.022	96873
592.066	96305
592.075	97300
592.127	101408
592.137	101850
592.180	104087
592.208	104903
592.233	102704
592.279	97389
592.285	97497
592.338	95744
592.350	95016
592.390	95153
592.421	94691
592.443	95432
592.491	95981
592.495	96342
592.548	96717
592.562	96484
592.600	96981
592.633	96782
592.653	97060
592.704	96354
592.705	96936
592.775	98211
592.846	99089
592.916	101364
592.987	105615
593.058	101007
593.128	97665
593.199	98241
593.270	99775
593.341	101647
593.411	105126
593.482	106580
593.553	104461
593.623	102029
593.694	102003
593.764	104245
593.835	101107
593.906	99287
593.976	99096
594.047	101708
594.117	108961
594.188	108253
594.258	101328
594.329	100074
594.399	101266
594.470	101897
594.540	102982
594.611	104566
594.681	104117
594.751	102630
594.822	108420
594.892	111060
594.963	112891
595.033	112281
595.103	116474
595.174	116789
595.244	130831
595.314	141278
595.384	120536
595.455	119282
595.525	123741
595.595	127843
595.665	125294
595.736	124657
595.806	124400
595.876	127023
595.946	126045
596.016	130617
596.087	132954
596.157	134500
596.227	134264
596.297	139072
596.367	146534
596.437	155337
596.507	162313
596.577	172549
596.647	157994
596.717	160948
596.787	163060
596.857	162586
596.927	164005
596.997	167393
597.067	169587
597.137	182861
597.207	178038
597.277	172606
597.347	167013
597.417	164567
597.487	166900
597.557	170401
597.626	173329
597.696	176269
597.766	180955
597.836	182996
597.906	163838
597.975	158085
598.045	161863
598.115	165199
598.185	175579
598.254	192131
598.324	206533
598.394	211854
598.464	208137
598.533	200591
598.603	191521
598.672	188844
598.742	192997
598.812	193747
598.881	198612
598.951	196831
599.020	199624
599.090	204424
599.159	208236
599.229	203329
599.299	199176
599.368	206949
599.437	204613
599.507	195122
599.576	195367
599.646	197481
599.715	200822
599.785	191676
599.854	190344
599.924	194445
599.993	191680
600.062	192882
600.132	198135
600.201	210767
600.270	235738
600.340	241618
600.409	235604
600.478	237482
600.547	241309
600.617	230766
600.686	206361
600.755	198893
600.824	198670
600.894	196609
600.963	194630
601.032	194942
601.101	195202
601.170	193950
601.239	195518
601.308	198463
601.378	201091
601.447	202853
601.516	205786
601.585	214532
601.654	221902
601.723	220503
601.792	228512
601.861	237885
601.930	261155
601.999	259776
602.068	252833
602.137	256340
602.206	257047
602.275	259188
602.343	269312
602.412	272384
602.481	260621
602.550	260342
602.619	267203
602.688	267122
602.756	269346
602.825	267023
602.894	276007
602.963	271909
603.032	276769
603.100	277241
603.169	272553
603.238	283251
603.307	271472
603.375	272479
603.444	285390
603.513	269822
603.581	276230
603.650	290529
603.719	251205
603.787	243141
603.856	250216
603.924	256501
603.993	263641
604.061	269536
604.130	279867
604.198	283797
604.267	287758
604.335	292670
604.404	293399
604.472	304753
604.541	304936
604.609	311674
604.678	320002
604.746	322974
604.815	338263
604.883	325950
604.951	319031
605.020	328112
605.088	311537
605.156	301325
605.225	302443
605.293	301557
605.361	304351
605.429	302276
605.498	312026
605.566	312636
605.634	324340
605.702	325122
605.771	331954
605.839	337153
605.907	314110
605.975	319781
606.043	310008
606.111	302905
606.180	324867
606.248	310482
606.316	310209
606.384	316428
606.452	276897
606.520	265793
606.588	255943
606.656	247326
606.724	241305
606.792	227358
606.860	207836
606.928	189519
606.996	184673
607.064	181429
607.132	187210
607.200	196796
607.267	203446
607.335	205887
607.403	210336
607.471	204433
607.539	197025
607.607	199367
607.674	180184
607.742	181526
607.810	181996
607.878	181497
607.946	180449
608.013	187132
608.081	192279
608.149	193053
608.216	196412
608.284	200601
608.352	199266
608.419	198696
608.487	201083
608.555	192901
608.622	196267
608.690	202541
608.757	222933
608.825	226911
608.893	223512
608.960	216499
609.028	211352
609.095	208223
609.163	199927
609.230	180399
609.298	167551
609.365	174621
609.432	189359
609.500	203794
609.567	231548
609.635	260806
609.702	271960
609.769	260434
609.837	213555
609.904	190014
609.971	203306
610.039	237867
610.106	325763
610.173	643698
610.241	1487196
610.308	846774
610.375	279089
610.442	206158
610.509	190895
610.577	188799
610.644	189338
610.711	194869
610.778	201824
610.845	209574
610.912	221080
610.980	238453
611.047	263837
611.114	237089
611.181	214670
611.248	213916
611.315	223545
611.382	229322
611.449	238378
611.516	240812
611.583	239461
611.650	243386
611.717	248969
611.784	260447
611.851	282793
611.918	321360
611.984	397511
612.051	591192
612.118	1215286
612.185	2879624
612.252	1860555
612.319	467216
612.386	343653
612.452	306735
612.519	284089
612.586	283253
612.653	277699
612.719	282053
612.786	269664
612.853	249492
612.919	244108
612.986	246169
613.053	230801
613.120	218452
613.186	212095
613.253	214606
613.319	214407
613.386	215699
613.453	219990
613.519	229005
613.586	243242
613.652	279201
613.719	255729
613.785	247562
613.852	228135
613.918	226314
613.985	237741
614.051	275102
614.118	369126
614.184	351066
614.250	232161
614.317	226817
614.383	222535
614.449	225123
614.516	223471
614.582	224538
614.648	220464
614.715	219479
614.781	215783
614.847	217008
614.914	215182
614.980	211960
615.046	212023
615.112	219003
615.179	220374
615.245	227166
615.311	235906
615.377	269157
615.443	280951
615.509	247141
615.575	244340
615.642	242267
615.708	254639
615.774	274873
615.840	309073
615.906	361018
615.972	484480
616.038	795237
616.104	1554373
616.170	3264379
616.236	2865522
616.302	725416
616.368	493141
616.434	354755
616.500	317875
616.565	350199
616.631	443050
616.697	371055
616.763	379131
616.829	566293
616.895	1010279
616.961	985137
617.026	426793
617.092	277240
617.158	252322
617.224	242013
617.289	226238
617.355	215457
617.421	211521
617.487	212190
617.552	201537
617.618	199060
617.684	200408
617.749	204159
617.815	197269
617.880	194632
617.946	194593
618.012	197216
618.077	196843
618.143	188056
618.208	190360
618.274	197867
618.339	198440
618.405	168592
618.470	164720
618.536	164861
618.601	165795
618.667	155532
618.732	150670
618.798	149877
618.863	150046
618.928	152876
618.994	159550
619.059	166357
619.124	194036
619.190	162598
619.255	148761
619.320	145806
619.386	147200
619.451	143573
619.516	140795
619.581	142549
619.647	144660
619.712	146308
619.777	142320
619.842	144124
619.907	148069
619.972	149935
620.038	149369
620.103	143558
620.168	143725
620.233	146402
620.298	146670
620.363	149662
620.428	157535
620.493	159107
620.558	161258
620.623	160922
620.688	160060
620.753	155906
620.818	157160
620.883	155676
620.948	155183
621.013	153433
621.078	148215
621.143	147273
621.207	147587
621.272	146640
621.337	147507
621.402	144433
621.467	149819
621.532	151665
621.596	148410
621.661	140115
621.726	137574
621.791	139441
621.855	144359
621.920	144299
621.985	144236
622.049	148715
622.114	149925
622.179	146468
622.243	149628
622.308	151904
622.373	157995
622.437	152847
622.502	145303
622.566	143520
622.631	144256
622.695	146097
622.760	148302
622.824	146120
622.889	149089
622.953	157986
623.018	197429
623.082	192366
623.147	157511
623.211	153155
623.276	152986
623.340	141667
623.404	139137
623.469	138348
623.533	140604
623.597	136900
623.662	135837
623.726	127959
623.790	123373
623.854	119585
623.919	121525
623.983	123251
624.047	125317
624.111	124862
624.176	127874
624.240	134890
624.304	139150
624.368	128362
624.432	128573
624.496	132259
624.560	142493
624.625	151338
624.689	135982
624.753	138346
624.817	131920
624.881	130436
624.945	122221
625.009	117347
625.073	121167
625.137	129801
625.201	148545
625.265	146312
625.329	126622
625.393	130656
625.456	126624
625.520	129765
625.584	136303
625.648	144243
625.712	159404
625.776	216560
625.839	222821
625.903	136175
625.967	111071
626.031	133829
626.095	170911
626.158	122799
626.222	96782
626.286	89950
626.349	87505
626.413	84781
626.477	89331
626.540	85134
626.604	83954
626.668	82807
626.731	82217
626.795	83511
626.858	82854
626.922	80999
626.986	80043
627.049	79653
627.113	82831
627.176	81045
627.240	78336
627.303	77011
627.366	76559
627.430	80476
627.493	78348
627.557	76764
627.620	79829
627.684	80283
627.747	79988
627.810	75483
627.874	72023
627.937	67139
628.000	73175
628.064	70370
628.127	62049
628.190	61713
628.253	62625
628.317	58388
628.380	57374
628.443	57521
628.506	58318
628.569	54790
628.632	52717
628.696	51924
628.759	51914
628.822	50014
628.885	50239
628.948	49121
629.011	51363
629.074	50193
629.137	47326
629.200	47044
629.263	50188
629.326	46191
629.389	46486
629.452	46421
629.515	46250
629.578	46756
629.641	49041
629.704	48647
629.767	49401
629.830	46332
629.892	45470
629.955	44876
630.018	49430
630.081	54560
630.144	63210
630.207	50845
630.269	50117
630.332	47329
630.395	46225
630.458	42290
630.520	42415
630.583	43811
630.646	42909
630.708	41977
630.771	42744
630.834	46023
630.896	43423
630.959	43834
631.021	42844
631.084	44953
631.146	46107
631.209	47821
631.272	44065
631.334	45643
631.397	46416
631.459	47626
631.522	50682
631.584	49843
631.646	54031
631.709	57149
631.771	67734
631.834	56769
631.896	50992
631.958	46740
632.021	45071
632.083	44068
632.145	44867
632.208	43986
632.270	45540
632.332	40878
632.395	40505
632.457	40932
632.519	41009
632.581	40547
632.643	38938
632.706	41116
632.768	38877
632.830	40467
632.892	40703
632.954	40447
633.016	42391
633.078	41503
633.141	40579
633.203	40256
633.265	41229
633.327	40896
633.389	42192
633.451	46170
633.513	54311
633.575	49333
633.637	52618
633.698	50181
633.760	44261
633.822	45736
633.884	47131
633.946	46844
634.008	49112
634.070	52869
634.132	62376
634.193	60169
634.255	62967
634.317	62156
634.379	62600
634.441	54970
634.502	49536
634.564	47251
634.626	43782
634.687	41281
634.749	40646
634.811	39973
634.873	38829
634.934	38931
634.996	39332
635.057	38788
635.119	39668
635.181	39302
635.242	40274
635.304	38605
635.365	43072
635.427	39812
635.488	40958
635.550	38985
635.611	40644
635.673	40290
635.734	45739
635.796	46067
635.857	53710
635.918	53025
635.980	58770
636.041	60725
636.102	65461
636.164	65883
636.225	64152
636.286	56985
636.348	49933
636.409	45897
636.470	41793
636.531	40348
636.593	40704
636.654	38841
636.715	35970
636.776	33904
636.838	33759
636.899	33759
636.960	33346
637.021	32232
637.082	33062
637.143	32011
637.204	30760
637.265	31064
637.326	32241
637.387	31999
637.448	29918
637.509	31763
637.570	32055
637.631	31762
637.692	29722
637.753	28585
637.814	29386
637.875	29821
637.936	30095
637.997	29534
638.058	31796
638.119	30468
638.179	29774
638.240	28619
638.301	29418
638.362	27955
638.423	28195
638.483	29103
638.544	26462
638.605	27998
638.666	27580
638.726	27839
638.787	28234
638.848	27580
638.908	28004
638.969	26682
639.030	27189
639.090	26036
639.151	28208
639.211	31241
639.272	38596
639.332	61280
639.393	39151
639.453	30741
639.514	31368
639.574	27597
639.635	25268
639.695	27797
639.756	27368
639.816	29549
639.877	35045
639.937	53949
639.997	69151
640.058	32393
640.118	26206
640.178	26392
640.239	26703
640.299	24664
640.359	25673
640.420	27260
640.480	30630
640.540	35064
640.600	35960
640.661	33122
640.721	33544
640.781	39341
640.841	33014
640.901	27338
640.961	28403
641.021	31275
641.082	36903
641.142	47491
641.202	32478
641.262	24179
641.322	24484
641.382	23672
641.442	25253
641.502	23805
641.562	25286
641.622	24670
641.682	26623
641.742	29907
641.802	29774
641.861	27271
641.921	27506
641.981	29640
642.041	30898
642.101	36259
642.161	26654
642.221	22326
642.280	23710
642.340	22767
642.400	22895
642.460	24856
642.519	24091
642.579	23652
642.639	24377
642.698	22128
642.758	27876
642.818	24533
642.877	24302
642.937	27637
642.997	31628
643.056	43441
643.116	30134
643.175	28138
643.235	27089
643.294	28088
643.354	31751
643.414	36267
643.473	45904
643.532	58114
643.592	82111
643.651	130613
643.711	219755
643.770	415480
643.830	970186
643.889	2025033
643.948	534631
644.008	96761
644.067	57634
644.126	42810
644.186	37030
644.245	31833
644.304	27985
644.363	29911
644.423	26165
644.482	28594
644.541	30294
644.600	30972
644.659	41271
644.719	52592
644.778	77718
644.837	124315
644.896	254570
644.955	601095
645.014	215299
645.073	52345
645.132	36081
645.191	32190
645.250	29733
645.309	32335
645.368	34265
645.427	43355
645.486	70033
645.545	120317
645.604	44309
645.663	28837
645.722	30148
645.781	33495
645.840	41683
645.898	54395
645.957	79383
646.016	120496
646.075	209204
646.134	395928
646.192	1024188
646.251	1542691
646.310	256510
646.369	67899
646.427	52654
646.486	39603
646.545	31756
646.603	28022
646.662	26941
646.721	27408
646.779	27784
646.838	28756
646.896	39246
646.955	50858
647.014	75691
647.072	139916
647.131	381074
647.189	197485
647.248	34070
647.306	25539
647.365	22671
647.423	19577
647.481	21676
647.540	19375
647.598	19928
647.657	18303
647.715	19123
647.773	17989
647.832	19299
647.890	17112
647.948	17134
648.007	18186
648.065	17574
648.123	18699
648.181	22754
648.240	24666
648.298	22973
648.356	16542
648.414	17872
648.472	16380
648.531	17128
648.589	16779
648.647	16222
648.705	16085
648.763	18905
648.821	19052
648.879	20437
648.937	24539
648.995	33094
649.053	42299
649.111	65016
649.169	100749
649.227	169245
649.285	346531
649.343	980574
649.401	515203
649.459	120198
649.516	76446
649.574	55196
649.632	91608
649.690	113808
649.748	60775
649.806	78824
649.863	136787
649.921	272622
649.979	193633
650.037	31994
650.094	19714
650.152	19524
650.210	16842
650.268	17056
650.325	17180
650.383	18147
650.440	15673
650.498	14652
650.556	13759
650.613	13869
650.671	14658
650.728	14447
650.786	16516
650.843	18845
650.901	15460
650.958	13904
651.016	13063
651.073	13164
651.131	11667
651.188	12519
651.246	12453
651.303	12235
651.360	12104
651.418	12689
651.475	12758
651.532	11002
651.590	11652
651.647	11213
651.704	11605
651.762	11738
651.819	13096
651.876	12710
651.933	12936
651.990	12064
652.048	10511
652.105	11449
652.162	11703
652.219	10886
652.276	11172
652.333	11936
652.390	10933
652.448	13260
652.505	13121
652.562	13488
652.619	15461
652.676	26138
652.733	28217
652.790	12552
652.847	9993
652.904	11381
652.961	9801
653.017	10650
653.074	11059
653.131	11313
653.188	9726
653.245	10368
653.302	10049
653.359	10037
653.415	12347
653.472	9875
653.529	10737
653.586	10265
653.642	10393
653.699	11350
653.756	9741
653.813	9983
653.869	10215
653.926	9815
653.983	10379
654.039	10803
654.096	10213
654.152	11914
654.209	9631
654.266	11627
654.322	10204
654.379	11640
654.435	11976
654.492	12633
654.548	17322
654.605	25751
654.661	14281
654.717	10666
654.774	10398
654.830	10327
654.887	10300
654.943	11529
655.000	11616
655.056	11896
655.112	10481
655.168	10104
655.225	10558
655.281	11714
655.337	12558
655.394	17291
655.450	13908
655.506	13526
655.562	17846
655.618	16539
655.675	9699
655.731	10411
655.787	9634
655.843	10425
655.899	8938
655.955	10314
656.011	9911
656.067	9741
656.123	9600
656.179	10439
656.235	12172
656.291	8670
656.347	11324
656.403	10418
656.459	10576
656.515	11591
656.571	11160
656.627	10863
656.683	10352
656.739	11076
656.795	11305
656.850	11811
656.906	13697
656.962	13111
657.018	10149
657.074	12764
657.129	14549
657.185	18480
657.241	36154
657.297	26013
657.352	11562
657.408	10404
657.464	12127
657.519	9954
657.575	8931
657.630	9890
657.686	9348
657.742	9455
657.797	8914
657.853	10383
657.908	10143
657.964	9294
658.019	9572
658.075	9413
658.130	9203
658.186	8420
658.241	9448
658.297	8669
658.352	8426
658.407	9843
658.463	8738
658.518	9796
658.573	8856
658.629	8412
658.684	8318
658.739	9992
658.795	7475
658.850	9143
658.905	8494
658.960	9966
659.016	8426
659.071	10105
659.126	10798
659.181	12948
659.236	21321
659.291	21810
659.346	14679
659.401	14176
659.457	16197
659.512	22994
659.567	13926
659.622	10541
659.677	8961
659.732	8670
659.787	9867
659.842	9804
659.897	11382
659.952	10956
660.007	9093
660.061	8865
660.116	8174
660.171	8417
660.226	8909
660.281	9619
660.336	8022
660.391	10102
660.445	7956
660.500	9564
660.555	9079
660.610	8921
660.664	9863
660.719	9333
660.774	8784
660.828	8786
660.883	9815
660.938	9050
660.992	7422
661.047	9565
661.101	9092
661.156	9157
661.211	7879
661.265	8403
661.320	8438
661.374	9354
661.429	7580
661.483	9597
661.538	8181
661.592	9371
661.647	9159
661.701	10262
661.755	9337
661.810	8611
661.864	8373
661.919	8332
661.973	8931
662.027	8101
662.081	7664
662.136	8624
662.190	8620
662.244	9144
662.299	8286
662.353	8999
662.407	8190
662.461	9227
662.515	9257
662.569	9595
662.624	9123
662.678	8919
662.732	9181
662.786	8799
662.840	9042
662.894	8613
662.948	8904
663.002	9100
663.056	8397
663.110	8777
663.164	8914
663.218	9070
663.272	9742
663.326	9949
663.380	9789
663.434	9620
663.488	8686
663.542	9005
663.595	8662
663.649	8055
663.703	9004
663.757	9023
663.811	8544
663.864	8508
663.918	9136
663.972	8528
664.026	9397
664.079	9732
664.133	8927
664.187	8880
664.240	9056
664.294	9105
664.348	9022
664.401	8623
664.455	9063
664.508	8091
664.562	8591
664.615	8738
664.669	8053
664.722	8430
664.776	8180
664.829	8681
664.883	8719
664.936	8443
664.990	9345
665.043	9728
665.097	9049
665.150	10412
665.203	8167
665.257	9238
665.310	10153
665.363	8727
665.417	8788
665.470	9648
665.523	8648
665.576	9979
665.630	9102
665.683	9339
665.736	9888
665.789	9893
665.842	9524
665.895	8969
665.949	9742
666.002	9666
666.055	9223
666.108	10903
666.161	9038
666.214	9767
666.267	10866
666.320	12555
666.373	10319
666.426	9727
666.479	9015
666.532	9880
666.585	10956
666.638	11039
666.691	9695
666.744	10023
666.796	10198
666.849	10815
666.902	9493
666.955	10081
667.008	9043
667.060	8285
667.113	9179
667.166	9640
667.219	8030
667.271	9349
667.324	10236
667.377	11460
667.430	10443
667.482	14759
667.535	12656
667.587	11679
667.640	11480
667.693	13821
667.745	21351
667.798	22824
667.850	10043
667.903	9903
667.955	9377
668.008	9366
668.060	10706
668.113	11077
668.165	9998
668.218	10066
668.270	10018
668.322	9615
668.375	9249
668.427	9286
668.479	8940
668.532	10218
668.584	9148
668.636	9207
668.689	9590
668.741	9022
668.793	9563
668.845	8991
668.898	8784
668.950	9152
669.002	9264
669.054	9144
669.106	9575
669.158	10533
669.211	10151
669.263	11344
669.315	12722
669.367	16694
669.419	12121
669.471	12191
669.523	11617
669.575	14224
669.627	12509
669.679	10713
669.731	11300
669.783	11077
669.835	11964
669.886	11186
669.938	9514
669.990	10085
670.042	9488
670.094	10481
670.146	9629
670.197	11378
670.249	13129
670.301	15321
670.353	18289
670.404	24587
670.456	31873
670.508	46277
670.560	68053
670.611	104153
670.663	170365
670.715	386561
670.766	655968
670.818	216978
670.869	38168
670.921	22014
670.972	18287
671.024	14396
671.075	13413
671.127	13229
671.178	12224
671.230	13015
671.281	12718
671.333	14504
671.384	16378
671.436	17596
671.487	22969
671.538	29490
671.590	38884
671.641	56832
671.692	94272
671.744	174936
671.795	137336
671.846	53330
671.897	26021
671.949	19283
672.000	16503
672.051	14012
672.102	11663
672.153	10096
672.204	11065
672.256	10552
672.307	11434
672.358	10594
672.409	9283
672.460	10498
672.511	9017
672.562	9466
672.613	9107
672.664	8628
672.715	8344
672.766	8209
672.817	7456
672.868	8068
672.919	8980
672.970	8444
673.021	8093
673.071	8023
673.122	8497
673.173	8657
673.224	7800
673.275	8723
673.326	7829
673.376	8237
673.427	7588
673.478	8261
673.528	8633
673.579	8180
673.630	8095
673.680	8877
673.731	7445
673.782	8171
673.832	8316
673.883	8980
673.934	8210
673.984	8468
674.035	7975
674.085	8122
674.136	8081
674.186	9301
674.237	9777
674.287	11802
674.338	9855
674.388	8464
674.438	9148
674.489	8465
674.539	8683
674.589	8664
674.640	8696
674.690	7994
674.740	8966
674.791	9058
674.841	8735
674.891	9328
674.942	9145
674.992	9485
675.042	7495
675.092	8400
675.142	7223
675.193	8026
675.243	7607
675.293	8536
675.343	7723
675.393	8065
675.443	8446
675.493	7585
675.543	7466
675.593	7980
675.643	7021
675.693	7654
675.743	7829
675.793	7473
675.843	7138
675.893	7864
675.943	7951
675.993	7348
676.043	7605
676.093	7460
676.142	7319
676.192	7059
676.242	7290
676.292	6727
676.341	6685
676.391	7913
676.441	7709
676.491	6974
676.540	6038
676.590	7202
676.640	6987
676.689	6596
676.739	5480
676.789	5924
676.838	6045
676.888	7056
676.937	6458
676.987	6149
677.037	6364
677.086	5718
677.136	5763
677.185	6879
677.235	5439
677.284	6378
677.333	5924
677.383	6110
677.432	5592
677.482	5913
677.531	6058
677.580	6415
677.630	6195
677.679	6001
677.728	6959
677.778	6188
677.827	7058
677.876	6089
677.925	5737
677.975	6602
678.024	6510
678.073	6980
678.122	6950
678.171	6832
678.220	6934
678.269	8183
678.319	8579
678.368	8437
678.417	7845
678.466	7605
678.515	7450
678.564	7033
678.613	6870
678.662	6335
678.711	6822
678.760	6597
678.809	6238
678.857	6165
678.906	6737
678.955	6640
679.004	6231
679.053	7190
679.102	6615
679.151	6855
679.199	6650
679.248	6454
679.297	6434
679.346	6545
679.394	5831
679.443	6011
679.492	6440
679.540	6554
679.589	6701
679.638	6284
679.686	5895
679.735	7517
679.784	7075
679.832	7779
679.881	6861
679.929	6465
679.978	5596
680.026	5438
680.075	5802
680.123	6051
680.172	6199
680.220	5254
680.268	6450
680.317	6479
680.365	5373
680.414	5505
680.462	5133
680.510	6405
680.559	5579
680.607	5513
680.655	6044
680.703	5952
680.752	5157
680.800	5096
680.848	5503
680.896	5432
680.945	5512
680.993	5744
681.041	5853
681.089	5565
681.137	5315
681.185	4559
681.233	5227
681.258	5559
681.281	5856
681.329	4984
681.377	5043
681.380	5108
681.425	5976
681.473	6681
681.502	6415
681.521	6194
681.569	6687
681.617	5072
681.624	5203
681.665	5909
681.713	5774
681.745	6299
681.761	6529
681.809	5225
681.857	6515
681.867	6375
681.904	5801
681.952	6282
681.989	6273
682.000	6254
682.048	6085
682.096	5432
682.111	5430
682.143	5324
682.191	5630
682.233	6705
682.239	6853
682.286	4837
682.334	6010
682.354	6342
682.382	6749
682.430	6569
682.476	5594
682.477	5556
682.525	6209
682.572	6173
682.598	5979
682.620	5785
682.667	5660
682.715	6847
682.720	6848
682.763	6696
682.810	6956
682.841	6798
682.857	6658
682.905	5830
682.952	6741
682.963	6840
683.000	7126
683.047	6038
683.085	6932
683.095	7144
683.142	6042
683.190	6279
683.206	6047
683.237	5665
683.284	7177
683.328	6891
683.332	6845
683.379	6933
683.426	5342
683.449	5946
683.473	6583
683.521	6855
683.568	7411
683.571	7421
683.615	7231
683.662	7070
683.693	6545
683.709	6269
683.757	6528
683.804	6410
683.814	6571
683.851	7071
683.898	7350
683.936	7835
683.945	7948
683.992	7601
684.039	7838
684.057	7562
684.086	7083
684.133	8203
684.179	8021
684.180	7994
684.227	8602
684.274	8471
684.300	8819
684.321	9033
684.368	7870
684.415	7762
684.422	7713
684.462	7418
684.509	6856
684.543	7697
684.556	7979
684.603	7500
684.649	7069
684.665	7103
684.696	7260
684.743	7941
684.786	8021
684.790	8009
684.837	8391
684.883	8075
684.908	8005
684.930	7924
684.977	8534
685.023	8474
685.029	8409
685.070	7740
685.117	8009
685.150	8348
685.164	8532
685.210	8245
685.257	8575
685.272	8754
685.303	9093
685.350	9677
685.393	9249
685.396	9225
685.443	9068
685.490	10678
685.514	11125
685.536	11185
685.583	9583
685.629	8669
685.636	8777
685.675	9532
685.722	9533
685.757	9413
685.768	9358
685.815	9535
685.861	9244
685.878	9081
685.908	8884
685.954	9363
686.000	9485
686.000	9486
686.047	10123
686.093	10683
686.121	10775
686.139	10584
686.185	10063
686.232	9611
686.242	9576
686.278	9559
686.324	9262
686.363	9030
686.370	9006
686.416	9009
686.463	9551
686.484	9678
686.509	9832
686.555	9833
686.601	9584
686.606	9587
686.647	9521
686.693	9331
686.727	9173
686.739	9075
686.785	9003
686.831	8979
686.848	9027
686.877	9285
686.923	9508
686.969	8790
686.969	8784
687.015	9169
687.061	8925
687.090	9258
687.107	9526
687.153	9545
687.199	9793
687.211	9650
687.245	9072
687.291	9396
687.332	9459
687.336	9499
687.382	9765
687.428	9816
687.453	10234
687.474	10317
687.520	9662
687.565	9490
687.574	9343
687.611	9309
687.657	9805
687.695	10275
687.702	10341
687.748	10779
687.794	11850
687.816	11590
687.839	11139
687.885	10680
687.931	10015
687.937	10004
687.976	10074
688.022	10347
688.058	10586
688.067	10657
688.113	10584
688.158	9991
688.179	10176
688.204	10443
688.249	9773
688.295	10990
688.300	11057
688.340	11491
688.386	11529
688.421	11009
688.431	10879
688.477	10492
688.522	10843
688.542	11064
688.567	11424
688.613	11135
688.658	11125
688.663	11139
688.703	10945
688.749	10779
688.784	10560
688.794	10564
688.839	10432
688.884	10759
688.905	10767
688.930	10785
688.975	11057
689.020	10809
689.026	10771
689.065	10642
689.110	10916
689.146	11010
689.155	11029
689.201	11490
689.246	11292
689.267	11287
689.291	11316
689.336	11240
689.381	11256
689.388	11212
689.426	10914
689.471	11194
689.509	11019
689.516	11042
689.561	11126
689.606	11033
689.630	11397
689.651	11583
689.696	11172
689.741	11440
689.750	11394
689.785	11418
689.830	11053
689.871	10956
689.875	10944
689.920	11406
689.965	11333
689.992	11164
690.010	11199
690.054	11233
690.099	11681
690.112	11717
690.144	11702
690.189	11687
690.233	11037
690.233	11047
690.278	11806
690.323	11156
690.354	11323
690.367	11515
690.412	11860
690.457	12365
690.474	12404
690.501	12344
690.546	12406
690.590	12519
690.595	12487
690.635	12450
690.680	12234
690.716	12683
690.724	12964
690.769	14303
690.813	15774
690.836	16126
690.857	17108
690.902	19824
690.946	22333
690.957	23125
690.991	29314
691.035	37870
691.077	46162
691.080	46248
691.124	43944
691.168	40482
691.198	38684
691.213	36393
691.257	30605
691.301	24394
691.318	22213
691.346	20924
691.390	18021
691.434	15601
691.439	15320
691.478	15199
691.522	15344
691.559	14799
691.567	14748
691.611	15070
691.655	14907
691.680	14938
691.699	14755
691.743	14017
691.787	13789
691.800	13555
691.831	13506
691.875	13172
691.919	13207
691.921	13193
691.964	13527
692.008	13374
692.041	13716
692.052	13858
692.096	13940
692.139	14483
692.162	14211
692.183	13808
692.227	13883
692.271	13972
692.282	13959
692.315	14025
692.359	13502
692.402	13372
692.403	13397
692.447	13841
692.490	14139
692.523	14188
692.534	14146
692.578	14524
692.622	14191
692.643	14167
692.666	14143
692.709	13723
692.753	14224
692.763	14077
692.797	13565
692.840	13442
692.884	12890
692.884	12915
692.928	13583
692.971	13707
693.004	14295
693.015	14384
693.059	14303
693.102	14506
693.124	14241
693.146	14291
693.189	14819
693.233	15168
693.245	15348
693.276	15998
693.320	16774
693.363	17123
693.365	17117
693.407	17905
693.450	18590
693.485	19220
693.493	19688
693.537	21792
693.580	24045
693.605	25588
693.624	28444
693.667	34432
693.710	41236
693.725	43630
693.753	55215
693.797	73928
693.840	93068
693.845	94913
693.883	90557
693.926	83089
693.966	77919
693.970	76512
694.013	61171
694.056	46039
694.086	35237
694.099	33819
694.142	29622
694.185	25248
694.206	23273
694.229	22599
694.272	20957
694.315	19416
694.326	18912
694.358	18957
694.401	19246
694.444	19727
694.446	19698
694.487	19212
694.530	18512
694.566	18270
694.573	18216
694.616	17210
694.659	16533
694.686	15895
694.702	15729
694.745	15316
694.787	14790
694.806	14586
694.830	14612
694.873	14555
694.916	14643
694.926	14618
694.959	14739
695.002	14787
695.044	14892
695.046	14866
695.087	15331
695.130	15623
695.166	16027
695.172	16016
695.215	15524
695.258	15244
695.286	14954
695.301	15122
695.343	15456
695.386	15653
695.406	15827
695.428	15693
695.471	15311
695.514	15011
695.526	14821
695.556	15185
695.599	16039
695.641	16585
695.646	16621
695.684	16183
695.726	15597
695.766	15108
695.769	15145
695.811	15108
695.854	15092
695.886	15046
695.896	15032
695.938	14920
695.981	14751
696.005	14584
696.023	14933
696.065	15741
696.108	16587
696.125	16899
696.150	16734
696.192	16496
696.235	16061
696.245	15950
696.277	16275
696.319	16676
696.361	16929
696.365	16914
696.404	17044
696.446	17225
696.485	17432
696.488	17478
696.530	17373
696.572	17536
696.604	17396
696.614	17317
696.656	16928
696.698	16552
696.724	16230
696.740	16356
696.783	16724
696.825	17174
696.844	17253
696.867	17075
696.909	16694
696.951	16302
696.964	16150
696.992	16396
697.034	16783
697.076	17044
697.083	17034
697.118	17060
697.160	17306
697.202	17407
697.203	17369
697.244	17087
697.286	16773
697.323	16544
697.327	16624
697.369	17005
697.411	17204
697.442	17376
697.453	17557
697.494	18129
697.536	18735
697.562	19049
697.578	19026
697.620	18840
697.661	18703
697.682	18572
697.703	19136
697.744	20160
697.786	21338
697.801	21663
697.828	21756
697.869	21752
697.911	21858
697.921	21826
697.952	20976
697.994	19731
698.035	18586
698.040	18394
698.077	17932
698.118	17435
698.160	16845
698.160	16802
698.201	17342
698.243	17806
698.279	18234
698.284	18276
698.325	18208
698.367	18195
698.399	18089
698.408	18078
698.449	17891
698.491	17665
698.518	17477
698.532	17579
698.573	17770
698.614	17942
698.638	18003
698.656	18240
698.697	18716
698.738	19167
698.757	19324
698.779	19324
698.820	19266
698.862	19201
698.877	19131
698.903	19292
698.944	19476
698.985	19660
698.996	19667
699.026	19663
699.067	19590
699.116	19459
699.235	18752
699.354	19176
699.474	18172
699.593	19286
699.713	19521
699.832	19364
699.951	21714
700.070	19981
700.190	18556
700.309	18528
700.428	20071
700.547	18335
700.667	18865
700.786	20382
700.905	18132
701.024	18975
701.143	17888
701.262	17337
701.381	18097
701.500	19086
701.619	22293
701.738	18737
701.857	18571
701.976	17114
702.095	18361
702.214	19218
702.333	20959
702.452	19924
702.571	18510
702.690	18930
702.809	18426
702.928	17906
703.047	17506
703.165	17775
703.284	17573
703.403	16959
703.522	18813
703.640	17932
703.759	21326
703.878	23619
703.997	18462
704.115	16714
704.234	17962
704.353	16916
704.471	16365
704.590	15743
704.708	15650
704.827	15503
704.946	15777
705.064	16533
705.183	16780
705.301	18681
705.420	21446
705.538	21214
705.656	20378
705.775	25343
705.893	55277
706.012	60187
706.130	20384
706.249	19211
706.367	19341
706.485	19920
706.604	18648
706.722	19842
706.840	23843
706.958	24270
707.077	19463
707.195	18227
707.313	17930
707.431	16980
707.549	16384
707.668	17301
707.786	18369
707.904	17934
708.022	17063
708.140	16604
708.258	16857
708.376	17369
708.494	17479
708.612	17749
708.730	22779
708.848	21826
708.966	21290
709.084	21152
709.202	19361
709.320	19323
709.438	19267
709.556	19474
709.674	19045
709.791	19164
709.909	18396
710.027	19161
710.145	17985
710.263	19327
710.380	18323
710.498	18304
710.616	18124
710.733	18253
710.851	19109
710.969	18538
711.086	18853
711.204	18322
711.322	18416
711.439	18231
711.557	18639
711.674	18065
711.792	18277
711.909	22283
712.027	24837
712.144	17341
712.262	17778
712.379	19229
712.497	24334
712.614	22514
712.732	21027
712.849	20313
712.966	23370
713.084	28083
713.201	22249
713.318	22038
713.436	20503
713.553	21434
713.670	21668
713.787	23913
713.905	23086
714.022	21440
714.139	22647
714.256	28281
714.373	38068
714.490	69700
714.608	191444
714.725	808582
714.842	626895
714.959	51794
715.076	28805
715.193	24458
715.310	23502
715.427	20413
715.544	19998
715.661	19620
715.778	19466
715.895	20676
716.011	20678
716.128	19821
716.245	19880
716.362	23496
716.479	25206
716.596	18790
716.713	19544
716.829	17383
716.946	17808
717.063	16599
717.180	16323
717.296	17024
717.413	17835
717.530	17682
717.646	18587
717.763	16557
717.880	16284
717.996	17674
718.113	18034
718.229	17410
718.346	16069
718.462	17358
718.579	23762
718.695	42627
718.812	26864
718.928	21792
719.045	16745
719.161	16514
719.277	17566
719.394	16759
719.510	18374
719.626	18887
719.743	23854
719.859	32972
719.975	64926
720.092	254687
720.208	436623
720.324	49176
720.440	20796
720.557	21969
720.673	33961
720.789	35914
720.905	49623
721.021	21658
721.137	16364
721.253	15920
721.369	16538
721.486	17798
721.602	20226
721.718	15000
721.834	14420
721.950	15484
722.066	14606
722.181	14509
722.297	15513
722.413	15308
722.529	14791
722.645	14429
722.761	13533
722.877	13754
722.993	14457
723.108	16926
723.224	14643
723.340	14146
723.456	14092
723.571	14025
723.687	14102
723.803	13489
723.918	13656
724.034	13790
724.150	14012
724.265	15380
724.381	23894
724.497	24936
724.612	14154
724.728	12083
724.843	12701
724.959	14922
725.074	23532
725.190	24082
725.305	13699
725.421	13271
725.536	12838
725.651	12293
725.767	11657
725.882	12391
725.997	11832
726.113	12860
726.228	12476
726.343	11511
726.459	11375
726.574	12500
726.689	11323
726.804	12506
726.920	12064
727.035	12294
727.150	11924
727.265	12003
727.380	11369
727.495	12142
727.610	12885
727.725	13101
727.841	18709
727.956	40873
728.071	24816
728.186	12316
728.301	11286
728.416	12411
728.531	11991
728.645	10857
728.760	12539
728.875	13059
728.990	12751
729.105	12192
729.220	13404
729.335	13079
729.449	11104
729.564	11247
729.679	10712
729.794	10269
729.908	11705
730.023	11416
730.138	11000
730.253	11830
730.367	10143
730.482	10904
730.596	11119
730.711	12805
730.826	13141
730.940	12933
731.055	12283
731.169	11027
731.284	11782
731.398	11282
731.513	12242
731.627	12629
731.742	15293
731.856	16080
731.970	13978
732.085	17357
732.199	24031
732.313	42077
732.428	110660
732.542	300432
732.656	126759
732.771	28541
732.885	17575
732.999	17144
733.113	17013
733.227	15146
733.342	14439
733.456	13882
733.570	13572
733.684	13918
733.798	13119
733.912	12227
734.026	12431
734.140	13159
734.254	13771
734.368	18066
734.482	20241
734.596	12258
734.710	12765
734.824	12383
734.938	12529
735.052	12845
735.166	14546
735.280	12261
735.393	12359
735.507	13135
735.621	15098
735.735	18767
735.849	12859
735.962	12069
736.076	13250
736.190	12291
736.303	14967
736.417	16339
736.531	12361
736.644	11800
736.758	10584
736.872	10341
736.985	12270
737.099	10971
737.212	9659
737.326	10748
737.439	12151
737.553	11738
737.666	12409
737.780	9504
737.893	10408
738.007	10889
738.120	11047
738.233	10400
738.347	11202
738.460	10771
738.573	12689
738.687	12428
738.800	13098
738.913	15851
739.026	12292
739.140	13277
739.253	13523
739.366	10316
739.479	10854
739.592	10557
739.705	9762
739.818	10956
739.932	10894
740.045	11725
740.158	10751
740.271	10347
740.384	10486
740.497	10466
740.610	11385
740.723	10812
740.836	11969
740.949	12386
741.062	16897
741.174	12666
741.287	11233
741.400	10206
741.513	10574
741.626	12197
741.739	11582
741.851	11466
741.964	10135
742.077	9482
742.189	10724
742.302	11540
742.415	11575
742.527	10747
742.640	10757
742.753	9567
742.865	9845
742.978	9685
743.090	9076
743.203	8912
743.316	9687
743.428	9717
743.541	9547
743.653	8795
743.766	9235
743.878	10271
743.990	10892
744.103	10722
744.215	11028
744.327	10632
744.440	12392
744.552	19334
744.664	10838
744.777	9439
744.889	8599
745.001	9401
745.113	9151
745.226	8816
745.338	9820
745.450	9128
745.562	9153
745.674	8261
745.786	9552
745.898	9443
746.010	9127
746.122	10134
746.234	10672
746.347	8926
746.459	9679
746.570	8029
746.682	10541
746.794	10610
746.906	10260
747.018	8772
747.130	8898
747.242	8399
747.354	8917
747.466	8943
747.577	8734
747.689	8729
747.801	9193
747.913	8665
748.024	8275
748.136	8461
748.248	8676
748.359	7730
748.471	9332
748.583	8064
748.694	10255
748.806	12693
748.918	9195
749.029	9827
749.141	10367
749.252	9459
749.364	11961
749.475	21507
749.587	13214
749.698	7147
749.809	9053
749.921	7909
750.032	8187
750.144	7554
750.255	7286
750.366	8187
750.478	8346
750.589	7892
750.700	9269
750.811	9607
750.923	12663
751.034	24188
751.145	22679
751.256	7991
751.367	8537
751.479	8020
751.590	8362
751.701	7890
751.812	7596
751.923	7574
752.034	9147
752.145	7452
752.256	6910
752.367	7483
752.478	7326
752.589	8519
752.700	8151
752.811	7252
752.922	8392
753.032	9770
753.143	10282
753.254	7693
753.365	8637
753.476	8737
753.586	7718
753.697	7626
753.808	7547
753.919	7043
754.029	7251
754.140	7189
754.251	7452
754.361	7412
754.472	7879
754.582	7426
754.693	8228
754.804	8144
754.914	8258
755.025	6883
755.135	7720
755.246	7958
755.356	7131
755.466	7875
755.577	7286
755.687	7797
755.798	7405
755.908	7857
756.018	7903
756.129	7757
756.239	7634
756.349	7723
756.460	8521
756.570	8636
756.680	7961
756.790	9137
756.900	9856
757.011	7128
757.121	7866
757.231	7665
757.341	7862
757.451	7367
757.561	6758
757.671	6822
757.781	7766
757.891	7377
758.001	7922
758.111	7964
758.221	9310
758.331	10471
758.441	10230
758.551	13522
758.661	12127
758.771	9692
758.880	9648
758.990	8738
759.100	8656
759.210	9094
759.320	9006
759.429	9645
759.539	10145
759.649	10803
759.758	11032
759.868	9989
759.978	10173
760.087	11558
760.197	12065
760.307	10105
760.416	11468
760.526	8952
760.635	10857
760.745	11251
760.854	12688
760.964	12548
761.073	12878
761.182	11836
761.292	11636
761.401	12247
761.511	11356
761.620	11126
761.729	11674
761.839	11153
761.948	11557
762.057	12201
762.166	11381
762.276	9668
762.385	11940
762.494	11416
762.603	11272
762.712	11936
762.822	11488
762.931	11743
763.040	11862
763.149	12665
763.258	13084
763.367	13253
763.476	14453
763.585	14386
763.694	14780
763.803	15789
763.912	16154
764.021	16252
764.130	17377
764.238	18975
764.347	18913
764.456	20389
764.565	22856
764.674	22441
764.783	25483
764.891	26657
765.000	29644
765.109	33646
765.217	37874
765.326	45277
765.435	53884
765.543	62627
765.652	79741
765.761	104253
765.869	147486
765.978	224730
766.086	373741
766.195	684530
766.303	1318766
766.412	1722646
766.520	1639364
766.629	926531
766.737	457861
766.846	269656
766.954	180327
767.062	133702
767.171	105932
767.279	78129
767.387	61023
767.496	52049
767.604	45223
767.712	39595
767.820	37362
767.928	33225
768.037	31190
768.145	30455
768.253	29651
768.361	27715
768.469	28890
768.577	27716
768.685	30688
768.793	31639
768.901	35306
769.009	40735
769.117	48451
769.225	62872
769.333	91994
769.441	146381
769.549	264138
769.657	565512
769.765	1226675
769.873	1494617
769.981	888148
770.088	346098
770.196	177901
770.304	115368
770.412	82203
770.519	63093
770.627	49648
770.735	39887
770.842	35497
770.950	31729
771.058	29187
771.165	26971
771.273	24286
771.380	22513
771.488	22082
771.595	20594
771.703	19179
771.810	18576
771.918	17430
772.025	18446
772.133	17516
772.240	16215
772.348	17544
772.455	15955
772.562	16226
772.670	14506
772.777	14617
772.884	14094
772.991	14256
773.099	13630
773.206	13156
773.313	13933
773.420	13352
773.528	11530
773.635	12855
773.742	13066
773.849	13021
773.956	11598
774.063	12350
774.170	11310
774.277	11958
774.384	11337
774.491	10594
774.598	11833
774.705	12246
774.812	13137
774.919	12543
775.026	11608
775.133	11622
775.239	10746
775.346	10190
775.453	10075
775.560	10048
775.667	10451
775.773	10118
775.880	10478
775.987	9416
776.093	10202
776.200	10523
776.307	9249
776.413	9464
776.520	9385
776.627	9494
776.733	8691
776.840	7744
776.946	12053
777.053	9581
777.159	13887
777.266	10972
777.372	12694
777.478	13895
777.585	10487
777.691	8868
777.798	9817
777.904	11476
778.010	15831
778.117	12719
778.223	9362
778.329	9423
778.435	8344
778.542	8779
778.648	7355
778.754	8412
778.860	8128
778.966	8493
779.072	8613
779.178	8483
779.284	8187
779.391	8288
779.497	7663
779.603	13867
779.708	14425
779.815	32786
779.920	117795
780.026	148812
780.132	22884
780.238	8797
780.344	9625
780.450	10266
780.556	7382
780.661	7686
780.767	8663
780.873	6767
780.979	8010
781.085	7402
781.190	7617
781.296	6734
781.402	7283
781.507	6481
781.613	7030
781.719	7301
781.824	8016
781.930	6998
782.035	7291
782.141	7423
782.246	6974
782.352	6583
782.457	7144
782.563	7158
782.668	7243
782.773	6902
782.879	6269
782.984	7701
783.090	8359
783.195	12875
783.300	9132
783.405	7527
783.511	6148
783.616	7114
783.721	7659
783.826	7002
783.932	6406
784.037	6810
784.142	7201
784.247	6882
784.352	6162
784.457	6093
784.562	6392
784.667	6462
784.772	5499
784.877	5942
784.982	6766
785.087	6090
785.192	5955
785.297	5618
785.402	5963
785.507	5766
785.611	5627
785.716	5492
785.821	5875
785.926	5094
786.031	5772
786.135	6074
786.240	6144
786.345	4657
786.450	5745
786.554	5568
786.659	5840
786.763	4550
786.868	5934
786.973	6310
787.077	5204
787.182	5532
787.286	5598
787.391	5863
787.495	4241
787.600	5060
787.704	4951
787.809	4631
787.913	5181
788.017	6529
788.122	5269
788.226	5615
788.330	4288
788.435	4933
788.539	5522
788.643	4703
788.747	4523
788.852	4334
788.956	4651
789.060	5877
789.164	4890
789.268	4558
789.372	4810
789.476	4880
789.580	4548
789.684	5259
789.788	5171
789.892	4694
789.996	4802
790.100	4902
790.204	6077
790.308	5850
790.412	5292
790.516	6552
790.620	6459
790.724	6030
790.828	4277
790.931	3763
791.035	6570
791.139	5066
791.242	4122
791.346	5060
791.450	4246
791.554	5187
791.657	3385
791.761	6432
791.864	5092
791.968	5257
792.072	5337
792.175	4494
792.279	4513
792.382	4533
792.486	4017
792.589	4974
792.693	5372
792.796	4033
792.899	4765
793.003	5234
793.106	3243
793.209	4768
793.313	5184
793.416	3649
793.519	6107
793.623	8546
793.726	11098
793.829	5841
793.932	4125
794.035	4438
794.138	6175
794.242	6736
794.345	6395
794.448	10358
794.551	21894
794.654	60544
794.757	79463
794.860	13207
794.963	6001
795.066	4772
795.169	6097
795.272	4174
795.375	5256
795.477	3657
795.580	4234
795.683	3112
795.786	3655
795.889	3340
795.991	5035
796.094	5064
796.197	3181
796.300	5066
796.402	4494
796.505	3209
796.608	3003
796.710	4167
796.813	4438
796.915	3983
797.018	4425
797.120	4195
797.223	2629
797.326	4989
797.428	3536
797.530	4185
797.633	3774
797.735	4980
797.838	5174
797.940	5986
798.042	3180
798.145	3752
798.247	4141
798.349	2803
798.452	4565
798.554	3865
798.656	2986
798.758	5412
798.860	3661
798.962	3663
799.065	3751
799.167	3542
799.269	4886
799.371	4897
799.473	4816
799.575	4684
799.677	5063
799.779	7166
799.881	7147
799.983	5950
800.085	3627
800.187	4010
800.289	2178
800.390	3536
800.492	3005
800.594	4193
800.696	2731
800.798	2812
800.899	2755
801.001	2891
801.103	3688
801.205	3059
801.306	3961
801.408	3369
801.509	3227
801.611	3812
801.713	3274
801.814	2900
801.916	2162
802.017	2666
802.119	2369
802.220	3179
802.322	1285
802.423	5477
802.525	2268
802.626	3223
802.727	3403
802.829	4177
802.930	1415
803.031	4469
803.133	2444
803.234	2838
803.335	2692
803.436	2534
803.538	2626
803.639	2119
803.740	3236
803.841	2529
803.942	3513
804.043	3287
804.144	2464
804.245	3142
804.346	2443
804.447	3013
804.548	6275
804.649	6546
804.750	2799
804.851	3102
804.952	1820
805.053	2175
805.154	1440
805.255	3682
805.355	2419
805.456	2547
805.557	2315
805.658	2684
805.758	3254
805.859	2603
805.960	2146
806.061	2537
806.161	1970
806.262	2665
806.362	1987
806.463	2729
806.564	3024
806.664	3195
806.765	3073
806.865	3557
806.966	2588
807.066	3083
807.166	3368
807.267	3282
807.367	2604
807.468	3244
807.568	1362
807.668	3653
807.769	2973
807.869	3093
807.969	3247
808.069	2174
808.170	2922
808.270	2859
808.370	3295
808.470	5471
808.570	3422
808.670	2231
808.770	3337
808.870	2716
808.970	2564
809.070	2227
809.170	1847
809.271	3320
809.370	2095
809.470	2390
809.570	1509
809.670	2792
809.770	2256
809.870	2327
809.970	2993
810.070	2451
810.169	2522
810.269	1183
810.369	3469
810.469	2574
810.568	2211
810.668	2195
810.768	2275
810.867	2796
810.967	1976
811.066	2550
811.166	1605
811.265	2788
811.365	2481
811.464	2166
811.564	2404
811.663	3439
811.763	1639
811.862	3173
811.962	2796
812.061	2222
812.160	1845
812.260	3577
812.359	2119
812.458	1690
812.557	3900
812.657	3776
812.756	3072
812.855	2968
812.954	2591
813.053	3159
813.153	2341
813.252	1771
813.351	2929
813.450	2036
813.549	2199
813.648	3189
813.747	1496
813.846	3600
813.945	2341
814.044	2573
814.143	2217
814.242	3389
814.341	1828
814.439	3201
814.538	2461
814.637	2943
814.736	2467
814.835	3323
814.933	2158
815.032	3794
815.131	3395
815.229	4565
815.328	5369
815.427	5358
815.525	4700
815.624	5057
815.722	4994
815.821	4694
815.919	5112
816.018	4233
816.116	4856
816.215	4715
816.313	4485
816.412	5966
816.510	5981
816.609	7116
816.707	6546
816.805	5811
816.904	5732
817.002	6838
817.100	7749
817.198	9001
817.296	7922
817.395	8473
817.493	9937
817.591	10995
817.689	15307
817.787	18576
817.885	30248
817.983	54598
818.081	116845
818.179	275465
818.277	602386
818.375	419647
818.473	124478
818.571	53128
818.669	35900
818.767	31645
818.865	31984
818.963	39570
819.061	59752
819.158	102514
819.256	222474
819.354	508181
819.452	906508
819.549	520800
819.647	165318
819.745	71677
819.842	44308
819.940	30485
820.038	23395
820.135	17629
820.233	15697
820.330	11955
820.428	10424
820.525	10302
820.623	9509
820.720	8532
820.818	8259
820.915	8765
821.012	7764
821.110	5692
821.207	6687
821.304	5816
821.402	6324
821.499	6399
821.596	6564
821.693	7010
821.791	6965
821.888	8275
821.985	12270
822.082	10421
822.179	6378
822.276	4929
822.373	5042
822.470	4692
822.567	4349
822.664	4017
822.761	4726
822.858	3490
822.955	3773
823.052	3536
823.149	3910
823.246	4729
823.343	3688
823.440	4146
823.536	3718
823.633	3698
823.730	4068
823.827	4590
823.923	3968
824.020	4143
824.117	3238
824.213	2758
824.310	4019
824.407	3607
824.503	3569
824.600	3630
824.696	2790
824.793	5385
824.889	3140
824.986	2639
825.082	2280
825.179	3622
825.275	3440
825.371	2962
825.468	3594
825.564	1848
825.660	3787
825.757	3624
825.853	3030
825.949	2248
826.045	2684
826.142	2789
826.238	2302
826.334	3596
826.430	1924
826.526	3291
826.622	2323
826.718	3059
826.814	2351
826.910	2738
827.006	1758
827.102	2949
827.198	3903
827.294	2806
827.390	3037
827.486	3676
827.582	1094
827.678	1782
827.774	3437
827.869	1718
827.965	3396
828.061	1861
828.157	2848
828.252	2627
828.348	1978
828.444	2444
828.539	1763
828.635	2765
828.731	3499
828.826	2127
828.922	3184
829.017	3077
829.113	2697
829.208	2368
829.304	2369
829.399	4394
829.495	1894
829.590	2925
829.685	1776
829.781	2551
829.876	2899
829.971	1782
830.066	1352
830.162	2882
830.257	2076
830.352	2543
830.447	1893
830.543	2204
830.638	1648
830.733	2695
830.828	2051
830.923	3048
831.018	2417
831.113	2938
831.208	1270
831.303	2394
831.398	1694
831.493	2243
831.588	3626
831.683	1906
831.778	1528
831.873	1937
831.967	2786
832.062	1976
832.157	2009
832.252	3567
832.346	1810
832.441	4237
832.536	5169
832.631	10998
832.725	8017
832.820	2244
832.914	2471
833.009	2074
833.104	3278
833.198	4227
833.293	1998
833.387	3147
833.482	1818
833.576	1871
833.670	2826
833.765	2834
833.859	2507
833.954	2903
834.048	2444
834.142	2512
834.237	1464
834.331	2083
834.425	1016
834.519	1460
834.613	1848
834.708	1234
834.802	1206
834.896	1325
834.990	2065
835.084	1891
835.178	1578
835.272	2404
835.366	1886
835.460	2485
835.554	1973
835.648	1399
835.742	1693
835.836	2538
835.930	846
836.024	2097
836.117	2768
836.211	2255
836.305	2437
836.399	2989
836.493	1316
836.586	2844
836.680	1699
836.774	1532
836.867	2288
836.961	517
837.055	1795
837.148	1173
837.242	1593
837.335	1015
837.429	1069
837.522	1687
837.616	1311
837.709	4363
837.803	2460
837.896	2223
837.989	897
838.083	2560
838.176	3846
838.269	2783
838.363	2364
838.456	2105
838.549	3785
838.642	5585
838.735	11704
838.829	5524
838.922	304
839.015	2228
839.108	827
839.201	1811
839.294	2306
839.387	2232
839.480	844
839.573	2502
839.666	2140
839.759	1372
839.852	351
839.945	2372
840.038	674
840.131	1996
840.223	1439
840.316	3280
840.409	1056
840.502	711
840.594	2466
840.687	857
840.780	1563
840.873	1693
840.965	1635
841.058	2396
841.150	3381
841.243	2771
841.336	2358
841.428	1195
841.521	1165
841.613	1498
841.706	1928
841.798	1422
841.890	1261
841.983	752
842.075	1384
842.167	1403
842.260	1331
842.352	2610
842.444	2392
842.537	4654
842.629	5666
842.721	1841
842.813	1764
842.905	425
842.997	1506
843.090	2169
843.182	2326
843.274	3522
843.366	8882
843.458	14820
843.550	9350
843.642	2390
843.734	2429
843.826	1601
843.918	2403
844.009	2082
844.101	1632
844.193	1270
844.285	1683
844.377	1748
844.469	2489
844.560	2777
844.652	2908
844.744	1841
844.835	1348
844.927	995
845.019	1413
845.110	1369
845.202	1367
845.293	1120
845.385	1095
845.476	1888
845.568	2142
845.659	1188
845.751	1337
845.842	747
845.934	659
846.025	495
846.116	1763
846.208	753
846.299	855
846.390	672
846.482	1303
846.573	2210
846.664	1776
846.755	3772
846.846	3573
846.937	85
847.029	686
847.120	1617
847.211	1266
847.302	2515
847.393	194
847.484	1461
847.575	816
847.666	1609
847.757	391
847.847	1265
847.938	1277
848.029	594
848.120	1232
848.211	1902
848.302	62
848.392	1443
848.483	1818
848.574	-157
848.664	932
848.755	1743
848.846	653
848.936	615
849.027	1312
849.118	1430
849.208	1595
849.299	3465
849.389	5563
849.480	11651
849.570	21139
849.661	40695
849.751	62260
849.841	20665
849.932	3452
850.022	2085
850.112	2385
850.203	1453
850.293	944
850.383	1495
850.474	836
850.564	1167
850.654	1003
850.744	1243
850.834	424
850.924	1155
851.014	1515
851.104	1139
851.194	1826
851.284	2729
851.374	2531
851.464	1342
851.554	1736
851.644	1436
851.734	2689
851.824	2288
851.914	1747
852.004	4063
852.094	1976
852.183	2063
852.273	1595
852.363	1140
852.452	879
852.542	1587
852.632	1212
852.721	1707
852.811	1293
852.901	2502
852.990	2020
853.080	1757
853.169	1931
853.259	3300
853.348	1736
853.438	3260
853.527	5841
853.617	7425
853.706	14995
853.795	29468
853.885	65931
853.974	121384
854.063	221316
854.152	312140
854.242	110968
854.331	20962
854.420	8450
854.509	7208
854.598	4786
854.687	4282
854.777	4068
854.866	2422
854.955	2727
855.044	1914
855.133	2463
855.222	2400
855.311	1139
855.400	1933
855.488	1081
855.577	1391
855.666	1693
855.755	3079
855.844	2774
855.933	3723
856.021	1812
856.110	1007
856.199	-60
856.288	468
856.376	1096
856.465	790
856.554	1646
856.642	972
856.731	1142
856.819	382
856.908	1545
856.996	764
857.085	567
857.173	1045
857.262	611
857.350	1216
857.438	933
857.527	1144
857.615	1290
857.703	1458
857.792	797
857.880	1364
857.968	701
858.056	1417
858.145	373
858.233	810
858.321	785
858.409	1094
858.497	648
858.585	1034
858.673	1046
858.761	190
858.849	573
858.937	294
859.025	1213
859.113	1380
859.201	463
859.289	1465
859.377	828
859.465	911
859.552	890
859.640	333
859.728	1087
859.816	1106
859.903	955
859.991	900
860.079	507
860.166	247
860.254	1174
860.342	1431
860.429	838
860.517	275
860.604	906
860.692	1124
860.779	391
860.867	1618
860.954	1533
861.042	1239
861.129	1707
861.216	1416
861.304	778
861.391	1120
861.478	519
861.565	1331
861.653	1634
861.740	300
861.827	152
861.914	927
862.001	635
862.089	538
862.176	1412
862.263	910
862.350	725
862.437	363
862.524	1259
862.611	960
862.698	1112
862.785	1314
862.871	1465
862.958	1200
863.045	477
863.132	177
863.219	471
863.306	-55
863.392	1393
863.479	647
863.566	154
863.652	1645
863.739	141
863.826	951
863.912	829
863.999	1096
864.086	887
864.172	741
864.259	1219
864.345	1243
864.432	1189
864.518	1059
864.604	1203
864.691	1103
864.777	1701
864.863	1950
864.950	2077
865.036	2552
865.122	2975
865.209	4206
865.295	4064
865.381	3204
865.467	3767
865.553	6158
865.639	9028
865.726	15771
865.812	32832
865.898	62327
865.984	90466
866.070	170222
866.156	164645
866.242	42658
866.328	10870
866.414	5802
866.499	5276
866.585	4616
866.671	3698
866.757	3535
866.843	2908
866.928	3513
867.014	2055
867.100	3101
867.186	2994
867.271	4203
867.357	4321
867.442	4020
867.528	2922
867.614	2584
867.699	2866
867.785	3527
867.870	3209
867.956	3964
868.041	2694
868.127	3412
868.212	3666
868.297	2935
868.383	3590
868.468	4704
868.553	6662
868.639	7285
868.724	14382
868.809	12659
868.894	3578
868.979	1887
869.065	1299
869.150	2064
869.235	2000
869.320	918
869.405	1847
869.490	1953
869.575	2084
869.660	2081
869.745	2281
869.830	2428
869.915	1555
870.000	2745
870.085	1898
870.169	2639
870.254	2860
870.339	1736
870.424	2235
870.509	2495
870.593	2434
870.678	1799
870.763	1339
870.847	1975
870.932	2326
871.016	1946
871.101	1475
871.186	2147
871.270	2023
871.355	1107
871.439	1256
871.523	1948
871.608	1130
871.692	1510
871.777	2240
871.861	2492
871.945	1286
872.030	1682
872.114	1461
872.198	1038
872.282	752
872.367	1861
872.451	396
872.535	1956
872.619	1714
872.703	1037
872.787	1509
872.871	1747
872.955	1506
873.039	991
873.123	1347
873.207	2554
873.291	635
873.375	1217
873.459	1841
873.543	1290
873.627	1336
873.711	388
873.794	1052
873.878	570
873.962	713
874.045	1544
874.129	1696
874.137	1675
874.213	1463
874.245	1351
874.296	1174
874.352	741
874.380	530
874.460	1107
874.464	1129
874.547	1366
874.568	1447
874.631	1678
874.676	1673
874.714	1666
874.784	1258
874.798	1179
874.881	2371
874.892	2217
874.965	1162
874.999	1362
875.048	1618
875.107	1335
875.131	1245
875.215	1239
875.215	1239
875.298	477
875.323	759
875.381	1479
875.430	1796
875.465	1994
875.538	1854
875.548	1836
875.631	1019
875.646	922
875.714	536
875.753	833
875.798	1098
875.861	1132
875.881	1169
875.964	1369
875.968	1372
876.047	1407
876.076	1355
876.130	1253
876.183	1736
876.213	1979
876.291	1922
876.296	1928
876.379	1278
876.398	1158
876.462	554
876.506	881
876.545	1285
876.613	952
876.628	881
876.711	1047
876.721	1129
876.794	1706
876.828	1505
876.877	1145
876.935	941
876.960	928
877.043	1956
877.043	1957
877.125	2134
877.150	2292
877.208	2628
877.258	2377
877.291	2130
877.365	1722
877.374	1710
877.456	1817
877.472	1896
877.539	2025
877.579	1728
877.622	1496
877.687	2103
877.704	2221
877.787	1670
877.794	1648
877.869	1665
877.901	1906
877.952	2169
878.008	1598
878.034	1390
878.115	1315
878.117	1314
878.199	1007
878.222	1125
878.282	1419
878.329	1651
878.364	1794
878.437	1162
878.447	1075
878.529	932
878.544	956
878.611	928
878.651	949
878.694	1343
878.758	1420
878.776	1344
878.858	2176
878.865	2171
878.941	1768
878.972	1465
879.023	1267
879.078	1382
879.105	1552
879.185	2544
879.187	2553
879.269	2456
879.292	2196
879.351	1645
879.399	1383
879.433	1200
879.506	1675
879.516	1756
879.598	1400
879.613	1453
879.680	1767
879.720	1777
879.762	1707
879.827	2075
879.844	2134
879.926	1250
879.933	1334
880.007	2618
880.040	2655
880.089	2505
880.147	3471
880.171	3974
880.253	5893
880.254	5908
880.335	8458
880.360	9039
880.417	12293
880.467	17996
880.499	21291
880.574	24974
880.580	24659
880.662	8988
880.680	7045
880.744	3221
880.787	2043
880.825	1565
880.893	1264
880.907	1240
880.989	1660
881.000	1620
881.070	1836
881.106	1808
881.152	1403
881.213	1326
881.233	1423
881.315	1690
881.319	1682
881.396	1612
881.426	1710
881.478	1654
881.532	1875
881.559	2021
881.639	1354
881.641	1338
881.722	1514
881.745	1398
881.803	1542
881.852	1755
881.885	1734
881.958	2033
881.966	2040
882.047	1899
882.064	1815
882.129	2043
882.171	2572
882.210	3397
882.277	4842
882.291	4846
882.372	2981
882.383	2825
882.454	1936
882.489	1629
882.535	1447
882.596	1453
882.616	1553
882.697	1355
882.702	1382
882.778	1605
882.808	1385
882.859	1026
882.914	1078
882.940	1113
883.020	1207
883.021	1211
883.102	1391
883.127	1361
883.183	1623
883.233	1998
883.264	1771
883.339	810
883.345	798
883.426	1305
883.445	1301
883.507	1472
883.551	1752
883.587	1853
883.657	1941
883.668	1960
883.749	2082
883.763	2022
883.830	1644
883.869	1760
883.910	1801
883.975	1501
883.991	1432
884.072	1391
884.081	1339
884.152	1505
884.187	1802
884.233	2149
884.292	2115
884.314	1812
884.394	1144
884.398	1088
884.475	939
884.504	1095
884.555	1282
884.610	1056
884.636	1064
884.716	1393
884.716	1400
884.797	1959
884.821	2097
884.877	2180
884.927	2078
884.958	1786
885.033	1329
885.038	1330
885.118	1089
885.139	984
885.199	982
885.244	1207
885.279	1340
885.350	1532
885.359	1594
885.439	2290
885.456	2230
885.520	1472
885.561	1516
885.600	1614
885.667	1467
885.680	1500
885.760	1629
885.773	1664
885.840	1361
885.878	1166
885.920	1524
885.984	1991
886.000	1990
886.080	1942
886.089	1937
886.160	1703
886.195	1546
886.240	1621
886.300	1847
886.320	1946
886.400	2345
886.406	2367
886.480	2512
886.511	2528
886.560	2991
886.616	3370
886.640	2911
886.720	1487
886.722	1450
886.800	1555
886.827	1564
886.879	1303
886.932	1137
886.959	1639
887.038	2873
887.039	2871
887.119	2111
887.143	1808
887.198	1623
887.248	1485
887.278	1521
887.354	1600
887.358	1622
887.437	2005
887.459	2109
887.517	2154
887.564	2079
887.596	1858
887.669	1377
887.676	1373
887.755	1411
887.774	1385
887.835	1051
887.880	943
887.914	1222
887.985	1406
887.994	1472
888.073	2349
888.090	2489
888.153	2153
888.195	1970
888.232	1849
888.300	1580
888.311	1575
888.391	1546
888.405	1514
888.470	1373
888.510	1347
888.549	1470
888.615	1656
888.628	1780
888.708	2511
888.720	2605
888.787	2359
888.825	2249
888.866	2237
888.930	2205
888.945	2123
889.024	1648
889.035	1581
889.103	1934
889.140	2120
889.182	2056
889.245	1940
889.261	2016
889.340	2363
889.349	2397
889.419	2171
889.454	2051
889.498	2019
889.559	1971
889.577	2080
889.656	2544
889.664	2588
889.735	1935
889.768	1616
889.814	1885
889.873	2241
889.978	1662
890.083	2051
890.187	2618
890.292	1365
890.397	1625
890.501	2544
890.606	2035
890.710	2252
890.815	2493
890.919	1924
891.024	2087
891.128	2214
891.233	2401
891.337	2234
891.442	1849
891.546	1998
891.650	1496
891.755	1041
891.859	2811
891.963	1736
892.068	2420
892.172	1510
892.276	2492
892.380	1350
892.484	2578
892.589	1905
892.693	3249
892.797	2070
892.901	2351
893.005	1643
893.109	2794
893.213	2467
893.317	2748
893.421	707
893.525	1418
893.629	2085
893.733	2408
893.837	1341
893.941	2377
894.045	1746
894.148	2334
894.252	2380
894.356	3040
894.460	2591
894.564	2163
894.667	1560
894.771	1545
894.875	1305
894.978	1236
895.082	1702
895.186	3069
895.289	2118
895.393	1555
895.496	1610
895.600	1708
895.703	1183
895.807	1776
895.910	1475
896.014	900
896.117	941
896.221	1969
896.324	1260
896.427	1714
896.531	1153
896.634	1557
896.737	1185
896.840	2032
896.944	1416
897.047	1301
897.150	1632
897.253	1023
897.356	1577
897.460	1279
897.563	1462
897.666	1840
897.769	1731
897.872	845
897.975	1442
898.078	1529
898.181	1479
898.284	1346
898.387	2149
898.490	2515
898.593	1046
898.695	1656
898.798	852
898.901	2280
899.004	1903
899.107	1746
899.209	1287
899.312	2513
899.415	982
899.518	592
899.620	1018
899.723	2174
899.826	3199
899.928	3428
900.031	1146
900.133	1248
900.236	612
900.338	1543
900.441	940
900.543	1387
900.646	1564
900.748	1193
900.851	2384
900.953	1812
901.055	1555
901.158	2063
901.260	1107
901.362	2221
901.465	639
901.567	1889
901.669	1260
901.771	1540
901.873	1541
901.976	1199
902.078	973
902.180	599
902.282	1460
902.384	2710
902.486	1926
902.588	1232
902.690	1098
902.792	1176
902.894	1829
902.996	2292
903.098	715
903.200	1685
903.302	1810
903.404	836
903.505	1049
903.607	1821
903.709	1620
903.811	873
903.913	1347
904.014	1350
904.116	240
904.218	1316
904.319	1385
904.421	2383
904.523	1123
904.624	1400
904.726	775
904.827	1357
904.929	1730
905.030	1541
905.132	1701
905.233	1235
905.335	223
905.436	1199
905.537	-26
905.639	1778
905.740	926
905.841	2052
905.943	1384
906.044	1705
906.145	954
906.247	2109
906.348	1577
906.449	1336
906.550	1533
906.651	2194
906.752	807
906.854	706
906.955	412
907.056	1929
907.157	1878
907.258	2085
907.359	1180
907.460	1692
907.561	834
907.662	1501
907.762	527
907.863	1886
907.964	2569
908.065	2253
908.166	976
908.267	1560
908.367	556
908.468	1920
908.569	1224
908.670	2199
908.770	2006
908.871	2780
908.971	2839
909.072	2204
909.173	1386
909.273	1031
909.374	652
909.474	1378
909.575	1277
909.675	1617
909.776	1097
909.876	1300
909.977	1349
910.077	1895
910.177	1706
910.278	1085
910.378	672
910.478	1338
910.579	1425
910.679	1289
910.779	596
910.879	1720
910.980	1740
911.080	1599
911.180	904
911.280	1147
911.380	468
911.480	1365
911.580	1106
911.680	1821
911.780	1882
911.880	1400
911.980	1039
912.080	1162
912.180	1372
912.280	1511
912.380	856
912.480	527
912.580	807
912.679	619
912.779	1944
912.879	960
912.979	978
913.078	1194
913.178	911
913.278	916
913.377	464
913.477	540
913.577	711
913.676	1854
913.776	1181
913.875	1242
913.975	771
914.074	1077
914.174	1088
914.273	317
914.373	1354
914.472	1859
914.572	950
914.671	1326
914.770	1004
914.870	472
914.969	757
915.068	1138
915.167	941
915.267	1043
915.366	141
915.465	1133
915.564	734
915.663	2332
915.763	1219
915.862	1623
915.961	1309
916.060	504
916.159	1027
916.258	877
916.357	1460
916.456	1351
916.555	675
916.654	1270
916.752	1467
916.851	633
916.950	89
917.049	931
917.148	1005
917.247	1379
917.345	1527
917.444	905
917.543	639
917.642	885
917.740	977
917.839	1816
917.937	1142
918.036	682
918.135	449
918.233	1142
918.332	956
918.430	1729
918.529	1258
918.627	479
918.726	818
918.824	1363
918.923	862
919.021	773
919.119	209
919.218	679
919.316	570
919.414	1575
919.512	850
919.611	1201
919.709	1228
919.807	1849
919.905	1610
920.003	858
920.102	489
920.200	1026
920.298	2021
920.396	1557
920.494	886
920.592	1271
920.690	628
920.788	1228
920.886	925
920.984	2130
921.082	1149
921.180	2522
921.277	1562
921.375	1988
921.473	2361
921.571	2123
921.669	2229
921.766	2222
921.864	2061
921.962	2610
922.060	1675
922.157	2585
922.255	2550
922.352	1825
922.450	3013
922.548	2043
922.645	2438
922.743	3711
922.840	5317
922.938	5571
923.035	3958
923.133	4863
923.230	5211
923.327	6480
923.425	6044
923.522	6102
923.619	4511
923.717	5112
923.814	4343
923.911	4964
924.008	5180
924.106	4098
924.203	4701
924.300	5081
924.397	3588
924.494	5607
924.591	4446
924.688	4592
924.786	4783
924.883	4555
924.979	4314
925.077	4476
925.173	3985
925.270	5425
925.367	5068
925.464	4781
925.561	4485
925.658	4778
925.755	4703
925.852	5125
925.948	4425
926.045	4570
926.142	4054
926.239	4266
926.335	4107
926.432	4786
926.529	4546
926.625	5213
926.722	4085
926.818	4013
926.915	4560
927.011	4118
927.108	3930
927.204	4212
927.301	3476
927.397	5060
927.494	4812
927.590	3091
927.687	3616
927.783	3839
927.879	4272
927.976	3227
928.072	3185
928.168	4350
928.264	3903
928.361	3978
928.457	3763
928.553	3585
928.649	3754
928.745	4481
928.841	3239
928.937	3832
929.033	3425
929.129	4386
929.225	3429
929.321	3407
929.417	3370
929.513	3235
929.609	3440
929.705	3680
929.801	3406
929.897	2928
929.993	2715
930.089	3372
930.184	3564
930.280	3943
930.376	3378
930.471	3210
930.567	3039
930.663	3281
930.758	2608
930.854	3249
930.950	3658
931.045	2167
931.141	2812
931.236	4130
931.332	2657
931.427	3443
931.523	3050
931.618	3085
931.714	2239
931.809	3139
931.905	3173
932.000	2723
932.095	2693
932.191	4359
932.286	4402
932.381	2713
932.476	2628
932.572	2753
932.667	2812
932.762	2804
932.857	3008
932.952	3093
933.047	2083
933.142	2480
933.237	2995
933.332	3173
933.427	2986
933.522	3268
933.617	2092
933.712	3183
933.807	3014
933.902	3642
933.997	2376
934.092	2257
934.187	2928
934.282	2695
934.376	3101
934.471	3613
934.566	2367
934.661	3194
934.755	2761
934.850	2293
934.945	2053
935.039	1620
935.134	2313
935.228	2895
935.323	4116
935.417	1993
935.512	2434
935.606	2036
935.701	3309
935.795	4108
935.890	2522
935.984	2071
936.079	2459
936.173	2060
936.267	1660
936.362	1822
936.456	2668
936.550	2904
936.644	2988
936.738	1972
936.833	1814
936.927	3255
937.021	2577
937.115	2484
937.209	1720
937.303	3639
937.397	1474
937.491	1729
937.585	3215
937.679	2283
937.773	2556
937.867	1539
937.961	1558
938.055	3025
938.149	2331
938.243	1805
938.337	1595
938.430	2860
938.524	2172
938.618	1991
938.712	2184
938.805	1927
938.899	2296
938.993	2486
939.086	2057
939.180	911
939.274	1881
939.367	3681
939.461	2426
939.554	2482
939.648	1738
939.741	1848
939.835	3131
939.928	3579
940.022	2273
940.115	2948
940.208	2412
940.302	3246
940.395	2812
940.488	2294
940.582	2339
940.675	1701
940.768	1920
940.861	2898
940.954	2281
941.048	1619
941.141	1452
941.234	1842
941.327	2367
941.420	4471
941.513	2663
941.606	2046
941.699	2481
941.792	2641
941.885	2321
941.978	1664
942.071	1755
942.164	794
942.257	1923
942.349	1262
942.442	1698
942.535	1509
942.628	1299
942.721	1954
942.813	778
942.906	2302
942.999	1224
943.091	1204
943.184	2176
943.277	1616
943.369	2012
943.462	978
943.554	1985
943.647	1150
943.739	2766
943.832	2365
943.924	649
944.017	1336
944.109	-4
944.201	756
944.294	1067
944.386	1932
944.478	1166
944.571	1671
944.663	1503
944.755	1235
944.847	1807
944.940	1994
945.032	174
945.124	1239
945.216	1664
945.308	2189
945.400	1768
945.492	1375
945.584	2229
945.676	1231
945.768	1774
945.860	2809
945.952	1183
946.044	1193
946.136	1163
946.228	1396
946.320	1689
946.412	1607
946.503	2328
946.595	2351
946.687	599
946.779	630
946.870	1876
946.962	1356
947.054	1395
947.145	1743
947.237	1366
947.329	1878
947.420	1271
947.512	844
947.603	1310
947.695	1784
947.786	653
947.878	1455
947.969	2258
948.061	1176
948.152	812
948.243	1004
948.335	634
948.426	1277
948.517	1600
948.609	1761
948.700	1098
948.791	423
948.882	1815
948.973	540
949.065	2075
949.156	1048
949.247	248
949.338	1208
949.429	20
949.520	2331
949.611	824
949.702	766
949.793	1077
949.884	2190
949.975	-80
950.066	1036
950.157	761
950.247	815
950.338	1102
950.429	1604
950.520	1444
950.611	918
950.701	2033
950.792	1942
950.883	1372
950.973	753
951.064	1000
951.155	958
951.245	1514
951.336	1170
951.427	1574
951.517	2418
951.608	1026
951.698	1147
951.788	858
951.879	295
951.969	936
952.060	1140
952.150	1413
952.240	2130
952.331	-492
952.421	1772
952.511	-101
952.602	411
952.692	335
952.782	503
952.872	812
952.962	1463
953.052	724
953.143	-439
953.233	1757
953.323	1495
953.413	1354
953.503	1779
953.593	1190
953.683	654
953.773	-238
953.863	694
953.953	353
954.042	1593
954.132	938
954.222	1867
954.312	902
954.402	980
954.492	1407
954.581	2108
954.671	449
954.761	201
954.850	1775
954.940	65
955.030	847
955.119	826
955.209	152
955.298	162
955.388	497
955.477	2067
955.567	349
955.656	1195
955.746	509
955.835	877
955.925	645
956.014	526
956.103	584
956.193	1113
956.282	119
956.371	1507
956.461	942
956.550	1777
956.639	917
956.728	393
956.817	293
956.906	591
956.995	1154
957.085	950
957.174	257
957.263	82
957.352	1357
957.441	566
957.530	361
957.619	2031
957.708	1098
957.796	107
957.885	656
957.974	726
958.063	811
958.152	217
958.241	1055
958.329	612
958.418	149
958.507	727
958.596	1456
958.684	410
958.773	1594
958.861	389
958.950	857
959.039	806
959.127	314
959.216	1335
959.304	679
959.393	1098
959.481	1125
959.570	1873
959.658	518
959.746	1403
959.835	1383
959.923	2569
960.011	754
960.100	1272
960.188	529
960.276	896
960.365	-38
960.453	533
960.541	-416
960.629	248
960.717	-247
960.805	344
960.893	1305
960.981	453
961.069	1631
961.158	1495
961.245	923
961.333	1207
961.421	690
961.509	467
961.597	286
961.685	593
961.773	408
961.861	704
961.949	1311
962.036	-1342
962.124	1010
962.212	799
962.299	-60
962.387	-381
962.475	750
962.562	-127
962.650	1222
962.738	-17
962.825	-67
962.913	669
963.000	-207
963.088	309
963.175	540
963.263	1147
963.350	-131
963.438	649
963.525	679
963.612	2342
963.700	5457
963.787	8493
963.874	2564
963.962	1613
964.049	600
964.136	-231
964.223	-108
964.310	544
964.398	29
964.485	578
964.572	387
964.659	1934
964.746	948
964.833	-70
964.920	22
965.007	775
965.094	889
965.181	473
965.268	1208
965.355	110
965.441	352
965.528	294
965.615	190
965.702	55
965.789	266
965.875	1187
965.962	205
966.049	278
966.136	881
966.222	319
966.309	308
966.395	-371
966.482	-35
966.569	-228
966.655	-214
966.742	126
966.828	-544
966.915	260
967.001	-55
967.087	642
967.174	1039
967.260	800
967.347	1629
967.433	4005
967.519	5234
967.605	1128
967.692	336
967.778	430
967.864	16
967.950	563
968.036	98
968.123	549
968.209	-86
968.295	-557
968.381	1836
968.467	447
968.553	-703
968.639	2142
968.725	460
968.811	1943
968.897	995
968.983	-371
969.069	-313
969.154	600
969.240	-263
969.326	-409
969.412	-264
969.497	-310
969.583	-973
969.669	451
969.755	-382
969.840	396
969.926	956
970.012	1056
970.097	2055
970.183	496
970.268	-543
970.354	2250
970.439	962
970.525	3817
970.610	301
970.696	843
970.781	-117
970.866	-678
970.952	434
971.037	-386
971.122	-730
971.208	717
971.293	-172
971.378	-1566
971.463	-972
971.549	472
971.634	-110
971.719	42
971.804	-51
971.889	939
971.974	-135
972.059	159
972.144	27
972.229	556
972.314	-208
972.399	-313
972.484	-145
972.569	374
972.654	-246
972.739	2390
972.824	253
972.908	-16
972.993	-1048
973.078	62
973.163	-904
973.247	71
973.332	-1065
973.417	537
973.501	-1362
973.586	307
973.671	133
973.755	152
973.840	933
973.924	1261
974.009	978
974.093	-176
974.178	1369
974.262	1667
974.346	541
974.431	979
974.515	199
974.600	14
974.684	121
974.768	-465
974.852	546
974.937	-1412
975.021	-70
975.105	620
975.189	-161
975.273	134
975.358	-967
975.442	-989
975.526	668
975.610	-515
975.694	-370
975.778	177
975.862	-196
975.946	-2068
976.030	1530
976.114	-1334
976.198	529
976.281	-89
976.365	424
976.449	-644
976.533	88
976.617	-1017
976.700	64
976.784	272
976.868	-193
976.951	423
977.035	-69
977.119	-119
977.202	145
977.286	-13
977.369	100
977.453	1573
977.536	-373
977.620	4
977.703	167
977.787	-397
977.870	941
977.953	745
978.037	-971
978.120	1700
978.203	398
978.287	1406
978.370	73
978.453	-1000
978.536	-498
978.620	993
978.703	972
978.786	-624
978.869	-531
978.952	-1079
979.035	722
979.118	271
979.201	-921
979.284	699
979.367	-902
979.450	181
979.533	-752
979.616	-415
979.699	-121
979.782	-73
979.865	-360
979.948	-332
980.030	-601
980.113	-144
980.196	-1021
980.279	939
980.361	-474
980.444	-1217
980.526	420
980.609	605
980.692	-298
980.774	-204
980.857	-832
980.939	881
981.022	-310
981.104	-648
981.187	-815
981.269	451
981.352	119
981.434	-1340
981.516	-580
981.599	246
981.681	-227
981.763	566
981.846	-350
981.928	-735
982.010	-465
982.092	-241
982.174	-176
982.256	-517
982.339	-963
982.421	-184
982.503	327
982.585	-277
982.667	-559
982.749	-222
982.831	522
982.913	-817
982.995	686
983.077	-216
983.158	699
983.240	-610
983.322	-361
983.404	716
983.486	-679
983.568	721
983.649	-678
983.731	59
983.813	135
983.894	32
983.976	-941
984.058	201
984.139	794
984.221	-903
984.302	370
984.384	75
984.465	-1061
984.547	-148
984.628	-749
984.710	375
984.791	-344
984.872	-245
984.954	-978
985.035	-329
985.116	-855
985.198	-236
985.279	563
985.360	-1127
985.441	-586
985.522	227
985.604	-332
985.685	-1635
985.766	438
985.847	1187
985.928	-1340
986.009	-401
986.090	-289
986.171	892
986.252	-234
986.333	-125
986.414	-750
986.495	291
986.576	-706
986.656	511
986.737	-201
986.818	-234
986.899	-384
986.980	-613
987.060	748
987.141	393
987.222	-420
987.302	-425
987.383	61
987.464	696
987.544	451
987.625	-978
987.705	779
987.786	910
987.866	-50
987.947	259
988.027	-219
988.108	-1011
988.188	-246
988.268	476
988.349	-209
988.429	-388
988.509	706
988.589	-399
988.670	-1327
988.750	1395
988.830	-372
988.910	426
988.990	-591
989.070	-250
989.151	272
989.231	-999
989.311	276
989.391	164
989.471	-855
989.551	-820
989.631	-740
989.711	-161
989.791	-773
989.870	-1144
989.950	325
990.030	-818
990.110	-802
990.190	-617
990.269	-650
990.349	301
990.429	-301
990.509	-140
990.588	-797
990.668	254
990.747	-30
990.827	449
990.907	96
990.986	-579
991.066	-280
991.145	-427
991.225	124
991.304	-567
991.383	170
991.463	-465
991.542	-131
991.622	-443
991.701	-1134
991.780	-1560
991.859	-1322
991.939	-11
992.018	408
992.097	362
992.176	-416
992.256	-1177
992.335	-1568
992.414	-146
992.493	-1534
992.572	-803
992.651	-502
992.730	0
992.809	93
992.888	-274
992.967	-1135
993.046	-30
993.125	-1247
993.203	-864
993.282	-296
993.361	-648
993.440	-1741
993.519	-186
993.597	-1025
993.676	-900
993.755	-366
993.834	-771
993.912	-2233
993.991	-410
994.069	-1102
994.148	-861
994.226	-1533
994.305	-358
994.384	-1580
994.462	-145
994.540	-1248
994.619	-1201
994.697	-477
994.776	-1148
994.854	85
994.932	-1252
995.011	-1686
995.089	-1168
995.167	-813
995.245	155
995.324	-1701
995.402	196
995.480	-1654
995.558	-599
995.636	-1937
995.714	-2003
995.792	-27
995.870	-1787
995.948	-1791
996.026	-939
996.104	-2231
996.182	-157
996.260	-1748
996.338	-464
996.416	-1538
996.494	-1039
996.572	-132
996.649	-1330
996.727	-1806
996.805	-896
996.883	-1409
996.960	-1764
997.038	-991
997.116	-82
997.193	-2113
997.271	-601
997.348	-1597
997.426	-1162
997.504	-2252
997.581	-491
997.658	-1774
997.736	-1383
997.813	-1778
997.891	-407
997.968	-1227
998.046	-292
998.123	-951
998.200	-1010
998.277	-1458
998.355	-665
998.432	-2269
998.509	-1027
998.586	-533
998.663	-647
998.741	-1449
998.818	-634
998.895	-1789
998.972	-601
999.049	-1587
999.126	-1642
999.203	-705
999.280	-1817
999.357	-2166
999.434	-678
999.511	-707
999.587	-950
999.664	-2308
999.741	509
999.818	-774
999.895	-1346
999.971	-1436
1000.048	-623
1000.125	-659
1000.202	-1828
1000.278	-868
1000.355	-535
1000.431	-1132
1000.508	-1880
1000.584	-958
1000.661	-265
1000.738	-2261
1000.814	-1556
1000.890	-1080
1000.967	-1895
1001.043	-1978
1001.120	-2550
1001.196	-756
1001.272	-1963
1001.349	-964
1001.425	-1507
1001.501	-1468
1001.577	-1829
1001.654	-1773
1001.730	-1656
1001.806	-1703
1001.882	-2253
1001.958	-1375
1002.034	-929
1002.110	-1336
1002.186	-1453
1002.262	-1627
1002.338	-1732
1002.414	-1595
1002.490	-1209
1002.566	-2421
1002.642	-1563
1002.718	-1118
1002.794	-1209
1002.870	-1997
1002.945	-1526
1003.021	-908
1003.097	-1510
1003.173	7
1003.248	-2144
1003.324	-1834
1003.400	-1113
1003.475	-2028
1003.551	-1061
1003.626	-1491
1003.702	-1511
1003.777	-1187
1003.853	-1541
1003.928	-2732
1004.004	-1513
1004.079	-358
1004.155	-851
1004.230	-2699
1004.305	-887
1004.381	-2211
1004.456	-1145
1004.531	-1636
1004.607	-2057
1004.682	-1951
1004.757	-1544
1004.832	-2321
1004.907	-2029
1004.982	-1120
1005.057	-1659
1005.133	-1174
1005.208	-860
1005.283	-1440
1005.358	-640
1005.433	-2074
1005.508	-741
1005.583	-1207
1005.657	-1423
1005.732	-1275
1005.807	-1986
1005.882	-1492
1005.957	-652
1006.032	-766
1006.106	-2219
1006.181	-1167
1006.256	-1395
1006.331	-1354
1006.405	-1817
1006.480	-1120
1006.554	-1625
1006.629	-1136
1006.704	-2277
1006.778	-1321
1006.853	-943
1006.927	-1807
1007.002	-1719
1007.076	-1516
1007.150	-790
1007.225	-1053
1007.299	-2016
1007.373	-2028
1007.448	-1064
1007.522	-573
1007.596	-1010
1007.671	-1642
1007.745	-1084
1007.819	-2661
1007.893	-1480
1007.967	-1255
1008.041	-2401
1008.115	-1051
1008.190	-2478
1008.264	-1495
1008.338	-2666
1008.412	-1692
1008.486	-2176
1008.560	-1636
1008.633	-1759
1008.707	-2433
1008.781	-354
1008.855	-2082
1008.929	-1455
1009.003	-2208
1009.076	-1450
1009.150	-1225
1009.224	-1505
1009.298	-1688
1009.371	-2410
1009.445	-1453
1009.519	-843
1009.592	-2471
1009.666	-1135
1009.739	-1513
1009.813	-2258
1009.886	16
1009.960	-2420
1010.033	-2076
1010.107	-932
1010.180	-2858
1010.253	-1130
1010.327	-2305
1010.400	-1643
1010.473	-1635
1010.547	-143
1010.620	-2124
1010.693	-1925
1010.766	-1874
1010.840	-1396
1010.913	-1396
1010.986	-2450
1011.059	-572
1011.132	-1490
1011.205	-889
1011.278	-1317
1011.351	-2310
1011.424	-1154
1011.497	-2569
1011.570	-1072
1011.643	-1416
1011.716	-1251
1011.789	-1478
1011.862	-1675
1011.934	-743
1012.007	-2628
1012.080	-1465
1012.153	-1455
1012.225	-845
1012.298	-1987
1012.371	-1789
1012.443	-975
1012.516	-1833
1012.588	-1447
1012.661	-1742
1012.733	-2059
1012.806	-533
1012.879	-1974
1012.951	-2466
1013.023	-1890
1013.096	-1944
1013.168	-1765
1013.241	-886
1013.313	-1023
1013.385	-2216
1013.458	-1106
1013.530	-1702
1013.602	-1735
1013.674	-1182
1013.746	-2517
1013.819	-1773
1013.891	-1325
1013.963	-2574
1014.035	-1207
1014.107	-1978
1014.179	-1117
1014.251	-2011
1014.323	-1539
1014.395	-1756
1014.467	-1355
1014.539	-1345
1014.611	-2446
1014.683	-1288
1014.754	-928
1014.826	-2018
1014.898	-1462
1014.970	-2067
1015.042	-793
1015.113	-1757
1015.185	-1430
1015.257	-2448
1015.328	-1024
1015.400	-2688
1015.471	-1166
1015.543	-2845
1015.615	-1793
1015.686	-1819
1015.757	-1658
1015.829	-1720
1015.901	-1556
1015.972	-1817
1016.043	-1885
1016.115	-1662
1016.186	-1691
1016.257	-2933
1016.328	-2056
1016.400	-1016
1016.471	-1785
1016.542	-1663
1016.613	-1492
1016.685	-1625
1016.756	-1226
1016.827	-1573
1016.898	-1092
1016.969	-746
1017.040	-1671
1017.111	-2203
1017.182	-2314
1017.253	-1617
1017.324	-1380
1017.395	-1951
1017.466	-1790
1017.537	-1875
1017.608	-1736
1017.678	-1698
1017.749	-1237
1017.820	-1888
1017.891	-1465
1017.961	-2149
1018.032	-1427
1018.103	-1959
1018.173	-1497
1018.244	-2452
1018.315	-1794
1018.385	-1153
1018.456	-1918
1018.526	-2258
1018.597	-1933
1018.667	-1699
1018.738	-1909
1018.808	-1898
1018.878	-2348
1018.949	-1935
1019.019	-1650
1019.089	-1829
1019.160	-1572
1019.230	-2306
1019.300	-1371
1019.371	-2448
1019.441	-1234
1019.511	-1762
1019.581	-1358
1019.651	-1074
1019.721	-1021
1019.791	-2379
1019.861	-1438
1019.931	-1348
1020.001	-2239
1020.071	-1630
1020.141	-2089
1020.211	-1697
1020.281	-1992
1020.351	-1851
1020.421	-1358
1020.491	-2264
1020.560	-1543
1020.630	-1985
1020.700	-1628
1020.770	-1252
1020.839	-1849
1020.909	-1814
1020.979	-2179
1021.048	-1499
1021.118	-2259
1021.187	-2238
1021.257	-1154
1021.326	-1853
1021.396	-1975
1021.465	-1491
1021.535	-1361
1021.604	-1262
1021.674	-1646
1021.743	-2028
1021.812	-1709
1021.882	-1910
1021.951	-1616
1022.020	-2050
1022.089	-1129
1022.159	-1733
1022.228	-1317
1022.297	-2297
1022.366	-1517
1022.435	-1808
1022.504	-1792
1022.573	-1634
1022.642	-1954
1022.711	-2191
1022.781	-1628
1022.849	-1562
1022.918	-1434
1022.987	-1535
1023.056	-1753
1023.125	-2805
1023.194	-1118
1023.263	-2139
1023.331	-1318
1023.400	-2674
1023.469	-2263
1023.538	-1847
1023.606	-2172
1023.675	-2073
1023.744	-2216
1023.812	-2466
1023.881	-1847
1023.949	-1865
1024.018	-1478
1024.086	-1883
1024.155	-2013
1024.223	-2615
1024.292	-2165
1024.360	-2284
1024.429	-1848
1024.497	-2669
1024.565	-1656
1024.634	-2229
1024.702	-1576
1024.770	-1850
1024.838	-1436
1024.907	-1236
1024.975	-2053
1025.043	-2017
1025.111	-2533
1025.179	-1964
1025.247	-1690
1025.315	-2084
1025.383	-1759
1025.451	-2019
1025.519	-2155
1025.587	-2216
1025.655	-1387
1025.723	-2449
1025.791	-1035
1025.859	-1833
1025.927	-1252
1025.995	-2078
1026.062	-2577
1026.130	-2143
1026.198	-2476
1026.266	-2452
1026.333	-1548
1026.401	-1924
1026.469	-1512
1026.536	-2161
1026.604	-2284
1026.671	-2239
1026.739	-1828
1026.806	-2305
1026.874	-1998
1026.941	-1559
1027.009	-886
1027.076	-1743
1027.144	-1069
1027.211	-2306
1027.278	-2692
1027.345	-1624
1027.413	-1782
1027.480	-2225
1027.547	-1913
1027.614	-2507
1027.682	-1795
1027.749	-1675
1027.816	-1526
1027.883	-1730
1027.950	-1269
1028.017	-1999
1028.084	-1395
1028.151	-2529
1028.218	-2172
1028.285	-2429
1028.352	-2210
1028.419	-1647
1028.486	-2132
1028.553	-1605
1028.619	-3093
1028.686	-2152
1028.753	-2680
1028.820	-1791
1028.886	-2335
1028.953	-2443
1029.020	-1926
1029.086	-1941
1029.153	-1801
1029.220	-2940
1029.286	-1924
1029.353	-1999
1029.419	-3145
1029.486	-2251
1029.552	-2478
1029.619	-2424
1029.685	-1994
1029.751	-2042
1029.818	-1086
1029.884	-2193
1029.951	-920
1030.017	-1937
1030.083	-1765
1030.149	-1808
1030.216	-1930
1030.282	-2194
1030.348	-1736
1030.414	-2185
1030.480	-1810
1030.546	-2134
1030.612	-2027
1030.678	-1954
1030.744	-1526
1030.810	-3088
1030.876	-1876
1030.942	-2483
1031.008	-2000
1031.074	-1553
1031.140	-2364
1031.206	-1114
1031.272	-3081
1031.337	-1477
1031.403	-1419
1031.469	-1917
1031.534	-1675
1031.600	-1688
1031.666	-2708
1031.731	-2579
1031.797	-2213
1031.863	-2463
1031.928	-1253
1031.994	-1888
1032.059	-1671
1032.125	-2206
1032.190	-2103
1032.256	-2731
1032.321	-2027
1032.386	-2239
1032.452	-1523
1032.517	-2479
1032.582	-2194
1032.647	-2366
1032.713	-1889
1032.778	-2001
1032.843	-3038
1032.908	-2016
1032.974	-2119
1033.039	-1841
1033.104	-2088
1033.169	-2224
1033.234	-1622
1033.299	-2211
1033.364	-1145
1033.429	-1321
1033.494	-1809
1033.559	-2407
1033.624	-1704
1033.688	-1962
1033.753	-2728
1033.818	-2208
1033.883	-1487
1033.948	-1986
1034.013	-652
1034.077	-1295
1034.142	-255
1034.207	-573
1034.271	859
1034.336	109
1034.400	-567
1034.465	-683
1034.530	-1121
1034.594	-1153
1034.658	-1872
1034.723	-1869
1034.787	-1624
1034.852	-2357
1034.916	-2265
1034.981	-2436
1035.045	-2202
1035.109	-2421
1035.173	-1842
1035.238	-2208
1035.302	-1736
1035.366	-2420
1035.430	-1405
1035.495	-2330
1035.559	-1488
1035.623	-1523
1035.687	-1401
1035.751	-2530
1035.815	-1655
1035.879	-2114
1035.943	-1571
1036.007	-2366
1036.071	-1568
1036.135	-1734
1036.198	-1344
1036.262	-2265
1036.326	-1899
1036.390	-1844
1036.454	-1088
1036.517	-1996
1036.581	-697
1036.645	-296
1036.709	-822
1036.772	-1398
1036.836	-1988
1036.900	-2200
1036.963	-2405
1037.026	-2496
1037.090	-2066
1037.154	-3042
1037.217	-1809
1037.280	-2535
1037.344	-2338
1037.407	-2283
1037.471	-1825
1037.534	-2023
1037.597	-1481
1037.661	-1885
1037.724	-1908
1037.787	-2336
1037.850	-1400
1037.913	-1965
1037.977	-1244
1038.040	-2466
1038.103	-1853
1038.166	-1835
1038.229	-2079
1038.292	-1542
1038.355	-1642
1038.418	-2248
1038.481	-1937
1038.544	-2497
1038.607	-1626
1038.670	-2235
1038.732	-2487
1038.795	-2550
1038.858	-2781
1038.921	-2211
1038.984	-2155
1039.046	-2202
1039.109	-2476
1039.172	-2487
1039.234	-2218
1039.297	-2655
1039.360	-1939
1039.422	-2066
1039.485	-1769
1039.547	-2167
1039.610	-2162
1039.672	-2485
1039.734	-2114
1039.797	-2715
1039.859	-2306
1039.922	-2021
1039.984	-2047
1040.046	-2156
1040.109	-2289
1040.171	-2996
1040.233	-2219
1040.295	-2878
1040.358	-2162
1040.420	-2193
1040.482	-2078
1040.544	-2222
1040.606	-2005
1040.668	-2597
1040.730	-2559
1040.792	-2554
1040.854	-2141
1040.916	-1672
1040.978	-2573
1041.040	-1668
1041.102	-1812
1041.164	-2465
1041.225	-1758
1041.287	-1603
1041.349	-2659
1041.411	-1844
1041.472	-2065
1041.534	-2151
1041.596	-1784
1041.657	-1977
1041.719	-1817
1041.781	-2108
1041.842	-2331
1041.904	-2832
1041.965	-1857
1042.027	-2521
1042.088	-1904
1042.150	-2525
1042.211	-2495
1042.272	-1803
1042.334	-2628
1042.395	-2957
1042.456	-3239
1042.518	-2620
1042.579	-1793
1042.640	-2251
1042.701	-2453
1042.763	-2442
1042.824	-2263
1042.885	-1968
1042.946	-1505
1043.007	-2080
1043.068	-2523
1043.129	-3038
1043.190	-2323
1043.251	-2539
1043.312	-1900
1043.373	-1814
1043.434	-2299
1043.495	-2830
1043.556	-2117
1043.616	-2039
1043.677	-2688
1043.738	-1928
1043.799	-2445
1043.859	-2688
1043.920	-1853
1043.981	-2608
1044.041	-1332
1044.102	-2127
1044.162	-2261
1044.223	-2851
1044.284	-2412
1044.344	-2065
1044.405	-1982
1044.465	-2695
1044.525	-2236
1044.586	-2778
1044.646	-2017
1044.707	-2019
1044.767	-2597
1044.827	-3678
1044.887	-1154
1044.948	-1626
1045.008	-1987
1045.068	-2703
1045.128	-1693
1045.188	-2214
1045.249	-1358
1045.309	-1945
1045.369	-1221
1045.429	-2958
1045.489	-2312
1045.549	-1703
1045.609	-1966
1045.669	-2158
1045.729	-2048
1045.789	-2565
1045.848	-2544
1045.908	-2100
1045.968	-1913
1046.028	-2157
1046.088	-916
1046.147	-1635
1046.207	-2120
1046.267	-1919
1046.326	-1096
1046.386	-1831
1046.446	-1396
1046.505	-1695
1046.565	-1256
1046.624	-1868
1046.684	-904
1046.743	-1152
1046.803	-1226
1046.862	-1028
1046.922	0
