'Start Wavelength	183.907
'End Wavelength	1046.922
'Gate Delay	5.000
'Gate Width (ms)	1.050
'Laser Output Level	0.000
'X Position	0.000
'Y Position	0.000
'Z Position	0.000
'Grid Point Number	1.000
'Shot Number	100.000
183.907	1051.000
183.977	-517.000
184.047	10
184.116	413
184.186	799
184.256	-657
184.325	317
184.395	-583
184.465	814
184.534	-635
184.604	-118
184.674	898
184.743	312
184.813	504
184.883	477
184.952	-791
185.022	242
185.092	-25
185.161	503
185.231	-390
185.301	-95
185.370	199
185.440	-176
185.509	-385
185.579	697
185.649	280
185.718	400
185.788	619
185.857	184
185.927	122
185.996	319
186.066	-288
186.136	45
186.205	-374
186.275	-275
186.344	-192
186.414	373
186.483	-957
186.553	872
186.622	-164
186.692	-304
186.761	22
186.831	344
186.900	-172
186.970	1166
187.039	-124
187.109	680
187.178	-366
187.248	107
187.317	-540
187.387	-428
187.456	-600
187.526	446
187.595	-568
187.664	-135
187.734	-111
187.803	157
187.873	-481
187.942	-197
188.012	366
188.081	-686
188.150	-139
188.220	-203
188.289	194
188.358	360
188.428	320
188.497	340
188.567	104
188.636	96
188.705	-62
188.775	-491
188.844	-254
188.913	544
188.983	127
189.052	-254
189.121	-818
189.191	-281
189.260	-217
189.329	-117
189.399	506
189.468	-134
189.537	139
189.606	391
189.676	-216
189.745	-3
189.814	526
189.883	381
189.953	-363
190.022	-426
190.091	-506
190.161	234
190.230	462
190.299	725
190.368	104
190.437	-670
190.507	-672
190.576	174
190.645	-874
190.714	648
190.783	-671
190.853	591
190.922	539
190.991	-169
191.060	-712
191.129	-677
191.198	116
191.268	-474
191.337	-303
191.406	291
191.475	-296
191.544	532
191.613	-503
191.682	219
191.752	88
191.821	351
191.890	-56
191.959	880
192.028	-343
192.097	8
192.166	324
192.235	-378
192.304	131
192.373	275
192.442	-53
192.511	-610
192.580	137
192.650	12
192.719	197
192.788	200
192.857	214
192.926	-671
192.995	-10
193.064	-153
193.133	-106
193.202	-223
193.271	-708
193.340	214
193.409	-487
193.478	438
193.547	-624
193.615	-140
193.684	-366
193.753	-19
193.822	-45
193.891	-309
193.960	91
194.029	-525
194.098	-180
194.167	131
194.236	-557
194.305	-57
194.374	-764
194.443	-154
194.512	360
194.580	427
194.649	-67
194.718	507
194.787	-585
194.856	-648
194.925	-40
194.994	-138
195.062	-104
195.131	-127
195.200	-446
195.269	-419
195.338	55
195.407	-25
195.475	-440
195.544	792
195.613	-547
195.682	-476
195.751	-444
195.819	295
195.888	303
195.957	295
196.026	653
196.094	527
196.163	-117
196.232	-219
196.301	380
196.369	609
196.438	-77
196.507	297
196.576	-812
196.644	163
196.713	-462
196.782	-27
196.850	58
196.919	-293
196.988	-75
197.056	37
197.125	142
197.194	-58
197.262	-328
197.331	-364
197.400	577
197.468	-419
197.537	28
197.606	540
197.674	-410
197.743	-164
197.812	-607
197.880	1010
197.949	-504
198.017	97
198.086	-379
198.155	-194
198.223	475
198.292	7
198.360	-837
198.429	-215
198.497	-54
198.566	-291
198.635	-413
198.703	7
198.772	-419
198.840	-566
198.909	-335
198.977	27
199.046	-960
199.114	-303
199.183	-397
199.251	704
199.320	-129
199.388	-492
199.457	26
199.525	-128
199.594	57
199.662	120
199.731	-168
199.799	630
199.867	-637
199.936	-730
200.004	307
200.073	90
200.141	-402
200.210	-821
200.278	-460
200.346	581
200.415	-542
200.483	-218
200.552	12
200.620	514
200.688	-702
200.757	762
200.825	-714
200.893	-15
200.962	-744
201.030	285
201.098	-357
201.167	88
201.235	-662
201.303	-265
201.372	-325
201.440	-92
201.508	-247
201.577	-125
201.645	-84
201.713	-284
201.781	-312
201.850	237
201.918	141
201.986	-82
202.055	-267
202.123	82
202.191	-612
202.259	-586
202.327	-120
202.396	165
202.464	-102
202.532	151
202.600	-178
202.669	-724
202.737	-215
202.805	-660
202.873	-171
202.941	-110
203.009	-1218
203.078	-66
203.146	-132
203.214	-491
203.282	-1013
203.350	977
203.418	-1567
203.487	-256
203.555	764
203.623	107
203.691	-106
203.759	45
203.827	-82
203.895	-677
203.963	-812
204.031	7
204.099	-591
204.168	-114
204.236	-48
204.304	744
204.372	-41
204.440	-1055
204.508	-964
204.576	-1235
204.644	-228
204.712	-843
204.780	-317
204.848	495
204.916	-1674
204.984	-723
205.052	-147
205.120	-336
205.188	28
205.256	-771
205.324	-425
205.392	-317
205.460	-497
205.528	27
205.596	-422
205.664	-484
205.732	-1067
205.799	-35
205.867	-449
205.935	-661
206.003	392
206.071	-114
206.139	-333
206.207	257
206.275	-544
206.343	-37
206.411	37
206.478	-74
206.546	-588
206.614	-896
206.682	-677
206.750	-798
206.818	463
206.885	229
206.953	-1944
207.021	746
207.089	159
207.157	-813
207.225	196
207.292	-653
207.360	-571
207.428	-126
207.496	-295
207.563	-585
207.631	-292
207.699	-815
207.767	-750
207.834	-124
207.902	-358
207.970	-850
208.038	-5
208.105	-389
208.173	-337
208.241	-372
208.309	-441
208.376	556
208.444	-326
208.512	-783
208.579	-1444
208.647	365
208.715	-674
208.782	-438
208.850	-110
208.918	-186
208.985	-474
209.053	-514
209.120	-632
209.188	-236
209.256	-1151
209.323	-1018
209.391	-191
209.459	1536
209.526	-465
209.594	-667
209.661	-487
209.729	-895
209.796	-408
209.864	-635
209.932	-470
209.999	1200
210.067	-1366
210.134	-315
210.202	-823
210.269	-416
210.337	-339
210.404	-846
210.472	-806
210.539	-324
210.607	-492
210.674	-942
210.742	-73
210.809	-34
210.877	-739
210.944	653
211.012	-1803
211.079	1220
211.146	-739
211.214	-914
211.281	-429
211.349	-398
211.416	-447
211.484	-706
211.551	-1233
211.618	-219
211.686	-389
211.753	-1266
211.821	-296
211.888	169
211.955	-402
212.023	-745
212.090	-736
212.157	212
212.225	-1103
212.292	-1026
212.359	-419
212.427	910
212.494	479
212.561	-513
212.629	-26
212.696	-53
212.763	-1025
212.831	-1423
212.898	-249
212.965	-491
213.032	579
213.100	-76
213.167	-801
213.234	1079
213.301	-249
213.369	360
213.436	-496
213.503	-229
213.570	159
213.638	-696
213.705	-1506
213.772	-740
213.839	-367
213.906	29
213.973	-131
214.041	-726
214.108	-10
214.175	56
214.242	-506
214.309	-761
214.376	86
214.444	-200
214.511	-952
214.578	-793
214.645	212
214.712	-282
214.779	-519
214.846	-1033
214.913	-135
214.980	-1168
215.048	-639
215.115	98
215.182	-693
215.249	13
215.316	-191
215.383	159
215.450	-77
215.517	-711
215.584	-259
215.651	-227
215.718	-606
215.785	-129
215.852	-702
215.919	640
215.986	431
216.053	-599
216.120	-1336
216.187	-108
216.254	-242
216.321	-1117
216.388	-903
216.455	-683
216.522	584
216.589	193
216.656	-151
216.722	-356
216.789	-331
216.856	-196
216.923	-896
216.990	94
217.057	-602
217.124	-902
217.191	-611
217.258	-48
217.324	-193
217.391	68
217.458	-420
217.525	-657
217.592	-338
217.659	-1087
217.725	-121
217.792	-903
217.859	525
217.926	-307
217.993	-699
218.059	-158
218.126	448
218.193	-330
218.260	-786
218.327	-163
218.393	16
218.460	-331
218.527	-1296
218.594	-470
218.660	-501
218.727	618
218.794	-1281
218.860	703
218.927	-914
218.994	-764
219.061	-978
219.127	-1009
219.194	-532
219.261	399
219.327	-1134
219.394	190
219.461	-1078
219.527	-385
219.594	267
219.661	-257
219.727	-594
219.794	495
219.860	-966
219.927	-273
219.994	67
220.060	-748
220.127	-240
220.193	-538
220.260	-1285
220.326	26
220.393	-504
220.460	447
220.526	-1003
220.593	-477
220.659	1134
220.726	-229
220.792	333
220.859	-188
220.925	-7
220.992	905
221.058	849
221.125	-477
221.191	-85
221.258	-742
221.324	-397
221.391	-411
221.457	-716
221.524	4
221.590	-133
221.657	387
221.723	-341
221.789	372
221.856	970
221.922	-526
221.989	-263
222.055	-19
222.121	-861
222.188	466
222.254	-388
222.321	-1052
222.387	-392
222.453	-582
222.520	-177
222.586	-1062
222.652	-360
222.719	-1401
222.785	320
222.851	-66
222.918	-592
222.984	-647
223.050	-702
223.116	-197
223.183	-157
223.249	-613
223.315	-1383
223.382	-63
223.448	-1165
223.514	-515
223.580	-575
223.647	-729
223.713	-1275
223.779	-237
223.845	-490
223.911	730
223.978	-1643
224.044	-510
224.110	-524
224.176	240
224.242	-66
224.309	-984
224.375	141
224.441	-677
224.507	-1192
224.573	-1205
224.639	-1166
224.705	-1225
224.772	-740
224.838	-1042
224.904	-1030
224.970	-530
225.036	-2018
225.102	-942
225.168	-226
225.234	258
225.300	-1239
225.366	-519
225.432	-172
225.499	-452
225.565	-452
225.631	-39
225.697	-676
225.763	-658
225.829	-439
225.895	-877
225.961	-84
226.027	-276
226.093	-651
226.159	-39
226.225	121
226.291	1010
226.357	881
226.423	312
226.489	-980
226.554	-266
226.620	-70
226.686	-528
226.752	-145
226.818	171
226.884	868
226.950	1499
227.016	-703
227.082	661
227.148	-284
227.214	-120
227.279	-554
227.345	-209
227.411	130
227.477	-277
227.543	-106
227.609	-239
227.674	215
227.740	-835
227.806	-516
227.872	-327
227.938	-394
228.003	559
228.069	-678
228.135	-434
228.201	-689
228.267	-1197
228.332	-746
228.398	-1356
228.464	-24
228.530	-385
228.595	-147
228.661	-659
228.727	-459
228.792	757
228.858	-620
228.924	-1895
228.990	985
229.055	-1295
229.121	-128
229.187	209
229.252	-1689
229.318	-700
229.384	-83
229.449	43
229.515	-1927
229.581	-1558
229.646	770
229.712	37
229.777	-534
229.843	-327
229.909	-999
229.974	285
230.040	-409
230.105	-77
230.171	-1142
230.236	528
230.302	135
230.368	-462
230.433	-722
230.499	375
230.564	625
230.630	-1084
230.695	-454
230.761	518
230.826	-2002
230.892	822
230.957	-1071
231.023	-545
231.088	-569
231.154	-1160
231.219	-92
231.284	-1075
231.350	190
231.415	-785
231.481	-580
231.546	-98
231.612	-11
231.677	-471
231.742	-1160
231.808	716
231.873	-672
231.939	-2274
232.004	765
232.069	828
232.135	-625
232.200	-613
232.265	96
232.331	-464
232.396	-967
232.461	-749
232.527	-979
232.592	-1321
232.657	-1011
232.723	514
232.788	-1046
232.853	299
232.918	-593
232.984	-1158
233.049	-188
233.114	-1435
233.179	-662
233.245	345
233.310	-363
233.375	-702
233.440	-411
233.506	-834
233.571	-709
233.636	18
233.701	-1068
233.766	-877
233.832	-376
233.897	-481
233.962	-1329
234.027	1470
234.092	38
234.157	-635
234.222	-593
234.288	-1044
234.353	203
234.418	516
234.483	201
234.548	230
234.613	-858
234.678	21
234.743	-1280
234.808	1778
234.873	-904
234.938	647
235.004	-181
235.069	159
235.134	-1068
235.199	130
235.264	-462
235.329	-1499
235.394	602
235.459	210
235.524	-1067
235.589	346
235.654	-381
235.719	-1540
235.784	422
235.849	-139
235.913	-725
235.978	475
236.043	110
236.108	-378
236.173	-750
236.238	702
236.303	-135
236.368	-715
236.433	239
236.498	-393
236.563	289
236.627	-205
236.692	2579
236.757	1645
236.822	296
236.887	-96
236.952	614
237.017	-1266
237.081	737
237.146	-165
237.211	1232
237.276	1348
237.341	4345
237.405	1639
237.470	-179
237.535	621
237.600	215
237.664	506
237.729	-869
237.794	-845
237.859	197
237.923	602
237.988	-386
238.053	314
238.118	298
238.182	-74
238.247	1417
238.312	-17
238.376	735
238.441	-1784
238.506	263
238.570	-807
238.635	534
238.700	-25
238.764	-526
238.829	887
238.893	-1089
238.958	450
239.023	-868
239.087	25
239.152	10
239.216	-436
239.281	-315
239.346	65
239.410	-781
239.475	-1055
239.539	566
239.604	-464
239.668	-111
239.733	-665
239.797	-225
239.862	541
239.926	192
239.991	-252
240.055	196
240.120	38
240.184	-109
240.249	-295
240.313	-1122
240.378	-230
240.442	531
240.507	660
240.571	-468
240.635	-436
240.700	-524
240.764	203
240.829	-347
240.893	-1242
240.957	-379
241.022	65
241.086	720
241.151	-759
241.215	-1993
241.279	206
241.344	-1217
241.408	555
241.472	33
241.537	1008
241.601	-9
241.665	-587
241.730	-768
241.794	1225
241.858	-334
241.922	312
241.987	602
242.051	-247
242.115	-1174
242.179	199
242.244	-725
242.308	1078
242.372	-714
242.436	-384
242.501	4
242.565	-572
242.629	-1144
242.693	792
242.757	-576
242.822	-600
242.886	27
242.950	-53
243.014	-514
243.078	412
243.142	104
243.206	-994
243.271	-37
243.335	-664
243.399	207
243.463	499
243.527	2924
243.591	269
243.655	-454
243.719	54
243.783	291
243.847	429
243.911	928
243.975	-76
244.040	-658
244.104	1564
244.168	322
244.232	-202
244.296	-369
244.360	387
244.424	-1624
244.488	537
244.552	99
244.615	-1748
244.679	393
244.743	-92
244.807	-1297
244.871	156
244.935	440
244.999	-1298
245.063	-215
245.127	968
245.191	574
245.255	-413
245.319	46
245.383	-731
245.446	1049
245.510	-942
245.574	-344
245.638	778
245.702	-1405
245.766	337
245.829	1424
245.893	-164
245.957	-1134
246.021	238
246.085	-320
246.149	-557
246.212	901
246.276	705
246.340	758
246.404	-145
246.467	1517
246.531	-946
246.595	588
246.659	1044
246.722	-986
246.786	483
246.850	-158
246.913	56
246.977	-1431
247.041	-15
247.104	-125
247.168	433
247.232	306
247.295	2109
247.359	1501
247.423	6
247.486	-22
247.550	771
247.614	-469
247.677	397
247.741	-61
247.804	-394
247.868	226
247.932	288
247.995	2237
248.059	1055
248.122	-1202
248.186	1335
248.249	626
248.313	3568
248.376	4454
248.440	2589
248.503	-85
248.567	1858
248.630	-963
248.694	1194
248.757	2934
248.821	3950
248.884	3987
248.948	1738
249.011	3635
249.075	5109
249.138	4392
249.202	2671
249.265	649
249.328	1559
249.392	-489
249.455	437
249.519	216
249.582	454
249.645	879
249.709	892
249.772	299
249.835	785
249.899	-829
249.962	-144
250.025	-1084
250.089	1427
250.152	2772
250.215	1563
250.279	-385
250.342	1532
250.405	1427
250.468	-256
250.532	494
250.595	1040
250.658	1678
250.721	6495
250.785	1650
250.848	2182
250.911	-179
250.974	2239
251.038	160
251.101	2454
251.164	1201
251.227	1906
251.290	951
251.354	399
251.417	4147
251.480	5194
251.543	3346
251.606	9129
251.669	7820
251.732	2902
251.795	2948
251.859	3735
251.922	4942
251.985	3973
252.048	1264
252.111	687
252.174	684
252.237	2746
252.300	5086
252.363	4237
252.426	8044
252.489	3169
252.552	1918
252.615	332
252.678	1207
252.741	3502
252.804	3303
252.867	8005
252.930	6471
252.993	2958
253.056	1824
253.119	1042
253.182	773
253.245	621
253.308	2106
253.371	501
253.434	771
253.497	1303
253.559	3439
253.622	1430
253.685	1639
253.748	3121
253.811	880
253.874	1547
253.937	261
254.000	734
254.062	1192
254.125	2370
254.188	2977
254.251	1538
254.314	821
254.376	1035
254.439	1421
254.502	2247
254.565	473
254.628	3901
254.690	1542
254.753	-138
254.816	246
254.878	643
254.941	1240
255.004	1579
255.067	464
255.129	792
255.192	76
255.255	-550
255.317	-832
255.380	436
255.443	-683
255.505	357
255.568	-1069
255.631	-586
255.693	183
255.756	-1050
255.819	533
255.881	-1022
255.944	-190
256.006	-128
256.069	-617
256.132	-269
256.194	-597
256.257	437
256.319	-906
256.382	-773
256.444	149
256.507	-148
256.569	-695
256.632	-292
256.694	-292
256.757	1604
256.819	3365
256.882	183
256.944	-13
257.007	957
257.069	-112
257.132	285
257.194	941
257.257	-911
257.319	-346
257.381	-839
257.444	279
257.506	4285
257.569	5163
257.631	1986
257.693	973
257.756	-348
257.818	-100
257.880	-234
257.943	-122
258.005	-867
258.067	-654
258.130	-235
258.192	-595
258.254	609
258.317	151
258.379	416
258.441	237
258.503	1162
258.566	326
258.628	1795
258.690	-589
258.753	668
258.815	258
258.877	-451
258.939	-760
259.001	-383
259.064	-628
259.126	-397
259.188	44
259.250	-147
259.312	460
259.375	529
259.437	396
259.499	-481
259.561	-464
259.623	611
259.685	-836
259.747	15
259.809	-272
259.872	2129
259.934	2680
259.996	4642
260.058	1191
260.120	-556
260.182	-647
260.244	-66
260.306	-650
260.368	-71
260.430	-1165
260.492	403
260.554	743
260.616	417
260.678	879
260.740	1413
260.802	-257
260.864	407
260.926	-1649
260.988	1335
261.050	-661
261.112	-531
261.174	1969
261.236	1357
261.298	-147
261.359	342
261.421	1202
261.483	-488
261.545	-23
261.607	-823
261.669	-30
261.731	294
261.793	1577
261.854	-347
261.916	70
261.978	-288
262.040	168
262.102	-126
262.164	-408
262.225	316
262.287	-262
262.349	140
262.411	188
262.472	128
262.534	-740
262.596	1348
262.658	486
262.719	-1141
262.781	443
262.843	-39
262.904	-237
262.966	-219
263.028	-114
263.090	1793
263.151	4048
263.213	2137
263.275	-246
263.336	-315
263.398	581
263.459	-1468
263.521	-928
263.583	464
263.644	644
263.706	-150
263.767	-1500
263.829	90
263.891	-832
263.952	-344
264.014	-1278
264.075	-1131
264.137	111
264.198	1361
264.260	-580
264.321	-1112
264.383	101
264.444	2154
264.506	-71
264.567	11
264.629	279
264.690	-101
264.752	-36
264.813	-4
264.875	-709
264.936	411
264.998	-932
265.059	-1048
265.120	-860
265.182	-954
265.243	554
265.305	1144
265.366	-518
265.427	-855
265.489	-217
265.550	-1009
265.611	-245
265.673	-671
265.734	-826
265.795	-776
265.857	-1529
265.918	-1564
265.979	-281
266.040	2486
266.102	2547
266.163	705
266.224	392
266.286	-1043
266.347	-1118
266.408	-501
266.469	-127
266.530	-46
266.592	-776
266.653	662
266.714	116
266.775	-267
266.836	-771
266.898	-971
266.959	-1472
267.020	-350
267.081	-211
267.142	-297
267.203	-684
267.264	-1252
267.326	597
267.387	-683
267.448	-1555
267.509	-226
267.570	-678
267.631	-268
267.692	-1357
267.753	-895
267.814	-978
267.875	202
267.936	95
267.997	-183
268.058	-940
268.119	-759
268.180	-947
268.241	-1297
268.302	-1033
268.363	-955
268.424	-552
268.485	-253
268.546	-966
268.607	-1165
268.668	-408
268.729	-1505
268.790	-1177
268.851	-459
268.912	53
268.972	943
269.033	-1027
269.094	-283
269.155	-636
269.216	-571
269.277	-970
269.338	-447
269.398	-466
269.459	-656
269.520	-168
269.581	583
269.642	1060
269.702	-974
269.763	-397
269.824	-762
269.885	-669
269.945	1205
270.006	355
270.067	-1429
270.128	-820
270.188	-179
270.249	-1614
270.310	-168
270.370	-316
270.431	-404
270.492	-1009
270.553	-504
270.613	-273
270.674	1791
270.734	-207
270.795	18
270.856	59
270.916	-359
270.977	-528
271.038	-426
271.098	-520
271.159	-60
271.219	-539
271.280	-272
271.340	-879
271.401	-882
271.462	741
271.522	-34
271.583	-839
271.643	-322
271.704	-989
271.764	-306
271.825	593
271.885	5034
271.946	6523
272.006	2718
272.066	2391
272.127	6045
272.187	1026
272.248	-542
272.308	116
272.369	3679
272.429	2153
272.489	750
272.550	589
272.610	2110
272.671	455
272.731	259
272.791	21
272.852	287
272.912	-55
272.972	-591
273.033	-695
273.093	399
273.153	907
273.214	117
273.274	139
273.334	1805
273.394	3497
273.455	1768
273.515	822
273.575	3789
273.635	1609
273.696	1505
273.756	3939
273.816	1710
273.876	-228
273.936	817
273.997	2185
274.057	558
274.117	575
274.177	116
274.237	5002
274.297	5882
274.358	2148
274.418	4124
274.478	2512
274.538	566
274.598	-892
274.658	1408
274.718	2162
274.778	877
274.838	-169
274.898	-98
274.958	3501
275.018	4825
275.078	3064
275.138	1057
275.198	-225
275.258	-240
275.318	15
275.378	932
275.438	1516
275.498	1065
275.558	1098
275.618	3813
275.678	2504
275.738	2104
275.798	912
275.858	236
275.918	-218
275.978	-566
276.038	-180
276.098	-523
276.157	183
276.217	3836
276.277	1516
276.337	1290
276.397	-1092
276.457	412
276.517	172
276.576	-382
276.636	-794
276.696	-261
276.756	1590
276.815	1762
276.875	-302
276.935	-31
276.995	407
277.055	-58
277.114	-1003
277.174	-610
277.234	2650
277.293	208
277.353	-364
277.413	-279
277.472	-577
277.532	-140
277.592	-321
277.651	1347
277.711	3290
277.771	730
277.830	4464
277.890	4484
277.950	1356
278.009	6407
278.069	2546
278.128	1770
278.188	3415
278.248	1461
278.307	3055
278.367	2918
278.426	-838
278.486	-77
278.545	-594
278.605	-299
278.664	-1068
278.724	219
278.783	885
278.843	4312
278.902	334
278.962	-230
279.021	18
279.081	573
279.140	-433
279.199	342
279.259	376
279.318	351
279.378	120
279.437	798
279.496	6590
279.556	17661
279.615	15135
279.675	3679
279.734	1285
279.793	2976
279.853	6434
279.912	2453
279.971	243
280.031	627
280.090	1326
280.149	5176
280.208	2057
280.268	10215
280.327	12670
280.386	2341
280.445	2075
280.505	2760
280.564	801
280.623	114
280.682	256
280.742	2362
280.801	-271
280.860	-559
280.919	-973
280.978	-933
281.037	-1028
281.097	-43
281.156	-565
281.215	-30
281.274	-857
281.333	2163
281.392	1643
281.451	111
281.510	-310
281.569	-669
281.628	-884
281.688	52
281.747	-98
281.806	-1202
281.865	-902
281.924	-913
281.983	-870
282.042	-945
282.101	-325
282.160	413
282.219	-1025
282.278	-1326
282.337	943
282.396	1160
282.454	-496
282.513	-1106
282.572	3058
282.631	1816
282.690	-771
282.749	-478
282.808	-141
282.867	-34
282.926	253
282.985	-76
283.043	-1643
283.102	-688
283.161	-374
283.220	395
283.279	2130
283.338	559
283.396	-1934
283.455	-767
283.514	230
283.573	991
283.631	640
283.690	-461
283.749	-1236
283.808	1099
283.866	1216
283.925	-1188
283.984	279
284.043	218
284.101	-93
284.160	-203
284.219	-639
284.277	-561
284.336	-219
284.395	4959
284.453	4024
284.512	1668
284.570	1192
284.629	1631
284.688	-87
284.746	501
284.805	1729
284.863	1913
284.922	2817
284.981	3173
285.039	4797
285.098	8967
285.156	19233
285.215	27984
285.273	27076
285.332	24332
285.390	12261
285.449	7636
285.507	4931
285.566	3010
285.624	2108
285.683	1834
285.741	1111
285.799	743
285.858	461
285.916	769
285.975	-267
286.033	-393
286.091	-190
286.150	-468
286.208	-304
286.267	492
286.325	-348
286.383	624
286.442	1194
286.500	-563
286.558	-937
286.616	-461
286.675	131
286.733	880
286.791	-545
286.850	-261
286.908	338
286.966	1723
287.024	93
287.083	-829
287.141	-1171
287.199	-126
287.257	326
287.315	-170
287.374	-399
287.432	1609
287.490	845
287.548	-764
287.606	66
287.664	-548
287.723	-730
287.781	667
287.839	-779
287.897	-649
287.955	-1230
288.013	725
288.071	1074
288.129	6840
288.187	27472
288.245	14466
288.303	3228
288.361	983
288.419	-210
288.477	527
288.535	27
288.593	-167
288.651	-33
288.709	-677
288.767	-807
288.825	-687
288.883	-635
288.941	-641
288.999	-900
289.057	-253
289.115	-1073
289.173	-1247
289.231	-19
289.289	-774
289.346	-1219
289.404	-530
289.462	57
289.520	1754
289.578	-328
289.636	-695
289.694	-1112
289.751	-721
289.809	-512
289.867	-719
289.925	-250
289.983	250
290.040	-1032
290.098	-422
290.156	-932
290.214	798
290.271	-1091
290.329	-824
290.387	-758
290.444	-1061
290.502	-2086
290.560	-497
290.617	-1282
290.675	-1095
290.733	-881
290.790	303
290.848	-592
290.906	-214
290.963	-412
291.021	-351
291.078	-1273
291.136	-1373
291.194	37
291.251	4554
291.309	677
291.366	-1064
291.424	-206
291.481	594
291.539	-885
291.596	-134
291.654	-1012
291.711	-1278
291.769	-646
291.826	899
291.884	467
291.941	-837
291.999	-1134
292.056	-703
292.114	-457
292.171	-411
292.228	-519
292.286	13
292.343	709
292.401	1793
292.458	230
292.515	-685
292.573	52
292.630	-121
292.687	292
292.745	-361
292.802	-739
292.859	1574
292.917	4136
292.974	3005
293.031	162
293.089	-501
293.146	-641
293.203	-223
293.260	-563
293.318	-74
293.375	-164
293.432	-505
293.489	-228
293.546	-554
293.604	-1072
293.661	1760
293.718	7423
293.775	3604
293.832	2019
293.889	1289
293.947	185
294.004	531
294.061	-330
294.118	1664
294.175	3611
294.232	4622
294.289	1492
294.346	451
294.403	-538
294.460	233
294.517	-202
294.574	-557
294.631	-605
294.688	-1032
294.745	740
294.802	7734
294.859	9083
294.916	3832
294.973	1655
295.030	1082
295.087	507
295.144	308
295.201	175
295.258	820
295.315	261
295.372	3153
295.429	6154
295.486	2934
295.542	714
295.599	2422
295.656	5324
295.713	4039
295.770	5643
295.827	1919
295.883	574
295.940	-46
295.997	727
296.054	1909
296.111	809
296.167	628
296.224	-409
296.281	-405
296.338	-1677
296.394	-753
296.451	-33
296.508	2333
296.564	4487
296.621	3676
296.678	7404
296.734	11491
296.791	4293
296.848	2332
296.904	1194
296.961	5125
297.018	7737
297.074	6143
297.131	1659
297.187	-383
297.244	1150
297.301	4935
297.357	11707
297.414	5419
297.470	1988
297.527	4
297.583	-15
297.640	570
297.696	-328
297.753	-608
297.809	-916
297.866	-623
297.922	-847
297.979	-498
298.035	-695
298.092	616
298.148	2899
298.204	3216
298.261	591
298.317	2535
298.374	8854
298.430	5598
298.486	1685
298.543	492
298.599	-164
298.656	1207
298.712	2287
298.768	5721
298.824	3670
298.881	494
298.937	544
298.993	743
299.050	450
299.106	501
299.162	293
299.218	342
299.275	-250
299.331	-225
299.387	935
299.443	6719
299.500	10191
299.556	4544
299.612	1962
299.668	1443
299.724	1082
299.780	1718
299.837	846
299.893	798
299.949	5929
300.005	8725
300.061	7459
300.117	12605
300.173	6445
300.229	2237
300.285	2170
300.341	4651
300.397	1916
300.453	706
300.510	225
300.566	340
300.622	649
300.678	3811
300.734	8928
300.790	7891
300.845	8587
300.901	5472
300.957	7510
301.013	7276
301.069	2567
301.125	772
301.181	883
301.237	-69
301.293	-587
301.349	-104
301.405	316
301.461	-230
301.516	-323
301.572	554
301.628	1445
301.684	2490
301.740	2260
301.796	4168
301.851	3331
301.907	6426
301.963	5804
302.019	7256
302.074	20742
302.130	25008
302.186	13931
302.242	5373
302.297	2837
302.353	2588
302.409	4099
302.464	4156
302.520	3059
302.576	8319
302.631	11553
302.687	7509
302.743	2733
302.798	876
302.854	259
302.910	337
302.965	1140
303.021	2807
303.076	3569
303.132	4158
303.187	5462
303.243	2601
303.299	702
303.354	392
303.410	401
303.465	-381
303.521	471
303.576	-291
303.632	140
303.687	1493
303.743	6957
303.798	7230
303.853	2571
303.909	976
303.964	318
304.020	1691
304.075	3818
304.130	3712
304.186	7220
304.241	9012
304.297	5978
304.352	2632
304.358	2443
304.407	908
304.449	1914
304.463	2257
304.518	1206
304.539	1471
304.573	1883
304.629	1011
304.630	1034
304.684	2122
304.720	4148
304.739	5153
304.794	9444
304.811	8203
304.850	5228
304.902	2316
304.905	2128
304.960	728
304.992	434
305.015	229
305.071	809
305.083	747
305.126	474
305.173	133
305.181	96
305.236	230
305.264	134
305.292	-16
305.347	813
305.354	761
305.402	509
305.445	840
305.457	919
305.512	1183
305.535	1429
305.567	1809
305.622	1473
305.626	1514
305.678	2507
305.716	5769
305.733	6975
305.788	8863
305.807	7874
305.843	6204
305.897	6749
305.898	6748
305.953	7480
305.988	5856
306.008	4976
306.063	2448
306.078	2169
306.118	1548
306.168	409
306.173	310
306.228	423
306.259	372
306.283	304
306.338	63
306.349	36
306.393	-72
306.440	143
306.448	211
306.503	247
306.530	585
306.558	1098
306.613	2132
306.620	2625
306.668	6129
306.711	8161
306.723	8312
306.778	7686
306.801	5998
306.833	4134
306.888	2273
306.892	2131
306.943	538
306.982	731
306.997	864
307.052	912
307.072	797
307.107	680
307.162	1218
307.163	1219
307.217	1266
307.253	1429
307.272	1527
307.327	1898
307.343	1726
307.381	1391
307.434	1709
307.436	1775
307.491	2835
307.524	5045
307.546	5886
307.600	6847
307.614	6233
307.655	4081
307.704	1449
307.710	1264
307.765	1500
307.795	1707
307.819	2033
307.874	3570
307.885	3489
307.929	2583
307.975	2916
307.984	2989
308.038	2031
308.065	2185
308.093	4286
308.148	10172
308.156	11824
308.202	20105
308.246	25764
308.257	25682
308.312	14856
308.336	10897
308.366	8544
308.421	6868
308.426	6617
308.475	3864
308.517	2189
308.530	1932
308.585	1228
308.607	1342
308.639	1574
308.694	1531
308.697	1554
308.748	2475
308.787	3477
308.803	3529
308.857	3356
308.877	2950
308.912	2685
308.967	2620
308.967	2621
309.021	3529
309.058	4316
309.076	5272
309.130	9824
309.148	11354
309.185	18869
309.238	32009
309.239	32078
309.293	37016
309.328	33538
309.348	29316
309.402	14577
309.418	10977
309.457	7414
309.508	4640
309.511	4568
309.566	4252
309.598	4984
309.620	6083
309.674	9434
309.688	10356
309.729	10022
309.778	7491
309.783	7297
309.837	5283
309.868	4220
309.892	5396
309.946	9058
309.959	10430
310.001	13861
310.049	16867
310.055	16425
310.109	9782
310.139	6007
310.163	4646
310.218	2202
310.229	1944
310.272	1956
310.319	1980
310.326	1908
310.381	1275
310.409	1028
310.435	1131
310.489	1473
310.499	1502
310.543	1232
310.589	935
310.598	950
310.652	1299
310.679	1386
310.706	1258
310.760	777
310.769	733
310.814	974
310.859	1126
310.868	1137
310.923	1171
310.948	1185
310.977	1402
311.031	1950
311.038	2015
311.085	1603
311.128	1089
311.139	1156
311.193	1502
311.218	1717
311.247	1758
311.301	1600
311.308	1583
311.356	1486
311.398	1459
311.410	1395
311.464	997
311.488	784
311.518	926
311.572	1311
311.578	1347
311.626	2015
311.668	2590
311.680	2546
311.734	2228
311.758	2090
311.788	2122
311.842	2181
311.847	2184
311.896	2848
311.937	3409
311.950	3285
312.004	2721
312.027	2457
312.058	2344
312.112	2151
312.117	2131
312.165	2022
312.207	1930
312.297	2451
312.386	774
312.476	2826
312.566	3643
312.656	1867
312.745	436
312.835	1190
312.925	1667
313.015	2340
313.104	1034
313.194	958
313.284	1576
313.374	1619
313.463	1906
313.553	1464
313.643	1250
313.732	1694
313.822	848
313.912	2202
314.001	1620
314.091	2307
314.180	1891
314.270	2838
314.360	2487
314.449	1855
314.539	1492
314.628	1956
314.718	2142
314.808	1898
314.897	1694
314.987	2209
315.076	1526
315.166	3208
315.255	2284
315.345	2276
315.434	2288
315.524	2535
315.613	1689
315.703	2939
315.792	2810
315.881	5159
315.971	2138
316.060	3430
316.150	3755
316.239	4023
316.328	2024
316.418	2099
316.507	1770
316.597	2770
316.686	2305
316.775	1943
316.865	3514
316.954	1432
317.043	900
317.133	1329
317.222	1481
317.311	2209
317.400	-160
317.490	3852
317.579	1923
317.668	1164
317.757	2205
317.847	3969
317.936	6801
318.025	6269
318.114	2690
318.203	2296
318.293	3564
318.382	6725
318.471	4927
318.560	6541
318.649	8388
318.738	1632
318.828	1716
318.917	2448
319.006	1593
319.095	5216
319.184	13175
319.273	9604
319.362	5237
319.451	1924
319.540	2220
319.629	5327
319.718	6565
319.807	3077
319.896	5549
319.985	16363
320.074	5871
320.163	2462
320.252	2449
320.341	2960
320.430	1803
320.519	3736
320.608	1741
320.697	2138
320.786	1857
320.875	3763
320.964	3067
321.053	5457
321.142	7097
321.230	7114
321.319	5787
321.408	12940
321.497	4964
321.586	5493
321.675	4383
321.764	5238
321.852	3666
321.941	7735
322.030	4070
322.119	5522
322.207	12020
322.296	6854
322.385	3635
322.474	5440
322.562	15215
322.651	6662
322.740	6293
322.829	7695
322.917	4861
323.006	4911
323.095	4706
323.183	2156
323.272	3460
323.361	5686
323.449	11798
323.538	4785
323.626	9859
323.715	5365
323.804	2503
323.892	8447
323.981	5142
324.069	2871
324.158	3957
324.246	4089
324.335	3325
324.424	5277
324.512	1957
324.601	2504
324.689	3191
324.778	3815
324.866	3639
324.954	1289
325.043	927
325.131	2540
325.220	4731
325.308	4787
325.397	4578
325.485	2460
325.574	1677
325.662	1874
325.750	862
325.839	2367
325.927	1589
326.015	2149
326.104	2060
326.192	1940
326.280	2170
326.369	1501
326.457	2052
326.545	4670
326.634	1064
326.722	955
326.810	469
326.898	1549
326.987	1888
327.075	3036
327.163	3256
327.251	1633
327.340	1174
327.428	1964
327.516	916
327.604	1919
327.692	1456
327.781	919
327.869	2437
327.957	1134
328.045	1487
328.133	2236
328.221	1133
328.309	1636
328.397	1880
328.485	2129
328.574	2535
328.662	8856
328.750	3179
328.838	1814
328.926	1203
329.014	1158
329.102	1201
329.190	5310
329.278	2352
329.366	1365
329.454	881
329.542	1188
329.630	262
329.718	1314
329.806	1390
329.893	1697
329.981	468
330.069	1428
330.157	3457
330.245	10092
330.333	5612
330.421	1509
330.509	2397
330.597	10505
330.684	5584
330.772	2212
330.860	1271
330.948	2708
331.036	1337
331.123	1912
331.211	546
331.299	1117
331.387	3599
331.475	4593
331.562	1277
331.650	940
331.738	1092
331.825	1972
331.913	1068
332.001	1103
332.089	776
332.176	2477
332.264	3722
332.352	2847
332.439	1415
332.527	1558
332.614	377
332.702	934
332.790	888
332.877	2553
332.965	3581
333.052	1200
333.140	1260
333.228	3751
333.315	813
333.403	1660
333.490	2252
333.578	2176
333.665	3819
333.753	2526
333.840	1186
333.928	1194
334.015	2890
334.103	4420
334.190	13457
334.278	4022
334.365	2978
334.452	2545
334.540	978
334.627	1312
334.715	2200
334.802	3753
334.889	12853
334.977	12283
335.064	3047
335.151	1843
335.239	1755
335.326	1953
335.413	8797
335.501	9458
335.588	1917
335.675	1539
335.762	1080
335.850	3346
335.937	1988
336.024	4441
336.111	17367
336.199	8161
336.286	2336
336.373	1471
336.460	762
336.547	787
336.635	1557
336.722	1530
336.809	609
336.896	2548
336.983	5896
337.070	11985
337.157	14762
337.245	8921
337.332	5330
337.419	1338
337.506	530
337.593	1681
337.680	4146
337.767	12330
337.854	3891
337.941	4162
338.028	3683
338.115	714
338.202	2075
338.289	3043
338.376	10275
338.463	2998
338.550	7150
338.637	6839
338.724	1764
338.811	3972
338.898	842
338.984	1557
339.071	1274
339.158	1610
339.245	4605
339.332	3025
339.419	2455
339.506	3026
339.593	438
339.679	2055
339.766	188
339.853	1931
339.940	3903
340.027	1876
340.113	1821
340.200	1369
340.287	1393
340.374	1900
340.460	3643
340.547	1027
340.634	3130
340.720	9647
340.807	3753
340.894	1644
340.980	1114
341.067	1167
341.154	2500
341.240	1980
341.327	5693
341.414	1604
341.500	853
341.587	1953
341.674	1912
341.760	4414
341.847	3666
341.933	565
342.020	-42
342.106	1299
342.193	1971
342.279	2198
342.366	858
342.452	3733
342.539	1380
342.625	5325
342.712	9162
342.798	5121
342.885	1355
342.971	251
343.058	518
343.144	981
343.230	1692
343.317	1433
343.403	1065
343.490	1205
343.576	266
343.662	720
343.749	971
343.835	1772
343.921	2508
344.008	15834
344.094	30654
344.180	6589
344.267	3147
344.353	9231
344.439	8200
344.525	4982
344.612	1583
344.698	2002
344.784	576
344.870	1726
344.957	917
345.043	2941
345.129	1233
345.215	4252
345.301	1458
345.387	1340
345.474	69
345.560	816
345.646	6
345.732	1449
345.818	812
345.904	790
345.990	926
346.076	1328
346.162	1027
346.249	2336
346.335	687
346.421	1508
346.507	3378
346.593	13637
346.679	2038
346.765	2206
346.851	931
346.937	830
347.023	1249
347.108	1432
347.194	1083
347.280	658
347.366	1147
347.452	4453
347.538	14930
347.624	12957
347.710	9926
347.796	2223
347.882	1273
347.967	1319
348.053	1295
348.139	843
348.225	473
348.311	870
348.397	614
348.482	1405
348.568	1336
348.654	635
348.740	648
348.825	401
348.911	2347
348.997	7988
349.083	13381
349.168	1330
349.254	525
349.340	1967
349.425	304
349.511	1905
349.597	949
349.682	2764
349.768	9292
349.854	4776
349.939	1330
350.025	965
350.110	848
350.196	1184
350.282	81
350.367	1125
350.453	930
350.538	670
350.624	901
350.709	2204
350.795	402
350.880	1027
350.966	1452
351.051	1094
351.137	545
351.222	2071
351.308	3418
351.393	9789
351.479	2070
351.564	615
351.649	1351
351.735	866
351.820	168
351.906	1484
351.991	238
352.076	6189
352.162	9530
352.247	2254
352.332	1234
352.418	2160
352.503	3050
352.588	16179
352.673	12778
352.759	3133
352.844	1408
352.929	2579
353.014	1832
353.100	2482
353.185	2852
353.270	3531
353.355	4293
353.441	2154
353.526	958
353.611	3651
353.696	3199
353.781	3214
353.866	22
353.952	2424
354.037	3284
354.122	9265
354.207	6593
354.292	2445
354.377	1382
354.462	2078
354.547	1754
354.632	1988
354.717	2581
354.802	3296
354.887	1263
354.972	1627
355.057	945
355.142	1418
355.227	1991
355.312	3045
355.397	5223
355.482	12649
355.567	5077
355.652	4799
355.737	3859
355.822	11444
355.907	8226
355.991	3086
356.076	409
356.161	2004
356.246	937
356.331	2384
356.416	1765
356.501	18197
356.585	15263
356.670	2173
356.755	3437
356.840	3209
356.924	13515
357.009	41234
357.094	16142
357.179	3163
357.263	2551
357.348	3307
357.433	2850
357.517	3029
357.602	2456
357.687	1040
357.771	2613
357.856	4732
357.941	3995
358.025	10023
358.110	38145
358.195	18742
358.279	3425
358.364	3075
358.448	9401
358.533	24317
358.617	17148
358.702	16093
358.787	5766
358.871	4662
358.956	3603
359.040	1799
359.125	817
359.209	1340
359.294	2141
359.378	3945
359.462	3311
359.547	2663
359.631	1302
359.716	203
359.800	893
359.885	2485
359.969	443
360.053	1990
360.138	1086
360.222	2363
360.306	3919
360.391	3011
360.475	3825
360.559	8495
360.644	8077
360.728	4989
360.812	10554
360.896	24012
360.981	10429
361.065	6336
361.149	2442
361.233	1729
361.318	1183
361.402	2207
361.486	1643
361.570	1241
361.654	1680
361.739	4282
361.823	17116
361.907	24232
361.991	4205
362.075	3021
362.159	5743
362.243	5818
362.327	3936
362.411	7481
362.495	3390
362.580	1415
362.664	779
362.748	308
362.832	1888
362.916	1663
363.000	9230
363.084	24767
363.168	28543
363.252	7962
363.336	3184
363.420	4655
363.503	11929
363.587	12080
363.671	2521
363.755	2475
363.839	4791
363.923	1198
364.007	3963
364.091	5040
364.175	3351
364.258	19653
364.342	11730
364.426	21188
364.510	9746
364.594	6143
364.677	6903
364.761	19625
364.845	15260
364.929	7326
365.013	5930
365.096	4611
365.180	3739
365.264	5485
365.347	17205
365.431	8195
365.515	1832
365.598	1447
365.682	2355
365.766	2364
365.849	3308
365.933	2246
366.017	3943
366.100	2395
366.184	-330
366.267	2834
366.351	1169
366.435	828
366.518	921
366.602	1122
366.685	1823
366.769	1776
366.852	3065
366.936	4862
367.019	2549
367.103	1744
367.186	3610
367.270	1845
367.353	-265
367.436	2429
367.520	720
367.603	2443
367.687	1367
367.770	5206
367.853	3233
367.937	7464
368.020	12052
368.104	1904
368.187	3782
368.270	6265
368.353	4185
368.437	4608
368.520	6299
368.603	5704
368.687	7877
368.770	15686
368.853	3833
368.936	4866
369.020	4632
369.103	1631
369.186	733
369.269	1360
369.352	2741
369.436	3911
369.519	2742
369.602	479
369.685	2848
369.768	938
369.851	1266
369.934	1208
370.018	1244
370.101	3318
370.184	4139
370.267	2755
370.350	3352
370.433	5268
370.516	12035
370.599	14766
370.682	3687
370.765	11802
370.848	13516
370.931	18107
371.014	7985
371.097	965
371.180	2442
371.263	1543
371.346	-160
371.429	1279
371.511	557
371.594	2665
371.677	4481
371.760	5455
371.843	3720
371.926	16377
372.009	33371
372.091	15178
372.174	7478
372.257	16898
372.340	6840
372.423	6511
372.505	7123
372.588	2774
372.671	7290
372.754	17577
372.836	9095
372.919	7100
373.002	11571
373.085	3533
373.167	4399
373.250	8808
373.332	16918
373.415	22804
373.498	41890
373.580	18723
373.663	20989
373.746	28027
373.828	6616
373.911	4241
373.993	3207
374.076	9748
374.159	9012
374.241	6186
374.324	15953
374.406	11111
374.489	13837
374.571	36603
374.654	14881
374.736	7769
374.819	21362
374.901	33043
374.983	30931
375.066	6826
375.148	2297
375.231	8892
375.313	16662
375.395	6602
375.478	1069
375.560	2058
375.643	2189
375.725	6339
375.807	24898
375.890	19737
375.972	6099
376.054	4884
376.136	5503
376.219	2674
376.301	8281
376.383	23241
376.465	9480
376.548	5829
376.630	6729
376.712	20001
376.794	8734
376.877	1899
376.959	-394
377.041	2336
377.123	2314
377.205	3754
377.287	465
377.369	1555
377.452	165
377.534	887
377.616	726
377.698	801
377.780	2
377.862	1303
377.944	1716
378.026	98
378.108	1759
378.190	1259
378.272	1938
378.354	921
378.436	62
378.518	894
378.600	5129
378.682	6531
378.764	11161
378.846	10071
378.928	2605
379.010	4819
379.091	3943
379.173	1786
379.255	-123
379.337	1819
379.419	5269
379.501	16639
379.583	6501
379.664	2024
379.746	3451
379.828	13751
379.910	15586
379.991	14690
380.073	1596
380.155	1561
380.237	159
380.318	1387
380.400	1048
380.482	3140
380.564	4277
380.645	4243
380.727	4168
380.809	3751
380.890	1538
380.972	296
381.053	928
381.135	1417
381.217	4013
381.298	13185
381.380	6326
381.461	4476
381.543	18348
381.624	23347
381.706	3984
381.787	2786
381.869	3207
381.951	9906
382.032	32085
382.113	23984
382.195	4471
382.276	5252
382.358	7266
382.439	18548
382.521	20900
382.602	30909
382.684	15073
382.765	25153
382.846	24083
382.928	31738
383.009	16347
383.090	10210
383.172	39561
383.253	60754
383.334	22503
383.416	26128
383.497	12878
383.578	4415
383.659	9008
383.741	32107
383.822	81227
383.903	41498
383.984	17737
384.066	34710
384.147	20666
384.228	5110
384.309	3652
384.390	2720
384.471	1251
384.553	1802
384.634	2988
384.715	3668
384.796	1296
384.877	2662
384.958	10723
385.039	12642
385.120	5477
385.201	3658
385.282	2836
385.363	2883
385.444	1610
385.525	4206
385.606	13708
385.687	13277
385.768	2868
385.849	3412
385.930	18822
386.011	29172
386.092	7660
386.173	2243
386.254	1221
386.335	2521
386.416	1222
386.496	7320
386.577	12578
386.658	4409
386.739	1653
386.820	3101
386.901	1507
386.981	2364
387.062	464
387.143	3047
387.224	12052
387.304	11283
387.385	3819
387.466	1334
387.547	3012
387.627	1089
387.708	4987
387.789	20767
387.869	21942
387.950	7036
388.031	335
388.111	-714
388.192	3215
388.273	5784
388.353	2287
388.434	1464
388.514	3755
388.595	17284
388.676	23432
388.756	14082
388.837	12453
388.917	7415
388.998	-102
389.078	2260
389.159	784
389.239	229
389.320	3309
389.400	773
389.480	4195
389.561	11560
389.641	6359
389.722	2582
389.802	2808
389.883	5663
389.963	13247
390.043	8806
390.124	1787
390.204	5462
390.284	14211
390.365	8174
390.445	8050
390.525	12864
390.605	13099
390.686	7244
390.766	3562
390.846	2408
390.927	425
391.007	126
391.087	1675
391.167	852
391.247	-858
391.328	2660
391.408	3132
391.488	1550
391.568	-472
391.648	1509
391.728	3019
391.808	3135
391.888	1800
391.969	6268
392.049	9971
392.129	5622
392.209	4942
392.289	13506
392.369	7669
392.449	4467
392.529	2172
392.609	3346
392.689	3215
392.769	12661
392.849	9719
392.929	7644
393.009	16146
393.089	10840
393.169	7962
393.248	22353
393.328	83784
393.408	89066
393.488	23681
393.568	7026
393.648	3731
393.728	2684
393.807	1442
393.887	2081
393.967	1330
394.047	1978
394.127	1695
394.206	2526
394.286	9818
394.366	43036
394.446	46154
394.525	9244
394.605	2085
394.685	2302
394.764	7687
394.844	11584
394.924	7752
395.003	2886
395.083	1734
395.163	1849
395.242	1022
395.322	1845
395.402	-1011
395.481	2834
395.561	4358
395.640	14727
395.720	11716
395.799	12247
395.879	9874
395.958	3825
396.038	13252
396.117	57058
396.197	61150
396.276	18101
396.356	5297
396.435	5149
396.515	3539
396.594	4142
396.673	7434
396.753	26526
396.832	77208
396.912	61866
396.991	15980
397.070	4328
397.150	1242
397.229	2799
397.308	2597
397.388	4429
397.467	2590
397.546	2090
397.625	-1091
397.705	2610
397.784	1923
397.863	661
397.942	313
398.022	434
398.101	3299
398.180	11320
398.259	6478
398.338	2664
398.417	1145
398.497	386
398.576	1342
398.655	547
398.734	244
398.813	673
398.892	4172
398.971	13124
399.050	5475
399.129	-54
399.208	1103
399.287	994
399.366	-996
399.445	341
399.524	443
399.603	-403
399.682	2169
399.761	5018
399.840	13430
399.919	11300
399.998	894
400.077	-576
400.156	-707
400.235	2757
400.313	388
400.392	1025
400.471	7564
400.550	11814
400.629	1589
400.708	2059
400.786	-76
400.865	3299
400.944	3015
401.023	3664
401.102	-374
401.180	925
401.259	23
401.338	1178
401.416	1220
401.495	584
401.574	1077
401.652	480
401.731	1116
401.810	921
401.888	97
401.967	162
402.046	666
402.124	1843
402.203	841
402.281	1595
402.360	1038
402.438	4920
402.517	2212
402.596	1197
402.674	860
402.753	411
402.831	541
402.910	2543
402.988	3571
403.066	16129
403.145	10257
403.223	7572
403.302	14281
403.380	12153
403.459	12446
403.537	4253
403.615	1357
403.694	-401
403.772	1395
403.850	-33
403.929	-195
404.007	-40
404.085	3051
404.164	2384
404.242	551
404.320	2114
404.398	3434
404.477	7246
404.555	25488
404.633	21422
404.711	4172
404.789	2563
404.868	1044
404.946	658
405.024	128
405.102	767
405.180	-554
405.258	-815
405.336	1000
405.415	-204
405.493	1314
405.571	3247
405.649	-194
405.727	-910
405.805	1288
405.883	960
405.961	739
406.039	1022
406.117	-1406
406.195	1312
406.273	5790
406.351	22799
406.429	13204
406.507	2332
406.585	-316
406.663	1691
406.740	1549
406.818	694
406.896	290
406.974	1956
407.052	1265
407.130	14829
407.208	18911
407.285	4402
407.363	-842
407.441	503
407.519	-349
407.596	1203
407.674	2565
407.752	4761
407.830	5310
407.907	2882
407.985	332
408.063	1108
408.141	-758
408.218	2157
408.296	-117
408.373	1010
408.451	885
408.529	783
408.606	85
408.684	268
408.762	-517
408.839	-250
408.917	-183
408.994	54
409.072	-639
409.149	313
409.227	1109
409.304	1698
409.382	738
409.459	125
409.537	1935
409.614	1590
409.692	549
409.769	-113
409.846	1550
409.924	2996
410.001	-493
410.079	643
410.156	1810
410.233	-75
410.311	201
410.388	412
410.465	604
410.543	-6
410.620	493
410.697	1668
410.775	37
410.852	-191
410.929	329
411.006	1398
411.083	-481
411.161	1277
411.238	1211
411.315	403
411.392	192
411.469	1599
411.547	462
411.624	-886
411.701	-808
411.778	928
411.855	1202
411.932	715
412.009	-210
412.086	1169
412.163	771
412.240	472
412.317	1179
412.394	609
412.471	145
412.548	635
412.625	427
412.702	872
412.779	1676
412.856	1551
412.933	-805
413.010	89
413.087	-95
413.164	7239
413.241	9633
413.318	1887
413.395	1361
413.471	2067
413.548	1398
413.625	1078
413.702	-406
413.779	898
413.855	304
413.932	-601
414.009	-770
414.086	-13
414.162	-117
414.239	987
414.316	5544
414.393	15042
414.469	3807
414.546	-263
414.623	-201
414.699	130
414.776	680
414.853	-337
414.929	102
415.006	793
415.082	736
415.159	39
415.236	175
415.312	688
415.389	1559
415.465	1699
415.542	346
415.618	210
415.695	1072
415.771	536
415.848	298
415.924	882
416.000	-179
416.077	1404
416.153	-1590
416.230	-244
416.306	-113
416.383	322
416.459	89
416.535	-671
416.612	-748
416.688	428
416.764	-213
416.841	4
416.917	-304
416.993	203
417.069	678
417.146	619
417.222	502
417.298	882
417.374	53
417.451	823
417.527	538
417.603	1097
417.679	605
417.755	669
417.831	-504
417.908	294
417.984	-493
418.060	-615
418.136	1007
418.212	2303
418.288	438
418.364	1236
418.440	-426
418.516	1713
418.592	1078
418.668	3219
418.744	4736
418.820	4212
418.896	861
418.972	-359
419.048	-366
419.124	3244
419.200	1086
419.276	223
419.352	-592
419.428	508
419.504	467
419.579	970
419.655	122
419.731	1206
419.807	1753
419.883	5441
419.959	2897
420.034	860
420.110	2823
420.186	9082
420.262	7164
420.337	1484
420.413	933
420.489	1021
420.565	750
420.640	226
420.716	1442
420.792	-316
420.867	33
420.943	254
421.019	890
421.094	739
421.170	354
421.245	511
421.321	380
421.397	-42
421.472	1127
421.548	2060
421.623	3175
421.699	1810
421.774	1086
421.850	-60
421.925	1846
422.001	1506
422.076	1117
422.152	1678
422.227	2754
422.302	4314
422.378	5125
422.453	10245
422.529	24469
422.604	63965
422.679	94080
422.755	71021
422.830	28852
422.905	11676
422.981	5797
423.056	4011
423.131	3356
423.207	1869
423.282	2013
423.357	4372
423.432	2524
423.508	2704
423.583	4750
423.658	3907
423.733	559
423.808	1413
423.883	1866
423.959	1724
424.034	531
424.109	1066
424.184	-515
424.259	91
424.334	269
424.409	-41
424.484	39
424.559	897
424.634	46
424.709	488
424.784	1606
424.859	149
424.934	812
425.009	7949
425.084	11353
425.159	3850
425.234	224
425.309	294
425.384	1087
425.459	1768
425.534	789
425.609	-102
425.683	-20
425.758	493
425.833	791
425.908	659
425.983	3163
426.058	12275
426.132	4310
426.207	1165
426.282	1635
426.357	962
426.431	-473
426.506	834
426.581	-408
426.655	-358
426.730	-64
426.805	-579
426.879	391
426.954	830
427.029	1031
427.103	9907
427.178	21881
427.253	8988
427.327	1080
427.402	655
427.476	2881
427.551	550
427.625	458
427.700	1131
427.774	-929
427.849	497
427.923	-610
427.998	435
428.072	-796
428.147	2246
428.221	6738
428.296	18044
428.370	8420
428.444	1540
428.519	561
428.593	2239
428.667	2652
428.742	3251
428.816	3383
428.890	11812
428.965	17165
429.039	5661
429.113	3801
429.188	1497
429.262	91
429.336	1733
429.410	5947
429.485	4570
429.559	2593
429.633	2183
429.707	-19
429.781	2295
429.855	13137
429.930	21687
430.004	10130
430.078	13583
430.152	12529
430.226	21106
430.300	21236
430.374	2665
430.448	594
430.522	4535
430.596	12246
430.670	9389
430.744	20375
430.818	30923
430.892	5096
430.966	725
431.040	878
431.114	-482
431.188	-100
431.262	-491
431.336	-359
431.410	2359
431.484	3738
431.557	3445
431.631	-151
431.705	297
431.779	3218
431.853	15477
431.927	10225
432.000	1147
432.074	404
432.148	1008
432.222	-845
432.295	696
432.369	-386
432.443	1120
432.516	9033
432.590	21319
432.664	7431
432.737	1041
432.811	-763
432.885	-134
432.958	-51
433.032	-220
433.106	-461
433.179	353
433.253	-712
433.326	-284
433.400	-507
433.473	89
433.547	-1162
433.620	422
433.694	919
433.767	1314
433.841	-766
433.914	-217
433.988	-558
434.061	330
434.134	7
434.208	-182
434.281	-935
434.355	167
434.428	-778
434.501	-966
434.575	-1182
434.648	-340
434.721	-969
434.795	-249
434.868	-1376
434.941	-462
435.014	-806
435.088	-16
435.161	196
435.234	1020
435.307	758
435.381	611
435.454	-382
435.527	639
435.600	370
435.673	351
435.746	-498
435.819	-79
435.892	31
435.966	225
436.039	-232
436.112	-402
436.185	-679
436.258	-639
436.331	-437
436.404	-532
436.477	-822
436.550	-346
436.623	1
436.696	-321
436.769	-208
436.842	-583
436.915	-608
436.987	316
437.060	-18
437.133	-718
437.206	-757
437.279	292
437.352	-375
437.425	-328
437.498	-578
437.570	3044
437.643	1409
437.716	200
437.789	-636
437.861	920
437.934	3343
438.007	1026
438.080	-271
438.152	334
438.225	1367
438.298	11002
438.370	29624
438.443	13109
438.516	2775
438.588	557
438.661	419
438.734	-349
438.806	233
438.879	1207
438.951	539
439.024	1242
439.096	-502
439.169	422
439.241	-317
439.314	-203
439.386	-260
439.459	642
439.531	1319
439.604	219
439.676	303
439.749	-290
439.821	-569
439.893	428
439.966	188
440.038	291
440.110	465
440.183	-226
440.255	-832
440.327	1039
440.400	4522
440.472	20469
440.544	13814
440.617	1570
440.689	1517
440.761	1376
440.833	2617
440.905	1248
440.978	-554
441.050	-38
441.122	734
441.194	34
441.266	-7
441.338	-256
441.411	452
441.483	8810
441.555	12286
441.627	3221
441.699	1279
441.771	539
441.843	-391
441.915	-245
441.987	-668
442.059	-332
442.131	273
442.203	937
442.275	958
442.347	551
442.419	1561
442.491	8400
442.563	20998
442.635	10536
442.706	6284
442.778	6073
442.850	285
442.922	-143
442.994	178
443.066	596
443.137	902
443.209	224
443.281	789
443.353	3260
443.425	10172
443.496	37225
443.568	37047
443.640	14694
443.711	1964
443.783	-208
443.855	96
443.926	397
443.998	510
444.070	1405
444.141	119
444.213	1896
444.285	1728
444.356	1504
444.428	619
444.499	10
444.571	-609
444.642	-402
444.714	-1
444.785	1101
444.857	1789
444.928	3469
445.000	1996
445.071	2963
445.143	4383
445.214	1537
445.285	1963
445.357	8838
445.428	26504
445.500	56248
445.571	37982
445.642	21282
445.714	7448
445.785	7543
445.856	2425
445.928	2114
445.999	2015
446.070	1871
446.141	1661
446.213	3318
446.284	533
446.355	1837
446.426	455
446.497	607
446.569	705
446.640	2613
446.711	1718
446.782	514
446.853	646
446.924	1046
446.995	325
447.066	236
447.138	2178
447.209	1879
447.280	-1032
447.351	132
447.422	-103
447.493	541
447.564	286
447.635	1201
447.706	-393
447.777	62
447.847	-114
447.918	-81
447.989	175
448.060	1265
448.131	3026
448.202	3909
448.273	1853
448.344	1204
448.414	555
448.485	397
448.556	-187
448.627	347
448.698	1012
448.768	319
448.839	498
448.910	1883
448.981	1926
449.051	510
449.122	-4
449.193	1079
449.263	168
449.334	161
449.405	449
449.475	3529
449.546	2379
449.616	2266
449.687	1687
449.758	739
449.828	-32
449.899	-227
449.969	152
450.040	-679
450.110	1169
450.181	1285
450.251	89
450.322	567
450.392	79
450.463	-46
450.533	-383
450.604	363
450.674	-245
450.744	982
450.815	-432
450.885	328
450.955	344
451.026	792
451.096	-314
451.166	482
451.237	1914
451.307	7445
451.377	2248
451.447	333
451.518	409
451.588	828
451.658	-130
451.728	1990
451.799	6092
451.869	7573
451.939	1256
452.009	280
452.079	68
452.149	875
452.219	2211
452.289	8350
452.360	6127
452.430	1958
452.500	484
452.570	1317
452.640	2690
452.710	6075
452.780	9286
452.850	6656
452.920	4868
452.990	2032
453.060	98
453.129	1789
453.199	2405
453.269	7878
453.339	15689
453.409	23544
453.479	24376
453.549	37003
453.619	39669
453.688	16138
453.758	2117
453.828	1197
453.898	1082
453.968	552
454.037	964
454.087	562
454.107	386
454.168	248
454.177	217
454.247	177
454.249	191
454.316	154
454.330	374
454.386	1159
454.411	2652
454.456	5020
454.492	5937
454.525	6783
454.574	3754
454.595	2446
454.655	961
454.665	716
454.734	1098
454.736	1172
454.804	2835
454.817	3929
454.873	8036
454.898	8479
454.943	9340
454.979	5786
455.013	2635
455.060	2203
455.082	2060
455.141	2114
455.152	2101
455.221	7416
455.222	7526
455.291	12231
455.303	11378
455.360	7305
455.384	7719
455.430	7444
455.465	6801
455.499	6402
455.546	7886
455.569	8449
455.627	5811
455.638	5398
455.707	1125
455.708	1136
455.777	651
455.789	646
455.846	755
455.869	982
455.916	1222
455.950	1327
455.985	1454
456.031	1747
456.054	1798
456.112	655
456.124	484
456.193	1361
456.193	1350
456.262	1673
456.274	1792
456.332	2243
456.355	2120
456.401	1771
456.436	1519
456.470	1228
456.516	923
456.540	820
456.597	1104
456.609	1120
456.678	966
456.678	956
456.747	1183
456.759	1036
456.817	350
456.840	553
456.886	830
456.920	998
456.955	1304
457.001	1659
457.024	1768
457.082	1529
457.093	1454
457.162	2132
457.163	2146
457.232	2199
457.243	2125
457.301	1706
457.324	1446
457.370	1213
457.405	1491
457.439	1564
457.485	1159
457.508	1068
457.566	2206
457.577	2517
457.646	3161
457.647	3187
457.715	4377
457.727	4819
457.784	7842
457.808	9348
457.853	9743
457.889	10122
457.922	9992
457.969	8048
457.991	8546
458.050	10509
458.060	10893
458.129	16726
458.130	16920
458.198	12362
458.211	10564
458.267	6042
458.292	4334
458.336	3929
458.372	4567
458.405	6638
458.453	9511
458.474	11628
458.533	20053
458.543	20299
458.611	24585
458.614	24642
458.680	12355
458.694	9171
458.749	4769
458.775	3661
458.818	2716
458.855	2685
458.887	2666
458.936	2537
458.955	2453
459.016	2123
459.024	2197
459.093	3191
459.097	3241
459.162	3427
459.177	3487
459.230	4356
459.257	4788
459.299	4328
459.338	4328
459.368	4844
459.418	5173
459.437	4603
459.499	3032
459.505	3099
459.574	3131
459.579	3142
459.643	2621
459.659	2610
459.711	3077
459.740	3405
459.780	3192
459.820	2976
459.849	3130
459.900	3019
459.917	2965
459.981	3094
459.986	3090
460.054	3396
460.061	3402
460.123	3633
460.141	3691
460.191	4811
460.222	5344
460.260	5112
460.302	5482
460.328	5094
460.382	3641
460.397	3513
460.462	3051
460.465	3154
460.534	6256
460.543	6624
460.602	13081
460.623	15532
460.671	23429
460.703	30345
460.739	24989
460.783	16673
460.808	14834
460.864	6036
460.876	5211
460.944	3749
460.945	3730
461.013	3792
461.024	3726
461.081	3682
461.104	3954
461.150	4039
461.184	3643
461.218	3283
461.264	3391
461.286	3517
461.345	2943
461.355	2847
461.423	3379
461.425	3364
461.491	3290
461.505	3505
461.559	5760
461.585	6631
461.628	8794
461.665	11269
461.696	11924
461.745	14309
461.764	13612
461.825	6750
461.832	6571
461.901	5135
461.905	5165
461.969	4286
461.985	4102
462.037	4405
462.065	4581
462.105	4579
462.145	4452
462.173	5214
462.225	6940
462.241	7451
462.305	10658
462.310	10524
462.378	7253
462.385	6670
462.446	4864
462.465	4666
462.514	4388
462.545	4222
462.582	4207
462.625	4506
462.650	4375
462.705	3904
462.718	4050
462.785	4902
462.786	4912
462.854	4958
462.865	5092
462.922	6589
462.945	7205
462.990	6292
463.025	4894
463.058	4492
463.104	4342
463.126	4294
463.184	4369
463.194	4457
463.262	4721
463.264	4745
463.330	4625
463.344	4472
463.398	5222
463.424	5767
463.466	5150
463.504	4680
463.533	5156
463.583	5542
463.601	5534
463.663	5557
463.669	5605
463.737	6248
463.743	6319
463.805	8844
463.823	9595
463.873	12673
463.903	14938
463.940	14962
463.982	15114
464.008	13459
464.062	7613
464.076	7117
464.142	5241
464.144	5228
464.211	5196
464.221	5298
464.279	5843
464.301	5870
464.347	5976
464.381	6153
464.414	6127
464.461	6167
464.482	6246
464.540	6620
464.550	6618
464.617	6009
464.620	5994
464.685	7259
464.699	7428
464.753	7505
464.779	7706
464.820	7326
464.859	6986
464.888	6949
464.938	6778
464.956	7104
465.018	8270
465.023	8138
465.091	6210
465.098	5994
465.158	6218
465.177	6322
465.226	6402
465.257	6466
465.293	7050
465.336	7649
465.361	8294
465.416	9734
465.428	10027
465.495	11662
465.496	11699
465.563	14721
465.575	15359
465.631	17984
465.654	19132
465.698	13685
465.734	8347
465.765	7556
465.813	6387
465.833	6083
465.893	5834
465.900	5930
465.968	6631
465.972	6673
466.035	6650
466.052	6610
466.102	6412
466.131	6338
466.170	6420
466.210	6351
466.237	6447
466.290	6816
466.304	6812
466.369	6566
466.372	6591
466.439	7131
466.449	7179
466.506	7791
466.528	8056
466.573	10948
466.607	13022
466.641	17778
466.687	24482
466.708	25448
466.766	28220
466.775	26242
466.842	10752
466.845	10002
466.909	8840
466.925	8637
466.977	8418
467.004	8302
467.044	8567
467.083	8841
467.111	9100
467.163	9512
467.178	9817
467.242	11056
467.245	11043
467.312	10412
467.321	10313
467.379	9622
467.400	9346
467.446	10226
467.480	10837
467.559	9631
467.638	8583
467.717	9721
467.796	11094
467.875	11352
467.955	9853
468.034	14103
468.113	25653
468.192	32553
468.271	9398
468.350	10623
468.429	12038
468.508	12481
468.588	9846
468.667	8166
468.746	7846
468.825	8252
468.904	8440
468.983	9298
469.062	12839
469.141	13838
469.220	7155
469.299	9003
469.378	7409
469.456	10083
469.535	8979
469.614	8716
469.693	9124
469.772	11556
469.851	13293
469.930	9299
470.009	8669
470.088	9639
470.166	9945
470.245	12992
470.324	14403
470.403	11591
470.482	8977
470.560	9209
470.639	10076
470.718	12471
470.797	8611
470.875	9175
470.954	12119
471.033	12011
471.111	7691
471.190	7333
471.269	7398
471.347	8078
471.426	7825
471.505	8156
471.583	8935
471.662	8152
471.740	7347
471.819	8743
471.898	7344
471.976	7516
472.055	7634
472.133	9351
472.212	10795
472.290	9633
472.369	7013
472.447	7833
472.526	6936
472.604	8198
472.683	8896
472.761	9501
472.839	8640
472.918	8493
472.996	7679
473.075	9742
473.153	7940
473.231	7575
473.310	8657
473.388	9224
473.466	8817
473.545	10481
473.623	13844
473.701	13122
473.780	8449
473.858	7780
473.936	9579
474.014	8146
474.093	9758
474.171	10993
474.249	12517
474.327	8888
474.405	7815
474.484	7390
474.562	7448
474.640	8254
474.718	7984
474.796	7475
474.874	7037
474.952	6679
475.030	7917
475.108	7987
475.187	8480
475.265	11533
475.343	18802
475.421	17266
475.499	8276
475.577	7977
475.655	9897
475.733	14784
475.811	21374
475.889	19031
475.966	11375
476.044	9093
476.122	13420
476.200	17580
476.278	10712
476.356	7620
476.434	9656
476.512	11938
476.590	16109
476.667	11056
476.745	6736
476.823	9435
476.901	7453
476.979	7767
477.056	8387
477.134	8461
477.212	8037
477.290	9056
477.367	7393
477.445	7793
477.523	7567
477.601	7449
477.678	8153
477.756	9500
477.834	8207
477.911	7656
477.989	7357
478.066	7567
478.144	8608
478.222	14109
478.299	22417
478.377	15883
478.454	7318
478.532	7575
478.609	8605
478.687	9228
478.764	7206
478.842	7915
478.919	8724
478.997	8568
479.074	6632
479.152	8397
479.229	8159
479.307	7107
479.384	6778
479.461	7192
479.539	6942
479.616	8060
479.694	7329
479.771	7821
479.848	7786
479.926	7981
480.003	9752
480.080	7028
480.157	6559
480.235	7025
480.312	7276
480.389	8053
480.467	9139
480.544	10815
480.621	8036
480.698	8925
480.775	9153
480.853	8676
480.930	6957
481.007	8082
481.084	8503
481.161	9034
481.238	7759
481.315	7573
481.392	7049
481.470	6680
481.547	7016
481.624	6527
481.701	7009
481.778	8149
481.855	8304
481.932	10768
482.009	14890
482.086	10331
482.163	9426
482.240	16754
482.317	28513
482.393	16581
482.470	8068
482.547	7519
482.624	7760
482.701	8618
482.778	6609
482.855	7568
482.932	6643
483.009	6763
483.085	9093
483.162	10266
483.239	9151
483.316	8073
483.393	7907
483.469	7530
483.546	8179
483.623	8146
483.699	6097
483.776	7116
483.853	8402
483.930	11257
484.006	20782
484.083	30330
484.160	17550
484.236	23569
484.313	17145
484.389	14363
484.466	14224
484.543	13547
484.619	14417
484.696	16183
484.772	14943
484.849	13990
484.925	12346
485.002	13567
485.078	13845
485.155	15382
485.231	11818
485.308	12486
485.384	13041
485.461	15448
485.537	19904
485.614	21637
485.690	12560
485.766	12333
485.843	14675
485.919	23736
485.995	20843
486.072	11124
486.148	12059
486.224	11541
486.301	12778
486.377	15466
486.453	14980
486.530	13562
486.606	16097
486.682	17063
486.758	19205
486.835	20135
486.911	18881
486.987	29956
487.063	43621
487.139	57761
487.215	33926
487.292	16193
487.368	13802
487.444	16468
487.520	21772
487.596	18789
487.672	33202
487.748	82212
487.824	96455
487.900	24509
487.976	15442
488.052	17338
488.128	22575
488.204	14477
488.280	12719
488.356	15170
488.432	24923
488.508	29757
488.584	14090
488.660	13072
488.736	11876
488.812	13561
488.888	18612
488.964	27955
489.039	66397
489.115	86223
489.191	36003
489.267	13652
489.343	11250
489.418	9971
489.494	9914
489.570	9054
489.646	11224
489.722	10658
489.797	10638
489.873	15460
489.949	24945
490.024	18304
490.100	10270
490.176	12273
490.251	14876
490.327	20044
490.403	10547
490.478	10120
490.554	9498
490.629	8712
490.705	9294
490.781	10922
490.856	10102
490.932	11780
491.007	11991
491.083	10493
491.158	10528
491.234	11767
491.309	21885
491.385	17861
491.460	9432
491.536	11153
491.611	10699
491.686	12359
491.762	19564
491.837	42937
491.913	60134
491.988	88631
492.063	85202
492.139	16875
492.214	12006
492.289	9412
492.365	9252
492.440	10681
492.515	9732
492.590	9795
492.666	8727
492.741	11198
492.816	13504
492.891	7729
492.967	9358
493.042	8880
493.117	8287
493.192	9407
493.267	15400
493.342	34656
493.418	34887
493.493	8837
493.568	8307
493.643	9406
493.718	10443
493.793	14926
493.868	18233
493.943	13237
494.018	9683
494.093	7864
494.168	8300
494.243	7800
494.318	8150
494.393	8313
494.468	8089
494.543	9265
494.618	10180
494.693	8305
494.768	8322
494.842	8074
494.917	8026
494.992	9278
495.067	7184
495.142	8692
495.217	8413
495.292	8786
495.366	9996
495.441	12272
495.516	15623
495.591	29003
495.665	95439
495.740	176844
495.815	41927
495.890	11714
495.964	8362
496.039	11018
496.114	10673
496.188	11742
496.263	11245
496.338	8915
496.412	10495
496.487	12417
496.561	13963
496.636	13391
496.710	9662
496.785	11161
496.860	11527
496.934	10393
497.009	10566
497.083	9880
497.158	9713
497.232	12434
497.307	13473
497.381	11178
497.455	12130
497.530	14112
497.604	10306
497.679	11962
497.753	16269
497.827	18197
497.902	15059
497.976	20303
498.050	48935
498.125	147635
498.199	101530
498.273	25521
498.348	21777
498.422	17575
498.496	18454
498.570	16736
498.645	10913
498.719	10444
498.793	13316
498.867	18749
498.941	24121
499.016	69210
499.090	138520
499.164	30886
499.238	10256
499.312	12131
499.386	15571
499.460	11490
499.534	10307
499.609	13543
499.683	14754
499.757	16455
499.831	35571
499.905	105557
499.979	65104
500.053	18400
500.127	20695
500.201	17034
500.275	12022
500.349	10933
500.422	12998
500.496	23295
500.570	44619
500.644	74605
500.718	92557
500.792	18318
500.866	11084
500.940	13356
501.013	10999
501.087	13367
501.161	26426
501.235	25137
501.309	43094
501.382	98281
501.456	60492
501.530	22738
501.603	30397
501.677	11906
501.751	8314
501.825	11803
501.898	18172
501.972	40523
502.046	18926
502.119	11568
502.193	23934
502.266	42402
502.340	16790
502.413	23520
502.487	34997
502.561	17530
502.634	10247
502.708	11004
502.781	8976
502.855	9277
502.928	6891
503.002	8182
503.075	6715
503.149	8331
503.222	7710
503.295	8623
503.369	10002
503.442	12873
503.516	33792
503.589	64968
503.662	33305
503.736	18003
503.809	34689
503.882	26657
503.956	46230
504.029	39119
504.102	52893
504.175	54781
504.249	14113
504.322	11976
504.395	10290
504.468	8529
504.542	7331
504.615	6141
504.688	7512
504.761	6463
504.834	9962
504.907	13763
504.980	19169
505.053	10164
505.127	13911
505.200	14713
505.273	8702
505.346	6652
505.419	5801
505.492	7487
505.565	5507
505.638	6715
505.711	5188
505.784	5956
505.857	5156
505.930	8132
506.003	5139
506.076	8957
506.149	7937
506.221	7506
506.294	11159
506.367	20441
506.440	54595
506.513	20712
506.586	8730
506.659	6813
506.731	7276
506.804	10047
506.877	10970
506.950	8268
507.022	6496
507.095	6944
507.168	9051
507.241	8363
507.313	6201
507.386	7598
507.459	10869
507.531	6493
507.604	6291
507.677	7374
507.749	5511
507.822	10498
507.894	15152
507.967	14287
508.040	7553
508.112	8664
508.185	8451
508.257	8119
508.330	14514
508.402	7662
508.475	6969
508.547	8523
508.620	7909
508.692	10389
508.765	7963
508.837	6974
508.909	6643
508.982	7002
509.054	8558
509.127	6299
509.199	6083
509.271	5802
509.344	5632
509.416	6344
509.488	5854
509.560	7637
509.633	7085
509.705	8937
509.777	8624
509.849	12101
509.922	6818
509.994	5198
510.066	7492
510.138	6552
510.210	11713
510.283	9115
510.355	9094
510.427	8016
510.499	7880
510.571	7990
510.643	8064
510.715	17197
510.787	11219
510.859	9575
510.931	10439
511.003	17444
511.076	12916
511.148	6326
511.219	6437
511.291	9744
511.363	9925
511.435	7343
511.507	6577
511.579	7527
511.651	7463
511.723	6509
511.795	6635
511.867	6780
511.939	8428
512.010	12504
512.082	8809
512.154	7591
512.226	7442
512.298	12216
512.369	14281
512.441	11694
512.513	11170
512.585	7962
512.656	10413
512.728	10630
512.800	7465
512.871	7375
512.943	7707
513.015	6097
513.086	8811
513.158	9461
513.230	7880
513.301	13709
513.373	14732
513.444	8720
513.516	7835
513.588	7456
513.659	8669
513.731	10936
513.802	9626
513.874	27500
513.945	34784
514.016	8869
514.088	7288
514.159	8422
514.231	14283
514.302	13187
514.374	9229
514.445	7591
514.516	15349
514.588	8405
514.659	9852
514.730	13899
514.802	12001
514.873	6639
514.944	9899
515.016	10683
515.087	12024
515.158	13485
515.229	13423
515.301	6710
515.372	9302
515.443	6706
515.514	7214
515.585	5828
515.656	8090
515.728	8509
515.799	6302
515.870	8708
515.941	8271
516.012	7521
516.083	11366
516.154	11979
516.225	16727
516.296	14261
516.367	11464
516.438	12288
516.509	16658
516.580	30225
516.651	88193
516.722	229919
516.793	60772
516.864	21249
516.935	19525
517.006	21052
517.077	35332
517.148	87537
517.219	237320
517.289	228544
517.360	62112
517.431	19839
517.502	10794
517.573	12166
517.643	11666
517.714	11483
517.785	12414
517.856	12966
517.926	15063
517.997	15736
518.068	16725
518.138	25372
518.209	44027
518.280	165578
518.350	404973
518.421	87591
518.492	18154
518.562	15321
518.633	15529
518.703	15455
518.774	31382
518.845	68237
518.915	47433
518.986	16590
519.056	18404
519.127	34243
519.197	45409
519.268	65808
519.338	27956
519.408	16759
519.479	24458
519.549	13371
519.620	11103
519.690	8654
519.760	8745
519.831	10334
519.901	8463
519.971	9715
520.042	8782
520.112	8845
520.182	14292
520.253	12844
520.323	8927
520.393	10913
520.463	15222
520.534	9529
520.604	17309
520.674	10353
520.744	11537
520.814	21523
520.885	17585
520.955	26783
521.025	63236
521.095	16128
521.165	8958
521.235	8057
521.305	8138
521.375	8812
521.445	10787
521.515	12885
521.585	16858
521.655	11719
521.725	11687
521.795	8427
521.865	5354
521.935	12656
522.005	7152
522.075	7117
522.145	8830
522.215	8342
522.285	10738
522.355	13711
522.424	20584
522.494	15797
522.564	15717
522.634	40764
522.704	90529
522.774	19944
522.843	8744
522.913	10833
522.983	12182
523.053	8672
523.122	10480
523.192	18759
523.262	55826
523.331	30838
523.401	10195
523.471	8350
523.540	9301
523.610	6674
523.680	7468
523.749	7679
523.819	9187
523.888	7588
523.958	6612
524.027	7774
524.097	8738
524.166	8215
524.236	8400
524.305	9284
524.375	7482
524.444	6029
524.514	9388
524.583	7877
524.653	8311
524.722	9382
524.791	6020
524.861	9243
524.930	6466
524.999	9847
525.069	11751
525.138	8530
525.207	9298
525.277	8379
525.346	8065
525.415	8477
525.484	8899
525.554	9130
525.623	9088
525.692	9300
525.761	9158
525.830	10233
525.900	11729
525.969	16092
526.038	25886
526.107	53934
526.176	120082
526.245	71489
526.314	34873
526.383	73815
526.452	74460
526.522	150942
526.591	98996
526.660	42291
526.729	20591
526.797	29971
526.867	70641
526.935	247450
527.004	308326
527.073	97442
527.142	13851
527.211	11646
527.280	13166
527.349	12306
527.418	6491
527.487	9287
527.555	6703
527.624	7136
527.693	4850
527.762	8116
527.831	6193
527.899	7652
527.968	8033
528.037	6980
528.106	10935
528.174	15984
528.243	11063
528.312	18180
528.380	18494
528.449	6896
528.518	9385
528.586	5512
528.655	7781
528.723	7151
528.792	6494
528.861	7182
528.929	5069
528.998	7514
529.066	7633
529.135	8540
529.203	7547
529.272	7940
529.340	10111
529.409	11103
529.477	9069
529.545	8440
529.614	12267
529.682	10666
529.751	11231
529.819	14340
529.887	11598
529.956	10200
530.024	11451
530.092	10019
530.161	12639
530.229	15983
530.297	11542
530.365	11880
530.434	12228
530.502	10273
530.570	10191
530.638	9094
530.707	10971
530.775	11334
530.843	8499
530.911	10315
530.979	10793
531.047	10584
531.115	10772
531.183	9696
531.252	10327
531.320	9996
531.388	9004
531.456	11598
531.524	9247
531.592	11186
531.660	13597
531.728	10367
531.796	11473
531.864	11238
531.932	11489
532.000	10932
532.067	11709
532.135	13619
532.203	15022
532.271	14942
532.339	22667
532.407	44065
532.475	20069
532.542	15830
532.610	18033
532.678	26292
532.746	91719
532.814	141687
532.881	33320
532.949	13922
533.017	11463
533.084	13371
533.152	11665
533.220	12697
533.287	12205
533.355	11420
533.423	12672
533.490	11942
533.558	11019
533.625	10717
533.693	11516
533.761	11468
533.828	11722
533.896	12954
533.963	20735
534.031	23064
534.098	30644
534.166	13716
534.233	11457
534.300	11971
534.368	11830
534.435	10870
534.503	11672
534.570	12650
534.637	10915
534.705	13051
534.772	14390
534.840	21786
534.907	68281
534.974	51992
535.041	12259
535.109	10640
535.176	9268
535.243	11140
535.310	10473
535.378	10049
535.445	10171
535.512	9621
535.579	10778
535.646	9130
535.714	10285
535.781	10000
535.848	10072
535.915	11776
535.982	9911
536.049	10161
536.116	11149
536.183	8732
536.250	10052
536.317	10730
536.384	11856
536.451	16203
536.518	15039
536.585	10648
536.652	15468
536.719	19218
536.786	13611
536.853	12698
536.920	18383
536.987	25817
537.053	28613
537.120	99884
537.187	50428
537.254	10717
537.321	9938
537.388	10812
537.454	8243
537.521	8986
537.588	9297
537.654	11260
537.721	10969
537.788	10984
537.855	9462
537.921	9566
537.988	9571
538.055	10645
538.121	9037
538.188	11950
538.254	15111
538.321	25887
538.388	14221
538.454	10311
538.521	8731
538.587	10140
538.654	9271
538.720	9957
538.787	9782
538.853	11029
538.920	10700
538.986	10513
539.053	9915
539.119	11614
539.185	10615
539.252	14574
539.318	16384
539.385	14360
539.451	11129
539.517	13074
539.583	16785
539.650	39424
539.716	64442
539.782	15547
539.849	9933
539.915	11339
539.981	10666
540.047	12504
540.114	11470
540.180	12523
540.246	11020
540.312	15355
540.378	26189
540.444	24164
540.510	38996
540.576	73943
540.643	17208
540.709	9668
540.775	10148
540.841	10444
540.907	12077
540.973	14513
541.039	15667
541.105	14676
541.171	11276
541.237	10119
541.303	10891
541.369	13382
541.435	15175
541.500	23486
541.566	12141
541.632	10528
541.698	9726
541.764	11348
541.830	8706
541.896	9487
541.961	10601
542.027	10119
542.093	9714
542.159	10853
542.224	11075
542.290	15929
542.356	22121
542.421	22352
542.487	12189
542.553	10654
542.618	10701
542.684	10771
542.750	11145
542.815	15593
542.881	24520
542.947	76020
543.012	33323
543.078	10294
543.143	10194
543.209	11654
543.274	11836
543.340	15670
543.405	35345
543.471	36356
543.536	10135
543.602	10433
543.667	8406
543.732	11584
543.798	8866
543.863	10920
543.928	9016
543.994	9494
544.059	10325
544.124	10623
544.190	9915
544.255	11013
544.320	11465
544.386	10382
544.451	15186
544.516	16043
544.581	19038
544.646	52958
544.712	52068
544.777	13651
544.842	11457
544.907	11553
544.972	10973
545.037	11285
545.102	13078
545.168	12386
545.233	13137
545.298	13341
545.363	13832
545.428	17433
545.493	34231
545.558	55066
545.623	17935
545.688	12147
545.753	12992
545.818	12700
545.883	11865
545.947	11757
546.012	14258
546.077	12417
546.142	14323
546.207	13796
546.272	16313
546.337	15576
546.401	13678
546.466	14007
546.531	12487
546.596	15028
546.661	15624
546.725	15644
546.790	14112
546.855	16331
546.919	14800
546.984	17149
547.049	17474
547.113	19943
547.178	19406
547.243	22780
547.307	24582
547.372	26892
547.436	25888
547.501	26099
547.565	26966
547.630	28819
547.695	26170
547.759	26532
547.823	24706
547.888	25871
547.952	25443
548.017	27817
548.081	28305
548.146	30676
548.210	28548
548.274	28736
548.339	27378
548.403	26874
548.468	24787
548.532	26336
548.596	25719
548.660	26789
548.725	28761
548.789	31527
548.853	29670
548.917	27650
548.982	30110
549.046	27002
549.110	23091
549.174	23911
549.238	26515
549.303	28422
549.367	28985
549.431	28072
549.495	26054
549.559	26848
549.623	31467
549.687	36240
549.751	39766
549.815	37585
549.879	36845
549.943	35145
550.007	38657
550.071	38711
550.135	38877
550.199	33645
550.263	32293
550.327	32626
550.391	33753
550.455	34645
550.519	37177
550.582	40088
550.646	48731
550.710	45810
550.774	40894
550.838	41660
550.901	41894
550.965	45332
551.029	44669
551.093	48231
551.156	54874
551.220	66451
551.284	64903
551.347	50780
551.411	57096
551.475	52401
551.538	44618
551.602	40833
551.666	40082
551.729	36688
551.793	38498
551.856	36985
551.920	36831
551.983	36664
552.047	35412
552.110	36688
552.174	35942
552.237	38014
552.301	35386
552.364	33141
552.428	33691
552.491	34252
552.554	36792
552.618	34941
552.681	36722
552.745	36417
552.808	43033
552.871	44401
552.934	38226
552.998	34694
553.061	34701
553.124	35309
553.187	34775
553.251	35448
553.314	35935
553.377	36275
553.440	42965
553.503	59746
553.567	59748
553.630	38171
553.693	36854
553.756	37030
553.819	35195
553.882	35831
553.945	36161
554.008	34975
554.071	35378
554.134	36394
554.197	35536
554.260	34830
554.323	36073
554.386	35932
554.449	37546
554.512	37052
554.575	34517
554.638	36082
554.701	34084
554.764	33939
554.827	32877
554.889	31892
554.952	31407
555.015	30387
555.078	31334
555.141	30989
555.203	30486
555.266	31052
555.329	30515
555.391	29283
555.454	29811
555.517	29012
555.580	28519
555.642	27261
555.705	26415
555.768	26511
555.830	25952
555.893	24608
555.955	25141
556.018	25265
556.080	24402
556.143	25185
556.206	25315
556.268	25689
556.330	24772
556.393	24885
556.455	23994
556.518	26149
556.580	24187
556.643	22091
556.705	22246
556.767	21824
556.830	22569
556.892	23576
556.955	27334
557.017	23353
557.079	21085
557.142	22191
557.204	23041
557.266	34038
557.328	23084
557.391	18380
557.453	18242
557.515	19849
557.577	22022
557.639	20146
557.701	18101
557.764	17775
557.826	17929
557.888	19738
557.950	19338
558.012	21754
558.074	26641
558.136	51220
558.198	74534
558.260	26943
558.322	20446
558.384	20657
558.446	22325
558.508	24418
558.570	29044
558.632	43986
558.694	53815
558.756	65260
558.818	173722
558.880	261352
558.942	73170
559.003	81611
559.065	32368
559.127	23426
559.189	24189
559.251	29322
559.312	41475
559.374	93526
559.436	202769
559.498	61863
559.559	23480
559.621	24711
559.683	30276
559.744	49968
559.806	127420
559.868	115835
559.929	27429
559.991	27312
560.052	42119
560.114	82431
560.176	43134
560.237	60462
560.299	62038
560.360	18930
560.422	16096
560.483	15591
560.545	15406
560.606	15995
560.667	15797
560.729	15388
560.790	14167
560.852	15251
560.913	14960
560.974	15331
561.036	14507
561.097	15139
561.158	16727
561.220	15384
561.281	15597
561.342	16179
561.403	19110
561.465	23049
561.526	40716
561.587	37386
561.648	15509
561.709	16367
561.771	15324
561.832	15258
561.893	15608
561.954	16340
562.015	15002
562.076	15955
562.137	16270
562.198	16025
562.259	16754
562.320	16741
562.381	17776
562.442	21202
562.503	18198
562.564	16448
562.625	15802
562.686	16467
562.747	16770
562.808	16111
562.869	16351
562.930	19217
562.991	17594
563.051	16262
563.112	15628
563.173	15730
563.234	15461
563.294	15865
563.355	15980
563.416	16182
563.477	15584
563.537	16814
563.598	16149
563.659	17416
563.720	15541
563.780	17397
563.841	15495
563.901	16077
563.962	15424
564.023	16170
564.083	16108
564.144	16068
564.204	16218
564.265	17368
564.325	17853
564.386	23142
564.446	18429
564.507	15919
564.567	15871
564.628	16622
564.688	16330
564.749	16886
564.809	18057
564.869	17861
564.930	15793
564.990	16525
565.050	17027
565.111	17083
565.171	16055
565.231	15703
565.292	16517
565.352	15578
565.412	16993
565.472	17069
565.532	16318
565.593	16525
565.653	16553
565.713	17879
565.773	17331
565.833	18855
565.893	20121
565.953	16164
566.013	17365
566.074	17740
566.134	19243
566.194	24952
566.254	22805
566.314	18153
566.374	15860
566.434	17115
566.494	16702
566.554	17127
566.614	18058
566.673	17148
566.733	16870
566.793	18333
566.853	17642
566.913	18411
566.973	18224
567.033	18938
567.092	19082
567.152	17945
567.212	17902
567.272	18466
567.331	17862
567.391	18020
567.451	16995
567.511	20698
567.570	19837
567.630	16679
567.690	17580
567.749	18149
567.809	18105
567.868	18094
567.928	18253
567.988	18651
568.047	18299
568.107	19866
568.166	23000
568.226	27196
568.285	32695
568.345	26069
568.404	22951
568.464	21252
568.523	20452
568.582	22111
568.642	23355
568.701	27219
568.761	35055
568.820	45539
568.879	38421
568.939	30111
568.998	23490
569.057	21105
569.116	19354
569.176	18019
569.235	17388
569.294	17407
569.353	17317
569.413	18580
569.472	17673
569.531	17460
569.590	16815
569.649	17302
569.708	16947
569.767	17966
569.827	19115
569.886	16013
569.945	15899
570.004	17278
570.063	16782
570.122	17697
570.181	17676
570.240	18077
570.299	19055
570.358	18521
570.417	15709
570.475	16302
570.534	16671
570.593	16932
570.652	18324
570.711	18089
570.770	16384
570.829	17302
570.887	17471
570.946	17298
571.005	15941
571.064	16970
571.122	16301
571.181	17287
571.240	15941
571.299	16314
571.357	16329
571.416	17057
571.475	17288
571.533	17422
571.592	16328
571.650	17234
571.709	14964
571.768	16806
571.826	16480
571.885	16184
571.943	16540
572.002	15847
572.060	16050
572.119	15285
572.177	15864
572.236	16099
572.294	15509
572.352	16292
572.411	15779
572.469	15009
572.528	15711
572.586	15870
572.644	17506
572.703	18627
572.761	15872
572.819	15462
572.877	15093
572.936	14479
572.994	14486
573.052	14853
573.110	15270
573.169	14653
573.227	15790
573.285	15614
573.343	13908
573.401	16040
573.459	14843
573.517	14168
573.576	14856
573.634	16201
573.692	15318
573.750	14449
573.808	14479
573.866	15102
573.924	16749
573.982	15761
574.040	15036
574.098	14187
574.155	14408
574.213	13894
574.271	13970
574.329	14419
574.387	14267
574.445	13620
574.503	13959
574.560	13371
574.618	12927
574.676	13629
574.734	13417
574.792	14763
574.849	12906
574.907	13341
574.965	13242
575.022	12782
575.080	12936
575.138	14483
575.195	13526
575.253	14389
575.311	14510
575.368	13945
575.426	13225
575.483	14245
575.541	13509
575.598	13762
575.656	14171
575.713	14067
575.771	13320
575.828	13165
575.886	14161
575.943	14475
576.001	14542
576.058	13833
576.115	14611
576.173	15995
576.230	17541
576.287	17665
576.345	15687
576.402	14838
576.459	14690
576.517	14854
576.574	15413
576.631	14650
576.688	14392
576.746	14222
576.803	15482
576.860	14568
576.917	14416
576.974	14897
577.031	14604
577.089	15383
577.146	14088
577.203	15268
577.260	14615
577.317	14657
577.374	15994
577.431	15122
577.488	13968
577.545	14285
577.602	14832
577.659	13490
577.716	13999
577.773	14536
577.830	12983
577.886	13361
577.943	13934
578.000	13772
578.057	13808
578.114	14409
578.171	14556
578.227	14370
578.284	14174
578.341	14954
578.398	14205
578.454	14523
578.511	14982
578.568	16100
578.625	14586
578.681	14618
578.738	14063
578.794	14548
578.851	14762
578.908	16239
578.964	17864
579.021	16769
579.077	15781
579.134	16639
579.190	15934
579.247	15626
579.303	14243
579.360	14072
579.416	14780
579.473	13461
579.529	14623
579.586	15479
579.642	15183
579.698	14552
579.755	15532
579.811	15002
579.867	15299
579.924	14645
579.980	14179
580.036	15861
580.093	15820
580.149	16631
580.205	16366
580.261	15424
580.317	16240
580.374	16144
580.430	17249
580.486	15840
580.542	15072
580.598	16329
580.619	15938
580.654	15273
580.692	15418
580.710	15511
580.765	15852
580.767	15875
580.823	16127
580.838	16033
580.879	15823
580.911	15899
580.935	15982
580.984	16285
580.991	16341
581.047	17006
581.057	16752
581.103	15664
581.130	16153
581.159	16695
581.203	15728
581.215	15483
581.270	16841
581.276	16793
581.326	16458
581.349	16683
581.382	16983
581.422	16607
581.438	16480
581.494	16487
581.494	16486
581.550	16978
581.567	16999
581.606	17127
581.640	17366
581.661	17458
581.713	18139
581.717	18219
581.773	17191
581.786	17455
581.829	18201
581.859	18336
581.885	18512
581.932	18902
581.940	18962
581.996	18105
582.004	18218
582.052	18877
582.077	18090
582.107	17214
582.150	17871
582.163	18057
582.219	18800
582.223	18752
582.274	18386
582.296	18472
582.330	18612
582.368	18917
582.386	19021
582.441	17869
582.441	17869
582.497	18182
582.514	18244
582.552	18390
582.587	18738
582.608	18942
582.659	18690
582.663	18670
582.719	18725
582.732	18636
582.774	18595
582.805	18861
582.830	18949
582.877	19708
582.885	19863
582.941	19299
582.950	19547
582.996	20685
583.023	20655
583.052	20740
583.095	20422
583.107	20272
583.162	20672
583.168	20657
583.218	20590
583.240	20339
583.273	19931
583.313	19719
583.328	19691
583.384	20173
583.385	20137
583.439	18733
583.458	18665
583.494	18657
583.531	18525
583.549	18588
583.603	19904
583.605	19939
583.660	19387
583.676	19463
583.715	19488
583.748	19524
583.770	19727
583.820	19927
583.825	19897
583.881	19759
583.893	19650
583.936	19641
583.965	19355
583.991	18952
584.038	19576
584.046	19735
584.101	19160
584.110	19315
584.156	19944
584.183	20104
584.211	20303
584.255	20416
584.266	20407
584.321	19241
584.328	19314
584.376	20465
584.400	20902
584.431	21142
584.472	20748
584.486	20617
584.541	21229
584.545	21143
584.596	19879
584.617	20261
584.651	21345
584.689	22387
584.706	22654
584.761	21804
584.762	21804
584.816	22556
584.834	22720
584.871	22874
584.906	22506
584.926	22497
584.978	23083
584.980	23109
585.035	23943
585.051	24317
585.090	25437
585.123	25867
585.145	25815
585.195	25194
585.200	25202
585.254	25367
585.267	25690
585.309	26854
585.340	27062
585.364	27106
585.412	27884
585.419	28036
585.473	30594
585.484	31292
585.528	35047
585.556	38052
585.583	42961
585.628	55009
585.637	59106
585.692	101694
585.700	106524
585.747	121088
585.772	100329
585.801	63877
585.845	36126
585.856	33297
585.910	29955
585.917	29405
585.965	27914
585.989	28142
586.019	28248
586.061	27625
586.074	27773
586.128	28843
586.133	28928
586.183	29481
586.205	29576
586.237	29610
586.277	29526
586.292	29527
586.346	29240
586.349	29247
586.401	30095
586.421	30273
586.455	30558
586.493	31868
586.509	33194
586.564	37291
586.565	37430
586.618	46300
586.637	46670
586.672	41067
586.709	35618
586.727	34263
586.781	33362
586.781	33385
586.835	32913
586.853	32775
586.889	31721
586.925	30566
586.944	30869
586.996	32650
586.998	32704
587.052	33301
587.068	33577
587.106	34256
587.140	34185
587.161	34048
587.212	34487
587.215	34586
587.269	35759
587.284	36032
587.323	36233
587.356	36674
587.377	37302
587.427	38284
587.431	38307
587.485	38176
587.499	38002
587.539	38514
587.571	39123
587.593	39536
587.643	40527
587.648	40721
587.702	42215
587.715	42678
587.755	43134
587.786	43360
587.810	43737
587.858	43854
587.864	44154
587.917	47714
587.930	48540
587.971	50207
588.001	50881
588.025	51604
588.073	53050
588.079	53367
588.133	56586
588.145	57301
588.187	60405
588.217	62399
588.241	64568
588.288	69503
588.295	70447
588.348	78102
588.360	79731
588.402	86268
588.431	91181
588.456	95775
588.503	105958
588.510	108086
588.564	126219
588.575	130347
588.617	150026
588.646	165620
588.671	185741
588.718	229000
588.725	239556
588.778	327916
588.789	347920
588.832	473136
588.861	564475
588.886	641970
588.932	764613
588.939	766137
588.993	732920
589.004	727618
589.047	664268
589.075	596645
589.100	505860
589.147	347421
589.154	335744
589.207	258131
589.218	243756
589.261	226323
589.290	218266
589.314	226517
589.361	246923
589.368	256218
589.421	340870
589.433	360902
589.475	497030
589.504	594930
589.528	648677
589.576	716127
589.582	705117
589.635	583658
589.647	550894
589.689	384197
589.718	275502
589.742	233904
589.790	159871
589.795	156387
589.849	126320
589.861	120005
589.902	110265
589.932	101748
589.955	94511
590.004	80255
590.009	79699
590.062	73348
590.075	71777
590.115	68375
590.146	65595
590.168	64735
590.218	62966
590.222	62910
590.275	60940
590.289	60247
590.328	59106
590.360	58180
590.381	57286
590.431	54917
590.435	54930
590.488	53700
590.503	53308
590.541	53657
590.574	53875
590.594	53641
590.645	52559
590.647	52655
590.700	52680
590.716	52738
590.753	52232
590.787	51516
590.806	51524
590.859	51215
590.859	51285
590.912	49897
590.930	49470
590.965	50187
591.001	50506
591.018	50432
591.071	50104
591.072	50010
591.124	50665
591.143	50754
591.177	51285
591.214	51715
591.230	52255
591.283	53826
591.285	53778
591.336	52321
591.356	51629
591.389	51114
591.427	49965
591.442	49803
591.495	49238
591.498	49108
591.547	50215
591.569	50522
591.600	50121
591.640	49278
591.653	49468
591.706	50013
591.711	49972
591.759	51315
591.782	51826
591.811	52895
591.853	54309
591.864	54158
591.917	52661
591.924	52340
591.969	51930
591.995	51560
592.022	51332
592.066	50682
592.075	51152
592.127	53506
592.137	53837
592.180	55811
592.208	56867
592.233	55485
592.279	52501
592.285	52586
592.338	52472
592.350	52328
592.390	51394
592.421	50525
592.443	50718
592.491	50817
592.495	50992
592.548	51974
592.562	52141
592.600	51821
592.633	51342
592.653	51154
592.704	50125
592.705	50407
592.775	50098
592.846	51024
592.916	51763
592.987	53553
593.058	51168
593.128	49844
593.199	50593
593.270	51501
593.341	49342
593.411	50801
593.482	50546
593.553	50664
593.623	49894
593.694	49840
593.764	51373
593.835	50781
593.906	49556
593.976	49937
594.047	50870
594.117	54374
594.188	54291
594.258	50585
594.329	49684
594.399	50815
594.470	50212
594.540	48897
594.611	49456
594.681	50525
594.751	49614
594.822	51617
594.892	51446
594.963	54160
595.033	53963
595.103	53958
595.174	54617
595.244	61836
595.314	66597
595.384	54637
595.455	54234
595.525	57214
595.595	57497
595.665	58188
595.736	54650
595.806	55717
595.876	55186
595.946	56398
596.016	56435
596.087	57935
596.157	58213
596.227	58883
596.297	60629
596.367	62705
596.437	64697
596.507	68710
596.577	71452
596.647	64470
596.717	62803
596.787	65053
596.857	63979
596.927	64336
596.997	64232
597.067	64399
597.137	65690
597.207	66562
597.277	67146
597.347	66460
597.417	65306
597.487	67014
597.557	68034
597.626	67373
597.696	69097
597.766	71484
597.836	72714
597.906	65834
597.975	62506
598.045	63041
598.115	63857
598.185	65541
598.254	69777
598.324	71951
598.394	73055
598.464	73423
598.533	70671
598.603	68302
598.672	68120
598.742	67464
598.812	67451
598.881	68926
598.951	69224
599.020	69100
599.090	69792
599.159	71577
599.229	68551
599.299	68870
599.368	70391
599.437	68471
599.507	67590
599.576	66883
599.646	67137
599.715	67377
599.785	64768
599.854	66880
599.924	67184
599.993	68062
600.062	66510
600.132	67595
600.201	69605
600.270	75543
600.340	77817
600.409	76060
600.478	75102
600.547	76553
600.617	74834
600.686	67727
600.755	65761
600.824	64982
600.894	64514
600.963	64998
601.032	64020
601.101	65876
601.170	63666
601.239	63579
601.308	66283
601.378	66239
601.447	66023
601.516	66516
601.585	66818
601.654	69925
601.723	69385
601.792	69639
601.861	71058
601.930	74949
601.999	75603
602.068	73072
602.137	77428
602.206	76429
602.275	75210
602.343	78034
602.412	77811
602.481	75383
602.550	75180
602.619	76326
602.688	76544
602.756	78559
602.825	76955
602.894	78935
602.963	78172
603.032	78893
603.100	77511
603.169	78768
603.238	80105
603.307	77417
603.375	78321
603.444	80768
603.513	76974
603.581	78554
603.650	81869
603.719	72976
603.787	71902
603.856	74330
603.924	75182
603.993	77559
604.061	79808
604.130	80533
604.198	81447
604.267	82971
604.335	83343
604.404	83437
604.472	85115
604.541	85396
604.609	87234
604.678	88782
604.746	88634
604.815	92034
604.883	89939
604.951	88657
605.020	89319
605.088	88591
605.156	86205
605.225	86982
605.293	85840
605.361	87219
605.429	86854
605.498	88581
605.566	89096
605.634	92129
605.702	94746
605.771	96337
605.839	96158
605.907	91418
605.975	92664
606.043	90517
606.111	88413
606.180	92587
606.248	87824
606.316	88120
606.384	90815
606.452	87859
606.520	82685
606.588	80596
606.656	79028
606.724	79217
606.792	74085
606.860	69162
606.928	64830
606.996	63515
607.064	61337
607.132	62315
607.200	66267
607.267	67989
607.335	67759
607.403	70630
607.471	68199
607.539	67241
607.607	65817
607.674	59733
607.742	62325
607.810	61463
607.878	60186
607.946	60021
608.013	63805
608.081	64461
608.149	64753
608.216	65662
608.284	67801
608.352	67298
608.419	66091
608.487	71554
608.555	67345
608.622	65609
608.690	67630
608.757	73056
608.825	74410
608.893	73605
608.960	70960
609.028	70600
609.095	74473
609.163	68750
609.230	64060
609.298	61596
609.365	61327
609.432	65058
609.500	69608
609.567	78485
609.635	85600
609.702	89703
609.769	85480
609.837	71279
609.904	63435
609.971	63103
610.039	66129
610.106	76318
610.173	111694
610.241	209561
610.308	129009
610.375	73739
610.442	64962
610.509	63034
610.577	63302
610.644	64716
610.711	67558
610.778	69387
610.845	69753
610.912	74874
610.980	75312
611.047	76456
611.114	74948
611.181	71589
611.248	70417
611.315	76409
611.382	74348
611.449	77509
611.516	79424
611.583	77789
611.650	77853
611.717	78220
611.784	78827
611.851	81563
611.918	84367
611.984	92039
612.051	113985
612.118	185144
612.185	381798
612.252	244011
612.319	101751
612.386	94100
612.452	89459
612.519	87645
612.586	92322
612.653	89557
612.719	88649
612.786	85101
612.853	80519
612.919	80974
612.986	81841
613.053	77197
613.120	74090
613.186	71798
613.253	73866
613.319	72874
613.386	73901
613.453	75220
613.519	76958
613.586	78601
613.652	87529
613.719	80862
613.785	78591
613.852	74718
613.918	73506
613.985	75840
614.051	78366
614.118	83882
614.184	79668
614.250	73049
614.317	74840
614.383	74737
614.449	76148
614.516	76422
614.582	76704
614.648	75339
614.715	74811
614.781	74096
614.847	75491
614.914	76496
614.980	73240
615.046	73984
615.112	73993
615.179	74312
615.245	75570
615.311	76457
615.377	79032
615.443	78985
615.509	78726
615.575	79004
615.642	77462
615.708	80951
615.774	82614
615.840	88665
615.906	93431
615.972	102400
616.038	135375
616.104	224651
616.170	446073
616.236	364222
616.302	127138
616.368	108673
616.434	92204
616.500	90891
616.565	94923
616.631	103230
616.697	92100
616.763	94046
616.829	117036
616.895	169145
616.961	154861
617.026	94740
617.092	82681
617.158	83675
617.224	82846
617.289	79825
617.355	77564
617.421	78670
617.487	80168
617.552	75984
617.618	75305
617.684	75891
617.749	78303
617.815	74168
617.880	74346
617.946	74631
618.012	76110
618.077	77616
618.143	74639
618.208	75475
618.274	79676
618.339	80381
618.405	70641
618.470	72162
618.536	72118
618.601	74232
618.667	71954
618.732	68824
618.798	66615
618.863	69028
618.928	68497
618.994	69910
619.059	71881
619.124	77275
619.190	72367
619.255	68291
619.320	67657
619.386	67594
619.451	65442
619.516	65996
619.581	67382
619.647	69213
619.712	68390
619.777	67746
619.842	67808
619.907	68906
619.972	68067
620.038	68577
620.103	68624
620.168	67442
620.233	68815
620.298	66884
620.363	67391
620.428	70299
620.493	70309
620.558	71250
620.623	71345
620.688	71066
620.753	68464
620.818	71481
620.883	69831
620.948	71243
621.013	69138
621.078	70273
621.143	70420
621.207	72574
621.272	70373
621.337	71742
621.402	73049
621.467	78355
621.532	80386
621.596	76415
621.661	72328
621.726	72036
621.791	71859
621.855	73810
621.920	74071
621.985	74597
622.049	76132
622.114	75719
622.179	74456
622.243	79286
622.308	78777
622.373	80535
622.437	78659
622.502	77078
622.566	77515
622.631	76082
622.695	78358
622.760	79128
622.824	76863
622.889	78048
622.953	78416
623.018	90226
623.082	86175
623.147	78488
623.211	78318
623.276	77074
623.340	72923
623.404	74842
623.469	73700
623.533	73728
623.597	72271
623.662	73264
623.726	69306
623.790	67863
623.854	69321
623.919	68993
623.983	67878
624.047	70115
624.111	67690
624.176	69915
624.240	70275
624.304	73276
624.368	68718
624.432	67785
624.496	70245
624.560	72834
624.625	72168
624.689	69915
624.753	71805
624.817	69858
624.881	68254
624.945	65837
625.009	64175
625.073	65346
625.137	67004
625.201	71424
625.265	71025
625.329	66967
625.393	67503
625.456	65676
625.520	66241
625.584	67973
625.648	72006
625.712	81120
625.776	113821
625.839	119318
625.903	72639
625.967	60596
626.031	74263
626.095	89496
626.158	64127
626.222	54776
626.286	52513
626.349	51842
626.413	49145
626.477	53444
626.540	48929
626.604	48915
626.668	50339
626.731	49645
626.795	51507
626.858	50323
626.922	48764
626.986	48258
627.049	46016
627.113	49359
627.176	48086
627.240	47546
627.303	45579
627.366	46225
627.430	46773
627.493	45965
627.557	46515
627.620	48069
627.684	46029
627.747	47033
627.810	43483
627.874	43747
627.937	41385
628.000	45780
628.064	43383
628.127	38710
628.190	40228
628.253	41956
628.317	38479
628.380	37975
628.443	36905
628.506	38911
628.569	36676
628.632	35422
628.696	35164
628.759	36573
628.822	34675
628.885	33600
628.948	35474
629.011	35178
629.074	34082
629.137	33502
629.200	32568
629.263	34922
629.326	32378
629.389	31983
629.452	32830
629.515	33523
629.578	31570
629.641	33443
629.704	32899
629.767	33933
629.830	31451
629.892	32128
629.955	31141
630.018	34431
630.081	32007
630.144	34911
630.207	30631
630.269	33842
630.332	31469
630.395	31305
630.458	29572
630.520	29230
630.583	29740
630.646	30152
630.708	29148
630.771	29351
630.834	29304
630.896	28737
630.959	30045
631.021	28799
631.084	28420
631.146	29559
631.209	30942
631.272	27509
631.334	27066
631.397	27764
631.459	27669
631.522	28014
631.584	28184
631.646	28037
631.709	28142
631.771	30812
631.834	29330
631.896	28201
631.958	25867
632.021	27700
632.083	26204
632.145	27707
632.208	25916
632.270	27373
632.332	25856
632.395	25357
632.457	26403
632.519	26090
632.581	26295
632.643	24079
632.706	25777
632.768	24616
632.830	25694
632.892	26290
632.954	25458
633.016	27220
633.078	25048
633.141	25556
633.203	24819
633.265	26583
633.327	25661
633.389	25670
633.451	26849
633.513	28054
633.575	27528
633.637	26497
633.698	25369
633.760	25653
633.822	24486
633.884	26400
633.946	25770
634.008	25310
634.070	23973
634.132	24977
634.193	24861
634.255	26605
634.317	25076
634.379	27576
634.441	24538
634.502	24910
634.564	23889
634.626	22871
634.687	23213
634.749	23421
634.811	23444
634.873	21365
634.934	22156
634.996	24346
635.057	22709
635.119	22915
635.181	22715
635.242	23347
635.304	20807
635.365	24358
635.427	21575
635.488	22557
635.550	22607
635.611	22622
635.673	19809
635.734	25611
635.796	23327
635.857	24864
635.918	22139
635.980	25413
636.041	23289
636.102	24858
636.164	23911
636.225	25006
636.286	21345
636.348	22802
636.409	21614
636.470	22069
636.531	22121
636.593	22742
636.654	22422
636.715	21901
636.776	20010
636.838	20308
636.899	21443
636.960	21413
637.021	20232
637.082	20120
637.143	19843
637.204	19241
637.265	19386
637.326	20248
637.387	20527
637.448	18749
637.509	19618
637.570	20153
637.631	20381
637.692	18739
637.753	18392
637.814	18956
637.875	19909
637.936	19440
637.997	18279
638.058	18486
638.119	19406
638.179	19368
638.240	19178
638.301	18973
638.362	18784
638.423	19743
638.483	19764
638.544	17977
638.605	20078
638.666	17865
638.726	18622
638.787	19295
638.848	17638
638.908	17620
638.969	18370
639.030	18747
639.090	17505
639.151	17881
639.211	18862
639.272	21114
639.332	25647
639.393	19771
639.453	16298
639.514	17991
639.574	18052
639.635	17239
639.695	18086
639.756	16945
639.816	18033
639.877	18705
639.937	22969
639.997	24995
640.058	17453
640.118	16773
640.178	17337
640.239	15686
640.299	17119
640.359	15399
640.420	16883
640.480	17301
640.540	16281
640.600	17223
640.661	17114
640.721	16005
640.781	18470
640.841	16878
640.901	17561
640.961	17105
641.021	16795
641.082	17111
641.142	19782
641.202	18219
641.262	14502
641.322	17040
641.382	15452
641.442	17260
641.502	14886
641.562	17341
641.622	15936
641.682	17482
641.742	16753
641.802	16920
641.861	16064
641.921	16098
641.981	17387
642.041	16688
642.101	18505
642.161	15644
642.221	14896
642.280	15201
642.340	14891
642.400	14752
642.460	16677
642.519	15480
642.579	15783
642.639	17074
642.698	13821
642.758	17532
642.818	16004
642.877	15069
642.937	16186
642.997	18974
643.056	19888
643.116	15852
643.175	16712
643.235	15049
643.294	14729
643.354	17250
643.414	17229
643.473	17555
643.532	17046
643.592	19068
643.651	23711
643.711	34934
643.770	57084
643.830	121489
643.889	233845
643.948	60623
644.008	20199
644.067	16831
644.126	15096
644.186	15680
644.245	16144
644.304	13372
644.363	15683
644.423	13570
644.482	14484
644.541	15299
644.600	12593
644.659	16212
644.719	15540
644.778	19714
644.837	23404
644.896	39281
644.955	73376
645.014	30004
645.073	16206
645.132	16034
645.191	15121
645.250	14075
645.309	16312
645.368	15108
645.427	16771
645.486	18469
645.545	23943
645.604	14982
645.663	14297
645.722	13844
645.781	14400
645.840	13784
645.898	14815
645.957	18040
646.016	20743
646.075	31627
646.134	52110
646.192	125659
646.251	172324
646.310	32102
646.369	16265
646.427	16042
646.486	12831
646.545	14075
646.603	13620
646.662	13039
646.721	13180
646.779	12775
646.838	11913
646.896	13967
646.955	13920
647.014	18603
647.072	23626
647.131	49431
647.189	26129
647.248	12230
647.306	13075
647.365	13222
647.423	9910
647.481	13818
647.540	10263
647.598	11822
647.657	10618
647.715	12042
647.773	11093
647.832	13128
647.890	11078
647.948	10486
648.007	12067
648.065	11517
648.123	10436
648.181	13123
648.240	11241
648.298	10728
648.356	11091
648.414	12595
648.472	11412
648.531	11814
648.589	11064
648.647	10945
648.705	10910
648.763	11859
648.821	12099
648.879	10922
648.937	11478
648.995	11731
649.053	12235
649.111	14372
649.169	17688
649.227	27155
649.285	45595
649.343	115341
649.401	56484
649.459	27082
649.516	18804
649.574	12284
649.632	15770
649.690	15754
649.748	13560
649.806	14327
649.863	21333
649.921	37561
649.979	24614
650.037	11937
650.094	9054
650.152	10528
650.210	9377
650.268	11348
650.325	10287
650.383	10016
650.440	9233
650.498	10286
650.556	9213
650.613	9539
650.671	10575
650.728	10469
650.786	9963
650.843	9940
650.901	8104
650.958	9906
651.016	9134
651.073	9481
651.131	8761
651.188	8239
651.246	8993
651.303	8492
651.360	9725
651.418	8862
651.475	9280
651.532	8288
651.590	8793
651.647	7981
651.704	8423
651.762	8783
651.819	9105
651.876	8578
651.933	8381
651.990	9690
652.048	7784
652.105	8191
652.162	8769
652.219	7895
652.276	8276
652.333	8905
652.390	7613
652.448	9233
652.505	8212
652.562	8309
652.619	7772
652.676	9465
652.733	9766
652.790	8299
652.847	6441
652.904	8457
652.961	6931
653.017	7142
653.074	8644
653.131	8247
653.188	6920
653.245	7949
653.302	8018
653.359	7682
653.415	7467
653.472	7119
653.529	8855
653.586	7102
653.642	7634
653.699	7853
653.756	6559
653.813	8630
653.869	7567
653.926	7169
653.983	6643
654.039	8463
654.096	6990
654.152	8629
654.209	6452
654.266	7685
654.322	6727
654.379	8224
654.435	8328
654.492	8493
654.548	10725
654.605	12658
654.661	9244
654.717	7395
654.774	8627
654.830	8206
654.887	7825
654.943	8276
655.000	8377
655.056	8498
655.112	8446
655.168	7128
655.225	7415
655.281	8914
655.337	9289
655.394	12218
655.450	9769
655.506	9235
655.562	11910
655.618	10082
655.675	7105
655.731	7854
655.787	6347
655.843	8680
655.899	6921
655.955	7800
656.011	7785
656.067	5919
656.123	8214
656.179	8089
656.235	8760
656.291	6621
656.347	7962
656.403	7199
656.459	8067
656.515	8186
656.571	8501
656.627	9107
656.683	8219
656.739	9434
656.795	7074
656.850	8385
656.906	8648
656.962	7924
657.018	6799
657.074	8523
657.129	7793
657.185	10151
657.241	11603
657.297	9172
657.352	7804
657.408	8094
657.464	7897
657.519	7887
657.575	6583
657.630	7905
657.686	6322
657.742	7254
657.797	7262
657.853	8128
657.908	8103
657.964	7129
658.019	7641
658.075	7612
658.130	8010
658.186	6320
658.241	7240
658.297	6747
658.352	6545
658.407	8250
658.463	6838
658.518	7113
658.573	7235
658.629	6927
658.684	7217
658.739	7609
658.795	6139
658.850	7372
658.905	6045
658.960	7053
659.016	6833
659.071	6766
659.126	7361
659.181	7401
659.236	10713
659.291	10027
659.346	7789
659.401	8589
659.457	8176
659.512	7041
659.567	7831
659.622	8226
659.677	6795
659.732	6792
659.787	7191
659.842	7997
659.897	8676
659.952	7980
660.007	7662
660.061	7801
660.116	6828
660.171	6518
660.226	7333
660.281	8135
660.336	6310
660.391	7602
660.445	6569
660.500	7632
660.555	6914
660.610	7246
660.664	7273
660.719	6750
660.774	7118
660.828	7752
660.883	7314
660.938	8539
660.992	6661
661.047	7806
661.101	6636
661.156	7273
661.211	6009
661.265	6971
661.320	7070
661.374	8134
661.429	6630
661.483	7957
661.538	6014
661.592	7813
661.647	6874
661.701	8314
661.755	7336
661.810	8091
661.864	6299
661.919	6720
661.973	7184
662.027	6593
662.081	5802
662.136	8151
662.190	8249
662.244	7668
662.299	7031
662.353	7232
662.407	6413
662.461	7137
662.515	7619
662.569	7841
662.624	7727
662.678	7397
662.732	6866
662.786	7445
662.840	7523
662.894	7418
662.948	6761
663.002	7477
663.056	7065
663.110	6352
663.164	7203
663.218	6566
663.272	6826
663.326	7151
663.380	7366
663.434	7172
663.488	7002
663.542	7519
663.595	6929
663.649	7220
663.703	6793
663.757	7194
663.811	6722
663.864	7298
663.918	6799
663.972	7434
664.026	7136
664.079	6678
664.133	7952
664.187	6586
664.240	6903
664.294	7001
664.348	6864
664.401	7091
664.455	6564
664.508	6976
664.562	7754
664.615	6670
664.669	6423
664.722	7135
664.776	6765
664.829	7032
664.883	6480
664.936	7529
664.990	6984
665.043	7997
665.097	7645
665.150	9402
665.203	7326
665.257	8003
665.310	8176
665.363	8370
665.417	7745
665.470	6949
665.523	7246
665.576	7316
665.630	7207
665.683	7840
665.736	7257
665.789	7824
665.842	6821
665.895	7679
665.949	7819
666.002	7431
666.055	7239
666.108	8354
666.161	6938
666.214	8119
666.267	7586
666.320	8598
666.373	7993
666.426	7516
666.479	6986
666.532	7486
666.585	7570
666.638	7467
666.691	6644
666.744	8487
666.796	7402
666.849	7512
666.902	6929
666.955	7825
667.008	6575
667.060	6610
667.113	6407
667.166	6862
667.219	7026
667.271	7809
667.324	6709
667.377	7572
667.430	6308
667.482	7764
667.535	6312
667.587	8138
667.640	8294
667.693	8247
667.745	9534
667.798	11015
667.850	7196
667.903	6801
667.955	7811
668.008	6800
668.060	8056
668.113	8259
668.165	7873
668.218	9067
668.270	7782
668.322	7617
668.375	6940
668.427	8142
668.479	7277
668.532	8652
668.584	7909
668.636	6739
668.689	8160
668.741	7922
668.793	7260
668.845	8067
668.898	6662
668.950	7401
669.002	8309
669.054	7721
669.106	7532
669.158	8938
669.211	7403
669.263	7566
669.315	8261
669.367	8187
669.419	7047
669.471	8090
669.523	6999
669.575	8236
669.627	7424
669.679	7386
669.731	6709
669.783	7134
669.835	6744
669.886	6543
669.938	6231
669.990	6631
670.042	5460
670.094	7487
670.146	6670
670.197	7653
670.249	8109
670.301	7309
670.353	7438
670.404	9188
670.456	9677
670.508	11662
670.560	15721
670.611	22913
670.663	35468
670.715	81581
670.766	117388
670.818	32983
670.869	10283
670.921	8414
670.972	8282
671.024	7438
671.075	7575
671.127	7133
671.178	6437
671.230	7882
671.281	7141
671.333	7613
671.384	7792
671.436	8241
671.487	8877
671.538	9699
671.590	10444
671.641	12256
671.692	16521
671.744	25956
671.795	18196
671.846	10910
671.897	8725
671.949	9705
672.000	7278
672.051	7368
672.102	8007
672.153	7965
672.204	7835
672.256	8277
672.307	8341
672.358	8067
672.409	7798
672.460	7264
672.511	6834
672.562	7988
672.613	7322
672.664	7603
672.715	6889
672.766	7473
672.817	5836
672.868	6838
672.919	6820
672.970	6709
673.021	7191
673.071	6873
673.122	6148
673.173	6589
673.224	6040
673.275	6907
673.326	6127
673.376	6690
673.427	5764
673.478	7176
673.528	6771
673.579	6015
673.630	6897
673.680	7536
673.731	5826
673.782	6193
673.832	6847
673.883	6415
673.934	6563
673.984	5513
674.035	6203
674.085	7321
674.136	6051
674.186	7047
674.237	7463
674.287	7814
674.338	6165
674.388	6129
674.438	5626
674.489	5934
674.539	6087
674.589	6699
674.640	6381
674.690	7011
674.740	6587
674.791	8345
674.841	7171
674.891	7646
674.942	5707
674.992	6805
675.042	5908
675.092	5538
675.142	5820
675.193	5978
675.243	5170
675.293	6396
675.343	6552
675.393	5851
675.443	6054
675.493	5366
675.543	5808
675.593	6951
675.643	5328
675.693	6581
675.743	6013
675.793	6236
675.843	5162
675.893	6530
675.943	6218
675.993	5945
676.043	5684
676.093	5724
676.142	5356
676.192	6593
676.242	5355
676.292	5540
676.341	5502
676.391	6866
676.441	4874
676.491	4259
676.540	4872
676.590	5344
676.640	5503
676.689	5529
676.739	5168
676.789	5227
676.838	5546
676.888	5390
676.937	4813
676.987	5023
677.037	5074
677.086	4875
677.136	4152
677.185	5362
677.235	4709
677.284	6251
677.333	4737
677.383	5240
677.432	3749
677.482	4993
677.531	5140
677.580	4565
677.630	4244
677.679	4980
677.728	5436
677.778	5555
677.827	4096
677.876	4302
677.925	3875
677.975	4984
678.024	4596
678.073	4893
678.122	5252
678.171	5704
678.220	4569
678.269	5988
678.319	5044
678.368	5213
678.417	5451
678.466	5463
678.515	5446
678.564	5534
678.613	5572
678.662	4976
678.711	4987
678.760	5036
678.809	4571
678.857	5155
678.906	5252
678.955	5436
679.004	5188
679.053	4998
679.102	4774
679.151	5300
679.199	4636
679.248	5054
679.297	4630
679.346	5998
679.394	4642
679.443	5186
679.492	5455
679.540	5675
679.589	5541
679.638	5365
679.686	4369
679.735	5010
679.784	4585
679.832	5104
679.881	4005
679.929	5166
679.978	4002
680.026	4961
680.075	4773
680.123	4456
680.172	4322
680.220	4204
680.268	4852
680.317	4216
680.365	3844
680.414	4350
680.462	3968
680.510	4910
680.559	4127
680.607	4301
680.655	4587
680.703	4292
680.752	4398
680.800	3533
680.848	3164
680.896	4573
680.945	3817
680.993	4095
681.041	3348
681.089	3890
681.137	3603
681.185	4184
681.233	4239
681.258	4301
681.281	4262
681.329	3799
681.377	4795
681.380	4917
681.425	5265
681.473	6226
681.502	5940
681.521	5562
681.569	6594
681.617	5728
681.624	5830
681.665	5704
681.713	6443
681.745	6570
681.761	6491
681.809	5638
681.857	7297
681.867	7055
681.904	5799
681.952	7538
681.989	7389
682.000	7221
682.048	7718
682.096	6962
682.111	7387
682.143	7999
682.191	7862
682.233	8948
682.239	9012
682.286	7832
682.334	8653
682.354	8626
682.382	8379
682.430	8940
682.476	8770
682.477	8677
682.525	8895
682.572	9168
682.598	9156
682.620	9033
682.667	9479
682.715	9769
682.720	9945
682.763	10627
682.810	10730
682.841	10505
682.857	10298
682.905	9920
682.952	10490
682.963	10800
683.000	11599
683.047	11047
683.085	12058
683.095	12204
683.142	11588
683.190	12168
683.206	12100
683.237	11814
683.284	12293
683.328	12541
683.332	12482
683.379	13136
683.426	12022
683.449	12367
683.473	12646
683.521	12876
683.568	13573
683.571	13661
683.615	13824
683.662	14682
683.693	14044
683.709	13580
683.757	13721
683.804	13955
683.814	14277
683.851	15205
683.898	14445
683.936	15003
683.945	15070
683.992	14940
684.039	15716
684.057	15859
684.086	15842
684.133	15453
684.179	15318
684.180	15259
684.227	16628
684.274	16849
684.300	16887
684.321	16793
684.368	15858
684.415	17692
684.422	17526
684.462	16246
684.509	16516
684.543	16689
684.556	16685
684.603	16819
684.649	17117
684.665	17323
684.696	17789
684.743	18103
684.786	19229
684.790	19270
684.837	18404
684.883	19882
684.908	19891
684.930	19888
684.977	21059
685.023	20742
685.029	20797
685.070	20111
685.117	20849
685.150	20400
685.164	20450
685.210	21011
685.257	21897
685.272	22372
685.303	22721
685.350	22409
685.393	21435
685.396	21335
685.443	22089
685.490	22470
685.514	22434
685.536	22351
685.583	23270
685.629	22536
685.636	22594
685.675	22629
685.722	23366
685.757	22966
685.768	22907
685.815	23832
685.861	23912
685.878	24180
685.908	24293
685.954	23987
686.000	24370
686.000	24359
686.047	24408
686.093	25994
686.121	26230
686.139	26175
686.185	26158
686.232	25407
686.242	25535
686.278	25561
686.324	25105
686.363	24471
686.370	24430
686.416	24733
686.463	25707
686.484	25414
686.509	25003
686.555	25735
686.601	24896
686.606	24971
686.647	25568
686.693	25716
686.727	25684
686.739	25633
686.785	25688
686.831	25684
686.848	25697
686.877	25675
686.923	25679
686.969	25766
686.969	25764
687.015	26268
687.061	26870
687.090	27317
687.107	27426
687.153	26378
687.199	26798
687.211	26793
687.245	26797
687.291	26921
687.332	27179
687.336	27245
687.382	27844
687.428	27633
687.453	28051
687.474	27961
687.520	27906
687.565	27208
687.574	26998
687.611	26891
687.657	27735
687.695	27968
687.702	28038
687.748	28682
687.794	29452
687.816	29470
687.839	28970
687.885	28449
687.931	27668
687.937	27611
687.976	28307
688.022	28902
688.058	29162
688.067	29178
688.113	29585
688.158	29307
688.179	29490
688.204	29700
688.249	30076
688.295	30565
688.300	30511
688.340	30866
688.386	32268
688.421	32438
688.431	32208
688.477	31999
688.522	31156
688.542	31148
688.567	31579
688.613	31146
688.658	30905
688.663	30892
688.703	31119
688.749	31527
688.784	31695
688.794	31699
688.839	31547
688.884	31744
688.905	31802
688.930	31896
688.975	31052
689.020	31551
689.026	31492
689.065	31811
689.110	32131
689.146	32383
689.155	32345
689.201	32088
689.246	31584
689.267	31373
689.291	31567
689.336	32513
689.381	32926
689.388	32877
689.426	32548
689.471	33131
689.509	32172
689.516	31979
689.561	32220
689.606	31637
689.630	31779
689.651	32221
689.696	31687
689.741	32372
689.750	32425
689.785	32687
689.830	32866
689.871	32484
689.875	32451
689.920	32515
689.965	31806
689.992	31451
690.010	31669
690.054	32355
690.099	33099
690.112	33140
690.144	32745
690.189	32948
690.233	32426
690.233	32467
690.278	32477
690.323	32282
690.354	32034
690.367	32132
690.412	32328
690.457	33224
690.474	33264
690.501	33085
690.546	32844
690.590	32400
690.595	32274
690.635	32140
690.680	32376
690.716	33029
690.724	33296
690.769	33756
690.813	34851
690.836	34820
690.857	34944
690.902	35845
690.946	36456
690.957	36627
690.991	38419
691.035	40162
691.077	42538
691.080	42582
691.124	41129
691.168	40650
691.198	39710
691.213	39237
691.257	38006
691.301	36415
691.318	36062
691.346	36203
691.390	35499
691.434	34810
691.439	34733
691.478	35495
691.522	36280
691.559	36399
691.567	36414
691.611	37057
691.655	36645
691.680	36796
691.699	37179
691.743	37417
691.787	38130
691.800	38062
691.831	38288
691.875	39261
691.919	39627
691.921	39578
691.964	39754
692.008	39814
692.041	40104
692.052	40257
692.096	39736
692.139	39827
692.162	39727
692.183	39783
692.227	39682
692.271	39460
692.282	39423
692.315	39484
692.359	39195
692.402	38894
692.403	38968
692.447	39190
692.490	39573
692.523	39494
692.534	39665
692.578	39962
692.622	40392
692.643	40556
692.666	40278
692.709	39488
692.753	38809
692.763	38530
692.797	38586
692.840	38906
692.884	38614
692.884	38696
692.928	39829
692.971	40729
693.004	41168
693.015	41127
693.059	40451
693.102	40366
693.124	39939
693.146	39849
693.189	40091
693.233	39923
693.245	39885
693.276	40337
693.320	40459
693.363	40400
693.365	40340
693.407	41365
693.450	42016
693.485	42253
693.493	42311
693.537	42522
693.580	42325
693.605	42402
693.624	43254
693.667	44835
693.710	46398
693.725	46838
693.753	50354
693.797	55785
693.840	61335
693.845	61866
693.883	58688
693.926	54812
693.966	51216
693.970	50940
694.013	47097
694.056	43055
694.086	40174
694.099	40538
694.142	41535
694.185	42681
694.206	43092
694.229	42840
694.272	41815
694.315	41419
694.326	41094
694.358	41255
694.401	41608
694.444	41983
694.446	41906
694.487	42370
694.530	42492
694.566	42753
694.573	42719
694.616	41802
694.659	40793
694.686	40172
694.702	40161
694.745	39912
694.787	39524
694.806	39279
694.830	39751
694.873	40538
694.916	41256
694.926	41299
694.959	41069
695.002	40874
695.044	40359
695.046	40257
695.087	40821
695.130	41270
695.166	41471
695.172	41653
695.215	42121
695.258	42759
695.286	42988
695.301	43101
695.343	43239
695.386	43376
695.406	43236
695.428	42782
695.471	42016
695.514	41274
695.526	40889
695.556	41622
695.599	42768
695.641	43612
695.646	43619
695.684	43214
695.726	42579
695.766	42124
695.769	42270
695.811	42712
695.854	43258
695.886	43517
695.896	43405
695.938	42420
695.981	41369
696.005	40794
696.023	41358
696.065	42387
696.108	43506
696.125	43772
696.150	43934
696.192	44176
696.235	44396
696.245	44355
696.277	43940
696.319	43258
696.361	42503
696.365	42326
696.404	42553
696.446	42876
696.485	42865
696.488	43021
696.530	43848
696.572	44578
696.604	45122
696.614	45057
696.656	44096
696.698	43322
696.724	42697
696.740	42786
696.783	42687
696.825	42589
696.844	42462
696.867	42876
696.909	43338
696.951	43944
696.964	44025
696.992	43933
697.034	43536
697.076	43206
697.083	43022
697.118	43461
697.160	43967
697.202	44495
697.203	44393
697.244	43862
697.286	43369
697.323	42655
697.327	42729
697.369	42549
697.411	42297
697.442	42037
697.453	42419
697.494	43364
697.536	44572
697.562	45099
697.578	45058
697.620	44779
697.661	44324
697.682	44022
697.703	44428
697.744	45001
697.786	45674
697.801	45766
697.828	45931
697.869	45960
697.911	46010
697.921	45911
697.952	45560
697.994	44900
698.035	44283
698.040	44086
698.077	43782
698.118	43334
698.160	42843
698.160	42727
698.201	42910
698.243	42905
698.279	42815
698.284	43019
698.325	43873
698.367	44739
698.399	45236
698.408	45302
698.449	45133
698.491	44867
698.518	44629
698.532	44828
698.573	45045
698.614	45247
698.638	45237
698.656	45322
698.697	45238
698.738	45163
698.757	45013
698.779	45697
698.820	46745
698.862	47815
698.877	48073
698.903	47865
698.944	47350
698.985	46826
698.996	46557
699.026	46915
699.067	47235
699.116	47490
699.235	45710
699.354	45436
699.474	45590
699.593	48026
699.713	45643
699.832	45052
699.951	45450
700.070	43619
700.190	44193
700.309	43422
700.428	43836
700.547	43365
700.667	43264
700.786	43674
700.905	41423
701.024	43458
701.143	41733
701.262	40724
701.381	40316
701.500	41842
701.619	41771
701.738	40189
701.857	39431
701.976	40517
702.095	39188
702.214	41865
702.333	40455
702.452	39971
702.571	39906
702.690	39995
702.809	38749
702.928	36803
703.047	39175
703.165	37807
703.284	37822
703.403	37473
703.522	38914
703.640	39369
703.759	40507
703.878	44280
703.997	37712
704.115	37026
704.234	36503
704.353	36216
704.471	36641
704.590	35205
704.708	34783
704.827	34753
704.946	36084
705.064	36954
705.183	37385
705.301	44145
705.420	65250
705.538	58022
705.656	48304
705.775	45945
705.893	52717
706.012	58621
706.130	51129
706.249	49814
706.367	50020
706.485	50883
706.604	48737
706.722	47842
706.840	50449
706.958	49983
707.077	48013
707.195	45851
707.313	45989
707.431	44921
707.549	44929
707.668	44636
707.786	45116
707.904	44190
708.022	43702
708.140	43234
708.258	43191
708.376	44746
708.494	43851
708.612	47504
708.730	68814
708.848	64860
708.966	57397
709.084	53349
709.202	53425
709.320	55937
709.438	55936
709.556	54853
709.674	53695
709.791	53987
709.909	53514
710.027	53811
710.145	52748
710.263	53704
710.380	51361
710.498	50512
710.616	52520
710.733	49779
710.851	49907
710.969	50279
711.086	50059
711.204	48644
711.322	48978
711.439	47854
711.557	47411
711.674	46594
711.792	46921
711.909	45715
712.027	46677
712.144	44441
712.262	45916
712.379	49858
712.497	72945
712.614	74539
712.732	62627
712.849	57217
712.966	57384
713.084	63105
713.201	61482
713.318	61563
713.436	59925
713.553	60194
713.670	58154
713.787	60582
713.905	59401
714.022	57314
714.139	55785
714.256	57081
714.373	58281
714.490	64243
714.608	83867
714.725	206369
714.842	216969
714.959	60002
715.076	54604
715.193	51702
715.310	51243
715.427	50879
715.544	49953
715.661	49633
715.778	50955
715.895	56210
716.011	52930
716.128	50321
716.245	50471
716.362	50226
716.479	50349
716.596	47213
716.713	49023
716.829	46677
716.946	47825
717.063	45157
717.180	46532
717.296	45971
717.413	46302
717.530	44222
717.646	42949
717.763	44394
717.880	43727
717.996	43038
718.113	41791
718.229	41989
718.346	40846
718.462	41212
718.579	44121
718.695	47727
718.812	46785
718.928	44555
719.045	40882
719.161	38411
719.277	37647
719.394	38483
719.510	40722
719.626	40329
719.743	48585
719.859	45393
719.975	48541
720.092	80853
720.208	145400
720.324	50597
720.440	40383
720.557	42280
720.673	46119
720.789	53407
720.905	78642
721.021	47544
721.137	37982
721.253	38272
721.369	38005
721.486	39357
721.602	43495
721.718	37847
721.834	33994
721.950	37248
722.066	35205
722.181	34629
722.297	36626
722.413	33888
722.529	34090
722.645	33675
722.761	32691
722.877	33435
722.993	31596
723.108	35547
723.224	31844
723.340	33183
723.456	32014
723.571	33146
723.687	31357
723.803	31815
723.918	31783
724.034	31864
724.150	31323
724.265	31551
724.381	42777
724.497	45746
724.612	30244
724.728	29624
724.843	28112
724.959	30182
725.074	39827
725.190	43822
725.305	28585
725.421	28456
725.536	27631
725.651	27469
725.767	28303
725.882	27838
725.997	27539
726.113	27011
726.228	26410
726.343	27182
726.459	25077
726.574	27300
726.689	25948
726.804	25841
726.920	26971
727.035	27646
727.150	27245
727.265	25490
727.380	25756
727.495	26141
727.610	23625
727.725	25687
727.841	26117
727.956	27888
728.071	28587
728.186	24825
728.301	23475
728.416	25406
728.531	23246
728.645	23623
728.760	24666
728.875	23370
728.990	22762
729.105	23581
729.220	22906
729.335	23713
729.449	24091
729.564	22163
729.679	22160
729.794	22026
729.908	23522
730.023	22509
730.138	21425
730.253	22372
730.367	22484
730.482	20736
730.596	21136
730.711	21817
730.826	22529
730.940	21218
731.055	22567
731.169	19733
731.284	20476
731.398	21559
731.513	22115
731.627	21392
731.742	22932
731.856	23592
731.970	19864
732.085	21938
732.199	22189
732.313	23640
732.428	36063
732.542	76506
732.656	52865
732.771	22749
732.885	20821
732.999	20924
733.113	21378
733.227	21662
733.342	20839
733.456	21279
733.570	20910
733.684	19647
733.798	19612
733.912	20629
734.026	19016
734.140	20569
734.254	20955
734.368	25654
734.482	28616
734.596	19315
734.710	19771
734.824	19653
734.938	19595
735.052	19310
735.166	20527
735.280	19653
735.393	18597
735.507	17788
735.621	21503
735.735	26530
735.849	19357
735.962	17862
736.076	19712
736.190	19047
736.303	21211
736.417	23326
736.531	18885
736.644	18084
736.758	16250
736.872	16933
736.985	16575
737.099	16607
737.212	17417
737.326	17052
737.439	17474
737.553	17304
737.666	16964
737.780	16051
737.893	17319
738.007	16700
738.120	17190
738.233	16128
738.347	17399
738.460	15792
738.573	16170
738.687	16591
738.800	16111
738.913	17341
739.026	16370
739.140	16410
739.253	15860
739.366	16631
739.479	15945
739.592	14860
739.705	15472
739.818	15638
739.932	15291
740.045	16068
740.158	16324
740.271	16034
740.384	15071
740.497	14697
740.610	15193
740.723	15148
740.836	15783
740.949	14655
741.062	17220
741.174	16379
741.287	15457
741.400	14980
741.513	15227
741.626	15250
741.739	15713
741.851	14880
741.964	14743
742.077	14545
742.189	14347
742.302	14116
742.415	14121
742.527	14235
742.640	14754
742.753	14402
742.865	13399
742.978	14570
743.090	14847
743.203	13842
743.316	14384
743.428	13431
743.541	14150
743.653	12993
743.766	13324
743.878	14343
743.990	16058
744.103	15546
744.215	13825
744.327	13314
744.440	14725
744.552	16377
744.664	13787
744.777	13100
744.889	12934
745.001	13385
745.113	13846
745.226	12846
745.338	14070
745.450	12935
745.562	12485
745.674	12630
745.786	12434
745.898	13579
746.010	12424
746.122	13326
746.234	12449
746.347	12636
746.459	12967
746.570	11919
746.682	12482
746.794	12935
746.906	12457
747.018	12405
747.130	12873
747.242	12100
747.354	12109
747.466	12893
747.577	11342
747.689	11299
747.801	11875
747.913	11318
748.024	11009
748.136	11847
748.248	11985
748.359	11719
748.471	12244
748.583	11577
748.694	12136
748.806	13133
748.918	13501
749.029	12709
749.141	12762
749.252	11513
749.364	11964
749.475	14990
749.587	13576
749.698	11530
749.809	11514
749.921	11755
750.032	11070
750.144	11203
750.255	11358
750.366	11357
750.478	11722
750.589	11283
750.700	11381
750.811	11351
750.923	12227
751.034	15351
751.145	15197
751.256	11330
751.367	11028
751.479	10324
751.590	11069
751.701	10729
751.812	10137
751.923	11421
752.034	11289
752.145	10995
752.256	10892
752.367	11222
752.478	10956
752.589	10852
752.700	10351
752.811	10588
752.922	11449
753.032	10210
753.143	11244
753.254	9488
753.365	11072
753.476	10735
753.586	10178
753.697	10224
753.808	11195
753.919	10402
754.029	10089
754.140	10224
754.251	10099
754.361	10071
754.472	10358
754.582	10299
754.693	10677
754.804	10202
754.914	10029
755.025	10027
755.135	10051
755.246	10353
755.356	9653
755.466	10452
755.577	10572
755.687	10294
755.798	10272
755.908	10064
756.018	10070
756.129	10163
756.239	9588
756.349	9857
756.460	9591
756.570	10730
756.680	10085
756.790	10151
756.900	11362
757.011	9951
757.121	11442
757.231	9039
757.341	10752
757.451	9879
757.561	8839
757.671	9179
757.781	8630
757.891	10300
758.001	10143
758.111	10598
758.221	9672
758.331	10677
758.441	10280
758.551	10786
758.661	10904
758.771	9432
758.880	11056
758.990	11247
759.100	11350
759.210	10405
759.320	10868
759.429	10251
759.539	10679
759.649	10274
759.758	11483
759.868	11884
759.978	10218
760.087	10048
760.197	11651
760.307	11742
760.416	9670
760.526	10489
760.635	10780
760.745	10697
760.854	10876
760.964	10897
761.073	11039
761.182	10667
761.292	10484
761.401	11634
761.511	11212
761.620	10310
761.729	11611
761.839	10604
761.948	11166
762.057	11379
762.166	10986
762.276	10002
762.385	12398
762.494	11216
762.603	10731
762.712	12325
762.822	12186
762.931	12407
763.040	11040
763.149	11602
763.258	11293
763.367	11888
763.476	12736
763.585	12472
763.694	12509
763.803	12390
763.912	12303
764.021	13191
764.130	13115
764.238	12521
764.347	13094
764.456	13671
764.565	13004
764.674	13537
764.783	14865
764.891	14127
765.000	15791
765.109	15984
765.217	16912
765.326	20259
765.435	21517
765.543	24043
765.652	25978
765.761	30595
765.869	41070
765.978	58914
766.086	93143
766.195	167173
766.303	353083
766.412	614667
766.520	536079
766.629	291165
766.737	132495
766.846	78539
766.954	53825
767.062	43132
767.171	36262
767.279	29484
767.387	24666
767.496	23100
767.604	21047
767.712	19609
767.820	18303
767.928	18328
768.037	17751
768.145	17903
768.253	17137
768.361	15989
768.469	15490
768.577	16398
768.685	17355
768.793	17943
768.901	18330
769.009	19871
769.117	21364
769.225	23649
769.333	30768
769.441	44270
769.549	71325
769.657	146302
769.765	354348
769.873	523921
769.981	301445
770.088	108330
770.196	56291
770.304	39036
770.412	30968
770.519	24765
770.627	21547
770.735	19817
770.842	18769
770.950	17252
771.058	17098
771.165	15670
771.273	15660
771.380	15147
771.488	15509
771.595	15068
771.703	13583
771.810	14235
771.918	13424
772.025	13857
772.133	13858
772.240	13145
772.348	13757
772.455	13305
772.562	13328
772.670	12846
772.777	13594
772.884	12501
772.991	12141
773.099	12176
773.206	12070
773.313	12272
773.420	12647
773.528	11508
773.635	11526
773.742	12176
773.849	12207
773.956	11137
774.063	12036
774.170	11963
774.277	12114
774.384	11551
774.491	11291
774.598	12402
774.705	11242
774.812	11784
774.919	13353
775.026	12708
775.133	13027
775.239	12594
775.346	11429
775.453	11075
775.560	11925
775.667	12094
775.773	11367
775.880	11511
775.987	11308
776.093	11490
776.200	11977
776.307	10594
776.413	10540
776.520	10905
776.627	10417
776.733	11488
776.840	10292
776.946	12903
777.053	12021
777.159	11026
777.266	10115
777.372	12253
777.478	10735
777.585	11354
777.691	11179
777.798	11679
777.904	10775
778.010	12018
778.117	12252
778.223	10489
778.329	11554
778.435	10736
778.542	10892
778.648	10935
778.754	9620
778.860	10925
778.966	10331
779.072	9463
779.178	10613
779.284	10483
779.391	9421
779.497	9769
779.603	10558
779.708	10957
779.815	16407
779.920	33706
780.026	61300
780.132	14501
780.238	10139
780.344	10292
780.450	11265
780.556	10091
780.661	9202
780.767	9317
780.873	8901
780.979	9860
781.085	9582
781.190	8840
781.296	8480
781.402	8710
781.507	9208
781.613	8939
781.719	9012
781.824	8201
781.930	9381
782.035	9367
782.141	9832
782.246	8519
782.352	8345
782.457	8815
782.563	9709
782.668	8613
782.773	9890
782.879	8883
782.984	9408
783.090	10293
783.195	11398
783.300	9313
783.405	8985
783.511	9512
783.616	9746
783.721	10357
783.826	8738
783.932	8462
784.037	8500
784.142	8822
784.247	8432
784.352	8498
784.457	9801
784.562	9399
784.667	8724
784.772	8152
784.877	8348
784.982	9417
785.087	8069
785.192	9407
785.297	8577
785.402	8728
785.507	7705
785.611	7600
785.716	9094
785.821	8987
785.926	8123
786.031	10107
786.135	9386
786.240	9235
786.345	7161
786.450	9125
786.554	8662
786.659	8351
786.763	7377
786.868	8930
786.973	8692
787.077	7044
787.182	7565
787.286	8406
787.391	7851
787.495	7864
787.600	8052
787.704	7622
787.809	8406
787.913	7728
788.017	8094
788.122	7923
788.226	8053
788.330	6890
788.435	8031
788.539	8031
788.643	7080
788.747	7334
788.852	7885
788.956	7549
789.060	8116
789.164	7377
789.268	6193
789.372	8590
789.476	7455
789.580	6615
789.684	7207
789.788	7260
789.892	7666
789.996	7972
790.100	7644
790.204	7565
790.308	7408
790.412	6304
790.516	8423
790.620	6595
790.724	8124
790.828	8693
790.931	7510
791.035	9132
791.139	7482
791.242	6538
791.346	8756
791.450	6749
791.554	7240
791.657	4799
791.761	7568
791.864	8081
791.968	6935
792.072	7224
792.175	7311
792.279	7472
792.382	7458
792.486	6720
792.589	6650
792.693	7691
792.796	6052
792.899	7120
793.003	7038
793.106	4613
793.209	6103
793.313	7751
793.416	4643
793.519	7997
793.623	7718
793.726	9122
793.829	6812
793.932	7272
794.035	6123
794.138	6840
794.242	7506
794.345	7229
794.448	7786
794.551	8954
794.654	18762
794.757	33224
794.860	11686
794.963	7690
795.066	6328
795.169	6337
795.272	5573
795.375	6594
795.477	5541
795.580	5638
795.683	5468
795.786	5773
795.889	5493
795.991	7648
796.094	7701
796.197	5149
796.300	6723
796.402	5757
796.505	5258
796.608	5651
796.710	6646
796.813	6341
796.915	5423
797.018	6641
797.120	6010
797.223	4813
797.326	7372
797.428	4712
797.530	6019
797.633	4975
797.735	7048
797.838	7940
797.940	7152
798.042	4867
798.145	5959
798.247	6339
798.349	4834
798.452	6875
798.554	5317
798.656	4899
798.758	6055
798.860	5417
798.962	5291
799.065	5776
799.167	5250
799.269	6072
799.371	6589
799.473	5865
799.575	5725
799.677	5943
799.779	7188
799.881	6112
799.983	6668
800.085	5602
800.187	6127
800.289	4862
800.390	5535
800.492	5748
800.594	5907
800.696	4633
800.798	6102
800.899	5088
801.001	4986
801.103	4351
801.205	5108
801.306	5546
801.408	3271
801.509	5318
801.611	6119
801.713	4842
801.814	4443
801.916	4645
802.017	5075
802.119	4186
802.220	5225
802.322	3603
802.423	7541
802.525	4905
802.626	5585
802.727	5096
802.829	5989
802.930	3585
803.031	6060
803.133	4684
803.234	4115
803.335	5356
803.436	4004
803.538	5349
803.639	4038
803.740	4695
803.841	4257
803.942	5212
804.043	5329
804.144	3969
804.245	5579
804.346	3792
804.447	4762
804.548	5585
804.649	6561
804.750	3861
804.851	4386
804.952	4366
805.053	4400
805.154	3189
805.255	4556
805.355	3982
805.456	4166
805.557	3339
805.658	4168
805.758	4623
805.859	4198
805.960	4492
806.061	3236
806.161	4091
806.262	4600
806.362	4121
806.463	4577
806.564	4284
806.664	4951
806.765	4977
806.865	5755
806.966	3948
807.066	4297
807.166	5564
807.267	4549
807.367	4138
807.468	5190
807.568	3427
807.668	5081
807.769	4540
807.869	3210
807.969	4114
808.069	4073
808.170	3609
808.270	3071
808.370	4200
808.470	4880
808.570	3476
808.670	4066
808.770	4649
808.870	3694
808.970	4243
809.070	4171
809.170	4230
809.271	5004
809.370	4138
809.470	4517
809.570	3840
809.670	3894
809.770	3879
809.870	4585
809.970	3677
810.070	3459
810.169	4068
810.269	2793
810.369	5206
810.469	3919
810.568	3610
810.668	3407
810.768	3746
810.867	4880
810.967	3564
811.066	4034
811.166	3268
811.265	4642
811.365	3921
811.464	3819
811.564	4206
811.663	4681
811.763	2567
811.862	4290
811.962	4229
812.061	4159
812.160	2918
812.260	4130
812.359	4308
812.458	3516
812.557	4394
812.657	4223
812.756	3742
812.855	3747
812.954	3602
813.053	4956
813.153	4674
813.252	3352
813.351	4247
813.450	3848
813.549	3960
813.648	4237
813.747	2997
813.846	4586
813.945	2831
814.044	4028
814.143	4189
814.242	4576
814.341	2959
814.439	3419
814.538	4354
814.637	3380
814.736	3189
814.835	4521
814.933	2631
815.032	4375
815.131	4316
815.229	4114
815.328	5182
815.427	4666
815.525	5058
815.624	4924
815.722	3963
815.821	4662
815.919	4618
816.018	3930
816.116	5333
816.215	4183
816.313	4346
816.412	5971
816.510	5054
816.609	6250
816.707	4757
816.805	4881
816.904	4415
817.002	5213
817.100	5872
817.198	4810
817.296	4494
817.395	5175
817.493	5562
817.591	5742
817.689	6867
817.787	6500
817.885	9464
817.983	14454
818.081	26957
818.179	59423
818.277	153002
818.375	119457
818.473	28027
818.571	14432
818.669	9892
818.767	9286
818.865	9183
818.963	11231
819.061	14168
819.158	21798
819.256	46736
819.354	105317
819.452	225114
819.549	133975
819.647	37391
819.745	17230
819.842	11311
819.940	8518
820.038	7397
820.135	7161
820.233	8172
820.330	6839
820.428	4975
820.525	6024
820.623	4713
820.720	4458
820.818	4858
820.915	5667
821.012	4970
821.110	3681
821.207	4843
821.304	3757
821.402	5388
821.499	5575
821.596	4747
821.693	4137
821.791	4819
821.888	4602
821.985	6819
822.082	5055
822.179	5010
822.276	4368
822.373	3853
822.470	4588
822.567	3581
822.664	3134
822.761	4703
822.858	3853
822.955	4313
823.052	4016
823.149	4185
823.246	4177
823.343	3685
823.440	4441
823.536	4316
823.633	3102
823.730	2673
823.827	4003
823.923	3555
824.020	5315
824.117	4271
824.213	3998
824.310	3643
824.407	2699
824.503	4131
824.600	3616
824.696	3736
824.793	4399
824.889	3848
824.986	3910
825.082	3110
825.179	4779
825.275	3657
825.371	3310
825.468	3056
825.564	3052
825.660	4006
825.757	4195
825.853	3713
825.949	2879
826.045	3518
826.142	3032
826.238	2851
826.334	3767
826.430	2869
826.526	4094
826.622	2104
826.718	4139
826.814	3428
826.910	4454
827.006	3245
827.102	2880
827.198	3698
827.294	3933
827.390	3914
827.486	3568
827.582	1872
827.678	3151
827.774	3881
827.869	2707
827.965	5336
828.061	2769
828.157	3070
828.252	3525
828.348	3921
828.444	4349
828.539	2820
828.635	2797
828.731	4688
828.826	2518
828.922	3971
829.017	3334
829.113	3713
829.208	2408
829.304	2355
829.399	4414
829.495	2551
829.590	3246
829.685	2508
829.781	3355
829.876	3220
829.971	3191
830.066	2836
830.162	3160
830.257	3730
830.352	3751
830.447	4267
830.543	3017
830.638	1946
830.733	3684
830.828	2678
830.923	3730
831.018	2947
831.113	3736
831.208	3144
831.303	3199
831.398	2738
831.493	3013
831.588	3910
831.683	2193
831.778	2917
831.873	2670
831.967	2951
832.062	3141
832.157	2452
832.252	3984
832.346	2590
832.441	4587
832.536	4702
832.631	7427
832.725	6492
832.820	3435
832.914	3050
833.009	3412
833.104	3472
833.198	3644
833.293	2133
833.387	3862
833.482	3723
833.576	2261
833.670	3260
833.765	2659
833.859	2917
833.954	3432
834.048	3143
834.142	3068
834.237	2391
834.331	2857
834.425	2506
834.519	3087
834.613	3881
834.708	2933
834.802	1944
834.896	2021
834.990	2978
835.084	3892
835.178	2848
835.272	3734
835.366	3130
835.460	3616
835.554	3338
835.648	3346
835.742	1571
835.836	3604
835.930	2153
836.024	3002
836.117	4165
836.211	3435
836.305	3988
836.399	4760
836.493	1907
836.586	3456
836.680	2803
836.774	2939
836.867	3692
836.961	2236
837.055	3338
837.148	3382
837.242	2668
837.335	3040
837.429	2801
837.522	3282
837.616	3989
837.709	5184
837.803	4720
837.896	4488
837.989	2538
838.083	3757
838.176	6000
838.269	5464
838.363	4527
838.456	2227
838.549	4277
838.642	4914
838.735	7516
838.829	5370
838.922	2987
839.015	2915
839.108	2508
839.201	2294
839.294	2929
839.387	3564
839.480	2118
839.573	4680
839.666	3632
839.759	3027
839.852	2689
839.945	2685
840.038	2515
840.131	2539
840.223	2423
840.316	3318
840.409	2919
840.502	1651
840.594	4404
840.687	1617
840.780	3290
840.873	2783
840.965	2832
841.058	4117
841.150	5387
841.243	4793
841.336	3261
841.428	3224
841.521	2415
841.613	2255
841.706	3059
841.798	3491
841.890	2794
841.983	1919
842.075	4071
842.167	1922
842.260	2521
842.352	3827
842.444	3719
842.537	6128
842.629	8061
842.721	3686
842.813	3090
842.905	2433
842.997	3142
843.090	2557
843.182	4061
843.274	5795
843.366	10797
843.458	18933
843.550	13487
843.642	3772
843.734	3166
843.826	3676
843.918	3942
844.009	2994
844.101	1935
844.193	2472
844.285	2789
844.377	3288
844.469	3176
844.560	2363
844.652	2839
844.744	2453
844.835	2899
844.927	3228
845.019	3879
845.110	3371
845.202	2495
845.293	1611
845.385	2199
845.476	3262
845.568	3007
845.659	2363
845.751	2964
845.842	2295
845.934	1827
846.025	2688
846.116	2988
846.208	3386
846.299	2040
846.390	3741
846.482	2709
846.573	2628
846.664	3708
846.755	3731
846.846	4443
846.937	1977
847.029	2669
847.120	2734
847.211	1932
847.302	4158
847.393	1259
847.484	2705
847.575	2613
847.666	2758
847.757	1181
847.847	2386
847.938	3435
848.029	2656
848.120	2194
848.211	2209
848.302	2247
848.392	1799
848.483	3444
848.574	2862
848.664	2374
848.755	2660
848.846	2280
848.936	2471
849.027	2833
849.118	2493
849.208	2338
849.299	1903
849.389	2874
849.480	3953
849.570	4208
849.661	6991
849.751	10481
849.841	5147
849.932	2234
850.022	2289
850.112	2155
850.203	1652
850.293	2824
850.383	2075
850.474	1662
850.564	2393
850.654	2476
850.744	2320
850.834	2489
850.924	2763
851.014	2554
851.104	2587
851.194	2644
851.284	2736
851.374	3144
851.464	2723
851.554	3076
851.644	3187
851.734	4417
851.824	2431
851.914	1650
852.004	3314
852.094	2741
852.183	2140
852.273	2156
852.363	1634
852.452	1877
852.542	1821
852.632	2160
852.721	2774
852.811	3035
852.901	2205
852.990	1623
853.080	2280
853.169	2374
853.259	1986
853.348	2102
853.438	2965
853.527	2893
853.617	2335
853.706	4107
853.795	5403
853.885	10038
853.974	17921
854.063	30153
854.152	46644
854.242	18897
854.331	4437
854.420	3036
854.509	3167
854.598	2773
854.687	2639
854.777	3691
854.866	1729
854.955	2540
855.044	1491
855.133	2646
855.222	1493
855.311	1563
855.400	2073
855.488	1794
855.577	2555
855.666	2621
855.755	2564
855.844	2988
855.933	2322
856.021	2293
856.110	3198
856.199	1885
856.288	1742
856.376	1769
856.465	1248
856.554	2639
856.642	2299
856.731	2035
856.819	2720
856.908	1592
856.996	2300
857.085	1422
857.173	2641
857.262	2659
857.350	2235
857.438	2352
857.527	3504
857.615	2925
857.703	2782
857.792	1862
857.880	1727
857.968	1602
858.056	3302
858.145	1570
858.233	1841
858.321	2222
858.409	2621
858.497	1634
858.585	2044
858.673	1820
858.761	2519
858.849	2066
858.937	1749
859.025	2367
859.113	3219
859.201	1364
859.289	2953
859.377	2074
859.465	2429
859.552	1911
859.640	1532
859.728	2669
859.816	2370
859.903	2185
859.991	1878
860.079	1714
860.166	2429
860.254	2337
860.342	2075
860.429	1180
860.517	2166
860.604	2000
860.692	2207
860.779	2675
860.867	1809
860.954	2645
861.042	2421
861.129	1552
861.216	2592
861.304	1472
861.391	2425
861.478	1273
861.565	2052
861.653	2999
861.740	1917
861.827	1066
861.914	2227
862.001	1745
862.089	1846
862.176	1548
862.263	2325
862.350	1378
862.437	1043
862.524	1976
862.611	1383
862.698	1132
862.785	1295
862.871	1729
862.958	2154
863.045	2550
863.132	2861
863.219	1872
863.306	1427
863.392	1626
863.479	2874
863.566	2081
863.652	1762
863.739	1925
863.826	2062
863.912	1573
863.999	1942
864.086	2096
864.172	2082
864.259	1921
864.345	2321
864.432	1816
864.518	2351
864.604	2180
864.691	2071
864.777	1785
864.863	2600
864.950	2192
865.036	2722
865.122	3739
865.209	3905
865.295	2918
865.381	3240
865.467	3167
865.553	2838
865.639	3328
865.726	4305
865.812	6740
865.898	10913
865.984	14155
866.070	26237
866.156	27752
866.242	8509
866.328	3733
866.414	2686
866.499	3452
866.585	2659
866.671	3289
866.757	2860
866.843	2930
866.928	3229
867.014	2640
867.100	2923
867.186	2485
867.271	2505
867.357	3487
867.442	4154
867.528	2857
867.614	2896
867.699	2643
867.785	3799
867.870	2789
867.956	2159
868.041	3032
868.127	2922
868.212	3761
868.297	3200
868.383	2570
868.468	3678
868.553	4746
868.639	5848
868.724	8252
868.809	7530
868.894	3055
868.979	2381
869.065	2251
869.150	2083
869.235	3105
869.320	1881
869.405	1805
869.490	2389
869.575	2334
869.660	2536
869.745	2726
869.830	2654
869.915	2048
870.000	2585
870.085	1807
870.169	2450
870.254	2345
870.339	1337
870.424	1277
870.509	3074
870.593	2113
870.678	2628
870.763	1984
870.847	2245
870.932	1354
871.016	2722
871.101	1579
871.186	1102
871.270	1887
871.355	1712
871.439	1472
871.523	2041
871.608	2580
871.692	2206
871.777	1645
871.861	2229
871.945	2036
872.030	2306
872.114	2077
872.198	1894
872.282	1572
872.367	2069
872.451	2521
872.535	2341
872.619	2545
872.703	1506
872.787	1555
872.871	1704
872.955	1457
873.039	994
873.123	1822
873.207	2325
873.291	937
873.375	2014
873.459	1593
873.543	2136
873.627	1721
873.711	1921
873.794	2367
873.878	541
873.962	1135
874.045	1402
874.129	1223
874.137	1251
874.213	1532
874.245	1307
874.296	941
874.352	1185
874.380	1309
874.460	1897
874.464	1920
874.547	1635
874.568	1506
874.631	1140
874.676	1544
874.714	1886
874.784	1968
874.798	1979
874.881	1884
874.892	1792
874.965	1193
874.999	1377
875.048	1631
875.107	1405
875.131	1301
875.215	1529
875.215	1528
875.298	1092
875.323	1312
875.381	1836
875.430	1978
875.465	2087
875.538	2382
875.548	2411
875.631	708
875.646	794
875.714	1216
875.753	1190
875.798	1166
875.861	999
875.881	968
875.964	1527
875.968	1556
876.047	1973
876.076	1832
876.130	1590
876.183	1524
876.213	1479
876.291	2463
876.296	2527
876.379	1799
876.398	1643
876.462	1215
876.506	1260
876.545	1247
876.613	1241
876.628	1237
876.711	1413
876.721	1348
876.794	1011
876.828	1251
876.877	1497
876.935	1459
876.960	1478
877.043	1198
877.043	1200
877.125	1453
877.150	1433
877.208	1568
877.258	2041
877.291	2277
877.365	686
877.374	492
877.456	640
877.472	767
877.539	1367
877.579	1305
877.622	1279
877.687	1540
877.704	1591
877.787	663
877.794	706
877.869	1252
877.901	1272
877.952	1213
878.008	1159
878.034	1142
878.115	661
878.117	656
878.199	1111
878.222	1205
878.282	1252
878.329	1262
878.364	1258
878.437	1234
878.447	1258
878.529	358
878.544	564
878.611	1377
878.651	1312
878.694	1372
878.758	1650
878.776	1662
878.858	1610
878.865	1565
878.941	1093
878.972	1085
879.023	1052
879.078	894
879.105	917
879.185	1342
879.187	1346
879.269	1269
879.292	1263
879.351	1174
879.399	1209
879.433	1230
879.506	1088
879.516	1113
879.598	531
879.613	669
879.680	1069
879.720	1274
879.762	1458
879.827	1375
879.844	1336
879.926	1081
879.933	1063
880.007	1015
880.040	845
880.089	612
880.147	944
880.171	1084
880.253	1250
880.254	1253
880.335	1671
880.360	1741
880.417	2308
880.467	3493
880.499	4147
880.574	4069
880.580	3968
880.662	1854
880.680	1624
880.744	1191
880.787	1069
880.825	1180
880.893	1331
880.907	1322
880.989	960
881.000	971
881.070	1142
881.106	1186
881.152	1025
881.213	634
881.233	648
881.315	787
881.319	840
881.396	1544
881.426	1350
881.478	1032
881.532	1083
881.559	1152
881.639	1093
881.641	1084
881.722	1004
881.745	965
881.803	1011
881.852	816
881.885	660
881.958	925
881.966	947
882.047	1305
882.064	1287
882.129	1529
882.171	1923
882.210	2188
882.277	2210
882.291	2229
882.372	1871
882.383	1852
882.454	1645
882.489	1696
882.535	1573
882.596	1244
882.616	1239
882.697	1059
882.702	1078
882.778	1310
882.808	1220
882.859	631
882.914	392
882.940	613
883.020	776
883.021	772
883.102	804
883.127	708
883.183	1121
883.233	1128
883.264	697
883.339	-18
883.345	-1
883.426	358
883.445	569
883.507	1164
883.551	1412
883.587	1408
883.657	908
883.668	847
883.749	1276
883.763	1233
883.830	1039
883.869	1063
883.910	1026
883.975	900
883.991	854
884.072	548
884.081	529
884.152	709
884.187	627
884.233	700
884.292	1399
884.314	1409
884.394	1034
884.398	999
884.475	974
884.504	1130
884.555	1070
884.610	596
884.636	421
884.716	713
884.716	714
884.797	686
884.821	592
884.877	908
884.927	1103
884.958	957
885.033	966
885.038	958
885.118	516
885.139	476
885.199	748
885.244	857
885.279	772
885.350	802
885.359	863
885.439	1037
885.456	1116
885.520	1178
885.561	1069
885.600	745
885.667	475
885.680	543
885.760	1215
885.773	1214
885.840	629
885.878	575
885.920	723
885.984	610
886.000	625
886.080	703
886.089	762
886.160	1108
886.195	1095
886.240	1015
886.300	1058
886.320	1013
886.400	717
886.406	713
886.480	959
886.511	971
886.560	1157
886.616	1405
886.640	1420
886.720	1321
886.722	1320
886.800	580
886.827	339
886.879	645
886.932	968
886.959	1348
887.038	2342
887.039	2332
887.119	1226
887.143	862
887.198	886
887.248	957
887.278	943
887.354	726
887.358	749
887.437	1480
887.459	1625
887.517	1427
887.564	1361
887.596	1463
887.669	1478
887.676	1398
887.755	611
887.774	374
887.835	875
887.880	1349
887.914	1249
887.985	897
887.994	924
888.073	1240
888.090	1309
888.153	1294
888.195	1311
888.232	1406
888.300	1414
888.311	1315
888.391	715
888.405	603
888.470	883
888.510	1054
888.549	953
888.615	847
888.628	907
888.708	1156
888.720	1214
888.787	1534
888.825	1626
888.866	1331
888.930	991
888.945	1154
889.024	2007
889.035	2111
889.103	1266
889.140	821
889.182	918
889.245	1081
889.261	1097
889.340	1153
889.349	1162
889.419	900
889.454	772
889.498	1077
889.559	1490
889.577	1364
889.656	832
889.664	784
889.735	1033
889.768	1153
889.814	832
889.873	412
889.978	1257
890.083	944
890.187	772
890.292	859
890.397	865
890.501	1055
890.606	1504
890.710	1797
890.815	1282
890.919	1396
891.024	1212
891.128	690
891.233	1557
891.337	789
891.442	784
891.546	883
891.650	460
891.755	1344
891.859	1364
891.963	906
892.068	1095
892.172	351
892.276	1046
892.380	348
892.484	766
892.589	985
892.693	29
892.797	780
892.901	1199
893.005	809
893.109	1541
893.213	1617
893.317	1213
893.421	525
893.525	1161
893.629	104
893.733	1582
893.837	715
893.941	615
894.045	1591
894.148	795
894.252	865
894.356	813
894.460	1042
894.564	1260
894.667	1026
894.771	463
894.875	214
894.978	683
895.082	529
895.186	908
895.289	1513
895.393	895
895.496	1059
895.600	686
895.703	677
895.807	972
895.910	1288
896.014	639
896.117	1175
896.221	135
896.324	848
896.427	1928
896.531	1563
896.634	1324
896.737	614
896.840	977
896.944	1282
897.047	1167
897.150	603
897.253	637
897.356	945
897.460	570
897.563	1337
897.666	1002
897.769	826
897.872	95
897.975	1109
898.078	713
898.181	1067
898.284	1128
898.387	1056
898.490	1211
898.593	1066
898.695	603
898.798	859
898.901	634
899.004	381
899.107	1264
899.209	251
899.312	1589
899.415	557
899.518	651
899.620	785
899.723	813
899.826	1255
899.928	2125
900.031	59
900.133	254
900.236	160
900.338	663
900.441	1729
900.543	987
900.646	808
900.748	1236
900.851	885
900.953	1907
901.055	839
901.158	746
901.260	259
901.362	1679
901.465	844
901.567	532
901.669	704
901.771	506
901.873	927
901.976	1036
902.078	435
902.180	560
902.282	947
902.384	-341
902.486	1230
902.588	1456
902.690	1050
902.792	337
902.894	974
902.996	517
903.098	737
903.200	595
903.302	674
903.404	355
903.505	593
903.607	1582
903.709	1181
903.811	1335
903.913	356
904.014	1108
904.116	1112
904.218	374
904.319	308
904.421	1179
904.523	758
904.624	556
904.726	1021
904.827	641
904.929	276
905.030	831
905.132	237
905.233	983
905.335	823
905.436	1311
905.537	936
905.639	1016
905.740	-377
905.841	1096
905.943	909
906.044	1112
906.145	511
906.247	857
906.348	406
906.449	86
906.550	573
906.651	961
906.752	155
906.854	1034
906.955	685
907.056	1031
907.157	-425
907.258	704
907.359	857
907.460	619
907.561	979
907.662	796
907.762	964
907.863	687
907.964	-455
908.065	1292
908.166	292
908.267	1033
908.367	942
908.468	1256
908.569	311
908.670	1887
908.770	1643
908.871	867
908.971	1138
909.072	1725
909.173	169
909.273	632
909.374	384
909.474	525
909.575	1045
909.675	1082
909.776	676
909.876	549
909.977	1284
910.077	1204
910.177	-312
910.278	1248
910.378	1006
910.478	674
910.579	-39
910.679	1576
910.779	1353
910.879	1115
910.980	558
911.080	630
911.180	294
911.280	958
911.380	861
911.480	448
911.580	526
911.680	1046
911.780	1268
911.880	644
911.980	-190
912.080	1108
912.180	643
912.280	842
912.380	746
912.480	282
912.580	1315
912.679	84
912.779	1186
912.879	542
912.979	-142
913.078	1088
913.178	485
913.278	751
913.377	696
913.477	468
913.577	-234
913.676	1112
913.776	673
913.875	1483
913.975	1205
914.074	860
914.174	489
914.273	972
914.373	724
914.472	410
914.572	631
914.671	671
914.770	858
914.870	70
914.969	953
915.068	1129
915.167	1003
915.267	534
915.366	644
915.465	1145
915.564	821
915.663	499
915.763	728
915.862	2010
915.961	1148
916.060	499
916.159	132
916.258	499
916.357	453
916.456	1483
916.555	815
916.654	37
916.752	296
916.851	1097
916.950	1241
917.049	341
917.148	723
917.247	735
917.345	132
917.444	177
917.543	208
917.642	1092
917.740	1496
917.839	997
917.937	694
918.036	991
918.135	424
918.233	1085
918.332	145
918.430	1139
918.529	295
918.627	343
918.726	497
918.824	754
918.923	-158
919.021	970
919.119	203
919.218	471
919.316	393
919.414	1306
919.512	1062
919.611	556
919.709	1014
919.807	1280
919.905	628
920.003	577
920.102	785
920.200	603
920.298	902
920.396	1377
920.494	837
920.592	727
920.690	897
920.788	1572
920.886	1403
920.984	159
921.082	536
921.180	2235
921.277	256
921.375	-45
921.473	656
921.571	1125
921.669	1090
921.766	1563
921.864	351
921.962	1204
922.060	487
922.157	1389
922.255	1042
922.352	1957
922.450	1174
922.548	1386
922.645	1465
922.743	1499
922.840	1103
922.938	2401
923.035	1007
923.133	2072
923.230	2615
923.327	2494
923.425	1446
923.522	2181
923.619	2254
923.717	1977
923.814	1054
923.911	1619
924.008	2213
924.106	1396
924.203	1889
924.300	1444
924.397	773
924.494	3100
924.591	1128
924.688	1620
924.786	1729
924.883	1651
924.979	1922
925.077	1686
925.173	675
925.270	1483
925.367	2199
925.464	1439
925.561	2071
925.658	1606
925.755	2277
925.852	1735
925.948	1682
926.045	2175
926.142	1133
926.239	1590
926.335	1289
926.432	2459
926.529	1950
926.625	1079
926.722	1275
926.818	1765
926.915	1468
927.011	2185
927.108	1413
927.204	1675
927.301	1271
927.397	2531
927.494	2166
927.590	2378
927.687	1387
927.783	1567
927.879	2043
927.976	938
928.072	1427
928.168	1628
928.264	1925
928.361	1746
928.457	1807
928.553	1604
928.649	1753
928.745	1512
928.841	1041
928.937	2505
929.033	2518
929.129	1988
929.225	875
929.321	1047
929.417	1099
929.513	1406
929.609	1220
929.705	735
929.801	527
929.897	1659
929.993	920
930.089	1657
930.184	1207
930.280	1191
930.376	1894
930.471	1267
930.567	1668
930.663	1927
930.758	988
930.854	579
930.950	1176
931.045	852
931.141	1371
931.236	1865
931.332	1381
931.427	1901
931.523	1514
931.618	1751
931.714	946
931.809	1320
931.905	1294
932.000	1707
932.095	408
932.191	2210
932.286	1711
932.381	1219
932.476	1066
932.572	1094
932.667	1416
932.762	1369
932.857	954
932.952	1459
933.047	1010
933.142	1296
933.237	693
933.332	1509
933.427	2130
933.522	1532
933.617	1182
933.712	1326
933.807	1822
933.902	1828
933.997	1914
934.092	807
934.187	667
934.282	1102
934.376	1505
934.471	1309
934.566	359
934.661	1707
934.755	854
934.850	1065
934.945	1005
935.039	1519
935.134	1142
935.228	2000
935.323	1983
935.417	1267
935.512	819
935.606	385
935.701	896
935.795	1904
935.890	1111
935.984	1440
936.079	1199
936.173	1331
936.267	1292
936.362	1740
936.456	319
936.550	1384
936.644	1574
936.738	1844
936.833	998
936.927	1006
937.021	727
937.115	1373
937.209	694
937.303	1137
937.397	1185
937.491	1787
937.585	528
937.679	1256
937.773	1180
937.867	539
937.961	1289
938.055	1942
938.149	1756
938.243	1174
938.337	1589
938.430	497
938.524	1597
938.618	376
938.712	627
938.805	1193
938.899	333
938.993	288
939.086	1282
939.180	737
939.274	1535
939.367	1386
939.461	1165
939.554	1085
939.648	200
939.741	519
939.835	1210
939.928	1133
940.022	824
940.115	96
940.208	1102
940.302	1331
940.395	2426
940.488	319
940.582	1082
940.675	365
940.768	81
940.861	1296
940.954	1350
941.048	739
941.141	622
941.234	188
941.327	94
941.420	2332
941.513	617
941.606	820
941.699	929
941.792	688
941.885	1242
941.978	623
942.071	624
942.164	364
942.257	1184
942.349	703
942.442	827
942.535	379
942.628	604
942.721	1233
942.813	351
942.906	1540
942.999	294
943.091	-110
943.184	381
943.277	356
943.369	622
943.462	666
943.554	962
943.647	666
943.739	624
943.832	1225
943.924	-223
944.017	1022
944.109	349
944.201	294
944.294	80
944.386	165
944.478	-32
944.571	917
944.663	410
944.755	136
944.847	309
944.940	538
945.032	930
945.124	479
945.216	1066
945.308	330
945.400	395
945.492	457
945.584	1223
945.676	730
945.768	639
945.860	671
945.952	812
946.044	1230
946.136	-151
946.228	745
946.320	171
946.412	848
946.503	403
946.595	1713
946.687	340
946.779	-88
946.870	307
946.962	740
947.054	269
947.145	1434
947.237	409
947.329	714
947.420	657
947.512	477
947.603	88
947.695	1585
947.786	617
947.878	832
947.969	431
948.061	685
948.152	-201
948.243	795
948.335	420
948.426	503
948.517	-253
948.609	160
948.700	477
948.791	319
948.882	-53
948.973	-32
949.065	52
949.156	249
949.247	230
949.338	829
949.429	572
949.520	384
949.611	-771
949.702	1532
949.793	741
949.884	426
949.975	415
950.066	-330
950.157	14
950.247	1186
950.338	180
950.429	766
950.520	15
950.611	-110
950.701	-93
950.792	316
950.883	734
950.973	983
951.064	-298
951.155	400
951.245	327
951.336	547
951.427	-228
951.517	1074
951.608	193
951.698	78
951.788	-104
951.879	303
951.969	308
952.060	-155
952.150	-279
952.240	371
952.331	-597
952.421	904
952.511	126
952.602	240
952.692	514
952.782	323
952.872	-205
952.962	78
953.052	261
953.143	494
953.233	337
953.323	775
953.413	-89
953.503	399
953.593	183
953.683	-536
953.773	-573
953.863	-266
953.953	-511
954.042	921
954.132	-275
954.222	963
954.312	-243
954.402	477
954.492	-906
954.581	571
954.671	-177
954.761	-117
954.850	904
954.940	224
955.030	-529
955.119	655
955.209	-264
955.298	-452
955.388	228
955.477	1196
955.567	-9
955.656	383
955.746	401
955.835	-235
955.925	-40
956.014	458
956.103	414
956.193	614
956.282	1111
956.371	214
956.461	-394
956.550	902
956.639	-135
956.728	-19
956.817	348
956.906	-157
956.995	249
957.085	-639
957.174	-267
957.263	347
957.352	168
957.441	16
957.530	192
957.619	387
957.708	302
957.796	686
957.885	82
957.974	-287
958.063	1632
958.152	-392
958.241	-148
958.329	160
958.418	511
958.507	-487
958.596	-36
958.684	-515
958.773	1263
958.861	308
958.950	33
959.039	251
959.127	-7
959.216	490
959.304	-186
959.393	37
959.481	540
959.570	645
959.658	-113
959.746	-172
959.835	-196
959.923	119
960.011	-707
960.100	992
960.188	144
960.276	-358
960.365	328
960.453	359
960.541	-1495
960.629	-484
960.717	-321
960.805	-1172
960.893	-309
960.981	-188
961.069	1848
961.158	419
961.245	1212
961.333	834
961.421	155
961.509	-593
961.597	43
961.685	176
961.773	502
961.861	612
961.949	418
962.036	140
962.124	1678
962.212	315
962.299	-413
962.387	255
962.475	-284
962.562	-172
962.650	133
962.738	79
962.825	270
962.913	495
963.000	-21
963.088	346
963.175	367
963.263	-156
963.350	-949
963.438	-325
963.525	-422
963.612	1199
963.700	-18
963.787	2227
963.874	1457
963.962	-222
964.049	-319
964.136	463
964.223	-184
964.310	-205
964.398	-588
964.485	-281
964.572	785
964.659	493
964.746	1037
964.833	-142
964.920	-333
965.007	470
965.094	-41
965.181	-21
965.268	842
965.355	-316
965.441	205
965.528	-592
965.615	94
965.702	357
965.789	-37
965.875	148
965.962	59
966.049	600
966.136	391
966.222	380
966.309	490
966.395	-601
966.482	713
966.569	663
966.655	95
966.742	-159
966.828	185
966.915	-633
967.001	246
967.087	-766
967.174	-531
967.260	661
967.347	-207
967.433	474
967.519	1495
967.605	294
967.692	-42
967.778	-80
967.864	-3
967.950	-45
968.036	-768
968.123	273
968.209	-89
968.295	-634
968.381	1256
968.467	869
968.553	-591
968.639	1036
968.725	-323
968.811	950
968.897	526
968.983	89
969.069	-1151
969.154	533
969.240	680
969.326	-787
969.412	-803
969.497	-213
969.583	-357
969.669	575
969.755	188
969.840	-223
969.926	269
970.012	168
970.097	337
970.183	-190
970.268	-104
970.354	460
970.439	-390
970.525	1718
970.610	-827
970.696	823
970.781	-113
970.866	-90
970.952	122
971.037	-307
971.122	-64
971.208	-52
971.293	-1135
971.378	-1825
971.463	1081
971.549	-196
971.634	300
971.719	-434
971.804	-181
971.889	538
971.974	-105
972.059	-103
972.144	31
972.229	-431
972.314	197
972.399	1280
972.484	-774
972.569	-45
972.654	-1186
972.739	1077
972.824	-362
972.908	140
972.993	-259
973.078	22
973.163	729
973.247	1339
973.332	-2036
973.417	1537
973.501	-572
973.586	211
973.671	-218
973.755	-158
973.840	846
973.924	-8
974.009	-190
974.093	-170
974.178	713
974.262	295
974.346	-260
974.431	-300
974.515	-277
974.600	99
974.684	-158
974.768	232
974.852	745
974.937	-1592
975.021	-224
975.105	94
975.189	-313
975.273	572
975.358	-1242
975.442	-825
975.526	-58
975.610	-1180
975.694	-1306
975.778	528
975.862	9
975.946	-1416
976.030	628
976.114	-437
976.198	319
976.281	-85
976.365	93
976.449	-901
976.533	-589
976.617	-481
976.700	-361
976.784	-8
976.868	-123
976.951	-237
977.035	-8
977.119	174
977.202	-519
977.286	78
977.369	-539
977.453	334
977.536	86
977.620	-454
977.703	424
977.787	-146
977.870	657
977.953	64
978.037	-586
978.120	633
978.203	-787
978.287	-106
978.370	205
978.453	-118
978.536	-771
978.620	351
978.703	-175
978.786	-782
978.869	-609
978.952	-921
979.035	-7
979.118	14
979.201	-858
979.284	75
979.367	-1135
979.450	-75
979.533	-865
979.616	-682
979.699	74
979.782	386
979.865	-337
979.948	-938
980.030	-194
980.113	-340
980.196	-1673
980.279	367
980.361	-1312
980.444	-146
980.526	152
980.609	497
980.692	-265
980.774	440
980.857	-980
980.939	763
981.022	-646
981.104	-452
981.187	-704
981.269	109
981.352	95
981.434	-369
981.516	-1096
981.599	705
981.681	374
981.763	-708
981.846	-269
981.928	-507
982.010	-442
982.092	-37
982.174	481
982.256	-333
982.339	-164
982.421	-119
982.503	-398
982.585	-1434
982.667	-886
982.749	-610
982.831	-77
982.913	-1466
982.995	690
983.077	-781
983.158	-114
983.240	-989
983.322	-590
983.404	766
983.486	-412
983.568	-162
983.649	-1443
983.731	399
983.813	-1405
983.894	-500
983.976	-361
984.058	1
984.139	52
984.221	-1202
984.302	106
984.384	-22
984.465	-1152
984.547	678
984.628	-486
984.710	-4
984.791	-735
984.872	-286
984.954	-273
985.035	15
985.116	-1130
985.198	-330
985.279	482
985.360	-922
985.441	582
985.522	539
985.604	-1720
985.685	-1557
985.766	3
985.847	336
985.928	-931
986.009	-359
986.090	-564
986.171	542
986.252	-1095
986.333	174
986.414	-1153
986.495	-326
986.576	-726
986.656	-120
986.737	-684
986.818	-710
986.899	-1003
986.980	-947
987.060	-682
987.141	-492
987.222	213
987.302	27
987.383	-579
987.464	-617
987.544	-665
987.625	-870
987.705	525
987.786	-62
987.866	-289
987.947	-321
988.027	-585
988.108	-116
988.188	-92
988.268	-737
988.349	-409
988.429	-691
988.509	187
988.589	-828
988.670	-1958
988.750	497
988.830	-821
988.910	115
988.990	-933
989.070	-691
989.151	-478
989.231	-924
989.311	715
989.391	-83
989.471	-1043
989.551	-397
989.631	-410
989.711	462
989.791	-966
989.870	-1127
989.950	38
990.030	-738
990.110	-476
990.190	-583
990.269	-825
990.349	-215
990.429	-276
990.509	208
990.588	-1212
990.668	-409
990.747	545
990.827	-804
990.907	-336
990.986	-1159
991.066	-1145
991.145	-769
991.225	-262
991.304	-940
991.383	-522
991.463	-497
991.542	-930
991.622	-179
991.701	-531
991.780	-774
991.859	-440
991.939	-327
992.018	-780
992.097	779
992.176	-118
992.256	-921
992.335	-1064
992.414	359
992.493	-1028
992.572	-1054
992.651	-236
992.730	-720
992.809	-344
992.888	-1011
992.967	-722
993.046	-289
993.125	-1476
993.203	17
993.282	-5
993.361	-203
993.440	217
993.519	-1310
993.597	-708
993.676	-582
993.755	165
993.834	-287
993.912	-1494
993.991	315
994.069	-926
994.148	-559
994.226	-826
994.305	1020
994.384	-1314
994.462	168
994.540	-1179
994.619	-367
994.697	35
994.776	-1435
994.854	484
994.932	-303
995.011	-837
995.089	-977
995.167	-563
995.245	-55
995.324	-1206
995.402	-51
995.480	-1528
995.558	-623
995.636	-1423
995.714	-1030
995.792	218
995.870	-871
995.948	-86
996.026	764
996.104	-2326
996.182	-156
996.260	-1138
996.338	-479
996.416	-1114
996.494	-1246
996.572	128
996.649	-1000
996.727	-2237
996.805	207
996.883	-1251
996.960	-1296
997.038	-434
997.116	-846
997.193	-1350
997.271	-779
997.348	-973
997.426	36
997.504	-2016
997.581	306
997.658	131
997.736	-1258
997.813	-2102
997.891	-592
997.968	-1131
998.046	-283
998.123	-1347
998.200	-746
998.277	-1392
998.355	466
998.432	-982
998.509	-705
998.586	110
998.663	-389
998.741	-464
998.818	-1069
998.895	-703
998.972	9
999.049	-1312
999.126	-1076
999.203	-156
999.280	-267
999.357	-1140
999.434	-1060
999.511	-667
999.587	-391
999.664	-1160
999.741	345
999.818	-120
999.895	-1031
999.971	-912
1000.048	-435
1000.125	-143
1000.202	-1065
1000.278	-657
1000.355	19
1000.431	-834
1000.508	-1795
1000.584	-289
1000.661	-777
1000.738	-1896
1000.814	-1751
1000.890	-888
1000.967	-991
1001.043	-749
1001.120	-1436
1001.196	-611
1001.272	-1497
1001.349	-957
1001.425	-452
1001.501	-788
1001.577	-1407
1001.654	-392
1001.730	-1161
1001.806	-561
1001.882	-1015
1001.958	-719
1002.034	-826
1002.110	-484
1002.186	-1648
1002.262	-1121
1002.338	-1529
1002.414	-202
1002.490	-36
1002.566	-978
1002.642	-1241
1002.718	-111
1002.794	-1144
1002.870	-1825
1002.945	-1472
1003.021	-858
1003.097	-641
1003.173	-220
1003.248	-1294
1003.324	-1401
1003.400	-399
1003.475	-965
1003.551	-623
1003.626	-1219
1003.702	-1163
1003.777	-806
1003.853	-1087
1003.928	-1134
1004.004	-223
1004.079	-445
1004.155	-619
1004.230	-2068
1004.305	-573
1004.381	-902
1004.456	-466
1004.531	-1207
1004.607	-865
1004.682	-1681
1004.757	-1568
1004.832	-1427
1004.907	-762
1004.982	-921
1005.057	-1499
1005.133	-1804
1005.208	-1020
1005.283	-1807
1005.358	-90
1005.433	-1530
1005.508	-1248
1005.583	-1444
1005.657	-1545
1005.732	-5
1005.807	-943
1005.882	-880
1005.957	-242
1006.032	-430
1006.106	-682
1006.181	-771
1006.256	-321
1006.331	-2720
1006.405	-1933
1006.480	-1051
1006.554	-999
1006.629	-1548
1006.704	-864
1006.778	-1549
1006.853	-765
1006.927	-1845
1007.002	-986
1007.076	-129
1007.150	-1131
1007.225	-395
1007.299	-1377
1007.373	-1410
1007.448	-743
1007.522	-470
1007.596	-1023
1007.671	-1084
1007.745	-640
1007.819	-2184
1007.893	-107
1007.967	-899
1008.041	-1564
1008.115	-1193
1008.190	-763
1008.264	-1364
1008.338	-1899
1008.412	-1565
1008.486	-1343
1008.560	-1566
1008.633	-965
1008.707	-1425
1008.781	-502
1008.855	-1590
1008.929	-434
1009.003	-1326
1009.076	-1616
1009.150	-1024
1009.224	-1649
1009.298	-1432
1009.371	-1092
1009.445	-1082
1009.519	-1241
1009.592	-2360
1009.666	-706
1009.739	-1017
1009.813	-1562
1009.886	-259
1009.960	-1898
1010.033	-701
1010.107	-339
1010.180	-2194
1010.253	-1084
1010.327	-1885
1010.400	-834
1010.473	-1512
1010.547	-571
1010.620	-1197
1010.693	-102
1010.766	-1521
1010.840	-699
1010.913	-1311
1010.986	-1916
1011.059	-1844
1011.132	-1411
1011.205	-823
1011.278	-1868
1011.351	-893
1011.424	-824
1011.497	-1908
1011.570	-1731
1011.643	-1530
1011.716	-552
1011.789	-1389
1011.862	-1367
1011.934	-1433
1012.007	-964
1012.080	-1361
1012.153	-1134
1012.225	-780
1012.298	-1730
1012.371	-893
1012.443	56
1012.516	-1996
1012.588	-1449
1012.661	-1176
1012.733	-1934
1012.806	-820
1012.879	-1756
1012.951	-1775
1013.023	-1391
1013.096	-1159
1013.168	-1332
1013.241	-1055
1013.313	-1060
1013.385	-1325
1013.458	-1665
1013.530	-144
1013.602	-1289
1013.674	-1537
1013.746	-1195
1013.819	-1617
1013.891	-471
1013.963	-2836
1014.035	-1122
1014.107	-953
1014.179	-836
1014.251	-1415
1014.323	-926
1014.395	-188
1014.467	-1116
1014.539	-906
1014.611	-991
1014.683	-1294
1014.754	-1179
1014.826	-1335
1014.898	-629
1014.970	-2904
1015.042	-764
1015.113	-1785
1015.185	-1700
1015.257	-2057
1015.328	-1567
1015.400	-2033
1015.471	-1002
1015.543	-2106
1015.615	-1339
1015.686	-1463
1015.757	-316
1015.829	-830
1015.901	-1035
1015.972	-1011
1016.043	-1685
1016.115	-1725
1016.186	-1189
1016.257	-2559
1016.328	-1459
1016.400	-969
1016.471	-2411
1016.542	-1240
1016.613	-2235
1016.685	-1951
1016.756	-520
1016.827	-1172
1016.898	-1488
1016.969	-1112
1017.040	-1765
1017.111	-1348
1017.182	-1488
1017.253	-1142
1017.324	-1370
1017.395	-1924
1017.466	-766
1017.537	-1636
1017.608	-1131
1017.678	-959
1017.749	-1740
1017.820	-887
1017.891	-1550
1017.961	-2385
1018.032	-1116
1018.103	-1398
1018.173	-1988
1018.244	-1885
1018.315	-1292
1018.385	-1000
1018.456	-1309
1018.526	-1093
1018.597	-975
1018.667	-1181
1018.738	-1392
1018.808	-1842
1018.878	-1616
1018.949	-1269
1019.019	-1118
1019.089	-1811
1019.160	-1601
1019.230	-1962
1019.300	-2246
1019.371	-2181
1019.441	-729
1019.511	-1964
1019.581	-1529
1019.651	-1871
1019.721	-2181
1019.791	-1264
1019.861	-1126
1019.931	-1243
1020.001	-1396
1020.071	-1258
1020.141	-1077
1020.211	-1693
1020.281	-1511
1020.351	-1704
1020.421	-913
1020.491	-1120
1020.560	-1868
1020.630	-2008
1020.700	-552
1020.770	-2363
1020.839	-825
1020.909	-1691
1020.979	-1525
1021.048	-1059
1021.118	-1110
1021.187	-1355
1021.257	-2415
1021.326	-2168
1021.396	-1923
1021.465	-1739
1021.535	-1556
1021.604	-1857
1021.674	-1582
1021.743	-1020
1021.812	-1499
1021.882	-2068
1021.951	-1502
1022.020	-1870
1022.089	-1628
1022.159	-2774
1022.228	-854
1022.297	-2066
1022.366	-1141
1022.435	-2376
1022.504	-1106
1022.573	-2149
1022.642	-1547
1022.711	-1307
1022.781	-1172
1022.849	-1557
1022.918	-1422
1022.987	-2179
1023.056	-1800
1023.125	-1335
1023.194	-1051
1023.263	-1445
1023.331	-8
1023.400	-2557
1023.469	-2156
1023.538	-1470
1023.606	-2122
1023.675	-1469
1023.744	-1800
1023.812	-1913
1023.881	-1755
1023.949	-1115
1024.018	-1590
1024.086	-2369
1024.155	-1513
1024.223	-1396
1024.292	-1707
1024.360	-1327
1024.429	-1029
1024.497	-1886
1024.565	-931
1024.634	-1796
1024.702	-2194
1024.770	-1914
1024.838	-1331
1024.907	-1279
1024.975	-1615
1025.043	-1607
1025.111	-1945
1025.179	-1462
1025.247	-1574
1025.315	-1034
1025.383	-1432
1025.451	-1914
1025.519	-2037
1025.587	-1893
1025.655	-864
1025.723	-1743
1025.791	-2190
1025.859	-1327
1025.927	-951
1025.995	-1608
1026.062	-1106
1026.130	-1448
1026.198	-1386
1026.266	-1262
1026.333	-1651
1026.401	-858
1026.469	-1139
1026.536	-1355
1026.604	-854
1026.671	-2658
1026.739	-1619
1026.806	-890
1026.874	-1576
1026.941	-1677
1027.009	-919
1027.076	-2202
1027.144	-578
1027.211	-1503
1027.278	-2069
1027.345	-1916
1027.413	-1324
1027.480	-2051
1027.547	-1237
1027.614	-1966
1027.682	-1212
1027.749	-759
1027.816	-707
1027.883	-1029
1027.950	-2003
1028.017	-1225
1028.084	-1054
1028.151	-2074
1028.218	-1478
1028.285	-1903
1028.352	-2060
1028.419	-1981
1028.486	-1303
1028.553	-1319
1028.619	-1297
1028.686	-2137
1028.753	-2047
1028.820	-1285
1028.886	-1453
1028.953	-1711
1029.020	-1179
1029.086	-1449
1029.153	-1115
1029.220	-2583
1029.286	-1537
1029.353	-1132
1029.419	-2056
1029.486	-1669
1029.552	-1965
1029.619	-1624
1029.685	-1245
1029.751	-1650
1029.818	-758
1029.884	-1334
1029.951	-68
1030.017	-1314
1030.083	-1860
1030.149	-1883
1030.216	-1954
1030.282	-1027
1030.348	-972
1030.414	-1853
1030.480	-948
1030.546	-2279
1030.612	-762
1030.678	-1657
1030.744	-1418
1030.810	-1422
1030.876	-1263
1030.942	-1317
1031.008	-1409
1031.074	-1181
1031.140	-1716
1031.206	-1106
1031.272	-1512
1031.337	-1382
1031.403	-760
1031.469	-2093
1031.534	-1220
1031.600	-1020
1031.666	-1022
1031.731	-2350
1031.797	-1255
1031.863	-1640
1031.928	-2091
1031.994	-2442
1032.059	-1603
1032.125	-1544
1032.190	-1973
1032.256	-1279
1032.321	-1714
1032.386	-1370
1032.452	-1033
1032.517	-771
1032.582	-983
1032.647	-1922
1032.713	-1515
1032.778	-1551
1032.843	-1930
1032.908	-1410
1032.974	-988
1033.039	-2111
1033.104	-989
1033.169	-2433
1033.234	-1375
1033.299	-1483
1033.364	-1707
1033.429	-1434
1033.494	-987
1033.559	-1696
1033.624	-863
1033.688	-1999
1033.753	-1536
1033.818	-2160
1033.883	-1782
1033.948	-1256
1034.013	-1077
1034.077	-1340
1034.142	-1050
1034.207	-1765
1034.271	-1124
1034.336	-694
1034.400	-1747
1034.465	-1654
1034.530	-991
1034.594	-1600
1034.658	-1712
1034.723	-1643
1034.787	-1348
1034.852	-1026
1034.916	-1246
1034.981	-1834
1035.045	-1887
1035.109	-2065
1035.173	-768
1035.238	-1506
1035.302	-1523
1035.366	-1611
1035.430	-1185
1035.495	-1767
1035.559	-1092
1035.623	-1997
1035.687	-1778
1035.751	-1271
1035.815	-1490
1035.879	-1889
1035.943	-1455
1036.007	-1992
1036.071	-2050
1036.135	-1701
1036.198	-1428
1036.262	-2079
1036.326	-945
1036.390	-1953
1036.454	-1395
1036.517	-2190
1036.581	-1724
1036.645	-1068
1036.709	-1210
1036.772	-1188
1036.836	-1977
1036.900	-1345
1036.963	-1709
1037.026	-1817
1037.090	-2341
1037.154	-1134
1037.217	-1415
1037.280	-2086
1037.344	-1208
1037.407	-2989
1037.471	-1675
1037.534	-2713
1037.597	-1464
1037.661	-1346
1037.724	-1578
1037.787	-1922
1037.850	-1540
1037.913	-2068
1037.977	-1361
1038.040	-1580
1038.103	-1110
1038.166	-1893
1038.229	-1835
1038.292	-1120
1038.355	-1539
1038.418	-1521
1038.481	-1316
1038.544	-1994
1038.607	-1796
1038.670	-2350
1038.732	-1832
1038.795	-2055
1038.858	-1549
1038.921	-1562
1038.984	-815
1039.046	-1872
1039.109	-1681
1039.172	-1243
1039.234	-1028
1039.297	-1843
1039.360	-1707
1039.422	-1743
1039.485	-2014
1039.547	-1749
1039.610	-1967
1039.672	-1837
1039.734	-1930
1039.797	-1313
1039.859	-1414
1039.922	-1862
1039.984	-1501
1040.046	-1673
1040.109	-1526
1040.171	-2650
1040.233	-1105
1040.295	-1657
1040.358	-1688
1040.420	-2018
1040.482	-2043
1040.544	-1939
1040.606	-1502
1040.668	-2099
1040.730	-1358
1040.792	-1798
1040.854	-2709
1040.916	-1251
1040.978	-1626
1041.040	-1020
1041.102	-1323
1041.164	-2167
1041.225	-2265
1041.287	-1667
1041.349	-1748
1041.411	-2052
1041.472	-1702
1041.534	-2134
1041.596	-1734
1041.657	-1062
1041.719	-1254
1041.781	-2284
1041.842	-1858
1041.904	-1308
1041.965	-1810
1042.027	-2027
1042.088	-1097
1042.150	-1833
1042.211	-1610
1042.272	-1846
1042.334	-1672
1042.395	-2184
1042.456	-1816
1042.518	-2116
1042.579	-631
1042.640	-1835
1042.701	-2195
1042.763	-2056
1042.824	-1699
1042.885	-1875
1042.946	-1628
1043.007	-2063
1043.068	-1108
1043.129	-1389
1043.190	-1474
1043.251	-1481
1043.312	-2552
1043.373	-1856
1043.434	-1871
1043.495	-1462
1043.556	-1563
1043.616	-1954
1043.677	-855
1043.738	-2115
1043.799	-1430
1043.859	-2105
1043.920	-2027
1043.981	-1834
1044.041	-1533
1044.102	-1710
1044.162	-1478
1044.223	-2277
1044.284	-1410
1044.344	-609
1044.405	-1677
1044.465	-1964
1044.525	-1433
1044.586	-1224
1044.646	-1561
1044.707	-1099
1044.767	-1662
1044.827	-1335
1044.887	-2059
1044.948	-2474
1045.008	-1181
1045.068	-1911
1045.128	-2412
1045.188	-2113
1045.249	-1148
1045.309	-1475
1045.369	-1330
1045.429	-2256
1045.489	-852
1045.549	-2327
1045.609	-914
1045.669	-1624
1045.729	-1086
1045.789	-1581
1045.848	-1830
1045.908	-1676
1045.968	-1617
1046.028	-789
1046.088	-826
1046.147	-1293
1046.207	-1202
1046.267	-995
1046.326	-948
1046.386	-947
1046.446	-964
1046.505	-1085
1046.565	-757
1046.624	-1008
1046.684	-483
1046.743	-1007
1046.803	-315
1046.862	2
1046.922	0
