'Start Wavelength	183.907
'End Wavelength	1046.922
'Gate Delay	5.000
'Gate Width (ms)	1.050
'Laser Output Level	0.000
'X Position	0.000
'Y Position	0.000
'Z Position	0.000
'Grid Point Number	1.000
'Shot Number	100.000
183.907	-455.000
183.977	518.000
184.047	-350
184.116	584
184.186	-507
184.256	906
184.325	-151
184.395	-891
184.465	421
184.534	-229
184.604	-208
184.674	1399
184.743	-188
184.813	567
184.883	657
184.952	612
185.022	1128
185.092	219
185.161	572
185.231	191
185.301	96
185.370	887
185.440	-308
185.509	52
185.579	-655
185.649	407
185.718	63
185.788	600
185.857	-273
185.927	0
185.996	99
186.066	494
186.136	-213
186.205	-100
186.275	-149
186.344	411
186.414	-120
186.483	-202
186.553	469
186.622	1214
186.692	-260
186.761	-347
186.831	189
186.900	-59
186.970	-123
187.039	930
187.109	748
187.178	399
187.248	-131
187.317	175
187.387	-404
187.456	303
187.526	337
187.595	289
187.664	507
187.734	1265
187.803	987
187.873	906
187.942	386
188.012	-701
188.081	-766
188.150	130
188.220	290
188.289	782
188.358	929
188.428	323
188.497	-514
188.567	521
188.636	-107
188.705	492
188.775	441
188.844	-85
188.913	753
188.983	140
189.052	-118
189.121	83
189.191	636
189.260	910
189.329	132
189.399	-5
189.468	295
189.537	958
189.606	-64
189.676	336
189.745	449
189.814	228
189.883	27
189.953	847
190.022	220
190.091	1224
190.161	1744
190.230	192
190.299	588
190.368	-16
190.437	-129
190.507	-53
190.576	-169
190.645	600
190.714	-410
190.783	252
190.853	1573
190.922	491
190.991	67
191.060	1146
191.129	-667
191.198	841
191.268	-21
191.337	428
191.406	601
191.475	170
191.544	60
191.613	5
191.682	815
191.752	652
191.821	-186
191.890	884
191.959	-333
192.028	877
192.097	-167
192.166	929
192.235	175
192.304	803
192.373	-597
192.442	1007
192.511	301
192.580	615
192.650	282
192.719	334
192.788	383
192.857	267
192.926	106
192.995	1067
193.064	-74
193.133	1154
193.202	801
193.271	1324
193.340	-381
193.409	719
193.478	1465
193.547	1041
193.615	1599
193.684	2234
193.753	204
193.822	594
193.891	-428
193.960	1372
194.029	272
194.098	712
194.167	259
194.236	835
194.305	-110
194.374	771
194.443	-82
194.512	82
194.580	303
194.649	646
194.718	-118
194.787	438
194.856	269
194.925	788
194.994	497
195.062	72
195.131	506
195.200	53
195.269	479
195.338	725
195.407	392
195.475	282
195.544	-50
195.613	560
195.682	101
195.751	829
195.819	534
195.888	664
195.957	693
196.026	714
196.094	316
196.163	1386
196.232	508
196.301	1245
196.369	25
196.438	384
196.507	1249
196.576	355
196.644	-38
196.713	432
196.782	187
196.850	1035
196.919	1091
196.988	741
197.056	137
197.125	786
197.194	439
197.262	-177
197.331	290
197.400	429
197.468	1184
197.537	448
197.606	238
197.674	773
197.743	1092
197.812	465
197.880	1191
197.949	1140
198.017	1388
198.086	1084
198.155	84
198.223	765
198.292	1248
198.360	643
198.429	253
198.497	466
198.566	256
198.635	1775
198.703	366
198.772	1160
198.840	1356
198.909	1716
198.977	-257
199.046	592
199.114	571
199.183	119
199.251	854
199.320	347
199.388	128
199.457	218
199.525	149
199.594	-371
199.662	400
199.731	377
199.799	454
199.867	651
199.936	598
200.004	1516
200.073	897
200.141	-166
200.210	-294
200.278	318
200.346	885
200.415	860
200.483	165
200.552	1124
200.620	745
200.688	346
200.757	428
200.825	90
200.893	-213
200.962	832
201.030	120
201.098	465
201.167	952
201.235	922
201.303	-105
201.372	497
201.440	631
201.508	538
201.577	70
201.645	538
201.713	-70
201.781	461
201.850	817
201.918	1390
201.986	535
202.055	1199
202.123	175
202.191	-15
202.259	382
202.327	931
202.396	147
202.464	242
202.532	200
202.600	2406
202.669	428
202.737	856
202.805	208
202.873	1609
202.941	-59
203.009	481
203.078	59
203.146	779
203.214	524
203.282	429
203.350	789
203.418	148
203.487	264
203.555	190
203.623	471
203.691	104
203.759	217
203.827	950
203.895	140
203.963	776
204.031	121
204.099	-133
204.168	144
204.236	1068
204.304	42
204.372	557
204.440	-247
204.508	663
204.576	254
204.644	550
204.712	-289
204.780	986
204.848	984
204.916	910
204.984	-175
205.052	593
205.120	845
205.188	286
205.256	439
205.324	569
205.392	492
205.460	1075
205.528	-187
205.596	1281
205.664	984
205.732	821
205.799	1703
205.867	3793
205.935	15
206.003	1815
206.071	-43
206.139	1035
206.207	1034
206.275	820
206.343	550
206.411	-29
206.478	1597
206.546	1469
206.614	781
206.682	159
206.750	424
206.818	886
206.885	1504
206.953	-826
207.021	1714
207.089	829
207.157	71
207.225	1594
207.292	372
207.360	1409
207.428	90
207.496	498
207.563	446
207.631	1596
207.699	255
207.767	651
207.834	91
207.902	919
207.970	683
208.038	967
208.105	432
208.173	914
208.241	359
208.309	1523
208.376	1529
208.444	2102
208.512	494
208.579	531
208.647	1181
208.715	1720
208.782	199
208.850	500
208.918	1114
208.985	858
209.053	-1
209.120	886
209.188	437
209.256	45
209.323	537
209.391	298
209.459	1922
209.526	1416
209.594	-229
209.661	849
209.729	852
209.796	1673
209.864	543
209.932	201
209.999	2067
210.067	810
210.134	875
210.202	1370
210.269	1596
210.337	1855
210.404	644
210.472	705
210.539	867
210.607	252
210.674	839
210.742	1686
210.809	249
210.877	971
210.944	1523
211.012	151
211.079	2483
211.146	1329
211.214	832
211.281	1938
211.349	1922
211.416	1293
211.484	1330
211.551	1385
211.618	962
211.686	819
211.753	92
211.821	1982
211.888	1202
211.955	1529
212.023	520
212.090	1406
212.157	184
212.225	1145
212.292	2343
212.359	3514
212.427	9243
212.494	4692
212.561	1632
212.629	1842
212.696	1413
212.763	1267
212.831	287
212.898	1599
212.965	356
213.032	1065
213.100	1011
213.167	1387
213.234	1641
213.301	1204
213.369	1485
213.436	1341
213.503	816
213.570	1710
213.638	2613
213.705	1255
213.772	969
213.839	1806
213.906	2014
213.973	995
214.041	904
214.108	1537
214.175	237
214.242	1225
214.309	1095
214.376	1388
214.444	1123
214.511	1042
214.578	548
214.645	1689
214.712	1578
214.779	1799
214.846	1016
214.913	2612
214.980	2346
215.048	1175
215.115	2112
215.182	2051
215.249	905
215.316	1287
215.383	2075
215.450	1532
215.517	356
215.584	1053
215.651	1068
215.718	1453
215.785	2034
215.852	371
215.919	1466
215.986	1817
216.053	1072
216.120	388
216.187	980
216.254	1501
216.321	703
216.388	1400
216.455	1519
216.522	1935
216.589	1096
216.656	2089
216.722	2510
216.789	2225
216.856	2458
216.923	1845
216.990	1767
217.057	2074
217.124	1396
217.191	2119
217.258	2321
217.324	2945
217.391	3085
217.458	2883
217.525	1559
217.592	2418
217.659	209
217.725	2647
217.792	1889
217.859	2586
217.926	416
217.993	408
218.059	918
218.126	1286
218.193	227
218.260	649
218.327	-41
218.393	1589
218.460	794
218.527	588
218.594	1093
218.660	1602
218.727	3109
218.794	281
218.860	1156
218.927	820
218.994	36
219.061	799
219.127	1488
219.194	1720
219.261	1221
219.327	69
219.394	901
219.461	-11
219.527	796
219.594	1312
219.661	987
219.727	273
219.794	357
219.860	258
219.927	1153
219.994	1917
220.060	3056
220.127	3698
220.193	1757
220.260	2062
220.326	2464
220.393	3431
220.460	4777
220.526	3415
220.593	1748
220.659	2752
220.726	1824
220.792	4719
220.859	5049
220.925	6326
220.992	8881
221.058	8769
221.125	6744
221.191	5593
221.258	2525
221.324	2361
221.391	1754
221.457	754
221.524	1026
221.590	1607
221.657	4854
221.723	4260
221.789	3540
221.856	3554
221.922	1181
221.989	1749
222.055	949
222.121	177
222.188	2749
222.254	1457
222.321	435
222.387	1056
222.453	-306
222.520	742
222.586	-126
222.652	526
222.719	386
222.785	1393
222.851	-101
222.918	1531
222.984	201
223.050	563
223.116	-786
223.183	1372
223.249	-213
223.315	452
223.382	215
223.448	1083
223.514	-627
223.580	530
223.647	-98
223.713	-642
223.779	300
223.845	1209
223.911	491
223.978	-387
224.044	546
224.110	-670
224.176	714
224.242	591
224.309	-715
224.375	915
224.441	390
224.507	168
224.573	-809
224.639	1289
224.705	40
224.772	90
224.838	-129
224.904	1272
224.970	563
225.036	239
225.102	-71
225.168	1355
225.234	552
225.300	431
225.366	515
225.432	665
225.499	1211
225.565	1099
225.631	-451
225.697	683
225.763	419
225.829	1667
225.895	643
225.961	2705
226.027	2548
226.093	1171
226.159	2226
226.225	3363
226.291	7186
226.357	14326
226.423	8391
226.489	2972
226.554	2405
226.620	2342
226.686	2973
226.752	4852
226.818	7250
226.884	17961
226.950	18164
227.016	7272
227.082	3032
227.148	3002
227.214	1848
227.279	1392
227.345	1850
227.411	1264
227.477	1615
227.543	6058
227.609	5719
227.674	3655
227.740	1431
227.806	1280
227.872	784
227.938	1474
228.003	1921
228.069	1135
228.135	357
228.201	1231
228.267	-374
228.332	1018
228.398	490
228.464	1868
228.530	619
228.595	678
228.661	116
228.727	1362
228.792	2014
228.858	244
228.924	143
228.990	2104
229.055	273
229.121	2042
229.187	451
229.252	547
229.318	1139
229.384	831
229.449	1331
229.515	-1019
229.581	-621
229.646	2628
229.712	95
229.777	2533
229.843	2467
229.909	2672
229.974	2035
230.040	2168
230.105	1486
230.171	1219
230.236	1820
230.302	3124
230.368	1931
230.433	1042
230.499	1205
230.564	1243
230.630	69
230.695	940
230.761	1771
230.826	-792
230.892	2594
230.957	1296
231.023	-4
231.088	439
231.154	80
231.219	1658
231.284	239
231.350	2731
231.415	-96
231.481	885
231.546	662
231.612	1410
231.677	-52
231.742	-232
231.808	1482
231.873	220
231.939	-999
232.004	2250
232.069	1491
232.135	683
232.200	344
232.265	1511
232.331	720
232.396	109
232.461	206
232.527	-11
232.592	-66
232.657	788
232.723	1378
232.788	335
232.853	1244
232.918	1268
232.984	501
233.049	502
233.114	855
233.179	1624
233.245	2042
233.310	4090
233.375	165
233.440	710
233.506	495
233.571	466
233.636	906
233.701	1178
233.766	1161
233.832	3245
233.897	969
233.962	-19
234.027	2231
234.092	1426
234.157	1579
234.222	971
234.288	856
234.353	7204
234.418	6108
234.483	4134
234.548	1673
234.613	949
234.678	1318
234.743	885
234.808	7615
234.873	4118
234.938	2567
235.004	1093
235.069	1216
235.134	1383
235.199	1353
235.264	1663
235.329	137
235.394	1508
235.459	2120
235.524	991
235.589	1280
235.654	302
235.719	-98
235.784	2007
235.849	1587
235.913	3442
235.978	4103
236.043	5847
236.108	1862
236.173	1106
236.238	2310
236.303	798
236.368	466
236.433	2232
236.498	5020
236.563	3514
236.627	4560
236.692	21213
236.757	18458
236.822	7469
236.887	3465
236.952	4428
237.017	1596
237.081	3818
237.146	3543
237.211	8967
237.276	18969
237.341	36878
237.405	17140
237.470	5972
237.535	4518
237.600	2707
237.664	2177
237.729	926
237.794	2100
237.859	6102
237.923	4392
237.988	2472
238.053	2678
238.118	3079
238.182	7978
238.247	9859
238.312	2936
238.376	3436
238.441	445
238.506	2345
238.570	-603
238.635	2633
238.700	935
238.764	865
238.829	3553
238.893	5373
238.958	3076
239.023	1713
239.087	11
239.152	1880
239.216	295
239.281	1519
239.346	930
239.410	1428
239.475	338
239.539	9121
239.604	6530
239.668	2723
239.733	929
239.797	2054
239.862	8800
239.926	10139
239.991	3927
240.055	1476
240.120	58
240.184	2458
240.249	166
240.313	938
240.378	941
240.442	5106
240.507	9766
240.571	2654
240.635	2990
240.700	5026
240.764	982
240.829	1161
240.893	-733
240.957	2073
241.022	4182
241.086	9765
241.151	3318
241.215	1220
241.279	2289
241.344	4202
241.408	1841
241.472	828
241.537	2527
241.601	2131
241.665	230
241.730	1024
241.794	1923
241.858	1158
241.922	1476
241.987	697
242.051	440
242.115	-410
242.179	790
242.244	707
242.308	1043
242.372	2035
242.436	-31
242.501	1912
242.565	207
242.629	1076
242.693	1670
242.757	162
242.822	71
242.886	1445
242.950	1471
243.014	570
243.078	1520
243.142	2027
243.206	830
243.271	2088
243.335	608
243.399	2130
243.463	8166
243.527	29746
243.591	9915
243.655	3265
243.719	1299
243.783	2715
243.847	2882
243.911	4975
243.975	4298
244.040	2779
244.104	3014
244.168	1547
244.232	2045
244.296	4207
244.360	4103
244.424	2173
244.488	1621
244.552	1658
244.615	-562
244.679	1246
244.743	1451
244.807	1346
244.871	1008
244.935	1868
244.999	-401
245.063	1519
245.127	1705
245.191	3138
245.255	2635
245.319	2988
245.383	503
245.446	2359
245.510	-171
245.574	995
245.638	2360
245.702	279
245.766	3964
245.829	4314
245.893	1156
245.957	229
246.021	1923
246.085	1643
246.149	1845
246.212	6798
246.276	9384
246.340	4393
246.404	4143
246.467	3357
246.531	3627
246.595	3679
246.659	2442
246.722	1257
246.786	3227
246.850	3098
246.913	3725
246.977	1372
247.041	1623
247.104	2326
247.168	2017
247.232	5358
247.295	12719
247.359	8299
247.423	2429
247.486	5455
247.550	3946
247.614	2069
247.677	3471
247.741	2686
247.804	813
247.868	2319
247.932	3234
247.995	12236
248.059	4057
248.122	1358
248.186	3318
248.249	4128
248.313	18902
248.376	22609
248.440	13177
248.503	4407
248.567	4463
248.630	4197
248.694	7755
248.757	9300
248.821	21933
248.884	14636
248.948	9245
249.011	16518
249.075	25350
249.138	23476
249.202	8378
249.265	4228
249.328	6196
249.392	3473
249.455	3700
249.519	2880
249.582	2966
249.645	5921
249.709	4796
249.772	2121
249.835	1983
249.899	3403
249.962	3108
250.025	2044
250.089	7110
250.152	12295
250.215	4968
250.279	2887
250.342	3077
250.405	3737
250.468	2054
250.532	3967
250.595	6124
250.658	22658
250.721	47064
250.785	16465
250.848	8478
250.911	4386
250.974	4193
251.038	5841
251.101	12894
251.164	6865
251.227	6236
251.290	5929
251.354	8459
251.417	35167
251.480	39095
251.543	21367
251.606	66766
251.669	55921
251.732	18248
251.795	17055
251.859	17527
251.922	42618
251.985	27425
252.048	9966
252.111	6009
252.174	5137
252.237	9930
252.300	25946
252.363	25298
252.426	59045
252.489	25974
252.552	11484
252.615	7115
252.678	7795
252.741	18008
252.804	23527
252.867	57176
252.930	35856
252.993	17967
253.056	9830
253.119	6781
253.182	5007
253.245	8906
253.308	7880
253.371	5428
253.434	6267
253.497	5453
253.559	13498
253.622	9340
253.685	9383
253.748	9671
253.811	4689
253.874	5506
253.937	5802
254.000	4024
254.062	7263
254.125	13044
254.188	11726
254.251	10039
254.314	3894
254.376	8066
254.439	10134
254.502	8107
254.565	7288
254.628	14880
254.690	9371
254.753	4869
254.816	3273
254.878	2917
254.941	7968
255.004	9083
255.067	3704
255.129	2441
255.192	2113
255.255	1543
255.317	3379
255.380	2583
255.443	1583
255.505	1884
255.568	1450
255.631	1794
255.693	1700
255.756	948
255.819	1997
255.881	417
255.944	1032
256.006	906
256.069	1056
256.132	485
256.194	2079
256.257	7048
256.319	5613
256.382	3806
256.444	3215
256.507	2159
256.569	1124
256.632	2065
256.694	3500
256.757	9888
256.819	35012
256.882	13427
256.944	5283
257.007	4041
257.069	3464
257.132	2662
257.194	2715
257.257	1549
257.319	1928
257.381	1875
257.444	7605
257.506	36419
257.569	46211
257.631	19124
257.693	9462
257.756	4197
257.818	3419
257.880	2394
257.943	2138
258.005	644
258.067	1369
258.130	1564
258.192	2469
258.254	5579
258.317	3549
258.379	1213
258.441	6239
258.503	7257
258.566	8736
258.628	13887
258.690	3368
258.753	2270
258.815	4534
258.877	1939
258.939	2494
259.001	733
259.064	1765
259.126	1404
259.188	3585
259.250	2972
259.312	1927
259.375	6973
259.437	5377
259.499	1730
259.561	1963
259.623	1438
259.685	2283
259.747	2126
259.809	7340
259.872	18212
259.934	24381
259.996	25110
260.058	6473
260.120	1404
260.182	1717
260.244	1191
260.306	1046
260.368	1819
260.430	936
260.492	2746
260.554	7074
260.616	5171
260.678	11119
260.740	19624
260.802	4355
260.864	3201
260.926	1106
260.988	2235
261.050	1697
261.112	3955
261.174	17022
261.236	16333
261.298	4815
261.359	5996
261.421	13081
261.483	2455
261.545	2771
261.607	170
261.669	2142
261.731	2736
261.793	11853
261.854	4092
261.916	3143
261.978	1199
262.040	2623
262.102	2010
262.164	3930
262.225	3436
262.287	1962
262.349	5074
262.411	5026
262.472	2489
262.534	3813
262.596	12054
262.658	3340
262.719	24
262.781	3562
262.843	9668
262.904	6243
262.966	2421
263.028	2923
263.090	15495
263.151	50997
263.213	17032
263.275	7493
263.336	2496
263.398	2775
263.459	1105
263.521	945
263.583	5495
263.644	4506
263.706	858
263.767	782
263.829	557
263.891	781
263.952	552
264.014	745
264.075	1415
264.137	5696
264.198	2752
264.260	417
264.321	335
264.383	2995
264.444	10074
264.506	3354
264.567	1409
264.629	2902
264.690	7069
264.752	3201
264.813	1590
264.875	417
264.936	1692
264.998	633
265.059	377
265.120	1269
265.182	1575
265.243	16551
265.305	19250
265.366	4478
265.427	2086
265.489	2392
265.550	357
265.611	1924
265.673	1119
265.734	1287
265.795	1311
265.857	849
265.918	630
265.979	3228
266.040	27047
266.102	26330
266.163	6140
266.224	4096
266.286	2109
266.347	711
266.408	546
266.469	1657
266.530	918
266.592	954
266.653	2773
266.714	5975
266.775	943
266.836	618
266.898	33
266.959	1722
267.020	1217
267.081	1316
267.142	875
267.203	456
267.264	-237
267.326	1087
267.387	-12
267.448	28
267.509	1050
267.570	1133
267.631	-63
267.692	-41
267.753	618
267.814	258
267.875	2173
267.936	8030
267.997	2614
268.058	2951
268.119	1299
268.180	1173
268.241	72
268.302	683
268.363	507
268.424	-197
268.485	691
268.546	467
268.607	-5
268.668	1018
268.729	-698
268.790	667
268.851	1721
268.912	3675
268.972	5111
269.033	2799
269.094	951
269.155	445
269.216	194
269.277	1000
269.338	570
269.398	1296
269.459	99
269.520	2135
269.581	1869
269.642	3632
269.702	1494
269.763	651
269.824	-90
269.885	1626
269.945	2786
270.006	995
270.067	419
270.128	690
270.188	409
270.249	379
270.310	204
270.370	486
270.431	1030
270.492	376
270.553	409
270.613	2667
270.674	7197
270.734	3472
270.795	1299
270.856	1457
270.916	1983
270.977	409
271.038	915
271.098	1418
271.159	1946
271.219	2736
271.280	1211
271.340	897
271.401	637
271.462	4424
271.522	3168
271.583	1946
271.643	1494
271.704	363
271.764	1547
271.825	4196
271.885	16977
271.946	29091
272.006	7257
272.066	9551
272.127	21500
272.187	7520
272.248	2595
272.308	2270
272.369	13380
272.429	9637
272.489	4429
272.550	4845
272.610	5239
272.671	4373
272.731	2847
272.791	6139
272.852	3209
272.912	3007
272.972	1304
273.033	1263
273.093	1917
273.153	2688
273.214	924
273.274	1452
273.334	7985
273.394	23140
273.455	7781
273.515	6649
273.575	18866
273.635	7944
273.696	7448
273.756	20754
273.816	8071
273.876	4749
273.936	8250
273.997	19174
274.057	4726
274.117	2578
274.177	3200
274.237	21734
274.297	23267
274.358	15482
274.418	16384
274.478	13332
274.538	4281
274.598	2491
274.658	12867
274.718	20526
274.778	7343
274.838	3036
274.898	6212
274.958	25971
275.018	21653
275.078	14260
275.138	5417
275.198	2835
275.258	1562
275.318	2235
275.378	4391
275.438	5762
275.498	3946
275.558	9698
275.618	25753
275.678	17734
275.738	7824
275.798	6577
275.858	2147
275.918	1461
275.978	1267
276.038	1783
276.098	846
276.157	2953
276.217	13532
276.277	6286
276.337	3053
276.397	2084
276.457	1706
276.517	2356
276.576	1148
276.636	878
276.696	2240
276.756	7420
276.815	6685
276.875	2135
276.935	1509
276.995	2086
277.055	956
277.114	1652
277.174	2095
277.234	12067
277.293	4966
277.353	2252
277.413	1389
277.472	1478
277.532	1095
277.592	1972
277.651	7272
277.711	18018
277.771	4704
277.830	18823
277.890	17640
277.950	9940
278.009	37878
278.069	15312
278.128	9383
278.188	16463
278.248	6205
278.307	16521
278.367	11195
278.426	3991
278.486	2155
278.545	1337
278.605	904
278.664	581
278.724	1388
278.783	5910
278.843	22845
278.902	7289
278.962	2936
279.021	3427
279.081	3378
279.140	3171
279.199	3482
279.259	2714
279.318	2897
279.378	4322
279.437	7285
279.496	28471
279.556	92191
279.615	88406
279.675	19532
279.734	9510
279.793	12714
279.853	25236
279.912	9665
279.971	5364
280.031	3277
280.090	7796
280.149	17630
280.208	11009
280.268	59046
280.327	79488
280.386	16433
280.445	10751
280.505	9895
280.564	4590
280.623	2530
280.682	5208
280.742	10231
280.801	3738
280.860	1449
280.919	1873
280.978	1099
281.037	1079
281.097	796
281.156	1620
281.215	711
281.274	1024
281.333	13011
281.392	12695
281.451	2310
281.510	690
281.569	708
281.628	1004
281.688	410
281.747	1187
281.806	871
281.865	1317
281.924	687
281.983	489
282.042	727
282.101	976
282.160	1019
282.219	1090
282.278	627
282.337	5784
282.396	4435
282.454	1227
282.513	1558
282.572	10314
282.631	6405
282.690	1554
282.749	-64
282.808	1627
282.867	687
282.926	1692
282.985	1052
283.043	-339
283.102	179
283.161	921
283.220	3840
283.279	14596
283.338	4146
283.396	1329
283.455	866
283.514	1837
283.573	2211
283.631	2283
283.690	1279
283.749	1708
283.808	3656
283.866	5181
283.925	1564
283.984	1486
284.043	1310
284.101	2202
284.160	1187
284.219	2608
284.277	757
284.336	3602
284.395	13135
284.453	14971
284.512	3601
284.570	4169
284.629	3665
284.688	3377
284.746	2528
284.805	3639
284.863	5704
284.922	7223
284.981	7708
285.039	9625
285.098	16575
285.156	44260
285.215	127006
285.273	136068
285.332	63293
285.390	29016
285.449	15877
285.507	10916
285.566	6623
285.624	5967
285.683	4363
285.741	3524
285.799	2813
285.858	2978
285.916	2100
285.975	1730
286.033	573
286.091	2032
286.150	999
286.208	1405
286.267	1335
286.325	1563
286.383	2052
286.442	3330
286.500	907
286.558	919
286.616	1057
286.675	2268
286.733	1459
286.791	1253
286.850	1761
286.908	2616
286.966	4945
287.024	2391
287.083	768
287.141	59
287.199	1094
287.257	2251
287.315	1279
287.374	1258
287.432	5631
287.490	4852
287.548	1559
287.606	1068
287.664	491
287.723	1587
287.781	3050
287.839	1589
287.897	2401
287.955	3733
288.013	4974
288.071	9420
288.129	42017
288.187	159533
288.245	76040
288.303	20844
288.361	9762
288.419	6330
288.477	4149
288.535	2899
288.593	1878
288.651	1946
288.709	772
288.767	1183
288.825	847
288.883	879
288.941	603
288.999	672
289.057	520
289.115	-240
289.173	994
289.231	1565
289.289	1211
289.346	901
289.404	1320
289.462	2749
289.520	2734
289.578	993
289.636	237
289.694	-56
289.751	-715
289.809	25
289.867	-70
289.925	1663
289.983	377
290.040	931
290.098	-281
290.156	531
290.214	1244
290.271	331
290.329	1079
290.387	971
290.444	-410
290.502	287
290.560	-315
290.617	559
290.675	497
290.733	670
290.790	1065
290.848	941
290.906	1060
290.963	1200
291.021	1040
291.078	1138
291.136	402
291.194	3954
291.251	13462
291.309	3931
291.366	84
291.424	538
291.481	213
291.539	446
291.596	38
291.654	-449
291.711	-351
291.769	764
291.826	1926
291.884	2001
291.941	410
291.999	717
292.056	974
292.114	1922
292.171	-244
292.228	1365
292.286	1397
292.343	3918
292.401	5418
292.458	4004
292.515	1952
292.573	2105
292.630	1746
292.687	2404
292.745	500
292.802	1318
292.859	4946
292.917	14432
292.974	9419
293.031	2130
293.089	1205
293.146	806
293.203	60
293.260	-101
293.318	989
293.375	2304
293.432	1235
293.489	803
293.546	239
293.604	1192
293.661	5933
293.718	24435
293.775	12374
293.832	5075
293.889	2444
293.947	2628
294.004	2065
294.061	1250
294.118	4948
294.175	12776
294.232	14375
294.289	6520
294.346	2559
294.403	3327
294.460	2202
294.517	1722
294.574	1579
294.631	1136
294.688	680
294.745	4998
294.802	24409
294.859	30071
294.916	10988
294.973	4994
295.030	3412
295.087	3372
295.144	879
295.201	1848
295.258	834
295.315	1788
295.372	8288
295.429	21831
295.486	7883
295.542	4142
295.599	7811
295.656	18934
295.713	11634
295.770	19251
295.827	6718
295.883	3222
295.940	2102
295.997	4449
296.054	4093
296.111	1967
296.167	1662
296.224	1093
296.281	727
296.338	1520
296.394	761
296.451	1666
296.508	6468
296.564	16339
296.621	8858
296.678	17941
296.734	30291
296.791	11486
296.848	4800
296.904	3729
296.961	9982
297.018	22122
297.074	17306
297.131	5998
297.187	3451
297.244	4125
297.301	17941
297.357	43189
297.414	14957
297.470	5664
297.527	3304
297.583	2130
297.640	1602
297.696	1451
297.753	1188
297.809	684
297.866	680
297.922	953
297.979	1458
298.035	1376
298.092	2879
298.148	12008
298.204	12540
298.261	5120
298.317	7271
298.374	25358
298.430	16229
298.486	6519
298.543	4397
298.599	2590
298.656	1872
298.712	5521
298.768	18113
298.824	14369
298.881	4080
298.937	2863
298.993	1708
299.050	2556
299.106	1535
299.162	2683
299.218	2380
299.275	1000
299.331	1394
299.387	3944
299.443	21004
299.500	29887
299.556	12889
299.612	4996
299.668	3309
299.724	7564
299.780	10229
299.837	4241
299.893	3791
299.949	18548
300.005	28031
300.061	19173
300.117	37243
300.173	18426
300.229	6839
300.285	6576
300.341	8710
300.397	3765
300.453	1968
300.510	2217
300.566	2413
300.622	3642
300.678	15580
300.734	29977
300.790	22579
300.845	26574
300.901	16492
300.957	25667
301.013	18643
301.069	5794
301.125	3341
301.181	3737
301.237	2392
301.293	1504
301.349	1763
301.405	453
301.461	1086
301.516	2013
301.572	1690
301.628	4866
301.684	4280
301.740	7467
301.796	13470
301.851	8496
301.907	12077
301.963	13984
302.019	19947
302.074	63944
302.130	66135
302.186	29088
302.242	11045
302.297	6164
302.353	5424
302.409	12672
302.464	11818
302.520	7437
302.576	21572
302.631	28105
302.687	15804
302.743	6242
302.798	3647
302.854	1436
302.910	2233
302.965	2803
303.021	4858
303.076	5368
303.132	7334
303.187	9636
303.243	4977
303.299	2635
303.354	841
303.410	1897
303.465	1449
303.521	1489
303.576	1462
303.632	2511
303.687	4630
303.743	19635
303.798	19068
303.853	7395
303.909	3091
303.964	2312
304.020	3022
304.075	6988
304.130	5587
304.186	11978
304.241	13024
304.297	10725
304.352	5325
304.358	5085
304.407	3138
304.449	2808
304.463	2702
304.518	2842
304.539	2718
304.573	2501
304.629	2162
304.630	2189
304.684	3606
304.720	9972
304.739	13114
304.794	24495
304.811	20810
304.850	11928
304.902	5707
304.905	5322
304.960	3582
304.992	2519
305.015	1702
305.071	3229
305.083	2804
305.126	1288
305.173	830
305.181	763
305.236	1321
305.264	1453
305.292	1620
305.347	2482
305.354	2703
305.402	3985
305.445	2992
305.457	2720
305.512	3457
305.535	3719
305.567	4187
305.622	4608
305.626	4734
305.678	8447
305.716	19099
305.733	22687
305.788	26844
305.807	22860
305.843	16637
305.897	21492
305.898	21525
305.953	22808
305.988	15140
306.008	11163
306.063	7400
306.078	6645
306.118	4744
306.168	2817
306.173	2667
306.228	1624
306.259	1685
306.283	1769
306.338	1644
306.349	1780
306.393	2469
306.440	2564
306.448	2554
306.503	3196
306.530	2987
306.558	3774
306.613	10834
306.620	11722
306.668	17342
306.711	23033
306.723	23439
306.778	18164
306.801	13842
306.833	9449
306.888	3949
306.892	3871
306.943	3762
306.982	2707
306.997	2306
307.052	2047
307.072	2004
307.107	2379
307.162	3788
307.163	3798
307.217	5291
307.253	7146
307.272	7607
307.327	7587
307.343	7046
307.381	6142
307.434	5111
307.436	5275
307.491	11523
307.524	17925
307.546	19434
307.600	20212
307.614	17912
307.655	10873
307.704	5796
307.710	5632
307.765	5391
307.795	7376
307.819	9290
307.874	14890
307.885	15119
307.929	12565
307.975	8663
307.984	8737
308.038	11924
308.065	14429
308.093	27759
308.148	62911
308.156	71657
308.202	115408
308.246	144618
308.257	141174
308.312	74809
308.336	49414
308.366	36334
308.421	22665
308.426	21452
308.475	12936
308.517	8929
308.530	8151
308.585	6628
308.607	6371
308.639	6575
308.694	6954
308.697	7036
308.748	13339
308.787	20353
308.803	20149
308.857	14993
308.877	12355
308.912	10786
308.967	9801
308.967	9804
309.021	13325
309.058	16325
309.076	20999
309.130	38201
309.148	45124
309.185	92104
309.238	175018
309.239	175494
309.293	192078
309.328	172633
309.348	147843
309.402	65518
309.418	45692
309.457	30725
309.508	18250
309.511	17832
309.566	14665
309.598	13870
309.620	15573
309.674	22012
309.688	23737
309.729	22036
309.778	17352
309.783	17012
309.837	12571
309.868	10715
309.892	13401
309.946	21278
309.959	23909
310.001	31304
310.049	37431
310.055	36186
310.109	21179
310.139	12339
310.163	9798
310.218	6566
310.229	6065
310.272	5016
310.319	4049
310.326	3955
310.381	3590
310.409	3336
310.435	3052
310.489	2625
310.499	2558
310.543	2845
310.589	3213
310.598	3187
310.652	3134
310.679	2996
310.706	2932
310.760	2579
310.769	2564
310.814	2277
310.859	1889
310.868	1943
310.923	2196
310.948	2436
310.977	3243
311.031	4690
311.038	4909
311.085	4257
311.128	3171
311.139	3125
311.193	3133
311.218	3092
311.247	2823
311.301	2360
311.308	2303
311.356	2384
311.398	2422
311.410	2360
311.464	2018
311.488	1855
311.518	2021
311.572	2345
311.578	2384
311.626	3514
311.668	4450
311.680	4515
311.734	4681
311.758	4775
311.788	4732
311.842	4596
311.847	4574
311.896	5366
311.937	6067
311.950	5874
312.004	4946
312.027	4536
312.058	3867
312.112	2669
312.117	2551
312.165	2746
312.207	2918
312.297	3869
312.386	3147
312.476	3959
312.566	7350
312.656	3325
312.745	2133
312.835	2958
312.925	2874
313.015	3387
313.104	3103
313.194	3587
313.284	2787
313.374	4025
313.463	4023
313.553	2763
313.643	2699
313.732	2419
313.822	2539
313.912	3070
314.001	3393
314.091	3959
314.180	5412
314.270	5310
314.360	4818
314.449	3937
314.539	3048
314.628	2336
314.718	3299
314.808	3912
314.897	3024
314.987	3928
315.076	4416
315.166	4751
315.255	4445
315.345	4774
315.434	4369
315.524	4948
315.613	5103
315.703	7544
315.792	17535
315.881	61891
315.971	16959
316.060	9538
316.150	11573
316.239	11633
316.328	5372
316.418	3159
316.507	3313
316.597	5188
316.686	4257
316.775	6758
316.865	12657
316.954	3481
317.043	2771
317.133	3847
317.222	3334
317.311	2636
317.400	2317
317.490	5461
317.579	5494
317.668	4687
317.757	9210
317.847	31064
317.936	103814
318.025	28869
318.114	21441
318.203	10272
318.293	13451
318.382	26524
318.471	16729
318.560	20732
318.649	28449
318.738	6181
318.828	4932
318.917	4510
319.006	6224
319.095	15466
319.184	36632
319.273	18973
319.362	10309
319.451	3543
319.540	4153
319.629	9596
319.718	13156
319.807	5822
319.896	12962
319.985	47209
320.074	14972
320.163	5034
320.252	8633
320.341	5739
320.430	5324
320.519	7619
320.608	4650
320.697	4138
320.786	4465
320.875	6225
320.964	7816
321.053	10494
321.142	14793
321.230	14763
321.319	12484
321.408	25673
321.497	10939
321.586	11667
321.675	14184
321.764	11639
321.852	7861
321.941	14187
322.030	8691
322.119	11192
322.207	26643
322.296	17933
322.385	9497
322.474	13340
322.562	34118
322.651	15004
322.740	12029
322.829	15041
322.917	15999
323.006	9773
323.095	8499
323.183	5817
323.272	8539
323.361	18782
323.449	52103
323.538	14881
323.626	36240
323.715	17986
323.804	8921
323.892	33073
323.981	14741
324.069	6049
324.158	19223
324.246	18172
324.335	6290
324.424	9227
324.512	4260
324.601	4681
324.689	5122
324.778	7117
324.866	11000
324.954	3558
325.043	4071
325.131	6478
325.220	12593
325.308	13501
325.397	10965
325.485	6660
325.574	3401
325.662	2851
325.750	2911
325.839	2839
325.927	1776
326.015	3698
326.104	5651
326.192	8041
326.280	2672
326.369	2928
326.457	4981
326.545	8019
326.634	3992
326.722	3195
326.810	3650
326.898	3076
326.987	4851
327.075	7830
327.163	8482
327.251	3326
327.340	4108
327.428	4475
327.516	3885
327.604	3436
327.692	3356
327.781	3262
327.869	5438
327.957	4181
328.045	3603
328.133	2491
328.221	3003
328.309	2927
328.397	3419
328.485	2933
328.574	5933
328.662	18306
328.750	9298
328.838	4062
328.926	3595
329.014	2858
329.102	3377
329.190	8307
329.278	6011
329.366	2431
329.454	2524
329.542	1596
329.630	2420
329.718	2271
329.806	2863
329.893	3457
329.981	2206
330.069	4177
330.157	19897
330.245	58712
330.333	27289
330.421	4792
330.509	5607
330.597	19825
330.684	10910
330.772	4609
330.860	6006
330.948	6846
331.036	3034
331.123	1790
331.211	3172
331.299	2382
331.387	6290
331.475	9605
331.562	3884
331.650	1691
331.738	3288
331.825	3391
331.913	2200
332.001	2214
332.089	3173
332.176	6172
332.264	16065
332.352	10705
332.439	3642
332.527	2330
332.614	2457
332.702	4352
332.790	4246
332.877	8404
332.965	14202
333.052	3250
333.140	4579
333.228	8324
333.315	2785
333.403	2881
333.490	9517
333.578	7019
333.665	9394
333.753	5921
333.840	2954
333.928	3882
334.015	9473
334.103	16612
334.190	48854
334.278	11828
334.365	7655
334.452	6697
334.540	4441
334.627	4518
334.715	5947
334.802	12571
334.889	67235
334.977	64508
335.064	12240
335.151	5828
335.239	4474
335.326	5628
335.413	25790
335.501	30460
335.588	5028
335.675	3548
335.762	5182
335.850	8358
335.937	8217
336.024	19670
336.111	73779
336.199	34765
336.286	8920
336.373	4649
336.460	3820
336.547	2631
336.635	3239
336.722	3732
336.809	2846
336.896	5413
336.983	12742
337.070	32467
337.157	49261
337.245	38776
337.332	24807
337.419	3716
337.506	3417
337.593	3620
337.680	10475
337.767	27794
337.854	7924
337.941	8654
338.028	11886
338.115	4074
338.202	4513
338.289	10148
338.376	38306
338.463	10973
338.550	17899
338.637	16290
338.724	7224
338.811	10286
338.898	3705
338.984	2139
339.071	2133
339.158	3452
339.245	9209
339.332	5425
339.419	8874
339.506	7415
339.593	1650
339.679	2467
339.766	2717
339.853	3799
339.940	6977
340.027	2344
340.113	3458
340.200	3926
340.287	2269
340.374	3052
340.460	6076
340.547	2560
340.634	5754
340.720	20773
340.807	10100
340.894	3151
340.980	2330
341.067	2067
341.154	2911
341.240	4336
341.327	9125
341.414	2790
341.500	1674
341.587	2347
341.674	2817
341.760	6211
341.847	7341
341.933	3285
342.020	1610
342.106	1409
342.193	3620
342.279	4576
342.366	3601
342.452	6015
342.539	3123
342.625	8879
342.712	19703
342.798	7945
342.885	3734
342.971	1051
343.058	1797
343.144	1850
343.230	2031
343.317	1997
343.403	931
343.490	1882
343.576	1804
343.662	2725
343.749	2151
343.835	3518
343.921	5770
344.008	45884
344.094	100944
344.180	18740
344.267	6935
344.353	28129
344.439	26168
344.525	8720
344.612	3963
344.698	3194
344.784	3112
344.870	2546
344.957	2809
345.043	5010
345.129	3073
345.215	5790
345.301	2108
345.387	2273
345.474	2410
345.560	2250
345.646	2654
345.732	2368
345.818	1530
345.904	2237
345.990	3589
346.076	3786
346.162	4204
346.249	3139
346.335	2399
346.421	3361
346.507	11601
346.593	40196
346.679	8081
346.765	3287
346.851	3906
346.937	2342
347.023	3342
347.108	2389
347.194	2541
347.280	2660
347.366	3207
347.452	13190
347.538	49672
347.624	33102
347.710	24463
347.796	3449
347.882	2576
347.967	2190
348.053	2166
348.139	2206
348.225	2284
348.311	1827
348.397	2329
348.482	4285
348.568	3557
348.654	1856
348.740	6005
348.825	3705
348.911	5844
348.997	22141
349.083	43344
349.168	6258
349.254	2295
349.340	2159
349.425	2257
349.511	3147
349.597	3738
349.682	7167
349.768	26319
349.854	10401
349.939	3026
350.025	1538
350.110	3051
350.196	1951
350.282	1196
350.367	2679
350.453	3699
350.538	3697
350.624	3015
350.709	3472
350.795	1935
350.880	1762
350.966	3516
351.051	3010
351.137	2993
351.222	2507
351.308	7836
351.393	19872
351.479	4230
351.564	1804
351.649	2701
351.735	2099
351.820	2168
351.906	2315
351.991	3071
352.076	13423
352.162	18923
352.247	4188
352.332	2157
352.418	2625
352.503	5267
352.588	29769
352.673	22219
352.759	5301
352.844	3321
352.929	3233
353.014	3576
353.100	3489
353.185	5267
353.270	6945
353.355	7626
353.441	3334
353.526	3044
353.611	7271
353.696	7635
353.781	5716
353.866	2677
353.952	3387
354.037	6517
354.122	14863
354.207	13067
354.292	4706
354.377	2920
354.462	2958
354.547	3169
354.632	3502
354.717	3887
354.802	3686
354.887	3432
354.972	2490
355.057	2161
355.142	1805
355.227	2582
355.312	4543
355.397	9376
355.482	22865
355.567	10392
355.652	8366
355.737	8903
355.822	30766
355.907	21880
355.991	5162
356.076	1863
356.161	3013
356.246	2210
356.331	2121
356.416	6184
356.501	54712
356.585	51836
356.670	5613
356.755	5519
356.840	6343
356.924	33246
357.009	121769
357.094	41499
357.179	8300
357.263	6650
357.348	6483
357.433	5600
357.517	5020
357.602	5061
357.687	3630
357.771	3975
357.856	5581
357.941	6402
358.025	26971
358.110	117609
358.195	48124
358.279	6178
358.364	4732
358.448	20934
358.533	53747
358.617	35328
358.702	37399
358.787	13340
358.871	7352
358.956	6635
359.040	2578
359.125	1906
359.209	3302
359.294	6067
359.378	6196
359.462	5911
359.547	4138
359.631	2542
359.716	1214
359.800	1927
359.885	4440
359.969	3579
360.053	6500
360.138	5896
360.222	5419
360.306	7321
360.391	5491
360.475	7317
360.559	14949
360.644	18738
360.728	12504
360.812	30033
360.896	80048
360.981	27757
361.065	13873
361.149	6564
361.233	4352
361.318	4118
361.402	6111
361.486	3993
361.570	2921
361.654	3226
361.739	9770
361.823	50562
361.907	78347
361.991	12029
362.075	9396
362.159	15232
362.243	11561
362.327	14681
362.411	23388
362.495	10066
362.580	5431
362.664	5163
362.748	3758
362.832	6194
362.916	10026
363.000	37461
363.084	94263
363.168	101058
363.252	21905
363.336	9394
363.420	10399
363.503	32888
363.587	36629
363.671	6488
363.755	5015
363.839	9134
363.923	3802
364.007	9522
364.091	10046
364.175	14690
364.258	59688
364.342	55248
364.426	87682
364.510	45480
364.594	15454
364.677	16564
364.761	68987
364.845	47058
364.929	12619
365.013	10513
365.096	9430
365.180	10116
365.264	15025
365.347	53210
365.431	19791
365.515	5574
365.598	3483
365.682	4396
365.766	4536
365.849	5994
365.933	3614
366.017	6015
366.100	2298
366.184	1515
366.267	3216
366.351	3059
366.435	3458
366.518	2539
366.602	2471
366.685	3041
366.769	3599
366.852	5635
366.936	9246
367.019	4544
367.103	2670
367.186	7667
367.270	2571
367.353	1916
367.436	2491
367.520	2566
367.603	3438
367.687	4262
367.770	7716
367.853	6222
367.937	19506
368.020	31244
368.104	6139
368.187	7466
368.270	9719
368.353	7542
368.437	10614
368.520	24524
368.603	13652
368.687	20389
368.770	39571
368.853	9046
368.936	7935
369.020	8312
369.103	3531
369.186	3193
369.269	3660
369.352	6626
369.436	8416
369.519	5498
369.602	2876
369.685	4471
369.768	2898
369.851	3251
369.934	1413
370.018	3175
370.101	6437
370.184	6608
370.267	5104
370.350	9614
370.433	13712
370.516	39312
370.599	56705
370.682	16279
370.765	20130
370.848	26512
370.931	50379
371.014	24985
371.097	5140
371.180	4296
371.263	2683
371.346	207
371.429	2798
371.511	2452
371.594	5114
371.677	6942
371.760	7800
371.843	6916
371.926	38726
372.009	89380
372.091	26341
372.174	18228
372.257	47878
372.340	17589
372.423	9951
372.505	12396
372.588	5456
372.671	16326
372.754	48240
372.836	22714
372.919	15018
373.002	27498
373.085	7096
373.167	7856
373.250	18786
373.332	46194
373.415	63175
373.498	126179
373.580	46606
373.663	80975
373.746	99220
373.828	18135
373.911	7985
373.993	7815
374.076	27396
374.159	24523
374.241	12475
374.324	39237
374.406	25649
374.489	36774
374.571	107166
374.654	41541
374.736	20328
374.819	65281
374.901	95384
374.983	96719
375.066	15286
375.148	5473
375.231	23441
375.313	43502
375.395	14872
375.478	4483
375.560	4261
375.643	5482
375.725	19748
375.807	85938
375.890	64335
375.972	21663
376.054	12874
376.136	19434
376.219	9188
376.301	25212
376.383	71779
376.465	26389
376.548	13556
376.630	20124
376.712	60211
376.794	26878
376.877	2907
376.959	2202
377.041	3270
377.123	6117
377.205	5745
377.287	1637
377.369	4385
377.452	6631
377.534	3889
377.616	2990
377.698	3041
377.780	1760
377.862	3312
377.944	3434
378.026	521
378.108	2333
378.190	1859
378.272	2554
378.354	1656
378.436	1176
378.518	2872
378.600	11479
378.682	11305
378.764	26264
378.846	23142
378.928	7313
379.010	7271
379.091	5720
379.173	2296
379.255	1285
379.337	3668
379.419	13884
379.501	40110
379.583	15804
379.664	3678
379.746	8584
379.828	25773
379.910	35602
379.991	31387
380.073	5010
380.155	4333
380.237	3368
380.318	2504
380.400	2756
380.482	6443
380.564	8663
380.645	7105
380.727	7353
380.809	5363
380.890	2829
380.972	1513
381.053	2517
381.135	4196
381.217	9663
381.298	26795
381.380	13109
381.461	11294
381.543	58833
381.624	71703
381.706	11197
381.787	5643
381.869	7994
381.951	26241
382.032	99458
382.113	60724
382.195	10076
382.276	8193
382.358	17058
382.439	51367
382.521	60519
382.602	93952
382.684	39191
382.765	68264
382.846	64317
382.928	68815
383.009	36579
383.090	26576
383.172	103452
383.253	157975
383.334	57297
383.416	77738
383.497	38638
383.578	13050
383.659	22180
383.741	92908
383.822	242326
383.903	119466
383.984	49750
384.066	96483
384.147	56025
384.228	11247
384.309	7885
384.390	6834
384.471	4705
384.553	5033
384.634	6752
384.715	7928
384.796	3356
384.877	5509
384.958	24924
385.039	28158
385.120	9128
385.201	5560
385.282	5714
385.363	5741
385.444	5521
385.525	13658
385.606	43475
385.687	37038
385.768	8179
385.849	8331
385.930	44052
386.011	76895
386.092	19127
386.173	4519
386.254	3937
386.335	5482
386.416	5543
386.496	17399
386.577	25832
386.658	9151
386.739	5559
386.820	6152
386.901	3398
386.981	5234
387.062	4385
387.143	7753
387.224	27502
387.304	25608
387.385	9241
387.466	6433
387.547	9910
387.627	6702
387.708	12211
387.789	48674
387.869	60589
387.950	16967
388.031	3739
388.111	2263
388.192	7577
388.273	10812
388.353	6271
388.434	4462
388.514	9951
388.595	50696
388.676	60424
388.756	25923
388.837	23452
388.917	14295
388.998	3505
389.078	5083
389.159	4517
389.239	2775
389.320	7029
389.400	4243
389.480	11167
389.561	28520
389.641	15244
389.722	6128
389.802	7254
389.883	12644
389.963	36497
390.043	22135
390.124	6093
390.204	11457
390.284	29906
390.365	18705
390.445	20659
390.525	59426
390.605	52645
390.686	15437
390.766	9375
390.846	5833
390.927	2651
391.007	3774
391.087	6369
391.167	7420
391.247	5041
391.328	6845
391.408	8200
391.488	6091
391.568	2651
391.648	5512
391.728	7042
391.808	7023
391.888	7634
391.969	16648
392.049	26354
392.129	12014
392.209	14755
392.289	35242
392.369	20021
392.449	14422
392.529	10618
392.609	11162
392.689	13937
392.769	37145
392.849	33815
392.929	26327
393.009	56116
393.089	51940
393.169	65139
393.248	198722
393.328	616145
393.408	649794
393.488	205102
393.568	58830
393.648	29853
393.728	18846
393.807	13548
393.887	12960
393.967	11154
394.047	10054
394.127	10976
394.206	16401
394.286	55377
394.366	244531
394.446	260704
394.525	55483
394.605	13996
394.685	11720
394.764	18062
394.844	30693
394.924	24107
395.003	10524
395.083	7244
395.163	6723
395.242	6895
395.322	6333
395.402	4966
395.481	6998
395.561	14395
395.640	35877
395.720	37059
395.799	40254
395.879	31391
395.958	21481
396.038	79908
396.117	318615
396.197	346020
396.276	90816
396.356	27482
396.435	20706
396.515	19280
396.594	24321
396.673	53418
396.753	199292
396.832	556636
396.912	408002
396.991	95968
397.070	29779
397.150	16260
397.229	13177
397.308	17391
397.388	29489
397.467	15146
397.546	7119
397.625	3523
397.705	7210
397.784	6145
397.863	4134
397.942	4120
398.022	3894
398.101	10374
398.180	29978
398.259	16237
398.338	5677
398.417	3171
398.497	2650
398.576	4048
398.655	1932
398.734	3501
398.813	4761
398.892	11599
398.971	34307
399.050	15947
399.129	2417
399.208	2878
399.287	2588
399.366	1887
399.445	2174
399.524	2297
399.603	1219
399.682	4541
399.761	10777
399.840	36951
399.919	27682
399.998	3836
400.077	943
400.156	1060
400.235	3915
400.313	1966
400.392	1953
400.471	13188
400.550	21639
400.629	4798
400.708	3424
400.786	2299
400.865	5050
400.944	5972
401.023	4859
401.102	1509
401.180	1880
401.259	2610
401.338	1360
401.416	3228
401.495	1976
401.574	2863
401.652	1197
401.731	3342
401.810	1248
401.888	1229
401.967	1585
402.046	3446
402.124	4005
402.203	2172
402.281	3353
402.360	5382
402.438	8462
402.517	5143
402.596	2152
402.674	1799
402.753	1974
402.831	1064
402.910	1600
402.988	6152
403.066	23899
403.145	14513
403.223	8286
403.302	18324
403.380	14697
403.459	12587
403.537	5065
403.615	2607
403.694	997
403.772	2273
403.850	958
403.929	1324
404.007	1357
404.085	3852
404.164	2822
404.242	1031
404.320	3762
404.398	6882
404.477	16923
404.555	75197
404.633	66111
404.711	11203
404.789	4229
404.868	1548
404.946	878
405.024	1700
405.102	1730
405.180	848
405.258	-1003
405.336	1377
405.415	1538
405.493	3489
405.571	2767
405.649	494
405.727	328
405.805	2007
405.883	2422
405.961	2021
406.039	1894
406.117	1441
406.195	3236
406.273	15430
406.351	60727
406.429	35803
406.507	4038
406.585	1040
406.663	1613
406.740	2632
406.818	2070
406.896	1275
406.974	2163
407.052	4190
407.130	34384
407.208	48181
407.285	9246
407.363	33
407.441	1791
407.519	1277
407.596	2020
407.674	10192
407.752	34565
407.830	26584
407.907	6451
407.985	903
408.063	1224
408.141	738
408.218	3208
408.296	2142
408.373	2782
408.451	2227
408.529	1924
408.606	931
408.684	1833
408.762	757
408.839	1091
408.917	1011
408.994	1742
409.072	898
409.149	1428
409.227	4590
409.304	5353
409.382	4330
409.459	5048
409.537	7877
409.614	5939
409.692	3851
409.769	4316
409.846	6922
409.924	11451
410.001	6123
410.079	3718
410.156	5034
410.233	7126
410.311	4904
410.388	1992
410.465	2416
410.543	2618
410.620	2527
410.697	1793
410.775	2544
410.852	681
410.929	3609
411.006	4485
411.083	2023
411.161	7680
411.238	7055
411.315	2883
411.392	1930
411.469	3911
411.547	4468
411.624	1872
411.701	1324
411.778	1434
411.855	3740
411.932	1871
412.009	1443
412.086	1052
412.163	1867
412.240	2240
412.317	3456
412.394	2503
412.471	1021
412.548	746
412.625	533
412.702	2041
412.779	5953
412.856	6699
412.933	713
413.010	1554
413.087	2665
413.164	12146
413.241	18026
413.318	4340
413.395	2990
413.471	4836
413.548	1705
413.625	1171
413.702	1324
413.779	484
413.855	427
413.932	-153
414.009	95
414.086	210
414.162	1358
414.239	4470
414.316	14285
414.393	27964
414.469	8528
414.546	100
414.623	233
414.699	597
414.776	749
414.853	411
414.929	1527
415.006	815
415.082	655
415.159	688
415.236	1138
415.312	1237
415.389	2193
415.465	2333
415.542	1199
415.618	365
415.695	2298
415.771	629
415.848	894
415.924	1399
416.000	46
416.077	1076
416.153	-535
416.230	-915
416.306	-106
416.383	447
416.459	108
416.535	-562
416.612	113
416.688	428
416.764	1923
416.841	835
416.917	382
416.993	784
417.069	1440
417.146	1377
417.222	2327
417.298	940
417.374	1432
417.451	1866
417.527	1094
417.603	953
417.679	1602
417.755	1392
417.831	537
417.908	455
417.984	99
418.060	-1176
418.136	3360
418.212	3900
418.288	1555
418.364	1172
418.440	-20
418.516	2346
418.592	1821
418.668	4553
418.744	7616
418.820	5111
418.896	830
418.972	396
419.048	20
419.124	3981
419.200	1617
419.276	359
419.352	-409
419.428	1090
419.504	1075
419.579	1919
419.655	886
419.731	1307
419.807	5568
419.883	8585
419.959	6284
420.034	950
420.110	3593
420.186	16173
420.262	13666
420.337	1963
420.413	1737
420.489	888
420.565	1512
420.640	1132
420.716	1552
420.792	-19
420.867	1808
420.943	729
421.019	3083
421.094	1593
421.170	2685
421.245	496
421.321	1465
421.397	1950
421.472	6368
421.548	16917
421.623	11438
421.699	4054
421.774	3925
421.850	3203
421.925	4999
422.001	5400
422.076	5903
422.152	6046
422.227	9512
422.302	13247
422.378	20209
422.453	36553
422.529	92057
422.604	238725
422.679	355785
422.755	255655
422.830	100391
422.905	41055
422.981	20933
423.056	14753
423.131	10771
423.207	7988
423.282	6299
423.357	8512
423.432	5559
423.508	5831
423.583	10626
423.658	8241
423.733	3849
423.808	4001
423.883	4503
423.959	3412
424.034	3518
424.109	2515
424.184	1023
424.259	1922
424.334	1643
424.409	752
424.484	1045
424.559	1722
424.634	1519
424.709	2710
424.784	3235
424.859	1381
424.934	2275
425.009	11979
425.084	20026
425.159	6988
425.234	1655
425.309	732
425.384	1155
425.459	625
425.534	295
425.609	7
425.683	836
425.758	904
425.833	644
425.908	2062
425.983	7047
426.058	21277
426.132	8540
426.207	2013
426.282	3436
426.357	1711
426.431	850
426.506	892
426.581	1038
426.655	282
426.730	668
426.805	-209
426.879	1267
426.954	782
427.029	3086
427.103	20862
427.178	53838
427.253	23594
427.327	1762
427.402	1515
427.476	2898
427.551	1490
427.625	1490
427.700	1919
427.774	-283
427.849	1910
427.923	594
427.998	1073
428.072	1194
428.147	5054
428.221	25204
428.296	83122
428.370	45951
428.444	4763
428.519	2770
428.593	6676
428.667	5208
428.742	6887
428.816	11115
428.890	47538
428.965	77861
429.039	21221
429.113	7347
429.188	3136
429.262	1504
429.336	3583
429.410	10090
429.485	6124
429.559	4894
429.633	4520
429.707	2037
429.781	8074
429.855	50072
429.930	77230
430.004	29252
430.078	32073
430.152	40799
430.226	107323
430.300	112630
430.374	17937
430.448	5082
430.522	11236
430.596	31227
430.670	27476
430.744	82416
430.818	112095
430.892	22252
430.966	3112
431.040	2045
431.114	8
431.188	418
431.262	572
431.336	30
431.410	3256
431.484	8113
431.557	6063
431.631	1227
431.705	2133
431.779	17156
431.853	76659
431.927	55676
432.000	6246
432.074	1206
432.148	1286
432.222	1451
432.295	770
432.369	29
432.443	2230
432.516	21351
432.590	56196
432.664	21255
432.737	1296
432.811	-127
432.885	-457
432.958	183
433.032	-32
433.106	-476
433.179	-221
433.253	6
433.326	678
433.400	92
433.473	592
433.547	-1018
433.620	118
433.694	1542
433.767	1630
433.841	380
433.914	-468
433.988	-140
434.061	651
434.134	300
434.208	123
434.281	-1514
434.355	-803
434.428	-316
434.501	-190
434.575	-250
434.648	-667
434.721	-472
434.795	332
434.868	-551
434.941	-676
435.014	-884
435.088	160
435.161	305
435.234	2082
435.307	2743
435.381	1178
435.454	1611
435.527	3630
435.600	4417
435.673	2991
435.746	2131
435.819	1059
435.892	1104
435.966	605
436.039	-186
436.112	444
436.185	-302
436.258	35
436.331	-395
436.404	-784
436.477	-181
436.550	-832
436.623	-537
436.696	-323
436.769	400
436.842	-316
436.915	578
436.987	1197
437.060	332
437.133	-351
437.206	-304
437.279	1086
437.352	166
437.425	810
437.498	2860
437.570	3524
437.643	2360
437.716	174
437.789	148
437.861	4005
437.934	15314
438.007	7516
438.080	269
438.152	269
438.225	4012
438.298	30464
438.370	89229
438.443	40947
438.516	13920
438.588	3151
438.661	723
438.734	-43
438.806	442
438.879	1404
438.951	3022
439.024	8308
439.096	1567
439.169	90
439.241	-15
439.314	-202
439.386	657
439.459	2899
439.531	6247
439.604	1612
439.676	553
439.749	-1061
439.821	-973
439.893	249
439.966	197
440.038	1415
440.110	2717
440.183	1108
440.255	619
440.327	1591
440.400	12180
440.472	53341
440.544	38824
440.617	5066
440.689	5186
440.761	6938
440.833	12632
440.905	8907
440.978	1102
441.050	38
441.122	8
441.194	-1087
441.266	-479
441.338	-140
441.411	2768
441.483	14714
441.555	25411
441.627	6598
441.699	3029
441.771	2111
441.843	1269
441.915	-84
441.987	39
442.059	734
442.131	1194
442.203	3724
442.275	3636
442.347	3902
442.419	9149
442.491	46433
442.563	120095
442.635	56156
442.706	16360
442.778	10851
442.850	3294
442.922	1490
442.994	2646
443.066	3375
443.137	4234
443.209	3906
443.281	5072
443.353	13728
443.425	59188
443.496	206055
443.568	214369
443.640	86025
443.711	17103
443.783	5523
443.855	4055
443.926	2392
443.998	1692
444.070	2853
444.141	2460
444.213	3609
444.285	4522
444.356	4248
444.428	3015
444.499	1502
444.571	1086
444.642	1653
444.714	1627
444.785	3358
444.857	3998
444.928	7948
445.000	5885
445.071	6501
445.143	8986
445.214	7931
445.285	12137
445.357	35230
445.428	133411
445.500	304093
445.571	208938
445.642	118262
445.714	40757
445.785	20669
445.856	7952
445.928	6154
445.999	6881
446.070	6418
446.141	4011
446.213	3968
446.284	3012
446.355	1978
446.426	1356
446.497	873
446.569	2474
446.640	4223
446.711	4195
446.782	924
446.853	1629
446.924	2228
446.995	985
447.066	1832
447.138	2301
447.209	2595
447.280	-105
447.351	-21
447.422	539
447.493	1199
447.564	1397
447.635	1802
447.706	1572
447.777	127
447.847	217
447.918	73
447.989	715
448.060	1637
448.131	5441
448.202	5465
448.273	3801
448.344	1894
448.414	835
448.485	207
448.556	314
448.627	-819
448.698	314
448.768	-1110
448.839	-32
448.910	2178
448.981	3793
449.051	896
449.122	67
449.193	525
449.263	786
449.334	390
449.405	1040
449.475	4075
449.546	4143
449.616	3102
449.687	2503
449.758	1522
449.828	745
449.899	39
449.969	273
450.040	-108
450.110	-17
450.181	1388
450.251	162
450.322	14
450.392	220
450.463	254
450.533	-58
450.604	554
450.674	-294
450.744	1204
450.815	155
450.885	789
450.955	934
451.026	339
451.096	-166
451.166	842
451.237	3411
451.307	8417
451.377	5134
451.447	386
451.518	554
451.588	273
451.658	425
451.728	1825
451.799	8765
451.869	12721
451.939	3499
452.009	778
452.079	-73
452.149	738
452.219	2349
452.289	10750
452.360	10852
452.430	2399
452.500	1835
452.570	3336
452.640	6600
452.710	17342
452.780	24705
452.850	17071
452.920	13565
452.990	6025
453.060	3058
453.129	3439
453.199	4142
453.269	13381
453.339	34973
453.409	56608
453.479	45019
453.549	70193
453.619	73879
453.688	34757
453.758	5392
453.828	1983
453.898	965
453.968	538
454.037	1262
454.087	968
454.107	847
454.168	422
454.177	355
454.247	549
454.249	546
454.316	311
454.330	380
454.386	611
454.411	2387
454.456	5327
454.492	7565
454.525	9653
454.574	5881
454.595	4224
454.655	1179
454.665	687
454.734	1463
454.736	1517
454.804	3259
454.817	4491
454.873	9557
454.898	11116
454.943	14034
454.979	9574
455.013	5553
455.060	3009
455.082	1843
455.141	1627
455.152	1606
455.221	6644
455.222	6760
455.291	15851
455.303	15755
455.360	15295
455.384	20551
455.430	30048
455.465	24191
455.499	18757
455.546	13290
455.569	10721
455.627	8143
455.638	7714
455.707	1839
455.708	1841
455.777	1022
455.789	1059
455.846	1278
455.869	1069
455.916	533
455.950	794
455.985	1225
456.031	1062
456.054	846
456.112	1186
456.124	1294
456.193	438
456.193	427
456.262	804
456.274	964
456.332	1628
456.355	1682
456.401	1777
456.436	1651
456.470	1483
456.516	897
456.540	647
456.597	131
456.609	12
456.678	503
456.678	497
456.747	590
456.759	484
456.817	208
456.840	488
456.886	721
456.920	670
456.955	922
457.001	1182
457.024	1094
457.082	712
457.093	691
457.162	1599
457.163	1606
457.232	2353
457.243	2285
457.301	2023
457.324	1678
457.370	957
457.405	1121
457.439	1346
457.485	1736
457.508	1960
457.566	1551
457.577	1504
457.646	3215
457.647	3229
457.715	5320
457.727	6017
457.784	9715
457.808	12989
457.853	17281
457.889	22090
457.922	26004
457.969	19693
457.991	18387
458.050	16891
458.060	16552
458.129	28462
458.130	28831
458.198	37754
458.211	34652
458.267	24545
458.292	18661
458.336	10403
458.372	8507
458.405	8508
458.453	12174
458.474	14180
458.533	23657
458.543	24379
458.611	50330
458.614	50572
458.680	46423
458.694	39153
458.749	18769
458.775	13849
458.818	6374
458.855	4888
458.887	3668
458.936	2613
458.955	2260
459.016	2106
459.024	2119
459.093	2121
459.097	2122
459.162	1521
459.177	1477
459.230	1861
459.257	2210
459.299	2538
459.338	3013
459.368	3330
459.418	4428
459.437	4593
459.499	3288
459.505	3278
459.574	2030
459.579	2010
459.643	910
459.659	883
459.711	1130
459.740	1284
459.780	1442
459.820	1671
459.849	1974
459.900	2128
459.917	2084
459.981	1568
459.986	1526
460.054	1841
460.061	1810
460.123	1473
460.141	1371
460.191	1583
460.222	2163
460.260	2404
460.302	2245
460.328	2273
460.382	2781
460.397	2887
460.462	2254
460.465	2334
460.534	4644
460.543	5001
460.602	11577
460.623	14555
460.671	23286
460.703	34139
460.739	34052
460.783	28002
460.808	26809
460.864	8352
460.876	5487
460.944	1959
460.945	1927
461.013	2271
461.024	2290
461.081	1672
461.104	1802
461.150	2164
461.184	2002
461.218	1964
461.264	1670
461.286	1551
461.345	1772
461.355	1705
461.423	1520
461.425	1498
461.491	1840
461.505	1987
461.559	2622
461.585	2930
461.628	4203
461.665	6194
461.696	7008
461.745	10250
461.764	10676
461.825	6420
461.832	6239
461.901	2256
461.905	2277
461.969	1842
461.985	1648
462.037	2154
462.065	2512
462.105	2281
462.145	2003
462.173	2252
462.225	2890
462.241	3177
462.305	5761
462.310	5768
462.378	5484
462.385	5115
462.446	3420
462.465	3147
462.514	2331
462.545	1962
462.582	1610
462.625	1612
462.650	1613
462.705	1498
462.718	1602
462.785	2271
462.786	2273
462.854	2143
462.865	2171
462.922	3288
462.945	3850
462.990	3441
463.025	2595
463.058	2403
463.104	1874
463.126	1602
463.184	1431
463.194	1509
463.262	2166
463.264	2186
463.330	1836
463.344	1777
463.398	2416
463.424	2789
463.466	2373
463.504	1875
463.533	2254
463.583	2847
463.601	2722
463.663	2104
463.669	2074
463.737	2281
463.743	2277
463.805	3762
463.823	4178
463.873	5856
463.903	7337
463.940	7331
463.982	7740
464.008	7402
464.062	4787
464.076	4621
464.142	2517
464.144	2484
464.211	2863
464.221	2973
464.279	3068
464.301	3236
464.347	3254
464.381	3240
464.414	3324
464.461	3223
464.482	3269
464.540	3178
464.550	3021
464.617	2317
464.620	2280
464.685	3322
464.699	3630
464.753	3904
464.779	4008
464.820	4774
464.859	5472
464.888	4728
464.938	3396
464.956	3770
465.018	5214
465.023	5100
465.091	3288
465.098	3111
465.158	3401
465.177	3511
465.226	3863
465.257	4088
465.293	4044
465.336	4025
465.361	4280
465.416	4749
465.428	4858
465.495	5710
465.496	5728
465.563	7813
465.575	8243
465.631	9273
465.654	9866
465.698	7385
465.734	4573
465.765	4550
465.813	4352
465.833	3895
465.893	3199
465.900	3203
465.968	3277
465.972	3278
466.035	3032
466.052	2974
466.102	3437
466.131	3689
466.170	3241
466.210	2740
466.237	3203
466.290	4169
466.304	4118
466.369	3784
466.372	3815
466.439	4721
466.449	4846
466.506	4950
466.528	4960
466.573	6120
466.607	7007
466.641	9014
466.687	11901
466.708	12295
466.766	13602
466.775	12796
466.842	6575
466.845	6274
466.909	5683
466.925	5627
466.977	5363
467.004	5311
467.044	5823
467.083	6347
467.111	6451
467.163	6618
467.178	6587
467.242	6453
467.245	6473
467.312	6849
467.321	6897
467.379	6878
467.400	6858
467.446	6968
467.480	7039
467.559	6082
467.638	5038
467.717	5424
467.796	6423
467.875	6390
467.955	5403
468.034	7345
468.113	12379
468.192	17171
468.271	6486
468.350	7189
468.429	8316
468.508	9857
468.588	6565
468.667	5434
468.746	4949
468.825	4350
468.904	4538
468.983	5240
469.062	5603
469.141	6898
469.220	3930
469.299	4841
469.378	3788
469.456	6651
469.535	5667
469.614	5676
469.693	4243
469.772	6922
469.851	7015
469.930	5002
470.009	4489
470.088	5234
470.166	5057
470.245	6421
470.324	6148
470.403	5186
470.482	4264
470.560	5777
470.639	4464
470.718	5719
470.797	4229
470.875	5312
470.954	5178
471.033	5852
471.111	3862
471.190	4173
471.269	4232
471.347	3630
471.426	4200
471.505	4791
471.583	4737
471.662	5221
471.740	3727
471.819	4753
471.898	3203
471.976	4378
472.055	3476
472.133	5753
472.212	6251
472.290	5173
472.369	3578
472.447	4269
472.526	3508
472.604	5168
472.683	3925
472.761	4601
472.839	4302
472.918	3871
472.996	2998
473.075	4620
473.153	4363
473.231	3665
473.310	4177
473.388	5307
473.466	3590
473.545	5658
473.623	6116
473.701	5527
473.780	4125
473.858	2620
473.936	5077
474.014	4297
474.093	4083
474.171	5954
474.249	6911
474.327	4916
474.405	4340
474.484	4025
474.562	2584
474.640	3534
474.718	4209
474.796	4250
474.874	3320
474.952	4311
475.030	4215
475.108	4338
475.187	4483
475.265	4569
475.343	4897
475.421	5409
475.499	3261
475.577	4348
475.655	3992
475.733	6962
475.811	10701
475.889	8715
475.966	6644
476.044	3985
476.122	3326
476.200	4312
476.278	3026
476.356	3508
476.434	2876
476.512	3596
476.590	3626
476.667	4894
476.745	2593
476.823	3834
476.901	3220
476.979	4152
477.056	2709
477.134	3354
477.212	2670
477.290	3931
477.367	2305
477.445	2465
477.523	3205
477.601	2983
477.678	3856
477.756	3242
477.834	2911
477.911	2958
477.989	3007
478.066	3222
478.144	2658
478.222	4158
478.299	4592
478.377	4316
478.454	1815
478.532	3114
478.609	3380
478.687	4427
478.764	2367
478.842	2868
478.919	2100
478.997	3886
479.074	2405
479.152	3075
479.229	2944
479.307	2574
479.384	2361
479.461	2503
479.539	1960
479.616	3704
479.694	2453
479.771	3739
479.848	2962
479.926	2205
480.003	4530
480.080	2746
480.157	2687
480.235	2516
480.312	1888
480.389	3758
480.467	3277
480.544	4984
480.621	2941
480.698	3867
480.775	3537
480.853	3575
480.930	2216
481.007	2745
481.084	3428
481.161	5263
481.238	3326
481.315	3047
481.392	1818
481.470	2513
481.547	1796
481.624	3888
481.701	2851
481.778	3160
481.855	3456
481.932	5020
482.009	6058
482.086	3847
482.163	3223
482.240	5256
482.317	6359
482.393	4346
482.470	3733
482.547	4516
482.624	3091
482.701	3534
482.778	2493
482.855	2175
482.932	2637
483.009	2869
483.085	3977
483.162	5083
483.239	4201
483.316	3656
483.393	3650
483.469	3152
483.546	3276
483.623	3429
483.699	2126
483.776	2599
483.853	3215
483.930	4736
484.006	9794
484.083	16577
484.160	13725
484.236	22403
484.313	15087
484.389	11481
484.466	11307
484.543	11888
484.619	10713
484.696	12454
484.772	10796
484.849	11056
484.925	8864
485.002	10253
485.078	10609
485.155	9277
485.231	8986
485.308	8485
485.384	8600
485.461	11265
485.537	12190
485.614	13004
485.690	8393
485.766	8540
485.843	8663
485.919	10631
485.995	10776
486.072	8000
486.148	7908
486.224	7525
486.301	7886
486.377	9341
486.453	8764
486.530	9443
486.606	13092
486.682	13191
486.758	13345
486.835	12355
486.911	11491
486.987	16094
487.063	16025
487.139	19149
487.215	14877
487.292	11258
487.368	9086
487.444	10664
487.520	13999
487.596	14784
487.672	28952
487.748	75605
487.824	93159
487.900	23485
487.976	11242
488.052	11353
488.128	13021
488.204	9833
488.280	9471
488.356	10735
488.432	14546
488.508	17343
488.584	7088
488.660	7321
488.736	7028
488.812	7184
488.888	8933
488.964	12031
489.039	20363
489.115	26553
489.191	14019
489.267	7550
489.343	7044
489.418	6006
489.494	7013
489.570	5601
489.646	8117
489.722	6294
489.797	6178
489.873	9221
489.949	15070
490.024	12874
490.100	5569
490.176	6468
490.251	6289
490.327	7977
490.403	5615
490.478	5744
490.554	5432
490.629	4993
490.705	4419
490.781	6414
490.856	4508
490.932	6779
491.007	5347
491.083	5387
491.158	4727
491.234	6963
491.309	11059
491.385	10023
491.460	5073
491.536	6172
491.611	4806
491.686	6120
491.762	7058
491.837	12482
491.913	18605
491.988	26904
492.063	27783
492.139	8803
492.214	6121
492.289	3788
492.365	4921
492.440	5110
492.515	3475
492.590	5656
492.666	3699
492.741	5201
492.816	6086
492.891	4354
492.967	4296
493.042	4320
493.117	4048
493.192	4711
493.267	8919
493.342	21633
493.418	25638
493.493	4700
493.568	3831
493.643	4058
493.718	4429
493.793	5754
493.868	5969
493.943	4879
494.018	3952
494.093	3441
494.168	3799
494.243	2455
494.318	2195
494.393	3818
494.468	3120
494.543	3387
494.618	3399
494.693	2532
494.768	2736
494.842	4283
494.917	2421
494.992	3867
495.067	2275
495.142	2395
495.217	2602
495.292	4302
495.366	3831
495.441	4099
495.516	5249
495.591	8390
495.665	26184
495.740	52164
495.815	15044
495.890	3391
495.964	1964
496.039	5603
496.114	4307
496.188	4454
496.263	3961
496.338	3592
496.412	3303
496.487	5572
496.561	4857
496.636	4547
496.710	3676
496.785	4420
496.860	3813
496.934	4287
497.009	3740
497.083	4019
497.158	4093
497.232	4537
497.307	5539
497.381	4511
497.455	5090
497.530	8169
497.604	5658
497.679	6275
497.753	9564
497.827	12530
497.902	10644
497.976	13715
498.050	32795
498.125	102891
498.199	80995
498.273	19008
498.348	14018
498.422	11197
498.496	8238
498.570	7877
498.645	5532
498.719	4494
498.793	6480
498.867	9427
498.941	12706
499.016	42344
499.090	96275
499.164	23896
499.238	4667
499.312	3949
499.386	4859
499.460	4526
499.534	4261
499.609	5141
499.683	6481
499.757	7537
499.831	20446
499.905	66605
499.979	46161
500.053	7670
500.127	8236
500.201	5701
500.275	4249
500.349	4282
500.422	4121
500.496	8219
500.570	15740
500.644	37548
500.718	57142
500.792	10614
500.866	5207
500.940	5822
501.013	4555
501.087	4673
501.161	7072
501.235	8208
501.309	21775
501.382	54288
501.456	37345
501.530	10190
501.603	14498
501.677	5458
501.751	1415
501.825	6124
501.898	8659
501.972	20722
502.046	9206
502.119	3432
502.193	10294
502.266	20813
502.340	8053
502.413	10458
502.487	18129
502.561	8526
502.634	3815
502.708	4366
502.781	2010
502.855	3637
502.928	1384
503.002	2890
503.075	2051
503.149	1995
503.222	1894
503.295	3049
503.369	3935
503.442	4882
503.516	17819
503.589	36101
503.662	18474
503.736	8077
503.809	18308
503.882	14253
503.956	23787
504.029	24688
504.102	42128
504.175	49777
504.249	11591
504.322	6937
504.395	3494
504.468	3228
504.542	2208
504.615	1972
504.688	2608
504.761	1793
504.834	4038
504.907	3292
504.980	4380
505.053	3076
505.127	1956
505.200	6042
505.273	2478
505.346	2732
505.419	589
505.492	2931
505.565	1412
505.638	2296
505.711	1595
505.784	2420
505.857	1295
505.930	3717
506.003	713
506.076	4277
506.149	1889
506.221	1400
506.294	5338
506.367	8951
506.440	26888
506.513	11214
506.586	3259
506.659	1450
506.731	2402
506.804	2524
506.877	2372
506.950	2750
507.022	3133
507.095	2753
507.168	3438
507.241	3791
507.313	1090
507.386	1692
507.459	4011
507.531	2538
507.604	929
507.677	3122
507.749	90
507.822	4275
507.894	6057
507.967	8648
508.040	3774
508.112	5760
508.185	3880
508.257	3468
508.330	6340
508.402	3487
508.475	2572
508.547	4108
508.620	3843
508.692	6543
508.765	3928
508.837	3038
508.909	2829
508.982	3018
509.054	3308
509.127	2728
509.199	2395
509.271	2279
509.344	1776
509.416	2696
509.488	2551
509.560	3500
509.633	2431
509.705	3205
509.777	3570
509.849	5118
509.922	1346
509.994	2475
510.066	3542
510.138	3054
510.210	9822
510.283	6353
510.355	5756
510.427	6135
510.499	3450
510.571	4366
510.643	3028
510.715	7695
510.787	3431
510.859	5605
510.931	3992
511.003	6537
511.076	5104
511.148	2876
511.219	3651
511.291	5978
511.363	5094
511.435	4371
511.507	2229
511.579	4633
511.651	4326
511.723	3704
511.795	2639
511.867	3085
511.939	4040
512.010	5715
512.082	5527
512.154	2338
512.226	3895
512.298	8241
512.369	7729
512.441	6303
512.513	6133
512.585	3658
512.656	5695
512.728	4738
512.800	3532
512.871	5032
512.943	4756
513.015	2008
513.086	4141
513.158	4121
513.230	3183
513.301	4879
513.373	7514
513.444	4117
513.516	2744
513.588	3338
513.659	3310
513.731	4930
513.802	3602
513.874	9834
513.945	10073
514.016	2962
514.088	4582
514.159	3443
514.231	4846
514.302	6981
514.374	6216
514.445	3745
514.516	8790
514.588	4700
514.659	4435
514.730	6475
514.802	6879
514.873	3806
514.944	7273
515.016	5488
515.087	4099
515.158	6054
515.229	8315
515.301	5726
515.372	7000
515.443	3462
515.514	3461
515.585	2652
515.656	5018
515.728	3944
515.799	1826
515.870	4451
515.941	3517
516.012	3073
516.083	6851
516.154	5196
516.225	6928
516.296	7135
516.367	5055
516.438	4611
516.509	6212
516.580	9945
516.651	30423
516.722	79855
516.793	26607
516.864	9027
516.935	6984
517.006	9217
517.077	13213
517.148	30670
517.219	101334
517.289	114245
517.360	32494
517.431	11535
517.502	3723
517.573	6421
517.643	5126
517.714	6163
517.785	5981
517.856	5204
517.926	7253
517.997	8231
518.068	7503
518.138	12666
518.209	19498
518.280	76837
518.350	216258
518.421	54476
518.492	8989
518.562	8382
518.633	8518
518.703	10032
518.774	26217
518.845	69336
518.915	51914
518.986	12019
519.056	9468
519.127	13463
519.197	17195
519.268	32620
519.338	17206
519.408	6602
519.479	7918
519.549	5802
519.620	5761
519.690	2741
519.760	4555
519.831	3752
519.901	3258
519.971	4934
520.042	2864
520.112	2710
520.182	4646
520.253	4747
520.323	3233
520.393	2908
520.463	5662
520.534	3006
520.604	7446
520.674	4627
520.744	2842
520.814	5570
520.885	6969
520.955	12847
521.025	34314
521.095	10628
521.165	4671
521.235	2203
521.305	2491
521.375	3181
521.445	4081
521.515	3521
521.585	5476
521.655	3054
521.725	5282
521.795	4065
521.865	279
521.935	6794
522.005	1775
522.075	2299
522.145	3818
522.215	1931
522.285	4148
522.355	5684
522.424	8942
522.494	6689
522.564	5456
522.634	10699
522.704	25182
522.774	6763
522.843	3503
522.913	3604
522.983	3400
523.053	2426
523.122	4433
523.192	4237
523.262	14835
523.331	8649
523.401	3785
523.471	2442
523.540	2498
523.610	1554
523.680	1950
523.749	2830
523.819	3913
523.888	1594
523.958	2299
524.027	2797
524.097	3024
524.166	1419
524.236	1465
524.305	4409
524.375	1750
524.444	1316
524.514	3169
524.583	1775
524.653	1755
524.722	4061
524.791	913
524.861	4154
524.930	1400
524.999	3091
525.069	3689
525.138	2669
525.207	2738
525.277	2762
525.346	2453
525.415	3336
525.484	3455
525.554	3438
525.623	3930
525.692	4692
525.761	4898
525.830	6103
525.900	5627
525.969	12375
526.038	21432
526.107	52927
526.176	135717
526.245	82854
526.314	29070
526.383	73723
526.452	84341
526.522	166876
526.591	111099
526.660	20935
526.729	11091
526.797	17875
526.867	38512
526.935	145500
527.004	316887
527.073	124443
527.142	9804
527.211	6009
527.280	5536
527.349	4275
527.418	1539
527.487	4403
527.555	1513
527.624	2200
527.693	524
527.762	3842
527.831	623
527.899	2210
527.968	2529
528.037	-146
528.106	3798
528.174	5298
528.243	4065
528.312	5544
528.380	5815
528.449	1249
528.518	2286
528.586	317
528.655	2662
528.723	1584
528.792	1305
528.861	1225
528.929	646
528.998	3209
529.066	1760
529.135	3919
529.203	2303
529.272	3757
529.340	5435
529.409	6116
529.477	3107
529.545	3499
529.614	7030
529.682	5391
529.751	5991
529.819	8740
529.887	6837
529.956	5184
530.024	6638
530.092	4138
530.161	5971
530.229	6890
530.297	6176
530.365	7755
530.434	7116
530.502	4974
530.570	6031
530.638	4397
530.707	5304
530.775	5829
530.843	3660
530.911	5821
530.979	6278
531.047	5818
531.115	6302
531.183	5886
531.252	6066
531.320	5958
531.388	3636
531.456	6297
531.524	3712
531.592	7045
531.660	8311
531.728	4478
531.796	5310
531.864	6508
531.932	5926
532.000	5920
532.067	5782
532.135	6779
532.203	8218
532.271	7862
532.339	10051
532.407	15293
532.475	9783
532.542	7954
532.610	8223
532.678	10120
532.746	32254
532.814	51824
532.881	13974
532.949	8411
533.017	6846
533.084	6467
533.152	6346
533.220	5844
533.287	5435
533.355	7143
533.423	6026
533.490	5294
533.558	6854
533.625	7031
533.693	5732
533.761	6502
533.828	6182
533.896	5861
533.963	9207
534.031	9621
534.098	11868
534.166	7275
534.233	4736
534.300	7181
534.368	6514
534.435	6233
534.503	6762
534.570	6457
534.637	6815
534.705	8054
534.772	9514
534.840	16809
534.907	72292
534.974	62039
535.041	8585
535.109	6361
535.176	4884
535.243	5950
535.310	6077
535.378	4619
535.445	4501
535.512	5287
535.579	4559
535.646	4506
535.714	4551
535.781	5923
535.848	5485
535.915	5807
535.982	5031
536.049	4109
536.116	5828
536.183	4164
536.250	4437
536.317	4618
536.384	5144
536.451	7001
536.518	6292
536.585	4415
536.652	6269
536.719	8021
536.786	3950
536.853	4857
536.920	6973
536.987	8344
537.053	8378
537.120	30985
537.187	18614
537.254	4670
537.321	3973
537.388	4808
537.454	2880
537.521	4538
537.588	3673
537.654	4803
537.721	4862
537.788	5488
537.855	3324
537.921	5302
537.988	3540
538.055	4589
538.121	3694
538.188	4405
538.254	5343
538.321	8318
538.388	5390
538.454	4828
538.521	3931
538.587	4842
538.654	3076
538.720	3724
538.787	3798
538.853	4334
538.920	4540
538.986	3907
539.053	3499
539.119	4071
539.185	3186
539.252	5321
539.318	5471
539.385	6558
539.451	2708
539.517	5609
539.583	6052
539.650	10601
539.716	17698
539.782	6024
539.849	3385
539.915	4919
539.981	4101
540.047	4296
540.114	3340
540.180	6129
540.246	3566
540.312	5758
540.378	8204
540.444	9729
540.510	11133
540.576	21195
540.643	5349
540.709	2862
540.775	3748
540.841	3248
540.907	4317
540.973	6770
541.039	5460
541.105	5959
541.171	3641
541.237	3106
541.303	4338
541.369	6123
541.435	5127
541.500	8137
541.566	3073
541.632	3022
541.698	2970
541.764	5200
541.830	2455
541.896	3109
541.961	4403
542.027	3245
542.093	4888
542.159	4523
542.224	2925
542.290	5973
542.356	7549
542.421	8028
542.487	5116
542.553	3864
542.618	3797
542.684	3314
542.750	3639
542.815	5678
542.881	7057
542.947	20495
543.012	11764
543.078	3627
543.143	3327
543.209	3829
543.274	2999
543.340	5135
543.405	9115
543.471	10494
543.536	4111
543.602	3874
543.667	1948
543.732	4493
543.798	2902
543.863	4755
543.928	2713
543.994	2499
544.059	3263
544.124	4548
544.190	3499
544.255	4077
544.320	3781
544.386	3652
544.451	5850
544.516	5150
544.581	5506
544.646	15107
544.712	17080
544.777	4998
544.842	4342
544.907	4945
544.972	4036
545.037	4439
545.102	5204
545.168	4318
545.233	4914
545.298	7257
545.363	5180
545.428	6479
545.493	10710
545.558	15959
545.623	7158
545.688	5162
545.753	5393
545.818	4693
545.883	5863
545.947	5139
546.012	6322
546.077	4909
546.142	6392
546.207	6058
546.272	7079
546.337	7477
546.401	7016
546.466	7581
546.531	6043
546.596	9514
546.661	8789
546.725	8435
546.790	8112
546.855	9075
546.919	9137
546.984	11467
547.049	10385
547.113	13596
547.178	14036
547.243	17143
547.307	18443
547.372	21424
547.436	19625
547.501	22032
547.565	22745
547.630	21864
547.695	20312
547.759	21079
547.823	20512
547.888	22406
547.952	21168
548.017	21772
548.081	24156
548.146	24526
548.210	24492
548.274	24604
548.339	23446
548.403	22427
548.468	21084
548.532	20619
548.596	20751
548.660	21672
548.725	24537
548.789	26660
548.853	25728
548.917	24799
548.982	23647
549.046	20591
549.110	18442
549.174	19748
549.238	22608
549.303	23526
549.367	25341
549.431	23466
549.495	22078
549.559	22286
549.623	26734
549.687	29228
549.751	30386
549.815	35023
549.879	32854
549.943	32143
550.007	34198
550.071	33480
550.135	31072
550.199	28621
550.263	28646
550.327	27454
550.391	28375
550.455	30549
550.519	32431
550.582	35747
550.646	39885
550.710	40318
550.774	37819
550.838	38162
550.901	39782
550.965	42803
551.029	43314
551.093	47730
551.156	51800
551.220	64553
551.284	69352
551.347	49693
551.411	49069
551.475	45218
551.538	41793
551.602	37543
551.666	35990
551.729	32518
551.793	33034
551.856	32919
551.920	32307
551.983	32664
552.047	31856
552.110	32835
552.174	31520
552.237	33213
552.301	30006
552.364	29880
552.428	28122
552.491	29590
552.554	29873
552.618	29613
552.681	31618
552.745	30011
552.808	33650
552.871	35302
552.934	30434
552.998	30278
553.061	29134
553.124	28513
553.187	27965
553.251	29381
553.314	29139
553.377	29638
553.440	34793
553.503	45768
553.567	48512
553.630	32683
553.693	30719
553.756	31068
553.819	30087
553.882	28666
553.945	28719
554.008	29861
554.071	28074
554.134	30282
554.197	27461
554.260	27672
554.323	28639
554.386	28954
554.449	29460
554.512	29785
554.575	27671
554.638	27893
554.701	27154
554.764	27239
554.827	25936
554.889	24597
554.952	22488
555.015	22892
555.078	22519
555.141	24596
555.203	22814
555.266	23647
555.329	23347
555.391	21684
555.454	22494
555.517	20967
555.580	18752
555.642	21170
555.705	19035
555.768	21069
555.830	18416
555.893	17456
555.955	17333
556.018	16917
556.080	17291
556.143	18378
556.206	17591
556.268	18263
556.330	16745
556.393	17568
556.455	16862
556.518	16892
556.580	16376
556.643	14840
556.705	14945
556.767	13940
556.830	14015
556.892	14966
556.955	15472
557.017	15050
557.079	12882
557.142	13187
557.204	13372
557.266	18629
557.328	14642
557.391	11797
557.453	10761
557.515	11835
557.577	12556
557.639	13060
557.701	11181
557.764	12275
557.826	12023
557.888	14029
557.950	14300
558.012	17084
558.074	24689
558.136	58454
558.198	107459
558.260	30253
558.322	14994
558.384	15859
558.446	17954
558.508	20329
558.570	25106
558.632	35001
558.694	51603
558.756	86455
558.818	263516
558.880	458489
558.942	122043
559.003	116279
559.065	43204
559.127	20721
559.189	22585
559.251	29412
559.312	50327
559.374	129335
559.436	330682
559.498	110818
559.559	21971
559.621	22760
559.683	30854
559.744	57726
559.806	181737
559.868	194591
559.929	32329
559.991	27429
560.052	47568
560.114	117481
560.176	60441
560.237	73980
560.299	89806
560.360	15535
560.422	7849
560.483	7924
560.545	7264
560.606	6566
560.667	6404
560.729	6440
560.790	5742
560.852	5769
560.913	5792
560.974	6056
561.036	5162
561.097	5495
561.158	5807
561.220	6235
561.281	5581
561.342	5598
561.403	7275
561.465	8392
561.526	16620
561.587	16678
561.648	5771
561.709	5372
561.771	5311
561.832	5426
561.893	4639
561.954	5091
562.015	4714
562.076	5126
562.137	4286
562.198	4761
562.259	5208
562.320	5334
562.381	5327
562.442	8053
562.503	6325
562.564	5151
562.625	4180
562.686	5413
562.747	5948
562.808	5449
562.869	4658
562.930	5777
562.991	5799
563.051	4994
563.112	5165
563.173	4901
563.234	4109
563.294	4446
563.355	4290
563.416	4871
563.477	4633
563.537	5535
563.598	4258
563.659	4278
563.720	3832
563.780	5123
563.841	5353
563.901	5048
563.962	4913
564.023	6130
564.083	4419
564.144	4753
564.204	4797
564.265	4985
564.325	5822
564.386	9968
564.446	7988
564.507	5082
564.567	4293
564.628	5513
564.688	4229
564.749	4170
564.809	5003
564.869	5827
564.930	4809
564.990	4315
565.050	4089
565.111	4397
565.171	4401
565.231	4228
565.292	4556
565.352	4081
565.412	4745
565.472	4600
565.532	4967
565.593	5046
565.653	5157
565.713	5247
565.773	5051
565.833	5562
565.893	7467
565.953	5837
566.013	5017
566.074	6183
566.134	6776
566.194	8902
566.254	8493
566.314	7578
566.374	4866
566.434	5996
566.494	5494
566.554	4795
566.614	5093
566.673	6200
566.733	6285
566.793	7156
566.853	7350
566.913	7847
566.973	7139
567.033	8904
567.092	8569
567.152	8613
567.212	8694
567.272	7312
567.331	8237
567.391	7780
567.451	10479
567.511	10857
567.570	10042
567.630	8210
567.690	7826
567.749	8941
567.809	8250
567.868	10417
567.928	9543
567.988	12084
568.047	13852
568.107	18157
568.166	25416
568.226	40076
568.285	51457
568.345	37608
568.404	30882
568.464	26016
568.523	25438
568.582	26905
568.642	32132
568.701	40654
568.761	61629
568.820	92350
568.879	75892
568.939	53063
568.998	37887
569.057	31009
569.116	24610
569.176	20689
569.235	16850
569.294	15442
569.353	13889
569.413	12950
569.472	10904
569.531	10840
569.590	9644
569.649	9436
569.708	9564
569.767	10327
569.827	12010
569.886	10035
569.945	8304
570.004	9060
570.063	7204
570.122	8300
570.181	6728
570.240	8286
570.299	9121
570.358	10053
570.417	6243
570.475	5614
570.534	7195
570.593	6952
570.652	7892
570.711	8286
570.770	5742
570.829	6717
570.887	7012
570.946	7808
571.005	5036
571.064	6035
571.122	7008
571.181	7489
571.240	4649
571.299	5808
571.357	5389
571.416	5554
571.475	6214
571.533	6550
571.592	5337
571.650	5543
571.709	4687
571.768	6597
571.826	5670
571.885	6483
571.943	5118
572.002	6291
572.060	5214
572.119	5109
572.177	4598
572.236	5976
572.294	4503
572.352	6067
572.411	5276
572.469	5133
572.528	5212
572.586	5592
572.644	7674
572.703	10567
572.761	6906
572.819	4767
572.877	3665
572.936	5269
572.994	4149
573.052	5648
573.110	5009
573.169	5088
573.227	4533
573.285	4699
573.343	4739
573.401	4615
573.459	5327
573.517	5142
573.576	4360
573.634	5539
573.692	5320
573.750	5978
573.808	4495
573.866	5262
573.924	6331
573.982	5677
574.040	4382
574.098	5247
574.155	4314
574.213	4861
574.271	4150
574.329	5531
574.387	4290
574.445	4427
574.503	2717
574.560	3906
574.618	3693
574.676	4558
574.734	4586
574.792	4885
574.849	4225
574.907	4092
574.965	3990
575.022	3610
575.080	4026
575.138	3456
575.195	3587
575.253	3638
575.311	4460
575.368	4106
575.426	3307
575.483	6081
575.541	3563
575.598	4185
575.656	4329
575.713	4713
575.771	3908
575.828	4220
575.886	3660
575.943	4587
576.001	3276
576.058	4072
576.115	4559
576.173	5246
576.230	6485
576.287	6819
576.345	4350
576.402	5172
576.459	4505
576.517	5344
576.574	5068
576.631	5629
576.688	4327
576.746	3851
576.803	3615
576.860	3386
576.917	4170
576.974	4766
577.031	3215
577.089	4365
577.146	4055
577.203	4319
577.260	5030
577.317	4760
577.374	5648
577.431	4766
577.488	5089
577.545	4348
577.602	4970
577.659	5009
577.716	4324
577.773	5162
577.830	4172
577.886	4050
577.943	4007
578.000	4325
578.057	4076
578.114	5263
578.171	5113
578.227	5313
578.284	4527
578.341	5597
578.398	4803
578.454	5492
578.511	4777
578.568	6071
578.625	4987
578.681	4806
578.738	4459
578.794	5692
578.851	4736
578.908	4810
578.964	4372
579.021	4964
579.077	5159
579.134	5194
579.190	3719
579.247	4283
579.303	3398
579.360	4550
579.416	4366
579.473	4579
579.529	3768
579.586	4144
579.642	4202
579.698	5131
579.755	5814
579.811	5404
579.867	4391
579.924	5323
579.980	5112
580.036	5777
580.093	5052
580.149	6821
580.205	6466
580.261	6426
580.317	5659
580.374	6442
580.430	6923
580.486	6472
580.542	5728
580.598	7151
580.619	6820
580.654	6250
580.692	6860
580.710	7171
580.765	5170
580.767	5111
580.823	6033
580.838	6007
580.879	5946
580.911	5822
580.935	5740
580.984	5563
580.991	5544
581.047	6923
581.057	6700
581.103	5725
581.130	6516
581.159	7340
581.203	6612
581.215	6439
581.270	6696
581.276	6724
581.326	6889
581.349	6684
581.382	6459
581.422	6388
581.438	6357
581.494	6064
581.494	6063
581.550	6169
581.567	6627
581.606	7559
581.640	6565
581.661	6009
581.713	6843
581.717	6907
581.773	6870
581.786	6891
581.829	6946
581.859	6833
581.885	6772
581.932	7355
581.940	7462
581.996	7234
582.004	7155
582.052	6650
582.077	6607
582.107	6602
582.150	7600
582.163	7884
582.219	6272
582.223	6387
582.274	7906
582.296	7591
582.330	7036
582.368	7756
582.386	8161
582.441	7476
582.441	7474
582.497	7836
582.514	7614
582.552	7380
582.587	8194
582.608	8673
582.659	8013
582.663	7945
582.719	8069
582.732	8114
582.774	8399
582.805	8350
582.830	8371
582.877	8808
582.885	8861
582.941	9320
582.950	9422
582.996	10010
583.023	10519
583.052	11125
583.095	10812
583.107	10668
583.162	10477
583.168	10469
583.218	10359
583.240	10172
583.273	9858
583.313	9712
583.328	9771
583.384	9615
583.385	9585
583.439	8273
583.458	8371
583.494	8810
583.531	8386
583.549	8193
583.603	8852
583.605	8858
583.660	8713
583.676	8607
583.715	8602
583.748	9049
583.770	9317
583.820	9014
583.825	8995
583.881	9389
583.893	9357
583.936	9172
583.965	9336
583.991	9459
584.038	9210
584.046	9162
584.101	8835
584.110	8941
584.156	9809
584.183	9859
584.211	9611
584.255	9667
584.266	9795
584.321	10392
584.328	10361
584.376	9784
584.400	9894
584.431	10230
584.472	10664
584.486	10723
584.541	10518
584.545	10562
584.596	11504
584.617	11306
584.651	11156
584.689	12185
584.706	12572
584.761	12698
584.762	12699
584.816	12642
584.834	12756
584.871	13172
584.906	13147
584.926	13143
584.978	13134
584.980	13152
585.035	14869
585.051	14750
585.090	14286
585.123	15918
585.145	17071
585.195	17131
585.200	17195
585.254	19467
585.267	20028
585.309	22208
585.340	24718
585.364	26318
585.412	28468
585.419	28837
585.473	34789
585.484	36592
585.528	47089
585.556	56995
585.583	75124
585.628	116381
585.637	131214
585.692	260617
585.700	279460
585.747	339438
585.772	289898
585.801	178530
585.845	64349
585.856	51908
585.910	31001
585.917	28764
585.965	22898
585.989	21849
586.019	21573
586.061	20334
586.074	19996
586.128	19636
586.133	19563
586.183	19366
586.205	19390
586.237	19160
586.277	18675
586.292	18618
586.346	19105
586.349	19069
586.401	18716
586.421	19014
586.455	19356
586.493	19951
586.509	20804
586.564	23780
586.565	23882
586.618	29933
586.637	30352
586.672	27788
586.709	24700
586.727	23812
586.781	24085
586.781	24099
586.835	22181
586.853	21605
586.889	20904
586.925	20473
586.944	20312
586.996	20602
586.998	20655
587.052	22050
587.068	22294
587.106	22571
587.140	22808
587.161	22940
587.212	23229
587.215	23281
587.269	24673
587.284	24920
587.323	25744
587.356	26534
587.377	27073
587.427	28721
587.431	28822
587.485	29275
587.499	29371
587.539	30314
587.571	31632
587.593	32825
587.643	34566
587.648	34759
587.702	37337
587.715	38035
587.755	40147
587.786	41503
587.810	42715
587.858	45298
587.864	45707
587.917	49946
587.930	50952
587.971	54487
588.001	57200
588.025	60047
588.073	65691
588.079	66597
588.133	75457
588.145	77467
588.187	85560
588.217	91129
588.241	96410
588.288	108388
588.295	110553
588.348	128539
588.360	132769
588.402	149993
588.431	162146
588.456	175094
588.503	203344
588.510	208482
588.564	253081
588.575	263382
588.617	316532
588.646	357147
588.671	409000
588.718	518226
588.725	546579
588.778	783730
588.789	835814
588.832	1157193
588.861	1382499
588.886	1530079
588.932	1741369
588.939	1732660
588.993	1567170
589.004	1549258
589.047	1545285
589.075	1470544
589.100	1244184
589.147	823824
589.154	792764
589.207	581238
589.218	541804
589.261	498384
589.290	476992
589.314	497963
589.361	551187
589.368	576618
589.421	803219
589.433	855141
589.475	1186903
589.504	1420393
589.528	1504233
589.576	1572749
589.582	1553282
589.635	1369200
589.647	1310468
589.689	903334
589.718	626674
589.742	516355
589.790	319617
589.795	310171
589.849	228974
589.861	211374
589.902	180268
589.932	157214
589.955	144565
590.004	119500
590.009	117994
590.062	101535
590.075	97543
590.115	89374
590.146	83097
590.168	79717
590.218	72264
590.222	71844
590.275	65533
590.289	63905
590.328	61382
590.360	59025
590.381	57263
590.431	53116
590.435	53026
590.488	50472
590.503	49752
590.541	47848
590.574	46144
590.594	45512
590.645	43680
590.647	43678
590.700	41798
590.716	41329
590.753	40591
590.787	39545
590.806	39067
590.859	38139
590.859	38183
590.912	37151
590.930	36804
590.965	36020
591.001	35036
591.018	34700
591.071	33807
591.072	33745
591.124	33499
591.143	33420
591.177	33172
591.214	32733
591.230	32950
591.283	33614
591.285	33573
591.336	32880
591.356	32676
591.389	32552
591.427	32007
591.442	31581
591.495	29803
591.498	29634
591.547	29667
591.569	29549
591.600	28944
591.640	28091
591.653	28396
591.706	29614
591.711	29677
591.759	29718
591.782	29686
591.811	30267
591.853	30939
591.864	30538
591.917	28297
591.924	27904
591.969	27653
591.995	27513
592.022	27835
592.066	28172
592.075	28419
592.127	29728
592.137	29915
592.180	31095
592.208	31746
592.233	30720
592.279	28615
592.285	28647
592.338	28561
592.350	28487
592.390	28083
592.421	27723
592.443	27901
592.491	28113
592.495	28215
592.548	28922
592.562	29057
592.600	28990
592.633	28845
592.653	28561
592.704	27527
592.705	27717
592.775	29395
592.846	28456
592.916	28637
592.987	29194
593.058	30146
593.128	28529
593.199	28631
593.270	27672
593.341	27979
593.411	28501
593.482	29619
593.553	30268
593.623	29423
593.694	29898
593.764	31198
593.835	29850
593.906	30221
593.976	29844
594.047	30145
594.117	34134
594.188	33268
594.258	30414
594.329	30288
594.399	31400
594.470	31695
594.540	33084
594.611	33061
594.681	32631
594.751	32378
594.822	35301
594.892	36011
594.963	35645
595.033	36640
595.103	36522
595.174	38261
595.244	42250
595.314	46833
595.384	38768
595.455	39660
595.525	40009
595.595	42902
595.665	42178
595.736	40869
595.806	40524
595.876	41691
595.946	42703
596.016	43454
596.087	44519
596.157	44864
596.227	45995
596.297	46821
596.367	49303
596.437	52691
596.507	55246
596.577	58246
596.647	54690
596.717	54681
596.787	57413
596.857	56298
596.927	56340
596.997	56775
597.067	57341
597.137	62519
597.207	63595
597.277	61653
597.347	59327
597.417	56108
597.487	58239
597.557	59727
597.626	59725
597.696	62052
597.766	63442
597.836	63505
597.906	56166
597.975	53891
598.045	53878
598.115	56638
598.185	60416
598.254	67990
598.324	72930
598.394	73159
598.464	72558
598.533	71087
598.603	66290
598.672	66042
598.742	70387
598.812	69605
598.881	70389
598.951	69216
599.020	69475
599.090	71939
599.159	74348
599.229	70574
599.299	69840
599.368	72729
599.437	70377
599.507	67198
599.576	67114
599.646	67047
599.715	67216
599.785	64945
599.854	63945
599.924	65186
599.993	64885
600.062	65388
600.132	66742
600.201	71229
600.270	81621
600.340	85834
600.409	83328
600.478	83210
600.547	83939
600.617	79695
600.686	68309
600.755	65492
600.824	65352
600.894	63662
600.963	63464
601.032	63241
601.101	63612
601.170	63615
601.239	61601
601.308	64658
601.378	65665
601.447	63739
601.516	65597
601.585	67030
601.654	70391
601.723	70317
601.792	72182
601.861	75105
601.930	81114
601.999	83276
602.068	79810
602.137	82420
602.206	82106
602.275	83808
602.343	85590
602.412	85704
602.481	83441
602.550	84052
602.619	85795
602.688	86310
602.756	86813
602.825	84903
602.894	89743
602.963	88263
603.032	90568
603.100	90032
603.169	87913
603.238	92215
603.307	88935
603.375	90547
603.444	93374
603.513	89881
603.581	93790
603.650	97949
603.719	84003
603.787	81649
603.856	84809
603.924	87471
603.993	88944
604.061	91731
604.130	93888
604.198	97792
604.267	98440
604.335	99731
604.404	100318
604.472	104041
604.541	102888
604.609	106662
604.678	109615
604.746	109440
604.815	115326
604.883	111785
604.951	110054
605.020	111861
605.088	107522
605.156	105298
605.225	106349
605.293	106252
605.361	107473
605.429	106727
605.498	109308
605.566	111343
605.634	116230
605.702	117507
605.771	119678
605.839	122076
605.907	113431
605.975	115038
606.043	111094
606.111	109339
606.180	117199
606.248	110301
606.316	108303
606.384	112875
606.452	102279
606.520	97498
606.588	95798
606.656	96053
606.724	93495
606.792	87675
606.860	78512
606.928	72069
606.996	68931
607.064	68357
607.132	70862
607.200	76740
607.267	78644
607.335	78313
607.403	80719
607.471	76321
607.539	75077
607.607	76765
607.674	67184
607.742	68872
607.810	66941
607.878	66815
607.946	68195
608.013	71458
608.081	74768
608.149	74651
608.216	75138
608.284	76684
608.352	77782
608.419	75551
608.487	78133
608.555	72880
608.622	74810
608.690	77752
608.757	86802
608.825	89666
608.893	88072
608.960	86526
609.028	84927
609.095	82091
609.163	76324
609.230	68782
609.298	64305
609.365	66070
609.432	71294
609.500	79034
609.567	89082
609.635	103749
609.702	108809
609.769	103579
609.837	81374
609.904	69404
609.971	72932
610.039	85253
610.106	120086
610.173	250324
610.241	589041
610.308	296059
610.375	94921
610.442	75331
610.509	72764
610.577	72044
610.644	72625
610.711	75032
610.778	77823
610.845	79661
610.912	85355
610.980	89870
611.047	93603
611.114	89834
611.181	83950
611.248	81768
611.315	89086
611.382	89152
611.449	93338
611.516	95920
611.583	93427
611.650	94995
611.717	97595
611.784	100446
611.851	105916
611.918	119791
611.984	144496
612.051	225766
612.118	502475
612.185	1243539
612.252	714106
612.319	170639
612.386	131410
612.452	117908
612.519	111371
612.586	112044
612.653	109683
612.719	113642
612.786	108681
612.853	97327
612.919	95739
612.986	97625
613.053	92180
613.120	86856
613.186	87254
613.253	87938
613.319	86842
613.386	86405
613.453	87731
613.519	90507
613.586	90507
613.652	97360
613.719	91435
613.785	91787
613.852	88666
613.918	86613
613.985	90815
614.051	102523
614.118	124370
614.184	115802
614.250	88256
614.317	89307
614.383	86950
614.449	89315
614.516	86818
614.582	89064
614.648	86786
614.715	86663
614.781	85667
614.847	87908
614.914	86414
614.980	83494
615.046	83417
615.112	86784
615.179	85547
615.245	89537
615.311	91807
615.377	108529
615.443	110393
615.509	94650
615.575	94254
615.642	92378
615.708	96986
615.774	101774
615.840	111431
615.906	128468
615.972	174970
616.038	308339
616.104	648998
616.170	1506914
616.236	1177292
616.302	263931
616.368	184196
616.434	127246
616.500	119630
616.565	133157
616.631	168126
616.697	132403
616.763	141008
616.829	223415
616.895	406925
616.961	371008
617.026	149628
617.092	99564
617.158	94631
617.224	90027
617.289	84528
617.355	80321
617.421	79021
617.487	78299
617.552	74289
617.618	72495
617.684	73030
617.749	75174
617.815	70767
617.880	68345
617.946	67810
618.012	71064
618.077	71253
618.143	68578
618.208	71446
618.274	75262
618.339	74807
618.405	60653
618.470	61686
618.536	61056
618.601	61242
618.667	55910
618.732	54005
618.798	52625
618.863	53101
618.928	51884
618.994	54129
619.059	56427
619.124	63400
619.190	57298
619.255	51965
619.320	52530
619.386	52231
619.451	50114
619.516	48741
619.581	50977
619.647	51489
619.712	51458
619.777	49692
619.842	51368
619.907	52921
619.972	53592
620.038	51802
620.103	50655
620.168	49096
620.233	51718
620.298	49838
620.363	51632
620.428	53665
620.493	55461
620.558	54417
620.623	54700
620.688	55359
620.753	54675
620.818	56466
620.883	57210
620.948	55338
621.013	54857
621.078	53426
621.143	52544
621.207	57102
621.272	54642
621.337	53196
621.402	53733
621.467	55277
621.532	55427
621.596	54199
621.661	51905
621.726	50272
621.791	51769
621.855	52802
621.920	51628
621.985	51482
622.049	55212
622.114	53617
622.179	54115
622.243	56383
622.308	55946
622.373	60402
622.437	58016
622.502	52317
622.566	53207
622.631	50774
622.695	54843
622.760	53405
622.824	53726
622.889	54062
622.953	55766
623.018	68371
623.082	67729
623.147	57488
623.211	55095
623.276	55300
623.340	53333
623.404	51960
623.469	51833
623.533	52706
623.597	49706
623.662	50156
623.726	46826
623.790	43162
623.854	42850
623.919	44804
623.983	44298
624.047	45707
624.111	45329
624.176	47351
624.240	50969
624.304	53282
624.368	46150
624.432	46776
624.496	48696
624.560	52549
624.625	53259
624.689	50346
624.753	52308
624.817	49466
624.881	47884
624.945	44414
625.009	43341
625.073	44136
625.137	45605
625.201	52071
625.265	51153
625.329	45527
625.393	46493
625.456	45022
625.520	47390
625.584	50350
625.648	53607
625.712	59944
625.776	81302
625.839	83300
625.903	48319
625.967	40006
626.031	50506
626.095	63765
626.158	45980
626.222	33854
626.286	33419
626.349	30411
626.413	29264
626.477	31999
626.540	30512
626.604	29347
626.668	29956
626.731	29439
626.795	29293
626.858	29364
626.922	27856
626.986	27150
627.049	26746
627.113	29907
627.176	28715
627.240	27578
627.303	27738
627.366	27873
627.430	28987
627.493	27255
627.557	27463
627.620	28905
627.684	29101
627.747	29836
627.810	25509
627.874	24609
627.937	23094
628.000	26268
628.064	25458
628.127	21254
628.190	22255
628.253	21723
628.317	21108
628.380	20076
628.443	19279
628.506	20500
628.569	18968
628.632	15959
628.696	17260
628.759	17061
628.822	16838
628.885	15522
628.948	16213
629.011	16633
629.074	15871
629.137	15448
629.200	15705
629.263	17563
629.326	14833
629.389	15002
629.452	15856
629.515	16061
629.578	15844
629.641	16504
629.704	14917
629.767	14636
629.830	14847
629.892	15081
629.955	13921
630.018	16679
630.081	15867
630.144	18918
630.207	14864
630.269	16545
630.332	14373
630.395	15236
630.458	14212
630.520	13622
630.583	15103
630.646	13615
630.708	13832
630.771	13402
630.834	15792
630.896	13877
630.959	13473
631.021	14069
631.084	14351
631.146	14813
631.209	16300
631.272	13753
631.334	14564
631.397	14721
631.459	14995
631.522	16616
631.584	17010
631.646	18317
631.709	19502
631.771	20417
631.834	18256
631.896	16706
631.958	15086
632.021	15784
632.083	13387
632.145	15086
632.208	13678
632.270	15056
632.332	12960
632.395	13224
632.457	14917
632.519	11987
632.581	14100
632.643	13503
632.706	13442
632.768	11612
632.830	13691
632.892	12901
632.954	12922
633.016	14745
633.078	13237
633.141	13042
633.203	12860
633.265	13345
633.327	13618
633.389	12457
633.451	14610
633.513	16369
633.575	15503
633.637	15012
633.698	14983
633.760	14483
633.822	16626
633.884	15664
633.946	17101
634.008	16265
634.070	17220
634.132	19629
634.193	21219
634.255	21562
634.317	22731
634.379	22795
634.441	18897
634.502	16457
634.564	16982
634.626	15473
634.687	14201
634.749	13468
634.811	13494
634.873	12370
634.934	13065
634.996	13219
635.057	12619
635.119	12105
635.181	13599
635.242	14936
635.304	12245
635.365	15416
635.427	12703
635.488	13879
635.550	12681
635.611	13893
635.673	11765
635.734	15945
635.796	15608
635.857	18535
635.918	18200
635.980	20677
636.041	20987
636.102	24263
636.164	24360
636.225	23906
636.286	18480
636.348	17558
636.409	16194
636.470	13571
636.531	14073
636.593	12216
636.654	13913
636.715	12368
636.776	10722
636.838	11369
636.899	11234
636.960	11593
637.021	10733
637.082	10375
637.143	11032
637.204	9487
637.265	10958
637.326	10628
637.387	11193
637.448	8232
637.509	11418
637.570	10340
637.631	11072
637.692	9075
637.753	7887
637.814	10254
637.875	8594
637.936	9983
637.997	9321
638.058	9302
638.119	10645
638.179	10127
638.240	9049
638.301	9238
638.362	8459
638.423	8186
638.483	9620
638.544	7277
638.605	9246
638.666	8837
638.726	9477
638.787	8447
638.848	8557
638.908	8710
638.969	9031
639.030	7836
639.090	6960
639.151	7709
639.211	9306
639.272	11145
639.332	15248
639.393	10525
639.453	8959
639.514	9801
639.574	8882
639.635	7440
639.695	8361
639.756	7552
639.816	9161
639.877	9797
639.937	15255
639.997	16646
640.058	8257
640.118	7008
640.178	9327
640.239	7778
640.299	7447
640.359	7446
640.420	9059
640.480	10297
640.540	11859
640.600	10782
640.661	10494
640.721	9958
640.781	12785
640.841	9450
640.901	8882
640.961	7884
641.021	9787
641.082	9715
641.142	11380
641.202	8765
641.262	6304
641.322	7484
641.382	6355
641.442	8150
641.502	7012
641.562	7524
641.622	7716
641.682	7538
641.742	10022
641.802	8691
641.861	7914
641.921	8174
641.981	9786
642.041	8464
642.101	9558
642.161	6529
642.221	6539
642.280	6138
642.340	6002
642.400	5880
642.460	8147
642.519	6067
642.579	7352
642.639	7701
642.698	5053
642.758	9187
642.818	6529
642.877	6942
642.937	7361
642.997	9109
643.056	11403
643.116	6666
643.175	9705
643.235	6701
643.294	8360
643.354	10193
643.414	11857
643.473	16862
643.532	17050
643.592	25025
643.651	43598
643.711	84200
643.770	178536
643.830	450658
643.889	883833
643.948	177813
644.008	31041
644.067	18460
644.126	12527
644.186	11430
644.245	10643
644.304	6849
644.363	10424
644.423	6594
644.482	8111
644.541	9673
644.600	7883
644.659	12025
644.719	16377
644.778	26801
644.837	48238
644.896	104043
644.955	235897
645.014	65127
645.073	15718
645.132	10229
645.191	9686
645.250	8614
645.309	10178
645.368	9686
645.427	14883
645.486	25126
645.545	42928
645.604	11593
645.663	8671
645.722	8980
645.781	10455
645.840	11418
645.898	15320
645.957	24341
646.016	40415
646.075	79531
646.134	165854
646.192	470419
646.251	623345
646.310	77284
646.369	21146
646.427	17593
646.486	11950
646.545	10105
646.603	8768
646.662	8363
646.721	7310
646.779	7151
646.838	7339
646.896	11405
646.955	15444
647.014	27487
647.072	54097
647.131	151408
647.189	60799
647.248	8793
647.306	7888
647.365	7060
647.423	4834
647.481	5831
647.540	4219
647.598	5163
647.657	4890
647.715	5557
647.773	4067
647.832	5100
647.890	3260
647.948	4176
648.007	4806
648.065	3466
648.123	4011
648.181	5830
648.240	6862
648.298	4575
648.356	4205
648.414	4287
648.472	4699
648.531	3833
648.589	4593
648.647	3624
648.705	4170
648.763	5136
648.821	4544
648.879	4518
648.937	5606
648.995	8513
649.053	10741
649.111	18041
649.169	34640
649.227	64538
649.285	144373
649.343	410117
649.401	162190
649.459	29895
649.516	17893
649.574	11783
649.632	23144
649.690	24764
649.748	15599
649.806	20197
649.863	41605
649.921	105660
649.979	58840
650.037	8964
650.094	3965
650.152	4371
650.210	3569
650.268	4578
650.325	5288
650.383	4666
650.440	3590
650.498	4756
650.556	2697
650.613	2602
650.671	3889
650.728	3075
650.786	4953
650.843	5622
650.901	2826
650.958	3114
651.016	3603
651.073	2768
651.131	2240
651.188	2914
651.246	2986
651.303	2886
651.360	3554
651.418	2700
651.475	3420
651.532	1264
651.590	3048
651.647	1604
651.704	2779
651.762	2625
651.819	3306
651.876	2647
651.933	2444
651.990	3097
652.048	1824
652.105	2162
652.162	2936
652.219	1986
652.276	2732
652.333	1913
652.390	1969
652.448	2698
652.505	2701
652.562	2211
652.619	2727
652.676	3587
652.733	4043
652.790	2027
652.847	1405
652.904	2057
652.961	1284
653.017	1466
653.074	3165
653.131	3135
653.188	1854
653.245	1910
653.302	1858
653.359	1633
653.415	2144
653.472	2223
653.529	2629
653.586	1658
653.642	862
653.699	2621
653.756	1781
653.813	1191
653.869	2892
653.926	1473
653.983	1785
654.039	1897
654.096	1727
654.152	3009
654.209	1298
654.266	1896
654.322	1477
654.379	2010
654.435	2111
654.492	2002
654.548	3498
654.605	4978
654.661	2531
654.717	1572
654.774	2323
654.830	2555
654.887	2802
654.943	2641
655.000	2522
655.056	2780
655.112	2112
655.168	1799
655.225	2291
655.281	2646
655.337	3111
655.394	4727
655.450	4072
655.506	2820
655.562	4817
655.618	4515
655.675	1750
655.731	2392
655.787	1743
655.843	2018
655.899	804
655.955	2607
656.011	2624
656.067	733
656.123	2559
656.179	2491
656.235	3546
656.291	377
656.347	3454
656.403	1508
656.459	1748
656.515	2447
656.571	1785
656.627	2201
656.683	1759
656.739	1826
656.795	2615
656.850	1582
656.906	3117
656.962	2618
657.018	1499
657.074	2139
657.129	3731
657.185	5795
657.241	11507
657.297	5612
657.352	2401
657.408	1414
657.464	2694
657.519	1297
657.575	790
657.630	1383
657.686	1400
657.742	750
657.797	470
657.853	1398
657.908	2485
657.964	1148
658.019	1275
658.075	1372
658.130	2150
658.186	1306
658.241	2416
658.297	-89
658.352	996
658.407	1427
658.463	1161
658.518	1586
658.573	1647
658.629	1162
658.684	1735
658.739	2197
658.795	1001
658.850	1570
658.905	1178
658.960	1737
659.016	824
659.071	1833
659.126	1814
659.181	1995
659.236	4378
659.291	3540
659.346	1981
659.401	2238
659.457	2861
659.512	2498
659.567	3113
659.622	1632
659.677	1661
659.732	909
659.787	949
659.842	564
659.897	2982
659.952	1323
660.007	1100
660.061	1724
660.116	1142
660.171	921
660.226	1227
660.281	2448
660.336	1692
660.391	2042
660.445	908
660.500	1821
660.555	1633
660.610	1233
660.664	1482
660.719	1446
660.774	2182
660.828	1492
660.883	1398
660.938	1757
660.992	1162
661.047	1594
661.101	1060
661.156	739
661.211	959
661.265	327
661.320	192
661.374	1418
661.429	304
661.483	1945
661.538	710
661.592	1238
661.647	2323
661.701	2630
661.755	1406
661.810	1828
661.864	462
661.919	334
661.973	930
662.027	911
662.081	831
662.136	1296
662.190	2403
662.244	1543
662.299	1058
662.353	1272
662.407	1538
662.461	1328
662.515	1102
662.569	1434
662.624	1620
662.678	1000
662.732	1071
662.786	305
662.840	1405
662.894	1451
662.948	1257
663.002	1118
663.056	1089
663.110	-259
663.164	1903
663.218	1686
663.272	1770
663.326	1991
663.380	1251
663.434	1605
663.488	583
663.542	1732
663.595	1800
663.649	623
663.703	1149
663.757	1313
663.811	437
663.864	1819
663.918	1586
663.972	860
664.026	1178
664.079	1493
664.133	1471
664.187	1822
664.240	1507
664.294	1313
664.348	716
664.401	1272
664.455	1164
664.508	1111
664.562	1258
664.615	1300
664.669	303
664.722	940
664.776	152
664.829	1489
664.883	1104
664.936	750
664.990	1013
665.043	2007
665.097	1080
665.150	2332
665.203	714
665.257	716
665.310	454
665.363	977
665.417	1497
665.470	1383
665.523	1417
665.576	1396
665.630	1352
665.683	856
665.736	1233
665.789	1093
665.842	567
665.895	1341
665.949	665
666.002	1287
666.055	1979
666.108	1453
666.161	1523
666.214	1894
666.267	1457
666.320	1494
666.373	1090
666.426	829
666.479	881
666.532	1484
666.585	1720
666.638	1856
666.691	1585
666.744	2474
666.796	1900
666.849	1508
666.902	1276
666.955	1296
667.008	836
667.060	697
667.113	677
667.166	405
667.219	1501
667.271	1443
667.324	1561
667.377	1054
667.430	1923
667.482	1768
667.535	1827
667.587	1283
667.640	964
667.693	2475
667.745	4206
667.798	3544
667.850	1688
667.903	1327
667.955	1751
668.008	742
668.060	2187
668.113	1237
668.165	833
668.218	1170
668.270	1476
668.322	1050
668.375	1129
668.427	1121
668.479	981
668.532	1654
668.584	873
668.636	1504
668.689	1040
668.741	1399
668.793	1523
668.845	631
668.898	1122
668.950	1373
669.002	1552
669.054	668
669.106	754
669.158	1827
669.211	957
669.263	881
669.315	2284
669.367	1724
669.419	1270
669.471	2816
669.523	2360
669.575	3462
669.627	2146
669.679	1024
669.731	1467
669.783	1854
669.835	2325
669.886	1745
669.938	1708
669.990	1128
670.042	916
670.094	2069
670.146	1294
670.197	1193
670.249	1192
670.301	1712
670.353	1824
670.404	2106
670.456	2302
670.508	3474
670.560	6986
670.611	10273
670.663	18599
670.715	49671
670.766	67737
670.818	13071
670.869	3168
670.921	2583
670.972	1292
671.024	941
671.075	1237
671.127	1376
671.178	1042
671.230	2052
671.281	1829
671.333	1600
671.384	2076
671.436	2675
671.487	5292
671.538	6049
671.590	11103
671.641	17859
671.692	33159
671.744	61158
671.795	35606
671.846	11858
671.897	5407
671.949	3965
672.000	2924
672.051	2539
672.102	2530
672.153	1278
672.204	1151
672.256	1371
672.307	954
672.358	1072
672.409	1438
672.460	1617
672.511	1437
672.562	669
672.613	561
672.664	1324
672.715	1083
672.766	868
672.817	1049
672.868	702
672.919	1278
672.970	596
673.021	936
673.071	-202
673.122	405
673.173	477
673.224	1284
673.275	681
673.326	-185
673.376	188
673.427	659
673.478	674
673.528	1244
673.579	614
673.630	768
673.680	1456
673.731	-255
673.782	-606
673.832	751
673.883	248
673.934	140
673.984	492
674.035	421
674.085	696
674.136	1115
674.186	749
674.237	1192
674.287	1150
674.338	1223
674.388	1021
674.438	25
674.489	855
674.539	1267
674.589	1000
674.640	1209
674.690	790
674.740	1321
674.791	1671
674.841	994
674.891	1139
674.942	1026
674.992	-360
675.042	229
675.092	-174
675.142	-522
675.193	305
675.243	124
675.293	1121
675.343	751
675.393	756
675.443	175
675.493	308
675.543	-286
675.593	457
675.643	459
675.693	846
675.743	-303
675.793	500
675.843	352
675.893	-153
675.943	509
675.993	367
676.043	248
676.093	87
676.142	-111
676.192	1021
676.242	-19
676.292	-141
676.341	-169
676.391	136
676.441	-7
676.491	-83
676.540	213
676.590	-18
676.640	-21
676.689	315
676.739	-366
676.789	-583
676.838	-201
676.888	188
676.937	1
676.987	201
677.037	502
677.086	-852
677.136	-244
677.185	-31
677.235	-491
677.284	-186
677.333	-547
677.383	-73
677.432	-99
677.482	310
677.531	125
677.580	-849
677.630	452
677.679	-660
677.728	143
677.778	287
677.827	-159
677.876	183
677.925	67
677.975	-281
678.024	-155
678.073	-275
678.122	373
678.171	-500
678.220	-66
678.269	986
678.319	1438
678.368	395
678.417	-63
678.466	755
678.515	868
678.564	-548
678.613	243
678.662	-695
678.711	349
678.760	-80
678.809	-323
678.857	-88
678.906	-56
678.955	-121
679.004	61
679.053	-125
679.102	123
679.151	-533
679.199	601
679.248	-158
679.297	328
679.346	-572
679.394	443
679.443	-614
679.492	520
679.540	222
679.589	144
679.638	-84
679.686	-77
679.735	110
679.784	562
679.832	-222
679.881	201
679.929	-6
679.978	29
680.026	69
680.075	180
680.123	-326
680.172	-1
680.220	-355
680.268	455
680.317	-866
680.365	514
680.414	-1192
680.462	196
680.510	-123
680.559	-393
680.607	-264
680.655	-433
680.703	-157
680.752	-622
680.800	-1111
680.848	-475
680.896	-160
680.945	298
680.993	-687
681.041	368
681.089	163
681.137	-897
681.185	-542
681.233	-823
681.258	-581
681.281	-381
681.329	36
681.377	-415
681.380	-400
681.425	-646
681.473	260
681.502	21
681.521	-202
681.569	879
681.617	236
681.624	209
681.665	-165
681.713	519
681.745	159
681.761	-56
681.809	405
681.857	282
681.867	220
681.904	-119
681.952	256
681.989	929
682.000	1095
682.048	132
682.096	902
682.111	650
682.143	15
682.191	566
682.233	922
682.239	951
682.286	685
682.334	1498
682.354	1464
682.382	1372
682.430	1244
682.476	1672
682.477	1655
682.525	1180
682.572	625
682.598	1055
682.620	1399
682.667	959
682.715	1467
682.720	1532
682.763	1878
682.810	1509
682.841	1650
682.857	1685
682.905	1576
682.952	2222
682.963	2165
683.000	1840
683.047	1493
683.085	2847
683.095	3186
683.142	1256
683.190	1140
683.206	1447
683.237	1974
683.284	1768
683.328	1761
683.332	1740
683.379	1675
683.426	1861
683.449	2139
683.473	2360
683.521	2118
683.568	2853
683.571	2826
683.615	2181
683.662	2498
683.693	2879
683.709	3076
683.757	2758
683.804	2314
683.814	2407
683.851	2657
683.898	3734
683.936	3403
683.945	3296
683.992	3581
684.039	2871
684.057	3111
684.086	3460
684.133	3362
684.179	3659
684.180	3644
684.227	4182
684.274	3913
684.300	3988
684.321	4028
684.368	3661
684.415	3394
684.422	3406
684.462	3331
684.509	3279
684.543	3292
684.556	3301
684.603	3598
684.649	3428
684.665	3423
684.696	3415
684.743	3060
684.786	3280
684.790	3291
684.837	3613
684.883	4260
684.908	4243
684.930	4095
684.977	4743
685.023	4328
685.029	4309
685.070	4115
685.117	4282
685.150	4679
685.164	4849
685.210	4946
685.257	4769
685.272	4793
685.303	4740
685.350	5198
685.393	4569
685.396	4525
685.443	5370
685.490	6202
685.514	6207
685.536	6000
685.583	5954
685.629	5621
685.636	5582
685.675	5322
685.722	6029
685.757	5582
685.768	5436
685.815	5112
685.861	5769
685.878	5688
685.908	5668
685.954	5693
686.000	5618
686.000	5615
686.047	6295
686.093	7212
686.121	7808
686.139	7786
686.185	7466
686.232	6673
686.242	6536
686.278	6086
686.324	6226
686.363	5460
686.370	5384
686.416	5276
686.463	5414
686.484	5694
686.509	6042
686.555	5738
686.601	6263
686.606	6297
686.647	6340
686.693	5940
686.727	5364
686.739	5202
686.785	5599
686.831	6122
686.848	6185
686.877	6190
686.923	5879
686.969	5955
686.969	5956
687.015	5722
687.061	6072
687.090	6376
687.107	6495
687.153	6689
687.199	6743
687.211	6639
687.245	6481
687.291	6701
687.332	6827
687.336	6830
687.382	7295
687.428	7018
687.453	7212
687.474	7273
687.520	6964
687.565	6728
687.574	6673
687.611	6716
687.657	6862
687.695	7323
687.702	7501
687.748	8035
687.794	9509
687.816	9621
687.839	9083
687.885	8611
687.931	7703
687.937	7675
687.976	7809
688.022	7451
688.058	7355
688.067	7377
688.113	7304
688.158	6889
688.179	6913
688.204	7097
688.249	7633
688.295	7342
688.300	7405
688.340	7815
688.386	8256
688.421	7847
688.431	7708
688.477	7898
688.522	8145
688.542	8087
688.567	8003
688.613	8023
688.658	7565
688.663	7588
688.703	7905
688.749	7632
688.784	7859
688.794	7956
688.839	7796
688.884	8267
688.905	8126
688.930	7883
688.975	7484
689.020	8105
689.026	8058
689.065	7955
689.110	7810
689.146	8568
689.155	8756
689.201	8373
689.246	8569
689.267	8497
689.291	8355
689.336	8502
689.381	7861
689.388	7875
689.426	8179
689.471	8499
689.509	8446
689.516	8402
689.561	8539
689.606	7874
689.630	7820
689.651	7960
689.696	8222
689.741	8658
689.750	8673
689.785	8639
689.830	8443
689.871	8437
689.875	8463
689.920	8419
689.965	8794
689.992	8659
690.010	8577
690.054	8697
690.099	8913
690.112	8898
690.144	8661
690.189	8279
690.233	7878
690.233	7892
690.278	8525
690.323	8768
690.354	8883
690.367	8912
690.412	8979
690.457	8736
690.474	8914
690.501	9040
690.546	8606
690.590	8756
690.595	8691
690.635	8665
690.680	8878
690.716	8971
690.724	9008
690.769	9440
690.813	9992
690.836	9903
690.857	10272
690.902	11755
690.946	13106
690.957	13335
690.991	15202
691.035	17597
691.077	19765
691.080	19793
691.124	19869
691.168	19915
691.198	19711
691.213	19082
691.257	17725
691.301	15797
691.318	15227
691.346	14689
691.390	13020
691.434	11575
691.439	11452
691.478	11487
691.522	11704
691.559	11055
691.567	11038
691.611	11476
691.655	11386
691.680	11394
691.699	11260
691.743	11036
691.787	10906
691.800	10683
691.831	10461
691.875	10935
691.919	11072
691.921	11048
691.964	11003
692.008	11102
692.041	11241
692.052	11291
692.096	11139
692.139	11483
692.162	11249
692.183	10901
692.227	10858
692.271	10053
692.282	9976
692.315	10301
692.359	10814
692.402	10856
692.403	10879
692.447	10933
692.490	11551
692.523	11382
692.534	11320
692.578	11257
692.622	11234
692.643	11129
692.666	10964
692.709	10922
692.753	10419
692.763	10444
692.797	10587
692.840	10223
692.884	10089
692.884	10116
692.928	10283
692.971	10463
693.004	10838
693.015	10920
693.059	10999
693.102	10846
693.124	11000
693.146	11521
693.189	11943
693.233	12447
693.245	12688
693.276	13112
693.320	13064
693.363	13408
693.365	13383
693.407	13521
693.450	14039
693.485	14020
693.493	14185
693.537	15001
693.580	15813
693.605	16320
693.624	16992
693.667	18468
693.710	19761
693.725	20249
693.753	24156
693.797	30434
693.840	36458
693.845	37067
693.883	36368
693.926	35928
693.966	35281
693.970	34894
694.013	30320
694.056	25425
694.086	22164
694.099	21589
694.142	19259
694.185	17118
694.206	16116
694.229	16158
694.272	16147
694.315	15960
694.326	15889
694.358	15785
694.401	15678
694.444	15772
694.446	15716
694.487	15270
694.530	14993
694.566	14605
694.573	14522
694.616	13989
694.659	13086
694.686	12789
694.702	12849
694.745	12701
694.787	12487
694.806	12438
694.830	12523
694.873	12308
694.916	12247
694.926	12242
694.959	12608
695.002	12740
695.044	13106
695.046	13081
695.087	12768
695.130	12592
695.166	12216
695.172	12232
695.215	12298
695.258	12391
695.286	12364
695.301	12427
695.343	12438
695.386	12692
695.406	12495
695.428	12386
695.471	12705
695.514	12875
695.526	12895
695.556	13285
695.599	13885
695.641	14280
695.646	14289
695.684	13993
695.726	13662
695.766	13263
695.769	13268
695.811	12937
695.854	12446
695.886	12141
695.896	12250
695.938	12411
695.981	12888
696.005	12940
696.023	13087
696.065	13538
696.108	14093
696.125	14196
696.150	14198
696.192	14100
696.235	14168
696.245	14107
696.277	14236
696.319	14516
696.361	14694
696.365	14673
696.404	14435
696.446	14041
696.485	13822
696.488	13885
696.530	13996
696.572	14215
696.604	14343
696.614	14317
696.656	13922
696.698	13692
696.724	13468
696.740	13479
696.783	13429
696.825	13432
696.844	13354
696.867	13658
696.909	14191
696.951	14671
696.964	14820
696.992	14675
697.034	14232
697.076	13960
697.083	13851
697.118	14157
697.160	14533
697.202	14972
697.203	14940
697.244	14767
697.286	14623
697.323	14356
697.327	14418
697.369	14671
697.411	14971
697.442	15077
697.453	15143
697.494	15287
697.536	15375
697.562	15466
697.578	15579
697.620	15682
697.661	15805
697.682	15814
697.703	16235
697.744	16959
697.786	17734
697.801	17949
697.828	18062
697.869	18244
697.911	18328
697.921	18300
697.952	17520
697.994	16418
698.035	15325
698.040	15154
698.077	15195
698.118	15166
698.160	15093
698.160	15049
698.201	15017
698.243	14915
698.279	14815
698.284	14892
698.325	15210
698.367	15538
698.399	15688
698.408	15662
698.449	15370
698.491	15109
698.518	14890
698.532	15028
698.573	15285
698.614	15566
698.638	15677
698.656	15712
698.697	15706
698.738	15666
698.757	15613
698.779	15853
698.820	16225
698.862	16585
698.877	16677
698.903	16740
698.944	16761
698.985	16780
698.996	16741
699.026	16714
699.067	16609
699.116	16440
699.235	15522
699.354	16291
699.474	15747
699.593	17608
699.713	16736
699.832	16336
699.951	16535
700.070	16030
700.190	14929
700.309	16145
700.428	17237
700.547	15640
700.667	15673
700.786	17658
700.905	14678
701.024	16039
701.143	15466
701.262	14850
701.381	14572
701.500	16094
701.619	17400
701.738	15313
701.857	14849
701.976	14074
702.095	14146
702.214	16665
702.333	16720
702.452	16282
702.571	15034
702.690	13559
702.809	13880
702.928	14133
703.047	13574
703.165	13588
703.284	13229
703.403	13634
703.522	14661
703.640	15571
703.759	16925
703.878	22903
703.997	15110
704.115	13691
704.234	13699
704.353	14120
704.471	13708
704.590	12655
704.708	11922
704.827	11687
704.946	12901
705.064	14523
705.183	12642
705.301	14642
705.420	17409
705.538	15546
705.656	14844
705.775	16491
705.893	26963
706.012	31489
706.130	14308
706.249	15195
706.367	14942
706.485	15879
706.604	15188
706.722	15819
706.840	19623
706.958	22365
707.077	16576
707.195	13501
707.313	13459
707.431	13634
707.549	12767
707.668	13288
707.786	14804
707.904	12860
708.022	13441
708.140	12857
708.258	12933
708.376	12767
708.494	12450
708.612	14808
708.730	17930
708.848	17317
708.966	16472
709.084	16256
709.202	14352
709.320	14144
709.438	14123
709.556	14382
709.674	14132
709.791	14277
709.909	13455
710.027	14581
710.145	13797
710.263	14508
710.380	14399
710.498	13948
710.616	14188
710.733	13052
710.851	14222
710.969	15031
711.086	14010
711.204	13622
711.322	14616
711.439	14370
711.557	13749
711.674	13919
711.792	14028
711.909	15085
712.027	15462
712.144	13279
712.262	13511
712.379	14155
712.497	17546
712.614	18492
712.732	15161
712.849	15868
712.966	16799
713.084	21810
713.201	16739
713.318	16556
713.436	15497
713.553	16460
713.670	17443
713.787	19857
713.905	19810
714.022	16915
714.139	17078
714.256	24766
714.373	36099
714.490	68429
714.608	197888
714.725	860152
714.842	854377
714.959	68172
715.076	28842
715.193	21508
715.310	19215
715.427	15015
715.544	15180
715.661	14782
715.778	14194
715.895	15934
716.011	16136
716.128	14908
716.245	14198
716.362	17179
716.479	18203
716.596	15027
716.713	13704
716.829	13199
716.946	12445
717.063	11988
717.180	12173
717.296	11170
717.413	13007
717.530	12523
717.646	11195
717.763	11976
717.880	11310
717.996	11584
718.113	12033
718.229	10890
718.346	10744
718.462	12141
718.579	15949
718.695	28075
718.812	19425
718.928	18252
719.045	12684
719.161	11748
719.277	11510
719.394	12159
719.510	13061
719.626	13709
719.743	18117
719.859	28526
719.975	59306
720.092	255927
720.208	590462
720.324	63310
720.440	18556
720.557	16656
720.673	23866
720.789	29393
720.905	56763
721.021	19453
721.137	11522
721.253	10748
721.369	11023
721.486	12716
721.602	16598
721.718	10586
721.834	9001
721.950	9676
722.066	9612
722.181	9514
722.297	10263
722.413	8604
722.529	9682
722.645	8905
722.761	9371
722.877	8697
722.993	9538
723.108	13097
723.224	10929
723.340	9920
723.456	8306
723.571	9528
723.687	8208
723.803	8626
723.918	8641
724.034	8921
724.150	8821
724.265	10382
724.381	20284
724.497	25319
724.612	9499
724.728	8668
724.843	8220
724.959	9909
725.074	19907
725.190	23183
725.305	9504
725.421	8864
725.536	7202
725.651	7611
725.767	7211
725.882	6929
725.997	7448
726.113	7504
726.228	7035
726.343	7351
726.459	6680
726.574	7950
726.689	6886
726.804	8056
726.920	7298
727.035	7065
727.150	6438
727.265	7603
727.380	8002
727.495	7577
727.610	6052
727.725	7752
727.841	8538
727.956	14824
728.071	13086
728.186	8150
728.301	6106
728.416	7668
728.531	6672
728.645	6488
728.760	8239
728.875	9778
728.990	8303
729.105	8520
729.220	7744
729.335	8381
729.449	7723
729.564	6798
729.679	5767
729.794	6132
729.908	6842
730.023	6968
730.138	6224
730.253	6221
730.367	6200
730.482	6587
730.596	6935
730.711	7547
730.826	8597
730.940	8537
731.055	8311
731.169	6361
731.284	6746
731.398	7567
731.513	8966
731.627	9712
731.742	10273
731.856	12495
731.970	11542
732.085	15509
732.199	24063
732.313	45132
732.428	117983
732.542	326650
732.656	181139
732.771	34614
732.885	17223
732.999	14480
733.113	12725
733.227	10468
733.342	8841
733.456	9091
733.570	8313
733.684	8093
733.798	7894
733.912	8291
734.026	7072
734.140	8313
734.254	9387
734.368	13478
734.482	15287
734.596	8337
734.710	6717
734.824	7103
734.938	6941
735.052	6958
735.166	8802
735.280	8202
735.393	6370
735.507	6872
735.621	7942
735.735	15936
735.849	8508
735.962	7047
736.076	7642
736.190	7443
736.303	10060
736.417	12613
736.531	6320
736.644	7486
736.758	5447
736.872	6545
736.985	6147
737.099	5835
737.212	6100
737.326	6735
737.439	6359
737.553	5950
737.666	6022
737.780	5636
737.893	6097
738.007	6075
738.120	6359
738.233	5337
738.347	6291
738.460	5502
738.573	6595
738.687	6312
738.800	7234
738.913	9688
739.026	6908
739.140	6661
739.253	6509
739.366	5600
739.479	4790
739.592	4903
739.705	5924
739.818	6467
739.932	5261
740.045	6299
740.158	5194
740.271	5630
740.384	5994
740.497	6288
740.610	6712
740.723	6079
740.836	6725
740.949	7388
741.062	9355
741.174	7910
741.287	5831
741.400	6646
741.513	5425
741.626	7892
741.739	6742
741.851	6077
741.964	5932
742.077	5481
742.189	6089
742.302	6986
742.415	7301
742.527	5930
742.640	4880
742.753	5802
742.865	5362
742.978	4927
743.090	4585
743.203	5252
743.316	4692
743.428	4761
743.541	3943
743.653	4738
743.766	4638
743.878	4936
743.990	6284
744.103	6190
744.215	5077
744.327	4789
744.440	7441
744.552	11634
744.664	6243
744.777	5131
744.889	4459
745.001	4856
745.113	4641
745.226	4468
745.338	4495
745.450	4566
745.562	4932
745.674	4233
745.786	4316
745.898	4971
746.010	4570
746.122	3805
746.234	4076
746.347	4450
746.459	4073
746.570	4019
746.682	4160
746.794	4754
746.906	4054
747.018	4452
747.130	3673
747.242	4591
747.354	4396
747.466	5214
747.577	3671
747.689	4746
747.801	4450
747.913	2778
748.024	3831
748.136	4823
748.248	3779
748.359	4476
748.471	3728
748.583	3734
748.694	4832
748.806	5915
748.918	5163
749.029	5152
749.141	4203
749.252	5022
749.364	4950
749.475	12683
749.587	6816
749.698	4116
749.809	5123
749.921	3872
750.032	4061
750.144	3911
750.255	2765
750.366	3370
750.478	3750
750.589	4720
750.700	3478
750.811	5494
750.923	5478
751.034	12356
751.145	13875
751.256	4766
751.367	3884
751.479	3331
751.590	3109
751.701	3854
751.812	3187
751.923	3389
752.034	4327
752.145	2693
752.256	3749
752.367	3971
752.478	2918
752.589	3667
752.700	3154
752.811	2790
752.922	2966
753.032	4782
753.143	4679
753.254	3701
753.365	4415
753.476	4783
753.586	3586
753.697	3537
753.808	4373
753.919	3015
754.029	3256
754.140	3613
754.251	3285
754.361	2917
754.472	3582
754.582	3131
754.693	3281
754.804	2821
754.914	2744
755.025	2933
755.135	2806
755.246	3329
755.356	2570
755.466	4741
755.577	2904
755.687	2930
755.798	2998
755.908	3883
756.018	2936
756.129	3417
756.239	3519
756.349	3386
756.460	3916
756.570	3915
756.680	3861
756.790	4314
756.900	4140
757.011	3223
757.121	2855
757.231	3220
757.341	3126
757.451	2965
757.561	2434
757.671	2526
757.781	2874
757.891	3786
758.001	2998
758.111	3941
758.221	3476
758.331	4738
758.441	5137
758.551	6326
758.661	6175
758.771	5291
758.880	3200
758.990	3737
759.100	3922
759.210	4425
759.320	4816
759.429	3853
759.539	4668
759.649	4889
759.758	5778
759.868	6299
759.978	5799
760.087	7363
760.197	7064
760.307	5661
760.416	6159
760.526	5086
760.635	6005
760.745	6451
760.854	5995
760.964	8425
761.073	7832
761.182	6725
761.292	5903
761.401	6227
761.511	4518
761.620	4730
761.729	4260
761.839	4432
761.948	4492
762.057	5154
762.166	4662
762.276	3832
762.385	5311
762.494	3954
762.603	3190
762.712	4745
762.822	4023
762.931	4295
763.040	3399
763.149	3847
763.258	3640
763.367	4919
763.476	4070
763.585	4123
763.694	5063
763.803	4862
763.912	4678
764.021	5454
764.130	4616
764.238	5377
764.347	5147
764.456	5435
764.565	5861
764.674	5953
764.783	5410
764.891	6495
765.000	7029
765.109	7819
765.217	8178
765.326	11454
765.435	12207
765.543	14505
765.652	15762
765.761	20809
765.869	29682
765.978	46328
766.086	79369
766.195	154251
766.303	356874
766.412	747834
766.520	634131
766.629	271474
766.737	109054
766.846	60660
766.954	39279
767.062	29617
767.171	24174
767.279	17135
767.387	12777
767.496	11320
767.604	10324
767.712	9510
767.820	7823
767.928	8612
768.037	7613
768.145	7521
768.253	7880
768.361	6487
768.469	6833
768.577	6794
768.685	7401
768.793	7512
768.901	8005
769.009	9715
769.117	10165
769.225	13128
769.333	19356
769.441	30428
769.549	56443
769.657	129137
769.765	371579
769.873	620621
769.981	294168
770.088	82666
770.196	38754
770.304	24613
770.412	18558
770.519	13883
770.627	11527
770.735	9915
770.842	8643
770.950	8569
771.058	6281
771.165	6774
771.273	6288
771.380	5535
771.488	6270
771.595	5712
771.703	5550
771.810	5784
771.918	5248
772.025	5148
772.133	5438
772.240	5547
772.348	5770
772.455	4964
772.562	5366
772.670	4852
772.777	5237
772.884	5000
772.991	4517
773.099	4764
773.206	3133
773.313	4175
773.420	4725
773.528	3378
773.635	3064
773.742	4425
773.849	4363
773.956	4217
774.063	4404
774.170	3717
774.277	4623
774.384	3645
774.491	3547
774.598	4078
774.705	4027
774.812	5349
774.919	3972
775.026	4081
775.133	3520
775.239	4099
775.346	3956
775.453	3980
775.560	2852
775.667	4291
775.773	2662
775.880	4458
775.987	4050
776.093	3921
776.200	3640
776.307	2490
776.413	3406
776.520	3633
776.627	3055
776.733	4262
776.840	1701
776.946	4796
777.053	3861
777.159	4059
777.266	2551
777.372	4617
777.478	3764
777.585	3604
777.691	3286
777.798	3831
777.904	4708
778.010	6648
778.117	6093
778.223	3381
778.329	2900
778.435	3088
778.542	4403
778.648	3563
778.754	2424
778.860	3246
778.966	2150
779.072	2821
779.178	3277
779.284	3372
779.391	2450
779.497	2353
779.603	3952
779.708	1955
779.815	3742
779.920	5000
780.026	9136
780.132	3558
780.238	2723
780.344	3461
780.450	3253
780.556	2874
780.661	2297
780.767	3142
780.873	2925
780.979	2980
781.085	2329
781.190	2872
781.296	2578
781.402	3576
781.507	2194
781.613	2645
781.719	2224
781.824	3043
781.930	3437
782.035	2912
782.141	3040
782.246	1339
782.352	2388
782.457	1717
782.563	1774
782.668	2666
782.773	2204
782.879	2064
782.984	4441
783.090	3608
783.195	6086
783.300	4678
783.405	3152
783.511	2570
783.616	2843
783.721	2612
783.826	1669
783.932	2416
784.037	2635
784.142	2818
784.247	3247
784.352	3343
784.457	2646
784.562	3385
784.667	2551
784.772	2244
784.877	1992
784.982	3375
785.087	2348
785.192	2959
785.297	1868
785.402	1757
785.507	2927
785.611	2988
785.716	1605
785.821	3089
785.926	1936
786.031	2181
786.135	2294
786.240	2488
786.345	548
786.450	3248
786.554	1600
786.659	1811
786.763	977
786.868	2661
786.973	3267
787.077	2095
787.182	1560
787.286	2301
787.391	2325
787.495	1444
787.600	2290
787.704	1614
787.809	1743
787.913	1517
788.017	2103
788.122	1941
788.226	1591
788.330	1183
788.435	886
788.539	2067
788.643	1454
788.747	1361
788.852	2379
788.956	1506
789.060	2838
789.164	1636
789.268	1113
789.372	2183
789.476	1002
789.580	1375
789.684	1043
789.788	2399
789.892	1110
789.996	2542
790.100	1196
790.204	1614
790.308	1852
790.412	1315
790.516	2051
790.620	2293
790.724	2028
790.828	2061
790.931	1470
791.035	3340
791.139	1507
791.242	1491
791.346	2396
791.450	1028
791.554	1510
791.657	232
791.761	2623
791.864	2513
791.968	1669
792.072	2372
792.175	1718
792.279	1712
792.382	1444
792.486	2449
792.589	1779
792.693	1714
792.796	1352
792.899	2648
793.003	2314
793.106	925
793.209	930
793.313	3507
793.416	-67
793.519	3228
793.623	4027
793.726	5916
793.829	2530
793.932	1739
794.035	532
794.138	2580
794.242	3072
794.345	1514
794.448	2646
794.551	4440
794.654	5601
794.757	5748
794.860	3812
794.963	2643
795.066	400
795.169	3162
795.272	911
795.375	1280
795.477	1677
795.580	1056
795.683	219
795.786	1641
795.889	757
795.991	2172
796.094	2013
796.197	399
796.300	1943
796.402	1351
796.505	884
796.608	1749
796.710	819
796.813	1283
796.915	1322
797.018	1937
797.120	2259
797.223	-65
797.326	1953
797.428	897
797.530	585
797.633	1555
797.735	2330
797.838	3850
797.940	3858
798.042	1559
798.145	726
798.247	1992
798.349	-425
798.452	2219
798.554	682
798.656	759
798.758	2846
798.860	1733
798.962	107
799.065	1630
799.167	436
799.269	2995
799.371	2873
799.473	3216
799.575	2407
799.677	2925
799.779	4163
799.881	3533
799.983	2160
800.085	2764
800.187	1278
800.289	614
800.390	989
800.492	1421
800.594	1521
800.696	1554
800.798	1533
800.899	1117
801.001	334
801.103	1294
801.205	981
801.306	2079
801.408	832
801.509	1315
801.611	1136
801.713	1457
801.814	461
801.916	989
802.017	1114
802.119	671
802.220	1744
802.322	-476
802.423	2948
802.525	1225
802.626	1976
802.727	2048
802.829	1146
802.930	-156
803.031	2375
803.133	1033
803.234	597
803.335	1162
803.436	347
803.538	416
803.639	-257
803.740	1039
803.841	16
803.942	1404
804.043	1091
804.144	372
804.245	1126
804.346	1101
804.447	674
804.548	2635
804.649	3596
804.750	530
804.851	585
804.952	1361
805.053	640
805.154	229
805.255	1552
805.355	606
805.456	196
805.557	240
805.658	-385
805.758	1438
805.859	578
805.960	263
806.061	311
806.161	380
806.262	607
806.362	1065
806.463	133
806.564	1867
806.664	979
806.765	1874
806.865	1394
806.966	841
807.066	-113
807.166	1612
807.267	1697
807.367	577
807.468	884
807.568	-365
807.668	1666
807.769	1559
807.869	324
807.969	215
808.069	595
808.170	563
808.270	638
808.370	963
808.470	2483
808.570	927
808.670	642
808.770	1467
808.870	185
808.970	1710
809.070	182
809.170	267
809.271	698
809.370	851
809.470	1169
809.570	-23
809.670	-461
809.770	891
809.870	654
809.970	816
810.070	568
810.169	1342
810.269	-451
810.369	530
810.469	904
810.568	931
810.668	161
810.768	562
810.867	1380
810.967	253
811.066	1117
811.166	-7
811.265	928
811.365	-25
811.464	181
811.564	1272
811.663	2605
811.763	-708
811.862	845
811.962	957
812.061	346
812.160	704
812.260	548
812.359	1465
812.458	640
812.557	1039
812.657	1091
812.756	467
812.855	870
812.954	455
813.053	468
813.153	639
813.252	-196
813.351	1488
813.450	1108
813.549	411
813.648	1365
813.747	187
813.846	307
813.945	478
814.044	1114
814.143	1177
814.242	1471
814.341	442
814.439	1350
814.538	1952
814.637	663
814.736	614
814.835	1903
814.933	1110
815.032	2132
815.131	1887
815.229	2838
815.328	3420
815.427	1782
815.525	2717
815.624	2822
815.722	3022
815.821	2902
815.919	2472
816.018	1869
816.116	4122
816.215	2418
816.313	3721
816.412	4582
816.510	5197
816.609	5900
816.707	5008
816.805	4980
816.904	5261
817.002	5526
817.100	7460
817.198	7651
817.296	7123
817.395	9381
817.493	12087
817.591	12102
817.689	16416
817.787	20245
817.885	33983
817.983	56802
818.081	114437
818.179	252286
818.277	574029
818.375	536237
818.473	201711
818.571	89053
818.669	56024
818.767	46466
818.865	45315
818.963	51536
819.061	68678
819.158	111345
819.256	211779
819.354	444259
819.452	828176
819.549	629916
819.647	263213
819.745	122868
819.842	73704
819.940	49233
820.038	35224
820.135	27265
820.233	21937
820.330	16160
820.428	14026
820.525	13281
820.623	11162
820.720	8527
820.818	8798
820.915	8750
821.012	6941
821.110	4773
821.207	6365
821.304	4717
821.402	5582
821.499	4552
821.596	5182
821.693	3894
821.791	5757
821.888	5263
821.985	8277
822.082	7301
822.179	4653
822.276	3044
822.373	3417
822.470	2569
822.567	2332
822.664	1821
822.761	3997
822.858	2276
822.955	2532
823.052	2011
823.149	2123
823.246	2256
823.343	1470
823.440	2637
823.536	2236
823.633	1496
823.730	1432
823.827	2147
823.923	1128
824.020	2358
824.117	1626
824.213	1341
824.310	2207
824.407	1498
824.503	1739
824.600	1447
824.696	597
824.793	2833
824.889	1309
824.986	717
825.082	1470
825.179	1165
825.275	2558
825.371	915
825.468	2262
825.564	177
825.660	1727
825.757	863
825.853	2102
825.949	352
826.045	1141
826.142	601
826.238	1180
826.334	1108
826.430	378
826.526	1549
826.622	217
826.718	915
826.814	612
826.910	2581
827.006	57
827.102	-301
827.198	2314
827.294	951
827.390	1336
827.486	748
827.582	-188
827.678	148
827.774	1385
827.869	-188
827.965	1610
828.061	-444
828.157	705
828.252	1084
828.348	-19
828.444	1388
828.539	144
828.635	288
828.731	1220
828.826	438
828.922	1160
829.017	515
829.113	2233
829.208	74
829.304	1264
829.399	1983
829.495	522
829.590	1273
829.685	244
829.781	611
829.876	1432
829.971	431
830.066	101
830.162	1338
830.257	978
830.352	69
830.447	1968
830.543	464
830.638	-13
830.733	1434
830.828	261
830.923	2339
831.018	2235
831.113	1238
831.208	88
831.303	-127
831.398	546
831.493	79
831.588	1637
831.683	46
831.778	846
831.873	804
831.967	2404
832.062	384
832.157	63
832.252	1715
832.346	1284
832.441	1547
832.536	1765
832.631	6035
832.725	5317
832.820	719
832.914	356
833.009	-187
833.104	1628
833.198	2060
833.293	846
833.387	893
833.482	265
833.576	14
833.670	1137
833.765	2287
833.859	564
833.954	708
834.048	785
834.142	159
834.237	1040
834.331	-142
834.425	135
834.519	-405
834.613	1675
834.708	602
834.802	689
834.896	-887
834.990	-96
835.084	935
835.178	840
835.272	243
835.366	-370
835.460	324
835.554	678
835.648	297
835.742	145
835.836	1339
835.930	-511
836.024	910
836.117	2075
836.211	40
836.305	239
836.399	2550
836.493	-697
836.586	852
836.680	-154
836.774	-260
836.867	2157
836.961	-657
837.055	-599
837.148	227
837.242	500
837.335	666
837.429	1052
837.522	39
837.616	874
837.709	3098
837.803	762
837.896	82
837.989	609
838.083	1780
838.176	3621
838.269	1794
838.363	472
838.456	380
838.549	2028
838.642	2374
838.735	6483
838.829	2274
838.922	10
839.015	208
839.108	50
839.201	231
839.294	-146
839.387	496
839.480	-864
839.573	286
839.666	819
839.759	-165
839.852	-1058
839.945	403
840.038	-168
840.131	-127
840.223	492
840.316	506
840.409	-353
840.502	-814
840.594	1637
840.687	-957
840.780	482
840.873	-821
840.965	581
841.058	888
841.150	3259
841.243	1422
841.336	839
841.428	-569
841.521	-398
841.613	-779
841.706	278
841.798	-310
841.890	-111
841.983	-1453
842.075	672
842.167	370
842.260	768
842.352	1769
842.444	1305
842.537	2749
842.629	4986
842.721	729
842.813	-37
842.905	-1437
842.997	549
843.090	-53
843.182	759
843.274	2532
843.366	8732
843.458	15587
843.550	9451
843.642	1733
843.734	750
843.826	425
843.918	1459
844.009	-226
844.101	-503
844.193	660
844.285	-288
844.377	864
844.469	250
844.560	-608
844.652	434
844.744	515
844.835	55
844.927	620
845.019	931
845.110	87
845.202	1139
845.293	-404
845.385	-1010
845.476	173
845.568	612
845.659	446
845.751	314
845.842	-45
845.934	217
846.025	-839
846.116	555
846.208	-758
846.299	-353
846.390	-126
846.482	-65
846.573	1727
846.664	1477
846.755	980
846.846	2054
846.937	-919
847.029	-137
847.120	-575
847.211	-212
847.302	978
847.393	-1396
847.484	443
847.575	-459
847.666	-533
847.757	-838
847.847	68
847.938	1310
848.029	-96
848.120	-355
848.211	-178
848.302	151
848.392	-210
848.483	510
848.574	-373
848.664	334
848.755	-504
848.846	888
848.936	-1409
849.027	602
849.118	342
849.208	624
849.299	2012
849.389	5014
849.480	11258
849.570	24268
849.661	45802
849.751	79708
849.841	28240
849.932	4582
850.022	987
850.112	1728
850.203	825
850.293	324
850.383	-788
850.474	-595
850.564	-9
850.654	-109
850.744	-197
850.834	378
850.924	216
851.014	1115
851.104	359
851.194	-72
851.284	603
851.374	781
851.464	301
851.554	635
851.644	-135
851.734	1753
851.824	871
851.914	123
852.004	128
852.094	13
852.183	252
852.273	296
852.363	749
852.452	-517
852.542	316
852.632	502
852.721	229
852.811	612
852.901	686
852.990	343
853.080	1796
853.169	2293
853.259	1605
853.348	983
853.438	2736
853.527	5581
853.617	8245
853.706	15477
853.795	28487
853.885	66333
853.974	124534
854.063	225897
854.152	340194
854.242	140191
854.331	29335
854.420	11070
854.509	7583
854.598	6556
854.687	4049
854.777	4147
854.866	1403
854.955	1627
855.044	1245
855.133	674
855.222	755
855.311	472
855.400	1438
855.488	761
855.577	-231
855.666	890
855.755	1033
855.844	215
855.933	782
856.021	835
856.110	48
856.199	-870
856.288	101
856.376	39
856.465	137
856.554	480
856.642	-656
856.731	25
856.819	-156
856.908	-215
856.996	-573
857.085	-844
857.173	89
857.262	-524
857.350	-325
857.438	-609
857.527	28
857.615	-89
857.703	1285
857.792	-477
857.880	-629
857.968	-627
858.056	-128
858.145	-305
858.233	-865
858.321	-374
858.409	-172
858.497	-248
858.585	-1462
858.673	61
858.761	-1555
858.849	-226
858.937	-1039
859.025	-105
859.113	21
859.201	-724
859.289	142
859.377	-35
859.465	-1
859.552	81
859.640	-463
859.728	626
859.816	-251
859.903	497
859.991	-764
860.079	-349
860.166	-517
860.254	-971
860.342	68
860.429	-610
860.517	-423
860.604	-476
860.692	-656
860.779	-153
860.867	-457
860.954	311
861.042	18
861.129	572
861.216	-256
861.304	-715
861.391	-138
861.478	-452
861.565	313
861.653	496
861.740	-547
861.827	-219
861.914	-157
862.001	-29
862.089	-345
862.176	922
862.263	242
862.350	-692
862.437	-1171
862.524	-325
862.611	-85
862.698	297
862.785	100
862.871	32
862.958	-768
863.045	-478
863.132	-248
863.219	-532
863.306	-901
863.392	-153
863.479	-681
863.566	-487
863.652	466
863.739	-213
863.826	122
863.912	-143
863.999	-509
864.086	-634
864.172	-156
864.259	184
864.345	212
864.432	648
864.518	-778
864.604	183
864.691	-1094
864.777	440
864.863	808
864.950	1171
865.036	75
865.122	1577
865.209	2222
865.295	2850
865.381	3190
865.467	4051
865.553	5422
865.639	8507
865.726	15006
865.812	32982
865.898	64883
865.984	98865
866.070	175900
866.156	190902
866.242	54641
866.328	13237
866.414	6277
866.499	4668
866.585	3335
866.671	2757
866.757	2446
866.843	2132
866.928	2370
867.014	496
867.100	1312
867.186	1442
867.271	1146
867.357	2102
867.442	2519
867.528	2002
867.614	508
867.699	563
867.785	681
867.870	848
867.956	733
868.041	2236
868.127	1223
868.212	904
868.297	1362
868.383	1520
868.468	1059
868.553	3773
868.639	3677
868.724	7932
868.809	7266
868.894	1497
868.979	449
869.065	931
869.150	-377
869.235	203
869.320	344
869.405	627
869.490	715
869.575	741
869.660	702
869.745	1335
869.830	173
869.915	448
870.000	890
870.085	60
870.169	293
870.254	390
870.339	-314
870.424	-364
870.509	990
870.593	236
870.678	1108
870.763	-525
870.847	-196
870.932	686
871.016	335
871.101	247
871.186	206
871.270	-55
871.355	-663
871.439	-454
871.523	-170
871.608	869
871.692	-415
871.777	1413
871.861	-314
871.945	-576
872.030	504
872.114	91
872.198	109
872.282	-20
872.367	-467
872.451	-151
872.535	739
872.619	-632
872.703	589
872.787	-13
872.871	415
872.955	382
873.039	-353
873.123	-91
873.207	287
873.291	113
873.375	-32
873.459	-265
873.543	-242
873.627	82
873.711	-326
873.794	404
873.878	-612
873.962	-308
874.045	222
874.129	-9
874.137	-7
874.213	16
874.245	208
874.296	512
874.352	-114
874.380	-423
874.460	36
874.464	55
874.547	-580
874.568	-330
874.631	410
874.676	217
874.714	62
874.784	459
874.798	526
874.881	772
874.892	643
874.965	-225
874.999	-381
875.048	-567
875.107	-578
875.131	-587
875.215	394
875.215	394
875.298	127
875.323	80
875.381	28
875.430	260
875.465	444
875.538	43
875.548	-27
875.631	307
875.646	139
875.714	-616
875.753	-404
875.798	-131
875.861	55
875.881	101
875.964	92
875.968	51
876.047	-676
876.076	-537
876.130	-329
876.183	70
876.213	343
876.291	646
876.296	655
876.379	191
876.398	241
876.462	629
876.506	125
876.545	-491
876.613	-166
876.628	-44
876.711	583
876.721	650
876.794	1006
876.828	532
876.877	-133
876.935	-92
876.960	-21
877.043	823
877.043	824
877.125	766
877.150	696
877.208	624
877.258	803
877.291	909
877.365	103
877.374	18
877.456	968
877.472	924
877.539	663
877.579	635
877.622	631
877.687	868
877.704	958
877.787	1172
877.794	1117
877.869	168
877.901	417
877.952	1012
878.008	782
878.034	641
878.115	801
878.117	808
878.199	-400
878.222	-142
878.282	348
878.329	534
878.364	710
878.437	805
878.447	796
878.529	257
878.544	273
878.611	510
878.651	365
878.694	103
878.758	-203
878.776	-212
878.858	-132
878.865	-122
878.941	-289
878.972	-341
879.023	-325
879.078	-202
879.105	-66
879.185	608
879.187	614
879.269	1286
879.292	957
879.351	198
879.399	-13
879.433	-58
879.506	197
879.516	198
879.598	-82
879.613	-48
879.680	145
879.720	245
879.762	471
879.827	145
879.844	-1
879.926	-10
879.933	-18
880.007	-134
880.040	-261
880.089	-137
880.147	508
880.171	572
880.253	1439
880.254	1446
880.335	2703
880.360	2702
880.417	2612
880.467	4574
880.499	5942
880.574	7321
880.580	7355
880.662	2085
880.680	1673
880.744	355
880.787	-113
880.825	-355
880.893	-204
880.907	-205
880.989	-58
881.000	-43
881.070	60
881.106	-28
881.152	-181
881.213	-440
881.233	-443
881.315	-252
881.319	-219
881.396	690
881.426	483
881.478	-430
881.532	-245
881.559	86
881.639	176
881.641	162
881.722	168
881.745	-105
881.803	-252
881.852	-113
881.885	-217
881.958	50
881.966	88
882.047	394
882.064	294
882.129	58
882.171	421
882.210	797
882.277	1118
882.291	1143
882.372	52
882.383	-7
882.454	-150
882.489	26
882.535	-26
882.596	-185
882.616	-141
882.697	-401
882.702	-404
882.778	-64
882.808	152
882.859	-85
882.914	-269
882.940	-78
883.020	-25
883.021	-25
883.102	48
883.127	87
883.183	102
883.233	-20
883.264	-37
883.339	122
883.345	118
883.426	-245
883.445	-341
883.507	-199
883.551	310
883.587	239
883.657	-624
883.668	-565
883.749	55
883.763	235
883.830	-3
883.869	-422
883.910	-361
883.975	-28
883.991	1
884.072	-98
884.081	-63
884.152	156
884.187	52
884.233	-23
884.292	23
884.314	-111
884.394	-815
884.398	-832
884.475	-318
884.504	-247
884.555	-536
884.610	-782
884.636	-619
884.716	49
884.716	55
884.797	384
884.821	357
884.877	74
884.927	-13
884.958	117
885.033	501
885.038	466
885.118	-311
885.139	-461
885.199	-79
885.244	154
885.279	59
885.350	-397
885.359	-350
885.439	221
885.456	291
885.520	-382
885.561	-642
885.600	-468
885.667	-83
885.680	-83
885.760	-333
885.773	-381
885.840	108
885.878	402
885.920	80
885.984	-350
886.000	-234
886.080	288
886.089	338
886.160	27
886.195	-63
886.240	94
886.300	66
886.320	-145
886.400	-608
886.406	-664
886.480	-101
886.511	250
886.560	369
886.616	506
886.640	433
886.720	-173
886.722	-183
886.800	-103
886.827	-87
886.879	13
886.932	55
886.959	46
887.038	117
887.039	119
887.119	23
887.143	29
887.198	-159
887.248	-251
887.278	-45
887.354	210
887.358	206
887.437	169
887.459	183
887.517	373
887.564	458
887.596	216
887.669	-213
887.676	-183
887.755	3
887.774	62
887.835	44
887.880	69
887.914	28
887.985	-132
887.994	-120
888.073	-2
888.090	29
888.153	-117
888.195	-266
888.232	-202
888.300	-18
888.311	51
888.391	427
888.405	519
888.470	423
888.510	313
888.549	388
888.615	529
888.628	470
888.708	112
888.720	45
888.787	193
888.825	297
888.866	74
888.930	-259
888.945	-162
889.024	300
889.035	372
889.103	18
889.140	-217
889.182	-58
889.245	220
889.261	364
889.340	1020
889.349	1093
889.419	146
889.454	-335
889.498	-405
889.559	-500
889.577	-432
889.656	-113
889.664	-76
889.735	297
889.768	477
889.814	334
889.873	149
889.978	-227
890.083	412
890.187	44
890.292	-147
890.397	431
890.501	468
890.606	-168
890.710	1085
890.815	961
890.919	512
891.024	-281
891.128	80
891.233	367
891.337	511
891.442	-17
891.546	708
891.650	-244
891.755	209
891.859	1932
891.963	-51
892.068	144
892.172	132
892.276	65
892.380	58
892.484	-809
892.589	168
892.693	-863
892.797	100
892.901	277
893.005	94
893.109	237
893.213	-176
893.317	-76
893.421	7
893.525	-617
893.629	562
893.733	661
893.837	-109
893.941	-299
894.045	84
894.148	272
894.252	209
894.356	-171
894.460	1012
894.564	458
894.667	260
894.771	-447
894.875	355
894.978	-227
895.082	33
895.186	489
895.289	545
895.393	-21
895.496	979
895.600	-740
895.703	-130
895.807	5
895.910	452
896.014	162
896.117	480
896.221	603
896.324	515
896.427	59
896.531	34
896.634	55
896.737	736
896.840	-343
896.944	-87
897.047	413
897.150	-25
897.253	-957
897.356	-80
897.460	704
897.563	-392
897.666	74
897.769	440
897.872	-627
897.975	-141
898.078	-902
898.181	-82
898.284	-118
898.387	139
898.490	-303
898.593	-341
898.695	-791
898.798	-23
898.901	-358
899.004	-135
899.107	-709
899.209	-728
899.312	355
899.415	-546
899.518	-162
899.620	19
899.723	-703
899.826	433
899.928	788
900.031	-228
900.133	-435
900.236	-293
900.338	-722
900.441	1
900.543	5
900.646	-393
900.748	-37
900.851	459
900.953	-578
901.055	666
901.158	99
901.260	614
901.362	480
901.465	-690
901.567	-698
901.669	811
901.771	-28
901.873	-66
901.976	-757
902.078	-167
902.180	-585
902.282	-387
902.384	-688
902.486	57
902.588	10
902.690	256
902.792	-454
902.894	253
902.996	-246
903.098	10
903.200	201
903.302	-41
903.404	-362
903.505	-650
903.607	310
903.709	519
903.811	-378
903.913	-427
904.014	-866
904.116	-302
904.218	248
904.319	203
904.421	17
904.523	4
904.624	-23
904.726	204
904.827	-539
904.929	-508
905.030	-203
905.132	115
905.233	-190
905.335	-62
905.436	-72
905.537	-163
905.639	66
905.740	133
905.841	-607
905.943	-111
906.044	64
906.145	513
906.247	-477
906.348	480
906.449	-1095
906.550	-185
906.651	-209
906.752	114
906.854	200
906.955	77
907.056	-521
907.157	-929
907.258	-495
907.359	152
907.460	-636
907.561	-653
907.662	-515
907.762	-9
907.863	-708
907.964	247
908.065	176
908.166	-137
908.267	-615
908.367	-306
908.468	-818
908.569	-554
908.670	-572
908.770	-210
908.871	-337
908.971	-149
909.072	-47
909.173	-728
909.273	-65
909.374	-811
909.474	-922
909.575	-127
909.675	-661
909.776	-416
909.876	-673
909.977	-273
910.077	25
910.177	-486
910.278	-337
910.378	211
910.478	-334
910.579	-830
910.679	-689
910.779	-283
910.879	216
910.980	-60
911.080	539
911.180	-541
911.280	-1105
911.380	-313
911.480	-330
911.580	116
911.680	-330
911.780	-76
911.880	-736
911.980	-966
912.080	-1002
912.180	-228
912.280	-141
912.380	-1001
912.480	-436
912.580	94
912.679	-630
912.779	-223
912.879	-58
912.979	-531
913.078	-414
913.178	-513
913.278	-1382
913.377	-45
913.477	-807
913.577	-124
913.676	-337
913.776	-363
913.875	-1067
913.975	-484
914.074	-982
914.174	-300
914.273	-94
914.373	514
914.472	-329
914.572	-327
914.671	-1330
914.770	-465
914.870	-425
914.969	-599
915.068	-1232
915.167	-29
915.267	-979
915.366	-53
915.465	-649
915.564	81
915.663	-170
915.763	554
915.862	-26
915.961	-156
916.060	-665
916.159	-297
916.258	-769
916.357	-167
916.456	-614
916.555	-832
916.654	-539
916.752	-1405
916.851	-622
916.950	452
917.049	-820
917.148	-671
917.247	87
917.345	-612
917.444	-68
917.543	-277
917.642	-1132
917.740	-500
917.839	-747
917.937	83
918.036	201
918.135	124
918.233	-1667
918.332	-367
918.430	-939
918.529	-228
918.627	-1385
918.726	-137
918.824	-642
918.923	-151
919.021	-698
919.119	65
919.218	-427
919.316	-643
919.414	-867
919.512	-18
919.611	-745
919.709	-810
919.807	-570
919.905	-434
920.003	-934
920.102	13
920.200	-519
920.298	-359
920.396	-908
920.494	-240
920.592	-885
920.690	-309
920.788	-1298
920.886	-582
920.984	-1006
921.082	-1020
921.180	-361
921.277	255
921.375	-80
921.473	-291
921.571	-468
921.669	-157
921.766	-90
921.864	-91
921.962	-558
922.060	-1033
922.157	-800
922.255	41
922.352	-609
922.450	241
922.548	-149
922.645	-515
922.743	18
922.840	469
922.938	498
923.035	1187
923.133	451
923.230	852
923.327	265
923.425	693
923.522	1012
923.619	1192
923.717	217
923.814	401
923.911	-673
924.008	1007
924.106	-661
924.203	1733
924.300	761
924.397	841
924.494	624
924.591	993
924.688	346
924.786	852
924.883	481
924.979	996
925.077	45
925.173	645
925.270	334
925.367	22
925.464	360
925.561	648
925.658	324
925.755	-225
925.852	784
925.948	605
926.045	425
926.142	152
926.239	60
926.335	416
926.432	430
926.529	628
926.625	703
926.722	84
926.818	-373
926.915	1332
927.011	626
927.108	-534
927.204	1
927.301	736
927.397	528
927.494	-315
927.590	53
927.687	8
927.783	-248
927.879	457
927.976	-344
928.072	139
928.168	628
928.264	304
928.361	-267
928.457	507
928.553	664
928.649	-72
928.745	263
928.841	850
928.937	265
929.033	559
929.129	138
929.225	-399
929.321	253
929.417	138
929.513	88
929.609	482
929.705	353
929.801	1168
929.897	-83
929.993	454
930.089	136
930.184	167
930.280	-5
930.376	982
930.471	-328
930.567	-71
930.663	522
930.758	-1239
930.854	-462
930.950	-26
931.045	-993
931.141	168
931.236	610
931.332	-258
931.427	-878
931.523	278
931.618	-127
931.714	201
931.809	-275
931.905	252
932.000	-817
932.095	-575
932.191	52
932.286	-164
932.381	-59
932.476	-26
932.572	-441
932.667	168
932.762	-470
932.857	1115
932.952	-741
933.047	38
933.142	-264
933.237	-568
933.332	-672
933.427	89
933.522	72
933.617	572
933.712	-119
933.807	351
933.902	-693
933.997	689
934.092	-624
934.187	246
934.282	-374
934.376	589
934.471	-110
934.566	-498
934.661	785
934.755	1295
934.850	-768
934.945	-996
935.039	-127
935.134	822
935.228	-261
935.323	799
935.417	-364
935.512	201
935.606	-1420
935.701	146
935.795	246
935.890	-123
935.984	-1031
936.079	-240
936.173	-227
936.267	93
936.362	-939
936.456	35
936.550	72
936.644	50
936.738	-146
936.833	-315
936.927	-546
937.021	-583
937.115	-1076
937.209	-400
937.303	379
937.397	-1142
937.491	-566
937.585	-846
937.679	-351
937.773	-330
937.867	-489
937.961	-783
938.055	371
938.149	954
938.243	-826
938.337	150
938.430	-631
938.524	690
938.618	203
938.712	-433
938.805	-179
938.899	-91
938.993	-300
939.086	-141
939.180	-375
939.274	-678
939.367	-370
939.461	-274
939.554	-994
939.648	-593
939.741	-1291
939.835	-410
939.928	-149
940.022	252
940.115	171
940.208	375
940.302	77
940.395	-67
940.488	-1207
940.582	-210
940.675	-451
940.768	232
940.861	-1087
940.954	634
941.048	-531
941.141	270
941.234	-208
941.327	-460
941.420	-345
941.513	307
941.606	-934
941.699	-199
941.792	81
941.885	-56
941.978	310
942.071	-349
942.164	-835
942.257	-568
942.349	-919
942.442	-442
942.535	-88
942.628	607
942.721	-290
942.813	-809
942.906	453
942.999	-879
943.091	-803
943.184	-389
943.277	-740
943.369	457
943.462	-473
943.554	355
943.647	-948
943.739	878
943.832	-142
943.924	-280
944.017	211
944.109	-820
944.201	-329
944.294	-462
944.386	-306
944.478	-147
944.571	-658
944.663	-502
944.755	-794
944.847	-187
944.940	-216
945.032	-1373
945.124	22
945.216	328
945.308	-529
945.400	140
945.492	-350
945.584	-673
945.676	-845
945.768	-763
945.860	-319
945.952	-662
946.044	-483
946.136	-260
946.228	-1111
946.320	-135
946.412	-446
946.503	-466
946.595	590
946.687	-708
946.779	-1015
946.870	-661
946.962	-1018
947.054	309
947.145	169
947.237	-190
947.329	-412
947.420	-436
947.512	98
947.603	-788
947.695	-517
947.786	-1233
947.878	28
947.969	-341
948.061	-670
948.152	-699
948.243	-35
948.335	-132
948.426	-1262
948.517	-891
948.609	-949
948.700	-1204
948.791	-739
948.882	-783
948.973	-812
949.065	-196
949.156	-198
949.247	-676
949.338	-379
949.429	-691
949.520	-736
949.611	-818
949.702	-331
949.793	-649
949.884	-38
949.975	-58
950.066	-871
950.157	-411
950.247	-828
950.338	-962
950.429	-887
950.520	-250
950.611	-953
950.701	-968
950.792	44
950.883	-482
950.973	32
951.064	-397
951.155	-1305
951.245	-1084
951.336	79
951.427	-985
951.517	-434
951.608	-67
951.698	-898
951.788	-855
951.879	-1184
951.969	-289
952.060	-442
952.150	-615
952.240	-638
952.331	-1065
952.421	126
952.511	-944
952.602	-169
952.692	-173
952.782	-154
952.872	-1299
952.962	-1446
953.052	-835
953.143	-1261
953.233	-346
953.323	-362
953.413	-996
953.503	-646
953.593	-1016
953.683	-1339
953.773	-1609
953.863	-489
953.953	-413
954.042	-1025
954.132	-1289
954.222	-569
954.312	-993
954.402	-923
954.492	66
954.581	-1266
954.671	-725
954.761	-1306
954.850	324
954.940	-601
955.030	-1033
955.119	-1486
955.209	-1338
955.298	-1291
955.388	-575
955.477	428
955.567	-1942
955.656	-371
955.746	-221
955.835	-783
955.925	-1306
956.014	-806
956.103	-742
956.193	-958
956.282	-648
956.371	-584
956.461	-795
956.550	-1187
956.639	-980
956.728	-1650
956.817	-634
956.906	-914
956.995	425
957.085	-688
957.174	-219
957.263	-718
957.352	-369
957.441	-1394
957.530	-401
957.619	-994
957.708	-1331
957.796	-693
957.885	-447
957.974	-1819
958.063	-499
958.152	-1560
958.241	82
958.329	-648
958.418	-805
958.507	-1797
958.596	-18
958.684	-1193
958.773	-671
958.861	-1320
958.950	-375
959.039	-732
959.127	-1403
959.216	-919
959.304	-1045
959.393	-817
959.481	-971
959.570	-1483
959.658	-887
959.746	-1238
959.835	-831
959.923	-926
960.011	-1240
960.100	-519
960.188	-1119
960.276	-809
960.365	-861
960.453	-1733
960.541	-1212
960.629	-660
960.717	-922
960.805	-1766
960.893	-1330
960.981	-2229
961.069	567
961.158	-386
961.245	-549
961.333	-1328
961.421	-128
961.509	-872
961.597	-296
961.685	-1383
961.773	-824
961.861	-1309
961.949	-692
962.036	-1554
962.124	3
962.212	-1025
962.299	-1104
962.387	-1002
962.475	-957
962.562	-1683
962.650	-363
962.738	-1164
962.825	-986
962.913	-1189
963.000	-1319
963.088	-1626
963.175	-550
963.263	-413
963.350	-690
963.438	-1381
963.525	-1054
963.612	-199
963.700	-464
963.787	781
963.874	-951
963.962	-886
964.049	-414
964.136	-1669
964.223	-828
964.310	-1733
964.398	-346
964.485	-1815
964.572	-981
964.659	-815
964.746	-1241
964.833	-1510
964.920	-645
965.007	-1364
965.094	-363
965.181	-1884
965.268	-1054
965.355	-1175
965.441	-1457
965.528	-1563
965.615	-319
965.702	-1325
965.789	-1710
965.875	-1384
965.962	-335
966.049	-1562
966.136	-1750
966.222	-1589
966.309	-1687
966.395	-1247
966.482	-1254
966.569	-1203
966.655	-1192
966.742	-2127
966.828	-960
966.915	-2145
967.001	-553
967.087	-2191
967.174	-1178
967.260	-486
967.347	-595
967.433	-1727
967.519	50
967.605	-1244
967.692	-1019
967.778	-1539
967.864	-924
967.950	-1006
968.036	-1816
968.123	-1330
968.209	-1153
968.295	-2245
968.381	-67
968.467	-1416
968.553	-2187
968.639	-691
968.725	-1655
968.811	-877
968.897	-832
968.983	-1639
969.069	-1691
969.154	-439
969.240	-522
969.326	-1631
969.412	-1104
969.497	-1635
969.583	-1640
969.669	159
969.755	-1228
969.840	-1521
969.926	-1031
970.012	-1188
970.097	-309
970.183	-1409
970.268	-633
970.354	-637
970.439	-2404
970.525	260
970.610	-1557
970.696	-696
970.781	-963
970.866	-1614
970.952	-234
971.037	-2241
971.122	-1917
971.208	-1100
971.293	-523
971.378	-2419
971.463	-1119
971.549	-1741
971.634	-1417
971.719	-1019
971.804	-1398
971.889	-434
971.974	-1624
972.059	-1650
972.144	-1725
972.229	-1202
972.314	-2181
972.399	-1493
972.484	-2114
972.569	-1092
972.654	-2425
972.739	-697
972.824	-1594
972.908	-456
972.993	-777
973.078	-1018
973.163	-690
973.247	-1302
973.332	-2267
973.417	-332
973.501	-2278
973.586	-2268
973.671	-1243
973.755	-719
973.840	-915
973.924	-942
974.009	-1783
974.093	-2038
974.178	127
974.262	-1018
974.346	-1582
974.431	-643
974.515	-632
974.600	-1489
974.684	-1234
974.768	-709
974.852	-558
974.937	-3020
975.021	76
975.105	-1131
975.189	-1037
975.273	-652
975.358	-1838
975.442	-2235
975.526	-1093
975.610	-1871
975.694	-2183
975.778	-411
975.862	-946
975.946	-3117
976.030	-627
976.114	-1989
976.198	-1784
976.281	-1918
976.365	-776
976.449	-1465
976.533	-697
976.617	-1855
976.700	-1111
976.784	-1390
976.868	-1561
976.951	-1375
977.035	-983
977.119	-1012
977.202	-1069
977.286	-1822
977.369	-1587
977.453	-1217
977.536	-1062
977.620	-2500
977.703	-757
977.787	-1970
977.870	-606
977.953	-317
978.037	-2311
978.120	-1353
978.203	-951
978.287	-1479
978.370	-705
978.453	-1885
978.536	-972
978.620	-1271
978.703	-1412
978.786	-1724
978.869	-2041
978.952	-2339
979.035	-474
979.118	-607
979.201	-1375
979.284	-698
979.367	-1926
979.450	-1177
979.533	-1112
979.616	-1228
979.699	-1560
979.782	-878
979.865	-1197
979.948	-1587
980.030	-1384
980.113	-1648
980.196	-2286
980.279	-1456
980.361	-929
980.444	-2186
980.526	-1171
980.609	-834
980.692	-1204
980.774	-1575
980.857	-2324
980.939	-1304
981.022	-1206
981.104	-1908
981.187	-1089
981.269	-942
981.352	-1298
981.434	-1800
981.516	-1817
981.599	-322
981.681	-1269
981.763	-1409
981.846	-1022
981.928	-1061
982.010	-1105
982.092	-1712
982.174	-83
982.256	-2104
982.339	-1567
982.421	-2091
982.503	-1334
982.585	-1894
982.667	-1210
982.749	-1256
982.831	-1423
982.913	-2264
982.995	-523
983.077	-2450
983.158	-356
983.240	-2147
983.322	-1013
983.404	-1150
983.486	-1483
983.568	-1338
983.649	-1704
983.731	-1040
983.813	-1648
983.894	-1030
983.976	-2340
984.058	-1393
984.139	-869
984.221	-1984
984.302	-398
984.384	-1353
984.465	-1513
984.547	-1634
984.628	-1799
984.710	-1128
984.791	-1461
984.872	-1407
984.954	-1214
985.035	-1154
985.116	-1395
985.198	-1962
985.279	180
985.360	-2327
985.441	-1470
985.522	-1561
985.604	-710
985.685	-3048
985.766	148
985.847	-571
985.928	-2651
986.009	-1386
986.090	-1283
986.171	-1208
986.252	-1353
986.333	-1278
986.414	-1230
986.495	-1969
986.576	-1409
986.656	-2198
986.737	-1332
986.818	-513
986.899	-2320
986.980	-1864
987.060	-998
987.141	-2330
987.222	-2252
987.302	-1281
987.383	-1259
987.464	-2152
987.544	-517
987.625	-1437
987.705	-1553
987.786	-848
987.866	-1310
987.947	-1401
988.027	-1279
988.108	-2143
988.188	-806
988.268	-1492
988.349	-147
988.429	-1338
988.509	-723
988.589	-1340
988.670	-2412
988.750	-730
988.830	-1333
988.910	-1370
988.990	-1532
989.070	-2013
989.151	-2039
989.231	-2498
989.311	-1904
989.391	-2010
989.471	-1391
989.551	-1541
989.631	-1643
989.711	-924
989.791	-1601
989.870	-2877
989.950	-647
990.030	-2505
990.110	-1244
990.190	-2110
990.269	-1871
990.349	-1915
990.429	-2254
990.509	-793
990.588	-2207
990.668	-1674
990.747	-1196
990.827	-1938
990.907	-651
990.986	-2186
991.066	-763
991.145	-1891
991.225	-1331
991.304	-2123
991.383	-1435
991.463	-2091
991.542	-1222
991.622	-1620
991.701	-1841
991.780	-2024
991.859	-2361
991.939	-2119
992.018	-1678
992.097	-1757
992.176	-882
992.256	-1808
992.335	-1162
992.414	-1878
992.493	-1591
992.572	-1841
992.651	129
992.730	-1024
992.809	-1435
992.888	-1832
992.967	-1959
993.046	-1980
993.125	-1848
993.203	-1598
993.282	-1713
993.361	-1771
993.440	-1110
993.519	-2320
993.597	-1049
993.676	-2834
993.755	-844
993.834	-1656
993.912	-2481
993.991	-1304
994.069	-2381
994.148	-2200
994.226	-1489
994.305	-1529
994.384	-1871
994.462	-429
994.540	-2278
994.619	-2175
994.697	-1761
994.776	-2393
994.854	-1268
994.932	-1905
995.011	-1671
995.089	-2175
995.167	-1384
995.245	-1527
995.324	-1966
995.402	-1280
995.480	-1890
995.558	-1075
995.636	-2581
995.714	-1810
995.792	-709
995.870	-1677
995.948	-2355
996.026	-2046
996.104	-2729
996.182	-1336
996.260	-1731
996.338	-2532
996.416	-1662
996.494	-2325
996.572	-971
996.649	-2454
996.727	-2000
996.805	-1335
996.883	-2217
996.960	-1858
997.038	-1779
997.116	-2410
997.193	-1995
997.271	-93
997.348	-1975
997.426	-2318
997.504	-2050
997.581	-2176
997.658	-931
997.736	-1973
997.813	-2244
997.891	-611
997.968	-1823
998.046	-1915
998.123	-874
998.200	-1200
998.277	-2401
998.355	-932
998.432	-2803
998.509	-2322
998.586	-731
998.663	-2096
998.741	-1648
998.818	-1901
998.895	-2293
998.972	-1590
999.049	-973
999.126	-2231
999.203	-981
999.280	-1677
999.357	-2003
999.434	-2469
999.511	-1818
999.587	-1948
999.664	-2426
999.741	-1573
999.818	-1689
999.895	-2077
999.971	-1330
1000.048	-1844
1000.125	-767
1000.202	-2391
1000.278	-1275
1000.355	-2443
1000.431	-1502
1000.508	-2112
1000.584	-2133
1000.661	-1692
1000.738	-2504
1000.814	-2190
1000.890	-1683
1000.967	-1922
1001.043	-1732
1001.120	-2476
1001.196	-1717
1001.272	-2335
1001.349	-2185
1001.425	-2119
1001.501	-1755
1001.577	-2457
1001.654	-1439
1001.730	-2157
1001.806	-1476
1001.882	-3051
1001.958	-1573
1002.034	-1686
1002.110	-1549
1002.186	-2037
1002.262	-2142
1002.338	-2922
1002.414	-1168
1002.490	-1175
1002.566	-2031
1002.642	-2642
1002.718	-1556
1002.794	-1959
1002.870	-1939
1002.945	-2487
1003.021	-1653
1003.097	-1784
1003.173	-540
1003.248	-2806
1003.324	-1994
1003.400	-2308
1003.475	-2343
1003.551	-2158
1003.626	-1750
1003.702	-2836
1003.777	-1758
1003.853	-1932
1003.928	-1968
1004.004	-2107
1004.079	-1229
1004.155	-1799
1004.230	-3469
1004.305	-1338
1004.381	-2765
1004.456	-1860
1004.531	-2183
1004.607	-2035
1004.682	-2756
1004.757	-1541
1004.832	-2515
1004.907	-2741
1004.982	-1930
1005.057	-1440
1005.133	-2205
1005.208	-1938
1005.283	-2300
1005.358	-1943
1005.433	-1992
1005.508	-2100
1005.583	-3204
1005.657	-2201
1005.732	-1367
1005.807	-2653
1005.882	-1872
1005.957	-1997
1006.032	-2090
1006.106	-1663
1006.181	-2301
1006.256	-1784
1006.331	-2596
1006.405	-2728
1006.480	-1540
1006.554	-2655
1006.629	-2209
1006.704	-2547
1006.778	-2016
1006.853	-2088
1006.927	-1942
1007.002	-2174
1007.076	-2132
1007.150	-2228
1007.225	-1669
1007.299	-2699
1007.373	-2119
1007.448	-2279
1007.522	-1343
1007.596	-1894
1007.671	-3107
1007.745	-2777
1007.819	-3046
1007.893	-2026
1007.967	-1343
1008.041	-3145
1008.115	-1496
1008.190	-2747
1008.264	-1949
1008.338	-2735
1008.412	-2657
1008.486	-2419
1008.560	-1805
1008.633	-2798
1008.707	-2294
1008.781	-2498
1008.855	-2547
1008.929	-3267
1009.003	-2447
1009.076	-2900
1009.150	-1880
1009.224	-2701
1009.298	-2092
1009.371	-2636
1009.445	-1650
1009.519	-1909
1009.592	-3638
1009.666	-2375
1009.739	-2094
1009.813	-3324
1009.886	-1272
1009.960	-3417
1010.033	-1498
1010.107	-2100
1010.180	-3256
1010.253	-2331
1010.327	-2321
1010.400	-2695
1010.473	-2247
1010.547	-1031
1010.620	-2345
1010.693	-2397
1010.766	-2659
1010.840	-1632
1010.913	-1918
1010.986	-2542
1011.059	-2453
1011.132	-2953
1011.205	-1978
1011.278	-2691
1011.351	-2693
1011.424	-1620
1011.497	-2853
1011.570	-2439
1011.643	-1806
1011.716	-3328
1011.789	-2611
1011.862	-2325
1011.934	-1649
1012.007	-3325
1012.080	-1904
1012.153	-2494
1012.225	-1204
1012.298	-2740
1012.371	-2078
1012.443	-2437
1012.516	-3321
1012.588	-1949
1012.661	-2321
1012.733	-3049
1012.806	-904
1012.879	-2610
1012.951	-1784
1013.023	-1928
1013.096	-1900
1013.168	-2428
1013.241	-1692
1013.313	-2379
1013.385	-2194
1013.458	-2721
1013.530	-2077
1013.602	-3232
1013.674	-1421
1013.746	-2721
1013.819	-2141
1013.891	-2842
1013.963	-2454
1014.035	-3231
1014.107	-2795
1014.179	-1745
1014.251	-2288
1014.323	-1938
1014.395	-1773
1014.467	-2515
1014.539	-1631
1014.611	-2402
1014.683	-1844
1014.754	-1696
1014.826	-2884
1014.898	-2031
1014.970	-2156
1015.042	-1745
1015.113	-1406
1015.185	-2434
1015.257	-2656
1015.328	-1566
1015.400	-1869
1015.471	-2645
1015.543	-2867
1015.615	-2232
1015.686	-2145
1015.757	-2377
1015.829	-1881
1015.901	-1961
1015.972	-2418
1016.043	-2567
1016.115	-1979
1016.186	-2609
1016.257	-2123
1016.328	-2289
1016.400	-1796
1016.471	-2659
1016.542	-1382
1016.613	-1481
1016.685	-2665
1016.756	-1750
1016.827	-2065
1016.898	-3390
1016.969	-2251
1017.040	-2011
1017.111	-1977
1017.182	-2597
1017.253	-2186
1017.324	-2368
1017.395	-1853
1017.466	-1484
1017.537	-2325
1017.608	-1624
1017.678	-1998
1017.749	-1831
1017.820	-1964
1017.891	-2002
1017.961	-2185
1018.032	-2268
1018.103	-1617
1018.173	-2749
1018.244	-2344
1018.315	-2302
1018.385	-1446
1018.456	-2943
1018.526	-2929
1018.597	-3050
1018.667	-1569
1018.738	-2554
1018.808	-2721
1018.878	-2597
1018.949	-2114
1019.019	-2256
1019.089	-2251
1019.160	-2161
1019.230	-2646
1019.300	-1854
1019.371	-2182
1019.441	-1912
1019.511	-2022
1019.581	-2508
1019.651	-1773
1019.721	-3450
1019.791	-1492
1019.861	-1571
1019.931	-1927
1020.001	-3165
1020.071	-2457
1020.141	-2972
1020.211	-2150
1020.281	-2867
1020.351	-2317
1020.421	-1712
1020.491	-1392
1020.560	-2469
1020.630	-2344
1020.700	-2269
1020.770	-2144
1020.839	-2647
1020.909	-2039
1020.979	-3124
1021.048	-2468
1021.118	-2760
1021.187	-1937
1021.257	-2354
1021.326	-1994
1021.396	-2974
1021.465	-1815
1021.535	-2069
1021.604	-2426
1021.674	-2251
1021.743	-2273
1021.812	-3034
1021.882	-2405
1021.951	-2614
1022.020	-2121
1022.089	-1932
1022.159	-2552
1022.228	-2115
1022.297	-2477
1022.366	-1885
1022.435	-1772
1022.504	-2452
1022.573	-2943
1022.642	-2007
1022.711	-2003
1022.781	-1870
1022.849	-2070
1022.918	-2761
1022.987	-2185
1023.056	-2693
1023.125	-2172
1023.194	-2582
1023.263	-1594
1023.331	-2812
1023.400	-2020
1023.469	-2957
1023.538	-2479
1023.606	-2495
1023.675	-1846
1023.744	-2584
1023.812	-2097
1023.881	-1691
1023.949	-1227
1024.018	-2349
1024.086	-2744
1024.155	-2879
1024.223	-2277
1024.292	-2233
1024.360	-1765
1024.429	-2596
1024.497	-2361
1024.565	-2189
1024.634	-1857
1024.702	-2055
1024.770	-2437
1024.838	-2198
1024.907	-1650
1024.975	-2185
1025.043	-2223
1025.111	-2641
1025.179	-1727
1025.247	-2401
1025.315	-1522
1025.383	-1919
1025.451	-2229
1025.519	-2298
1025.587	-2837
1025.655	-2202
1025.723	-1792
1025.791	-1963
1025.859	-2464
1025.927	-2049
1025.995	-1858
1026.062	-2598
1026.130	-1987
1026.198	-2588
1026.266	-2150
1026.333	-1711
1026.401	-917
1026.469	-2266
1026.536	-1939
1026.604	-2183
1026.671	-2542
1026.739	-1992
1026.806	-1529
1026.874	-2020
1026.941	-1868
1027.009	-2146
1027.076	-2844
1027.144	-1933
1027.211	-2316
1027.278	-2966
1027.345	-1106
1027.413	-1903
1027.480	-2097
1027.547	-2292
1027.614	-1858
1027.682	-2858
1027.749	-2294
1027.816	-2456
1027.883	-2225
1027.950	-1874
1028.017	-2262
1028.084	-1822
1028.151	-2288
1028.218	-2009
1028.285	-1634
1028.352	-2316
1028.419	-1932
1028.486	-1813
1028.553	-1954
1028.619	-2031
1028.686	-1926
1028.753	-2506
1028.820	-1771
1028.886	-2501
1028.953	-1933
1029.020	-1704
1029.086	-2023
1029.153	-2335
1029.220	-1736
1029.286	-2260
1029.353	-2209
1029.419	-3232
1029.486	-2622
1029.552	-2727
1029.619	-2738
1029.685	-3537
1029.751	-2520
1029.818	-2086
1029.884	-1415
1029.951	-909
1030.017	-2188
1030.083	-2183
1030.149	-2423
1030.216	-3212
1030.282	-2262
1030.348	-2173
1030.414	-2779
1030.480	-2367
1030.546	-2530
1030.612	-2172
1030.678	-3004
1030.744	-2195
1030.810	-2430
1030.876	-2726
1030.942	-1804
1031.008	-2646
1031.074	-2034
1031.140	-2205
1031.206	-1373
1031.272	-1774
1031.337	-1870
1031.403	-2249
1031.469	-1634
1031.534	-2320
1031.600	-1492
1031.666	-2236
1031.731	-2427
1031.797	-2556
1031.863	-2247
1031.928	-2773
1031.994	-2553
1032.059	-2725
1032.125	-1515
1032.190	-2723
1032.256	-2166
1032.321	-2382
1032.386	-2169
1032.452	-1814
1032.517	-2266
1032.582	-2251
1032.647	-2005
1032.713	-3046
1032.778	-2177
1032.843	-3334
1032.908	-2156
1032.974	-2836
1033.039	-2001
1033.104	-1874
1033.169	-2451
1033.234	-2356
1033.299	-2037
1033.364	-2248
1033.429	-2847
1033.494	-2514
1033.559	-2488
1033.624	-2630
1033.688	-1941
1033.753	-3151
1033.818	-3034
1033.883	-3198
1033.948	-2388
1034.013	-2484
1034.077	-2155
1034.142	-1952
1034.207	-3060
1034.271	-1993
1034.336	-1406
1034.400	-2851
1034.465	-1697
1034.530	-1660
1034.594	-2217
1034.658	-2505
1034.723	-2063
1034.787	-1995
1034.852	-2039
1034.916	-2581
1034.981	-2318
1035.045	-2231
1035.109	-2349
1035.173	-2007
1035.238	-2100
1035.302	-2437
1035.366	-1965
1035.430	-2174
1035.495	-2933
1035.559	-2602
1035.623	-2636
1035.687	-2694
1035.751	-2408
1035.815	-2099
1035.879	-2674
1035.943	-2490
1036.007	-2210
1036.071	-2190
1036.135	-2783
1036.198	-2456
1036.262	-2540
1036.326	-2450
1036.390	-2291
1036.454	-2564
1036.517	-1658
1036.581	-2063
1036.645	-2401
1036.709	-2056
1036.772	-2882
1036.836	-2210
1036.900	-2202
1036.963	-2399
1037.026	-2628
1037.090	-2949
1037.154	-1906
1037.217	-2701
1037.280	-2458
1037.344	-2768
1037.407	-2123
1037.471	-2294
1037.534	-2499
1037.597	-2230
1037.661	-2230
1037.724	-3461
1037.787	-2953
1037.850	-2590
1037.913	-2582
1037.977	-1690
1038.040	-2205
1038.103	-3098
1038.166	-2671
1038.229	-2315
1038.292	-2116
1038.355	-2109
1038.418	-2586
1038.481	-1849
1038.544	-2737
1038.607	-2155
1038.670	-2313
1038.732	-2766
1038.795	-3622
1038.858	-2304
1038.921	-2641
1038.984	-1967
1039.046	-2766
1039.109	-2780
1039.172	-1939
1039.234	-2934
1039.297	-2531
1039.360	-2983
1039.422	-2901
1039.485	-2862
1039.547	-2409
1039.610	-2510
1039.672	-2194
1039.734	-2478
1039.797	-1511
1039.859	-2481
1039.922	-2254
1039.984	-3211
1040.046	-2520
1040.109	-2509
1040.171	-2835
1040.233	-2257
1040.295	-2347
1040.358	-2181
1040.420	-1904
1040.482	-2589
1040.544	-2760
1040.606	-3016
1040.668	-3315
1040.730	-2538
1040.792	-2175
1040.854	-2711
1040.916	-1942
1040.978	-2539
1041.040	-1092
1041.102	-2305
1041.164	-3097
1041.225	-2539
1041.287	-2602
1041.349	-2606
1041.411	-2581
1041.472	-2889
1041.534	-2402
1041.596	-3601
1041.657	-2120
1041.719	-2186
1041.781	-1513
1041.842	-2796
1041.904	-2321
1041.965	-1996
1042.027	-2030
1042.088	-3112
1042.150	-1967
1042.211	-2976
1042.272	-2108
1042.334	-2704
1042.395	-2577
1042.456	-3539
1042.518	-2596
1042.579	-2365
1042.640	-2729
1042.701	-2483
1042.763	-2152
1042.824	-2419
1042.885	-3026
1042.946	-2776
1043.007	-2093
1043.068	-2784
1043.129	-1904
1043.190	-2408
1043.251	-2237
1043.312	-3081
1043.373	-2180
1043.434	-2945
1043.495	-2485
1043.556	-1868
1043.616	-1582
1043.677	-2311
1043.738	-2317
1043.799	-2961
1043.859	-2268
1043.920	-3058
1043.981	-2370
1044.041	-3385
1044.102	-2467
1044.162	-2020
1044.223	-2897
1044.284	-2548
1044.344	-2228
1044.405	-2834
1044.465	-1830
1044.525	-2823
1044.586	-2327
1044.646	-2951
1044.707	-1422
1044.767	-3052
1044.827	-2160
1044.887	-1872
1044.948	-1943
1045.008	-2132
1045.068	-2399
1045.128	-2211
1045.188	-2749
1045.249	-1645
1045.309	-2059
1045.369	-2873
1045.429	-2247
1045.489	-2218
1045.549	-1702
1045.609	-2743
1045.669	-2492
1045.729	-2245
1045.789	-2188
1045.848	-2563
1045.908	-2319
1045.968	-2239
1046.028	-2471
1046.088	-2087
1046.147	-1605
1046.207	-2382
1046.267	-2183
1046.326	-2462
1046.386	-1985
1046.446	-1690
1046.505	-1525
1046.565	-1942
1046.624	-1834
1046.684	-1070
1046.743	-458
1046.803	-1333
1046.862	-1133
1046.922	0
