'Start Wavelength	183.907
'End Wavelength	1046.922
'Gate Delay	5.000
'Gate Width (ms)	1.050
'Laser Output Level	0.000
'X Position	0.000
'Y Position	0.000
'Z Position	0.000
'Grid Point Number	1.000
'Shot Number	100.000
183.907	-12.000
183.977	214.000
184.047	350
184.116	377
184.186	-210
184.256	-201
184.325	-380
184.395	19
184.465	1033
184.534	-314
184.604	-144
184.674	582
184.743	-221
184.813	-134
184.883	-360
184.952	80
185.022	-689
185.092	290
185.161	-174
185.231	-110
185.301	189
185.370	748
185.440	-433
185.509	-364
185.579	-142
185.649	148
185.718	-102
185.788	968
185.857	-67
185.927	-80
185.996	-556
186.066	-143
186.136	-609
186.205	132
186.275	-7
186.344	183
186.414	256
186.483	-694
186.553	847
186.622	-7
186.692	812
186.761	-4
186.831	345
186.900	507
186.970	293
187.039	2
187.109	378
187.178	148
187.248	192
187.317	275
187.387	-679
187.456	-253
187.526	-14
187.595	-73
187.664	-189
187.734	291
187.803	-236
187.873	375
187.942	220
188.012	-90
188.081	-286
188.150	-40
188.220	632
188.289	50
188.358	-96
188.428	150
188.497	-1035
188.567	54
188.636	123
188.705	-154
188.775	234
188.844	-660
188.913	623
188.983	-164
189.052	423
189.121	-323
189.191	74
189.260	454
189.329	41
189.399	-33
189.468	125
189.537	-339
189.606	327
189.676	275
189.745	-772
189.814	-9
189.883	-102
189.953	59
190.022	-83
190.091	19
190.161	-373
190.230	308
190.299	-348
190.368	650
190.437	-201
190.507	937
190.576	-129
190.645	61
190.714	-146
190.783	-486
190.853	874
190.922	460
190.991	173
191.060	111
191.129	-1092
191.198	729
191.268	359
191.337	771
191.406	339
191.475	430
191.544	-356
191.613	108
191.682	-604
191.752	242
191.821	-507
191.890	-130
191.959	189
192.028	790
192.097	389
192.166	71
192.235	-47
192.304	274
192.373	-249
192.442	101
192.511	-153
192.580	466
192.650	664
192.719	-579
192.788	188
192.857	640
192.926	-518
192.995	-124
193.064	751
193.133	596
193.202	-352
193.271	679
193.340	-811
193.409	453
193.478	253
193.547	218
193.615	513
193.684	631
193.753	-557
193.822	426
193.891	174
193.960	389
194.029	285
194.098	-310
194.167	-807
194.236	619
194.305	-898
194.374	103
194.443	189
194.512	497
194.580	969
194.649	721
194.718	510
194.787	169
194.856	-615
194.925	640
194.994	112
195.062	342
195.131	172
195.200	405
195.269	-529
195.338	110
195.407	69
195.475	725
195.544	533
195.613	65
195.682	264
195.751	897
195.819	84
195.888	423
195.957	886
196.026	328
196.094	466
196.163	345
196.232	1217
196.301	67
196.369	-26
196.438	-59
196.507	505
196.576	4
196.644	-218
196.713	-78
196.782	-385
196.850	513
196.919	-786
196.988	485
197.056	291
197.125	643
197.194	-55
197.262	93
197.331	309
197.400	482
197.468	-491
197.537	95
197.606	15
197.674	1254
197.743	353
197.812	-124
197.880	323
197.949	-165
198.017	-198
198.086	-823
198.155	9
198.223	678
198.292	157
198.360	-396
198.429	-392
198.497	297
198.566	-200
198.635	1114
198.703	1102
198.772	445
198.840	-108
198.909	326
198.977	216
199.046	-63
199.114	591
199.183	122
199.251	456
199.320	-230
199.388	-573
199.457	-281
199.525	140
199.594	27
199.662	-450
199.731	399
199.799	618
199.867	464
199.936	-178
200.004	421
200.073	520
200.141	53
200.210	327
200.278	538
200.346	754
200.415	329
200.483	503
200.552	232
200.620	-99
200.688	267
200.757	547
200.825	792
200.893	-441
200.962	-426
201.030	16
201.098	-337
201.167	171
201.235	-138
201.303	-149
201.372	911
201.440	453
201.508	68
201.577	366
201.645	544
201.713	-54
201.781	437
201.850	601
201.918	633
201.986	113
202.055	577
202.123	-86
202.191	141
202.259	-465
202.327	-94
202.396	164
202.464	282
202.532	730
202.600	847
202.669	467
202.737	-219
202.805	-326
202.873	191
202.941	307
203.009	-132
203.078	197
203.146	830
203.214	-412
203.282	-390
203.350	723
203.418	-834
203.487	890
203.555	-335
203.623	537
203.691	491
203.759	-250
203.827	-123
203.895	-375
203.963	100
204.031	0
204.099	-262
204.168	341
204.236	336
204.304	469
204.372	93
204.440	734
204.508	537
204.576	-720
204.644	510
204.712	-458
204.780	218
204.848	49
204.916	-337
204.984	172
205.052	389
205.120	99
205.188	266
205.256	361
205.324	85
205.392	68
205.460	407
205.528	-515
205.596	1014
205.664	19
205.732	-889
205.799	677
205.867	581
205.935	20
206.003	417
206.071	111
206.139	-197
206.207	799
206.275	759
206.343	-11
206.411	28
206.478	580
206.546	645
206.614	100
206.682	403
206.750	-50
206.818	605
206.885	274
206.953	-569
207.021	772
207.089	689
207.157	-234
207.225	933
207.292	-515
207.360	11
207.428	-175
207.496	-109
207.563	168
207.631	170
207.699	138
207.767	633
207.834	-192
207.902	892
207.970	149
208.038	-49
208.105	-392
208.173	-6
208.241	501
208.309	644
208.376	313
208.444	454
208.512	255
208.579	-534
208.647	671
208.715	1842
208.782	-272
208.850	906
208.918	114
208.985	121
209.053	-67
209.120	448
209.188	-285
209.256	-196
209.323	-134
209.391	135
209.459	594
209.526	956
209.594	-118
209.661	554
209.729	122
209.796	511
209.864	629
209.932	-668
209.999	861
210.067	756
210.134	695
210.202	-272
210.269	1140
210.337	1410
210.404	58
210.472	346
210.539	1221
210.607	539
210.674	318
210.742	646
210.809	268
210.877	381
210.944	1104
211.012	-145
211.079	1759
211.146	413
211.214	310
211.281	482
211.349	1007
211.416	833
211.484	612
211.551	554
211.618	273
211.686	802
211.753	-474
211.821	456
211.888	660
211.955	423
212.023	751
212.090	-88
212.157	66
212.225	596
212.292	497
212.359	676
212.427	2144
212.494	1420
212.561	1224
212.629	452
212.696	-487
212.763	816
212.831	166
212.898	1430
212.965	24
213.032	1234
213.100	532
213.167	943
213.234	1158
213.301	212
213.369	314
213.436	522
213.503	-131
213.570	689
213.638	297
213.705	614
213.772	-563
213.839	-353
213.906	850
213.973	792
214.041	-222
214.108	771
214.175	653
214.242	291
214.309	316
214.376	952
214.444	406
214.511	241
214.578	660
214.645	1468
214.712	1008
214.779	1039
214.846	-549
214.913	241
214.980	1247
215.048	812
215.115	987
215.182	608
215.249	-624
215.316	61
215.383	1398
215.450	874
215.517	337
215.584	856
215.651	481
215.718	1234
215.785	1125
215.852	394
215.919	517
215.986	692
216.053	910
216.120	19
216.187	839
216.254	828
216.321	163
216.388	1054
216.455	710
216.522	494
216.589	1362
216.656	1470
216.722	482
216.789	909
216.856	452
216.923	915
216.990	922
217.057	1335
217.124	951
217.191	702
217.258	1883
217.324	318
217.391	1561
217.458	858
217.525	226
217.592	507
217.659	173
217.725	1447
217.792	254
217.859	1862
217.926	-26
217.993	1042
218.059	1626
218.126	143
218.193	-166
218.260	982
218.327	530
218.393	402
218.460	219
218.527	-296
218.594	662
218.660	783
218.727	1040
218.794	100
218.860	1465
218.927	1048
218.994	-202
219.061	-35
219.127	403
219.194	1326
219.261	613
219.327	478
219.394	901
219.461	421
219.527	154
219.594	490
219.661	410
219.727	-723
219.794	1459
219.860	601
219.927	923
219.994	1099
220.060	1228
220.127	2313
220.193	1094
220.260	437
220.326	1446
220.393	1083
220.460	1946
220.526	1059
220.593	715
220.659	2527
220.726	1136
220.792	1732
220.859	777
220.925	3111
220.992	1970
221.058	2930
221.125	2063
221.191	1570
221.258	575
221.324	1140
221.391	646
221.457	125
221.524	-127
221.590	1219
221.657	1303
221.723	812
221.789	913
221.856	1946
221.922	71
221.989	2046
222.055	754
222.121	-306
222.188	1937
222.254	840
222.321	1112
222.387	680
222.453	158
222.520	548
222.586	-12
222.652	915
222.719	-35
222.785	1224
222.851	1238
222.918	279
222.984	815
223.050	640
223.116	-940
223.183	1038
223.249	76
223.315	-326
223.382	995
223.448	800
223.514	34
223.580	600
223.647	227
223.713	899
223.779	758
223.845	514
223.911	176
223.978	205
224.044	966
224.110	934
224.176	559
224.242	747
224.309	-567
224.375	441
224.441	211
224.507	539
224.573	-375
224.639	1604
224.705	404
224.772	735
224.838	585
224.904	1625
224.970	-38
225.036	884
225.102	-539
225.168	892
225.234	1364
225.300	-54
225.366	-15
225.432	740
225.499	656
225.565	79
225.631	472
225.697	544
225.763	909
225.829	925
225.895	1230
225.961	1467
226.027	162
226.093	762
226.159	1941
226.225	2063
226.291	3713
226.357	4746
226.423	3137
226.489	2048
226.554	1488
226.620	1989
226.686	1554
226.752	2050
226.818	2999
226.884	6059
226.950	5634
227.016	2393
227.082	2298
227.148	1413
227.214	2194
227.279	1148
227.345	1590
227.411	1269
227.477	1435
227.543	3239
227.609	3348
227.674	2746
227.740	1173
227.806	1312
227.872	646
227.938	1512
228.003	1274
228.069	177
228.135	-76
228.201	497
228.267	1228
228.332	708
228.398	266
228.464	1173
228.530	831
228.595	508
228.661	-95
228.727	773
228.792	1431
228.858	186
228.924	-1681
228.990	1390
229.055	7
229.121	1864
229.187	1346
229.252	191
229.318	1218
229.384	966
229.449	1228
229.515	-842
229.581	-708
229.646	1776
229.712	211
229.777	1171
229.843	717
229.909	2098
229.974	2191
230.040	1677
230.105	692
230.171	1061
230.236	1567
230.302	1220
230.368	1340
230.433	1018
230.499	923
230.564	1236
230.630	408
230.695	1113
230.761	1022
230.826	-351
230.892	1325
230.957	753
231.023	458
231.088	745
231.154	1341
231.219	1072
231.284	803
231.350	2114
231.415	-532
231.481	857
231.546	560
231.612	909
231.677	540
231.742	-725
231.808	2073
231.873	260
231.939	181
232.004	2275
232.069	2238
232.135	421
232.200	304
232.265	1050
232.331	14
232.396	280
232.461	97
232.527	-451
232.592	582
232.657	639
232.723	798
232.788	708
232.853	1226
232.918	1241
232.984	0
233.049	324
233.114	685
233.179	1316
233.245	1544
233.310	1103
233.375	174
233.440	1413
233.506	618
233.571	493
233.636	1089
233.701	1409
233.766	591
233.832	1163
233.897	277
233.962	-664
234.027	1364
234.092	337
234.157	789
234.222	767
234.288	1589
234.353	1560
234.418	1816
234.483	2401
234.548	1916
234.613	1741
234.678	356
234.743	483
234.808	2994
234.873	918
234.938	2047
235.004	824
235.069	1046
235.134	566
235.199	1820
235.264	1465
235.329	-274
235.394	1358
235.459	1767
235.524	511
235.589	1273
235.654	838
235.719	-254
235.784	2242
235.849	501
235.913	883
235.978	1098
236.043	784
236.108	1063
236.173	56
236.238	1373
236.303	603
236.368	398
236.433	1707
236.498	820
236.563	1636
236.627	2936
236.692	7982
236.757	7492
236.822	3673
236.887	1280
236.952	3054
237.017	799
237.081	2828
237.146	1049
237.211	5152
237.276	7303
237.341	12010
237.405	6594
237.470	3656
237.535	2338
237.600	1403
237.664	1015
237.729	95
237.794	452
237.859	2323
237.923	1437
237.988	667
238.053	1909
238.118	1385
238.182	3110
238.247	4058
238.312	470
238.376	1863
238.441	-348
238.506	1887
238.570	-53
238.635	2692
238.700	1091
238.764	466
238.829	1160
238.893	788
238.958	2210
239.023	1748
239.087	363
239.152	1316
239.216	1087
239.281	1897
239.346	282
239.410	874
239.475	696
239.539	2919
239.604	1263
239.668	1652
239.733	811
239.797	2762
239.862	5528
239.926	3526
239.991	1464
240.055	1731
240.120	822
240.184	1622
240.249	202
240.313	436
240.378	-80
240.442	1539
240.507	2829
240.571	995
240.635	709
240.700	1213
240.764	954
240.829	346
240.893	-39
240.957	700
241.022	1277
241.086	2601
241.151	190
241.215	44
241.279	982
241.344	606
241.408	2160
241.472	1616
241.537	2002
241.601	1483
241.665	-175
241.730	1393
241.794	2498
241.858	1160
241.922	709
241.987	2300
242.051	1034
242.115	555
242.179	1173
242.244	952
242.308	1588
242.372	1941
242.436	1059
242.501	1387
242.565	402
242.629	228
242.693	2427
242.757	535
242.822	938
242.886	1437
242.950	1438
243.014	456
243.078	1459
243.142	1480
243.206	529
243.271	1736
243.335	648
243.399	1987
243.463	2580
243.527	7843
243.591	2811
243.655	2069
243.719	1157
243.783	2707
243.847	1609
243.911	2262
243.975	1995
244.040	1050
244.104	2806
244.168	1274
244.232	924
244.296	1959
244.360	1477
244.424	975
244.488	834
244.552	811
244.615	519
244.679	1386
244.743	782
244.807	785
244.871	1130
244.935	1056
244.999	292
245.063	38
245.127	1272
245.191	1233
245.255	592
245.319	1542
245.383	-262
245.446	2266
245.510	-74
245.574	1244
245.638	1994
245.702	218
245.766	2555
245.829	1968
245.893	765
245.957	365
246.021	1502
246.085	1051
246.149	1849
246.212	4803
246.276	5594
246.340	2261
246.404	1855
246.467	2633
246.531	1106
246.595	2734
246.659	2176
246.722	595
246.786	2067
246.850	2167
246.913	2820
246.977	763
247.041	1522
247.104	1219
247.168	1517
247.232	4023
247.295	6801
247.359	4557
247.423	1820
247.486	3857
247.550	2678
247.614	1508
247.677	2123
247.741	1793
247.804	1292
247.868	1906
247.932	3243
247.995	8016
248.059	2597
248.122	1682
248.186	3173
248.249	4378
248.313	10177
248.376	14057
248.440	9511
248.503	3058
248.567	4182
248.630	3538
248.694	5488
248.757	8371
248.821	14091
248.884	10339
248.948	7471
249.011	10351
249.075	14948
249.138	13074
249.202	6456
249.265	2854
249.328	3858
249.392	3307
249.455	3857
249.519	2126
249.582	2909
249.645	4158
249.709	2947
249.772	1611
249.835	2183
249.899	1778
249.962	2375
250.025	1632
250.089	4958
250.152	7176
250.215	3829
250.279	2330
250.342	2264
250.405	2177
250.468	1609
250.532	2288
250.595	3619
250.658	7189
250.721	14000
250.785	5966
250.848	5587
250.911	2723
250.974	2896
251.038	4000
251.101	8057
251.164	4657
251.227	5083
251.290	3732
251.354	3626
251.417	11778
251.480	12560
251.543	7806
251.606	19601
251.669	17269
251.732	7636
251.795	9675
251.859	8215
251.922	12973
251.985	10012
252.048	5559
252.111	3614
252.174	2980
252.237	7174
252.300	14536
252.363	11590
252.426	20796
252.489	9552
252.552	5548
252.615	2757
252.678	5060
252.741	10609
252.804	11230
252.867	18864
252.930	14019
252.993	8441
253.056	5826
253.119	4096
253.182	2103
253.245	3534
253.308	3780
253.371	2535
253.434	3157
253.497	3335
253.559	7325
253.622	5375
253.685	4615
253.748	5940
253.811	3175
253.874	3874
253.937	2569
254.000	2445
254.062	5061
254.125	8117
254.188	6962
254.251	4418
254.314	2357
254.376	3847
254.439	5303
254.502	4333
254.565	4901
254.628	10038
254.690	4441
254.753	2914
254.816	2080
254.878	2769
254.941	5135
255.004	5722
255.067	2215
255.129	2317
255.192	2275
255.255	421
255.317	2002
255.380	1898
255.443	748
255.505	1454
255.568	510
255.631	589
255.693	1253
255.756	-127
255.819	1694
255.881	264
255.944	1543
256.006	1473
256.069	1129
256.132	341
256.194	2043
256.257	1572
256.319	1704
256.382	1170
256.444	2947
256.507	1494
256.569	1224
256.632	1806
256.694	568
256.757	5167
256.819	14396
256.882	6370
256.944	3617
257.007	3227
257.069	1604
257.132	1391
257.194	2020
257.257	1641
257.319	1121
257.381	1153
257.444	4226
257.506	15486
257.569	18223
257.631	8437
257.693	5554
257.756	2565
257.818	1504
257.880	1132
257.943	2149
258.005	221
258.067	1455
258.130	901
258.192	1449
258.254	2742
258.317	2535
258.379	1635
258.441	3613
258.503	4468
258.566	2418
258.628	4067
258.690	1263
258.753	2353
258.815	3096
258.877	1307
258.939	1451
259.001	1661
259.064	1061
259.126	968
259.188	1692
259.250	2066
259.312	1395
259.375	2717
259.437	2182
259.499	754
259.561	1753
259.623	1205
259.685	1095
259.747	1260
259.809	3352
259.872	4101
259.934	7192
259.996	8256
260.058	3808
260.120	411
260.182	1236
260.244	1206
260.306	875
260.368	1301
260.430	259
260.492	2087
260.554	4892
260.616	2321
260.678	5318
260.740	4631
260.802	1721
260.864	2063
260.926	115
260.988	1595
261.050	1174
261.112	2959
261.174	7788
261.236	3482
261.298	1951
261.359	1650
261.421	3798
261.483	753
261.545	1659
261.607	908
261.669	1375
261.731	1599
261.793	3762
261.854	1742
261.916	2646
261.978	432
262.040	1436
262.102	1195
262.164	461
262.225	1223
262.287	1587
262.349	3216
262.411	3476
262.472	1068
262.534	1542
262.596	2604
262.658	1373
262.719	6
262.781	2083
262.843	978
262.904	2022
262.966	1494
263.028	1259
263.090	3386
263.151	9403
263.213	5273
263.275	4472
263.336	1634
263.398	1909
263.459	933
263.521	902
263.583	3159
263.644	2315
263.706	639
263.767	-176
263.829	1181
263.891	533
263.952	-8
264.014	-32
264.075	718
264.137	4588
264.198	2843
264.260	471
264.321	331
264.383	1914
264.444	6874
264.506	2730
264.567	2148
264.629	3597
264.690	4789
264.752	2345
264.813	1665
264.875	801
264.936	1372
264.998	1669
265.059	613
265.120	1096
265.182	806
265.243	7221
265.305	8432
265.366	1666
265.427	343
265.489	1875
265.550	-59
265.611	458
265.673	883
265.734	182
265.795	1157
265.857	964
265.918	-562
265.979	2246
266.040	11455
266.102	12154
266.163	3970
266.224	2513
266.286	1887
266.347	275
266.408	-100
266.469	1041
266.530	1313
266.592	865
266.653	1990
266.714	4469
266.775	1374
266.836	1458
266.898	311
266.959	1198
267.020	800
267.081	1518
267.142	295
267.203	1238
267.264	-182
267.326	1422
267.387	375
267.448	-769
267.509	1010
267.570	743
267.631	327
267.692	520
267.753	1085
267.814	433
267.875	1532
267.936	4650
267.997	2815
268.058	2345
268.119	1631
268.180	715
268.241	202
268.302	637
268.363	358
268.424	708
268.485	999
268.546	501
268.607	444
268.668	52
268.729	779
268.790	784
268.851	1100
268.912	2797
268.972	3718
269.033	1651
269.094	348
269.155	1105
269.216	650
269.277	430
269.338	254
269.398	1256
269.459	689
269.520	2211
269.581	1459
269.642	2439
269.702	1543
269.763	1217
269.824	834
269.885	1208
269.945	2944
270.006	1466
270.067	-292
270.128	359
270.188	-166
270.249	289
270.310	328
270.370	952
270.431	1027
270.492	692
270.553	523
270.613	1985
270.674	4871
270.734	2815
270.795	839
270.856	2158
270.916	1105
270.977	1151
271.038	1918
271.098	435
271.159	2495
271.219	2226
271.280	589
271.340	1119
271.401	344
271.462	1328
271.522	1890
271.583	1134
271.643	1977
271.704	1275
271.764	1474
271.825	4219
271.885	14087
271.946	19135
272.006	6971
272.066	7859
272.127	14382
272.187	6364
272.248	2778
272.308	3295
272.369	9150
272.429	6381
272.489	3918
272.550	4535
272.610	4562
272.671	3935
272.731	1342
272.791	2366
272.852	1669
272.912	2497
272.972	1279
273.033	968
273.093	1256
273.153	3065
273.214	1866
273.274	1162
273.334	4958
273.394	12731
273.455	6385
273.515	5336
273.575	10703
273.635	4828
273.696	5736
273.756	12158
273.816	6147
273.876	2778
273.936	2197
273.997	4016
274.057	1821
274.117	1541
274.177	2966
274.237	14766
274.297	13707
274.358	6424
274.418	10013
274.478	8465
274.538	2748
274.598	1929
274.658	3377
274.718	4812
274.778	3079
274.838	2403
274.898	1822
274.958	5900
275.018	10708
275.078	9470
275.138	3837
275.198	1449
275.258	2123
275.318	1650
275.378	3311
275.438	5043
275.498	2964
275.558	3554
275.618	8098
275.678	9329
275.738	6465
275.798	4909
275.858	2438
275.918	1405
275.978	2166
276.038	1637
276.098	1572
276.157	2625
276.217	10952
276.277	5386
276.337	3357
276.397	2453
276.457	2013
276.517	1124
276.576	775
276.636	678
276.696	2280
276.756	6239
276.815	4634
276.875	2058
276.935	1449
276.995	1540
277.055	1219
277.114	874
277.174	1479
277.234	9127
277.293	4063
277.353	2076
277.413	1567
277.472	1658
277.532	1997
277.592	1939
277.651	4996
277.711	10550
277.771	2997
277.830	12190
277.890	11396
277.950	6460
278.009	17648
278.069	8651
278.128	7060
278.188	11199
278.248	4350
278.307	9615
278.367	7555
278.426	2562
278.486	1331
278.545	1471
278.605	875
278.664	602
278.724	1368
278.783	4570
278.843	13181
278.902	4691
278.962	2390
279.021	1778
279.081	3402
279.140	2359
279.199	2282
279.259	3078
279.318	3010
279.378	3670
279.437	4706
279.496	14904
279.556	38765
279.615	32070
279.675	9734
279.734	5539
279.793	6772
279.853	14147
279.912	5911
279.971	3020
280.031	2591
280.090	5334
280.149	10553
280.208	6138
280.268	23576
280.327	27712
280.386	7043
280.445	6356
280.505	6402
280.564	3423
280.623	2271
280.682	4467
280.742	8066
280.801	2967
280.860	1509
280.919	1013
280.978	1586
281.037	609
281.097	848
281.156	1840
281.215	1346
281.274	1641
281.333	7996
281.392	7192
281.451	1383
281.510	1526
281.569	908
281.628	620
281.688	1027
281.747	1565
281.806	1124
281.865	1535
281.924	681
281.983	842
282.042	-247
282.101	261
282.160	1264
282.219	596
282.278	1127
282.337	5023
282.396	4503
282.454	929
282.513	1627
282.572	8380
282.631	5972
282.690	1527
282.749	928
282.808	2807
282.867	1064
282.926	2012
282.985	1515
283.043	740
283.102	662
283.161	1409
283.220	2818
283.279	9791
283.338	3716
283.396	1805
283.455	1734
283.514	1732
283.573	3860
283.631	3098
283.690	1595
283.749	1563
283.808	4000
283.866	5480
283.925	907
283.984	2329
284.043	1976
284.101	3122
284.160	2999
284.219	2957
284.277	2498
284.336	4319
284.395	12418
284.453	11065
284.512	4374
284.570	5586
284.629	5737
284.688	6436
284.746	6259
284.805	7167
284.863	9037
284.922	12389
284.981	14621
285.039	20666
285.098	32902
285.156	61664
285.215	74716
285.273	71180
285.332	71480
285.390	45310
285.449	28388
285.507	19936
285.566	12938
285.624	10795
285.683	8309
285.741	6798
285.799	6621
285.858	6307
285.916	4178
285.975	3691
286.033	3247
286.091	3073
286.150	2093
286.208	2505
286.267	2602
286.325	3324
286.383	4449
286.442	5214
286.500	2348
286.558	2437
286.616	1416
286.675	2861
286.733	3166
286.791	2587
286.850	2826
286.908	2966
286.966	6539
287.024	2745
287.083	2228
287.141	1391
287.199	2048
287.257	3421
287.315	2030
287.374	2702
287.432	6408
287.490	5189
287.548	2521
287.606	1958
287.664	878
287.723	2623
287.781	2872
287.839	1361
287.897	1830
287.955	1862
288.013	2733
288.071	4832
288.129	17887
288.187	59395
288.245	30494
288.303	9750
288.361	4806
288.419	2923
288.477	2657
288.535	1372
288.593	2145
288.651	1111
288.709	1173
288.767	1296
288.825	781
288.883	1231
288.941	1347
288.999	839
289.057	1408
289.115	566
289.173	147
289.231	843
289.289	608
289.346	1847
289.404	1755
289.462	3383
289.520	2894
289.578	1598
289.636	271
289.694	1038
289.751	769
289.809	473
289.867	1074
289.925	1425
289.983	1781
290.040	1826
290.098	764
290.156	2083
290.214	863
290.271	1131
290.329	1527
290.387	1030
290.444	550
290.502	186
290.560	990
290.617	917
290.675	774
290.733	690
290.790	1467
290.848	790
290.906	1124
290.963	1037
291.021	1543
291.078	1959
291.136	564
291.194	4563
291.251	11174
291.309	3777
291.366	1437
291.424	1185
291.481	1431
291.539	282
291.596	1444
291.654	556
291.711	1211
291.769	820
291.826	1946
291.884	2304
291.941	544
291.999	251
292.056	658
292.114	2559
292.171	1526
292.228	2047
292.286	1205
292.343	2622
292.401	4029
292.458	2451
292.515	615
292.573	2012
292.630	1310
292.687	2448
292.745	1126
292.802	1662
292.859	6093
292.917	11690
292.974	7791
293.031	2571
293.089	1006
293.146	1306
293.203	1048
293.260	508
293.318	920
293.375	3012
293.432	1573
293.489	1768
293.546	672
293.604	2463
293.661	5914
293.718	18955
293.775	10935
293.832	5148
293.889	3519
293.947	2728
294.004	1836
294.061	2055
294.118	5131
294.175	12355
294.232	14347
294.289	6925
294.346	2888
294.403	3368
294.460	1847
294.517	1929
294.574	1952
294.631	1715
294.688	1819
294.745	4973
294.802	19458
294.859	24083
294.916	9880
294.973	4146
295.030	3352
295.087	3889
295.144	2278
295.201	2528
295.258	1474
295.315	1979
295.372	7261
295.429	15716
295.486	7686
295.542	4853
295.599	7673
295.656	15522
295.713	11002
295.770	15302
295.827	6436
295.883	3805
295.940	2224
295.997	4364
296.054	4071
296.111	3129
296.167	2031
296.224	1849
296.281	2099
296.338	1688
296.394	1430
296.451	1511
296.508	6445
296.564	13166
296.621	9433
296.678	18273
296.734	28355
296.791	12291
296.848	6175
296.904	5135
296.961	12767
297.018	19006
297.074	13466
297.131	6640
297.187	3942
297.244	4633
297.301	14818
297.357	30202
297.414	12689
297.470	5261
297.527	2878
297.583	3374
297.640	2691
297.696	2557
297.753	2107
297.809	2353
297.866	760
297.922	1275
297.979	1679
298.035	1851
298.092	2916
298.148	10059
298.204	10886
298.261	4584
298.317	8289
298.374	21990
298.430	14770
298.486	6352
298.543	3974
298.599	4641
298.656	6170
298.712	8138
298.768	12696
298.824	9372
298.881	3614
298.937	2484
298.993	2503
299.050	2839
299.106	2753
299.162	2755
299.218	3190
299.275	2480
299.331	2395
299.387	4743
299.443	18611
299.500	24715
299.556	11426
299.612	6659
299.668	4624
299.724	6356
299.780	7918
299.837	3970
299.893	4300
299.949	16361
300.005	20965
300.061	17513
300.117	30142
300.173	16407
300.229	6973
300.285	7606
300.341	10043
300.397	6855
300.453	4413
300.510	2812
300.566	3558
300.622	4316
300.678	11405
300.734	23031
300.790	19373
300.845	20259
300.901	13971
300.957	19817
301.013	15367
301.069	6647
301.125	4142
301.181	4236
301.237	3575
301.293	2184
301.349	2823
301.405	2925
301.461	4570
301.516	6903
301.572	4274
301.628	6845
301.684	6629
301.740	8018
301.796	14937
301.851	10046
301.907	13781
301.963	13802
302.019	20879
302.074	50369
302.130	57132
302.186	33501
302.242	14358
302.297	8427
302.353	7073
302.409	12400
302.464	11282
302.520	9391
302.576	18685
302.631	24357
302.687	15732
302.743	7735
302.798	4069
302.854	2862
302.910	3158
302.965	3739
303.021	7248
303.076	8422
303.132	8497
303.187	12766
303.243	6507
303.299	3531
303.354	2112
303.410	2855
303.465	2519
303.521	2252
303.576	2432
303.632	2979
303.687	5651
303.743	16977
303.798	17451
303.853	7870
303.909	4745
303.964	4005
304.020	6324
304.075	9919
304.130	7579
304.186	13105
304.241	15892
304.297	13265
304.352	6768
304.358	6490
304.407	4242
304.449	3988
304.463	3906
304.518	4150
304.539	3811
304.573	3264
304.629	3036
304.630	3053
304.684	4001
304.720	9346
304.739	12018
304.794	21732
304.811	18687
304.850	11526
304.902	5192
304.905	4778
304.960	3002
304.992	2853
305.015	2743
305.071	3555
305.083	3602
305.126	3759
305.173	2577
305.181	2397
305.236	2039
305.264	2326
305.292	2577
305.347	3121
305.354	3225
305.402	3822
305.445	3271
305.457	3125
305.512	4067
305.535	4189
305.567	4352
305.622	4238
305.626	4311
305.678	6353
305.716	13344
305.733	15907
305.788	19113
305.807	16906
305.843	13190
305.897	15776
305.898	15795
305.953	17341
305.988	12061
306.008	9219
306.063	6617
306.078	5933
306.118	4149
306.168	2613
306.173	2473
306.228	2127
306.259	2046
306.283	2056
306.338	1506
306.349	1488
306.393	1271
306.440	1751
306.448	1873
306.503	2722
306.530	2655
306.558	2740
306.613	5928
306.620	6451
306.668	10132
306.711	14546
306.723	15298
306.778	13548
306.801	10757
306.833	7392
306.888	3245
306.892	3103
306.943	1827
306.982	1730
306.997	1678
307.052	1700
307.072	1704
307.107	1868
307.162	3265
307.163	3272
307.217	3517
307.253	3594
307.272	3594
307.327	3461
307.343	3335
307.381	3118
307.434	2906
307.436	2957
307.491	5358
307.524	8419
307.546	9626
307.600	12754
307.614	11508
307.655	7553
307.704	3973
307.710	3668
307.765	3075
307.795	3555
307.819	3948
307.874	5588
307.885	5602
307.929	5554
307.975	5459
307.984	5561
308.038	6835
308.065	8214
308.093	12809
308.148	27332
308.156	31287
308.202	49423
308.246	60973
308.257	61502
308.312	37685
308.336	29004
308.366	22338
308.421	14430
308.426	13790
308.475	8434
308.517	5860
308.530	5201
308.585	4486
308.607	4320
308.639	4028
308.694	3676
308.697	3703
308.748	4924
308.787	6756
308.803	7010
308.857	6176
308.877	5635
308.912	5342
308.967	5689
308.967	5713
309.021	7650
309.058	9871
309.076	11879
309.130	19957
309.148	23663
309.185	39556
309.238	68199
309.239	68291
309.293	77122
309.328	69402
309.348	61927
309.402	32900
309.418	26013
309.457	17892
309.508	11751
309.511	11454
309.566	9678
309.598	9952
309.620	10856
309.674	14993
309.688	16256
309.729	16011
309.778	12824
309.783	12610
309.837	10050
309.868	8930
309.892	9964
309.946	14160
309.959	16032
310.001	19810
310.049	21858
310.055	21318
310.109	13589
310.139	8758
310.163	6578
310.218	4044
310.229	3658
310.272	2968
310.319	2662
310.326	2549
310.381	2239
310.409	2110
310.435	1990
310.489	1434
310.499	1403
310.543	1508
310.589	1561
310.598	1533
310.652	1509
310.679	1377
310.706	1287
310.760	1504
310.769	1495
310.814	1075
310.859	762
310.868	881
310.923	1420
310.948	1804
310.977	1899
311.031	2094
311.038	2110
311.085	2054
311.128	1938
311.139	1825
311.193	1410
311.218	1100
311.247	1214
311.301	1678
311.308	1725
311.356	1319
311.398	1001
311.410	1118
311.464	1677
311.488	1910
311.518	1591
311.572	1085
311.578	1041
311.626	2022
311.668	2870
311.680	2778
311.734	2263
311.758	2062
311.788	1914
311.842	1701
311.847	1683
311.896	1893
311.937	2147
311.950	2081
312.004	1818
312.027	1704
312.058	1330
312.112	703
312.117	655
312.165	916
312.207	1166
312.297	1358
312.386	1000
312.476	1670
312.566	3252
312.656	605
312.745	1772
312.835	1270
312.925	1605
313.015	1368
313.104	1860
313.194	1730
313.284	1716
313.374	2313
313.463	1704
313.553	1556
313.643	1858
313.732	804
313.822	1353
313.912	1428
314.001	1756
314.091	1063
314.180	2447
314.270	2286
314.360	2528
314.449	2233
314.539	907
314.628	1078
314.718	1135
314.808	1511
314.897	1381
314.987	2059
315.076	1793
315.166	2284
315.255	2383
315.345	2010
315.434	1489
315.524	1585
315.613	1942
315.703	2913
315.792	2972
315.881	4789
315.971	2013
316.060	3497
316.150	2772
316.239	2261
316.328	1694
316.418	1861
316.507	1462
316.597	2819
316.686	1353
316.775	1889
316.865	2464
316.954	1613
317.043	1669
317.133	1590
317.222	1551
317.311	946
317.400	250
317.490	2693
317.579	1719
317.668	1639
317.757	2110
317.847	4340
317.936	8235
318.025	4820
318.114	2930
318.203	3101
318.293	5850
318.382	8500
318.471	6754
318.560	8780
318.649	10639
318.738	2076
318.828	2602
318.917	2167
319.006	2947
319.095	6633
319.184	14817
319.273	8582
319.362	4757
319.451	2153
319.540	2638
319.629	4720
319.718	5908
319.807	2950
319.896	7443
319.985	18135
320.074	5285
320.163	1525
320.252	2351
320.341	2403
320.430	2010
320.519	3399
320.608	2234
320.697	1817
320.786	1681
320.875	2773
320.964	3136
321.053	3896
321.142	6725
321.230	6378
321.319	5825
321.408	10467
321.497	4295
321.586	4508
321.675	4414
321.764	3875
321.852	3972
321.941	6270
322.030	3724
322.119	5167
322.207	10101
322.296	5055
322.385	2680
322.474	5633
322.562	13386
322.651	5632
322.740	5289
322.829	5068
322.917	4612
323.006	3592
323.095	2973
323.183	2021
323.272	3558
323.361	5345
323.449	9778
323.538	4602
323.626	7074
323.715	3957
323.804	2807
323.892	6509
323.981	4140
324.069	1942
324.158	3750
324.246	3698
324.335	3050
324.424	3693
324.512	3090
324.601	2461
324.689	2245
324.778	3271
324.866	2507
324.954	1548
325.043	1614
325.131	1470
325.220	3769
325.308	1989
325.397	3358
325.485	1711
325.574	1354
325.662	1622
325.750	988
325.839	1722
325.927	1520
326.015	1576
326.104	2016
326.192	1161
326.280	1291
326.369	1276
326.457	2875
326.545	3900
326.634	2215
326.722	952
326.810	1469
326.898	1900
326.987	1642
327.075	3304
327.163	3374
327.251	1110
327.340	1125
327.428	1373
327.516	1372
327.604	1087
327.692	1704
327.781	1639
327.869	1931
327.957	837
328.045	735
328.133	1052
328.221	1446
328.309	1651
328.397	2219
328.485	2136
328.574	3150
328.662	7554
328.750	2602
328.838	1082
328.926	1093
329.014	1144
329.102	2803
329.190	4389
329.278	3374
329.366	1350
329.454	1869
329.542	677
329.630	764
329.718	1576
329.806	1275
329.893	1754
329.981	337
330.069	2970
330.157	16770
330.245	35621
330.333	13638
330.421	2805
330.509	4160
330.597	9130
330.684	4667
330.772	1953
330.860	1812
330.948	2467
331.036	1594
331.123	53
331.211	1027
331.299	1090
331.387	3821
331.475	3252
331.562	1195
331.650	720
331.738	1095
331.825	1103
331.913	584
332.001	1332
332.089	1593
332.176	1633
332.264	3031
332.352	2680
332.439	2094
332.527	1137
332.614	601
332.702	626
332.790	1383
332.877	1785
332.965	3234
333.052	1282
333.140	1593
333.228	3675
333.315	989
333.403	1610
333.490	2190
333.578	2312
333.665	4800
333.753	1629
333.840	863
333.928	1604
334.015	2609
334.103	6610
334.190	14874
334.278	3580
334.365	2308
334.452	1879
334.540	1840
334.627	1413
334.715	1785
334.802	2809
334.889	11361
334.977	10300
335.064	3815
335.151	1106
335.239	1596
335.326	2816
335.413	11290
335.501	10292
335.588	2325
335.675	1428
335.762	2542
335.850	3191
335.937	2029
336.024	5780
336.111	15665
336.199	7880
336.286	2175
336.373	1810
336.460	1279
336.547	1518
336.635	1563
336.722	1694
336.809	1345
336.896	1116
336.983	7347
337.070	14744
337.157	16069
337.245	7494
337.332	4421
337.419	1843
337.506	650
337.593	1495
337.680	6683
337.767	10983
337.854	3512
337.941	3545
338.028	3673
338.115	698
338.202	2798
338.289	2370
338.376	6964
338.463	3342
338.550	8232
338.637	6254
338.724	1548
338.811	2774
338.898	1436
338.984	1232
339.071	1858
339.158	1776
339.245	4802
339.332	2101
339.419	2959
339.506	1485
339.593	625
339.679	1732
339.766	472
339.853	2145
339.940	2817
340.027	759
340.113	926
340.200	2152
340.287	1233
340.374	2299
340.460	3215
340.547	1373
340.634	3189
340.720	10113
340.807	4117
340.894	1351
340.980	1053
341.067	719
341.154	2547
341.240	3194
341.327	4156
341.414	2566
341.500	1941
341.587	1362
341.674	1106
341.760	3673
341.847	3206
341.933	1310
342.020	472
342.106	594
342.193	1077
342.279	2112
342.366	1578
342.452	3281
342.539	1471
342.625	5177
342.712	8757
342.798	3389
342.885	1429
342.971	-87
343.058	103
343.144	766
343.230	1034
343.317	1588
343.403	864
343.490	685
343.576	643
343.662	1199
343.749	773
343.835	1343
343.921	4802
344.008	28895
344.094	44054
344.180	8543
344.267	4381
344.353	14791
344.439	10802
344.525	4446
344.612	5485
344.698	4143
344.784	1629
344.870	1213
344.957	569
345.043	2396
345.129	1334
345.215	3844
345.301	1483
345.387	804
345.474	380
345.560	924
345.646	637
345.732	1503
345.818	1604
345.904	767
345.990	670
346.076	1308
346.162	1271
346.249	1954
346.335	978
346.421	1324
346.507	7855
346.593	18618
346.679	2732
346.765	1343
346.851	1809
346.937	382
347.023	1476
347.108	1078
347.194	1574
347.280	1251
347.366	1503
347.452	6808
347.538	23408
347.624	18578
347.710	11119
347.796	1895
347.882	906
347.967	1291
348.053	1267
348.139	887
348.225	721
348.311	880
348.397	698
348.482	1267
348.568	849
348.654	1065
348.740	1238
348.825	821
348.911	3112
348.997	13676
349.083	19731
349.168	2424
349.254	1608
349.340	799
349.425	1300
349.511	1690
349.597	1414
349.682	5270
349.768	15375
349.854	5069
349.939	1981
350.025	976
350.110	2041
350.196	598
350.282	-6
350.367	1403
350.453	1072
350.538	1054
350.624	628
350.709	1343
350.795	744
350.880	435
350.966	1841
351.051	1659
351.137	1773
351.222	2003
351.308	6045
351.393	10763
351.479	2692
351.564	1009
351.649	1042
351.735	492
351.820	1148
351.906	514
351.991	1659
352.076	9596
352.162	10425
352.247	2071
352.332	1949
352.418	4261
352.503	5846
352.588	19888
352.673	10935
352.759	2136
352.844	885
352.929	1668
353.014	1473
353.100	1687
353.185	1863
353.270	3627
353.355	3108
353.441	1227
353.526	1156
353.611	3427
353.696	3388
353.781	2299
353.866	806
353.952	1589
354.037	3674
354.122	7523
354.207	5552
354.292	1833
354.377	1664
354.462	1696
354.547	939
354.632	2581
354.717	1270
354.802	1292
354.887	1284
354.972	889
355.057	1612
355.142	473
355.227	2364
355.312	2375
355.397	4768
355.482	10270
355.567	4122
355.652	4172
355.737	5252
355.822	16816
355.907	9394
355.991	2806
356.076	802
356.161	1492
356.246	1630
356.331	2515
356.416	5239
356.501	28442
356.585	22063
356.670	2942
356.755	4174
356.840	4764
356.924	20703
357.009	53976
357.094	16720
357.179	4092
357.263	2464
357.348	3685
357.433	3624
357.517	3205
357.602	2929
357.687	1999
357.771	7549
357.856	21723
357.941	10459
358.025	19779
358.110	58371
358.195	21860
358.279	4444
358.364	3779
358.448	12833
358.533	28918
358.617	19771
358.702	19662
358.787	6336
358.871	4175
358.956	3519
359.040	1224
359.125	1319
359.209	2878
359.294	13895
359.378	15772
359.462	4273
359.547	1196
359.631	847
359.716	629
359.800	1109
359.885	2363
359.969	825
360.053	1304
360.138	1194
360.222	1955
360.306	3890
360.391	3833
360.475	12651
360.559	17746
360.644	9115
360.728	4975
360.812	17058
360.896	34483
360.981	12367
361.065	4518
361.149	2442
361.233	2386
361.318	1088
361.402	1616
361.486	1792
361.570	909
361.654	2394
361.739	6147
361.823	26691
361.907	34238
361.991	5854
362.075	3183
362.159	5333
362.243	5038
362.327	4553
362.411	7897
362.495	3195
362.580	1769
362.664	1979
362.748	1181
362.832	2007
362.916	3501
363.000	15176
363.084	36464
363.168	40193
363.252	8625
363.336	3915
363.420	5594
363.503	15155
363.587	13130
363.671	3385
363.755	1871
363.839	4962
363.923	1571
364.007	4694
364.091	3993
364.175	7513
364.258	25771
364.342	18560
364.426	24409
364.510	11049
364.594	6465
364.677	11129
364.761	33389
364.845	20764
364.929	7224
365.013	5269
365.096	4288
365.180	4418
365.264	8330
365.347	22711
365.431	8142
365.515	1580
365.598	1603
365.682	2973
365.766	1713
365.849	2508
365.933	1778
366.017	3917
366.100	542
366.184	-124
366.267	2301
366.351	1261
366.435	1168
366.518	-1
366.602	1237
366.685	1720
366.769	968
366.852	3181
366.936	3671
367.019	2891
367.103	1344
367.186	4378
367.270	855
367.353	-25
367.436	1999
367.520	208
367.603	1948
367.687	1948
367.770	3620
367.853	3887
367.937	13171
368.020	16469
368.104	2659
368.187	4672
368.270	6299
368.353	5077
368.437	2565
368.520	6385
368.603	5156
368.687	13013
368.770	19772
368.853	4246
368.936	3816
369.020	3628
369.103	1871
369.186	1286
369.269	1298
369.352	2704
369.436	3412
369.519	2304
369.602	557
369.685	3008
369.768	422
369.851	1884
369.934	581
370.018	2012
370.101	2451
370.184	4871
370.267	2522
370.350	5087
370.433	7798
370.516	20691
370.599	19996
370.682	5015
370.765	14210
370.848	16923
370.931	24740
371.014	8531
371.097	1953
371.180	2402
371.263	2027
371.346	371
371.429	1642
371.511	2215
371.594	2869
371.677	4876
371.760	5250
371.843	7921
371.926	32620
372.009	52803
372.091	18999
372.174	13939
372.257	28008
372.340	10116
372.423	7106
372.505	7236
372.588	3000
372.671	12940
372.754	25738
372.836	11236
372.919	9995
373.002	13519
373.085	4569
373.167	6083
373.250	13783
373.332	28333
373.415	41155
373.498	63419
373.580	24056
373.663	37163
373.746	40057
373.828	7588
373.911	4179
373.993	5358
374.076	13584
374.159	10200
374.241	8944
374.324	23513
374.406	14823
374.489	27191
374.571	58669
374.654	21067
374.736	14130
374.819	38926
374.901	52604
374.983	44311
375.066	7481
375.148	4447
375.231	12107
375.313	19381
375.395	6188
375.478	1829
375.560	2239
375.643	2631
375.725	13661
375.807	43078
375.890	24375
375.972	5644
376.054	4409
376.136	4552
376.219	2936
376.301	15848
376.383	34457
376.465	12323
376.548	6270
376.630	12742
376.712	31136
376.794	11534
376.877	2280
376.959	876
377.041	2227
377.123	3897
377.205	3284
377.287	773
377.369	1839
377.452	1336
377.534	1637
377.616	1738
377.698	901
377.780	862
377.862	1804
377.944	2072
378.026	-197
378.108	1566
378.190	732
378.272	1206
378.354	441
378.436	130
378.518	1408
378.600	6673
378.682	7313
378.764	17055
378.846	10206
378.928	3206
379.010	4397
379.091	2811
379.173	1441
379.255	881
379.337	2261
379.419	9614
379.501	22998
379.583	7194
379.664	1943
379.746	5624
379.828	18910
379.910	22421
379.991	16611
380.073	2418
380.155	1856
380.237	1509
380.318	623
380.400	1017
380.482	4438
380.564	3764
380.645	3600
380.727	3200
380.809	3817
380.890	2126
380.972	622
381.053	1195
381.135	3025
381.217	7218
381.298	17336
381.380	7120
381.461	8324
381.543	31479
381.624	31825
381.706	5779
381.787	3712
381.869	5249
381.951	19824
382.032	52813
382.113	30324
382.195	4280
382.276	5824
382.358	12902
382.439	30422
382.521	36997
382.602	46884
382.684	23777
382.765	38075
382.846	36975
382.928	44234
383.009	22713
383.090	24344
383.172	69286
383.253	85857
383.334	34294
383.416	41170
383.497	19308
383.578	10164
383.659	20767
383.741	65202
383.822	131192
383.903	60542
383.984	32581
384.066	50908
384.147	26079
384.228	6983
384.309	4942
384.390	3609
384.471	3028
384.553	3471
384.634	3844
384.715	4198
384.796	2389
384.877	4940
384.958	17649
385.039	16499
385.120	5539
385.201	2697
385.282	3514
385.363	3803
385.444	2622
385.525	10121
385.606	26631
385.687	18378
385.768	4554
385.849	7035
385.930	32464
386.011	44527
386.092	9929
386.173	2737
386.254	1836
386.335	2524
386.416	3738
386.496	11979
386.577	15315
386.658	3681
386.739	2094
386.820	3537
386.901	530
386.981	1807
387.062	1758
387.143	4927
387.224	16256
387.304	12596
387.385	5373
387.466	2043
387.547	3802
387.627	1919
387.708	9947
387.789	32888
387.869	33039
387.950	8468
388.031	1394
388.111	-118
388.192	4068
388.273	4690
388.353	2882
388.434	1974
388.514	9170
388.595	32285
388.676	35062
388.756	16264
388.837	14164
388.917	7304
388.998	448
389.078	1549
389.159	1625
389.239	-70
389.320	4073
389.400	1205
389.480	8765
389.561	18845
389.641	8451
389.722	2424
389.802	4385
389.883	10656
389.963	22991
390.043	9589
390.124	2433
390.204	7327
390.284	18097
390.365	8784
390.445	9075
390.525	13907
390.605	15592
390.686	7171
390.766	3345
390.846	2046
390.927	286
391.007	739
391.087	2091
391.167	2155
391.247	808
391.328	2287
391.408	2937
391.488	2374
391.568	-261
391.648	1982
391.728	3226
391.808	3333
391.888	3914
391.969	13025
392.049	15891
392.129	6328
392.209	10365
392.289	22459
392.369	9255
392.449	5635
392.529	3097
392.609	4121
392.689	7940
392.769	20809
392.849	15502
392.929	12660
393.009	26780
393.089	16187
393.169	13109
393.248	41517
393.328	145625
393.408	140982
393.488	33245
393.568	9939
393.648	4291
393.728	3408
393.807	2531
393.887	2461
393.967	2617
394.047	2867
394.127	2960
394.206	7117
394.286	29327
394.366	101855
394.446	92106
394.525	17285
394.605	4252
394.685	4759
394.764	10030
394.844	13970
394.924	8910
395.003	2624
395.083	2155
395.163	2250
395.242	1675
395.322	2189
395.402	480
395.481	3838
395.561	8035
395.640	17333
395.720	14708
395.799	17877
395.879	11684
395.958	10287
396.038	42343
396.117	130678
396.197	121894
396.276	30655
396.356	9678
396.435	6758
396.515	5016
396.594	5743
396.673	13134
396.753	48769
396.832	135058
396.912	95607
396.991	21708
397.070	5489
397.150	1947
397.229	3510
397.308	4987
397.388	8380
397.467	4245
397.546	1505
397.625	-14
397.705	2676
397.784	2107
397.863	661
397.942	772
398.022	1767
398.101	6537
398.180	14079
398.259	5916
398.338	2520
398.417	849
398.497	686
398.576	2088
398.655	296
398.734	626
398.813	1450
398.892	6179
398.971	15841
399.050	5491
399.129	-212
399.208	1044
399.287	1981
399.366	-547
399.445	-190
399.524	1597
399.603	-538
399.682	1975
399.761	7135
399.840	16909
399.919	11288
399.998	1340
400.077	44
400.156	189
400.235	2269
400.313	237
400.392	1834
400.471	9467
400.550	12091
400.629	2144
400.708	1612
400.786	764
400.865	3152
400.944	2302
401.023	2849
401.102	-624
401.180	-113
401.259	477
401.338	-146
401.416	1784
401.495	983
401.574	990
401.652	210
401.731	1910
401.810	-368
401.888	110
401.967	-368
402.046	1156
402.124	1728
402.203	767
402.281	1857
402.360	1429
402.438	4106
402.517	1806
402.596	975
402.674	705
402.753	214
402.831	1295
402.910	1678
402.988	5829
403.066	14447
403.145	8350
403.223	7379
403.302	14169
403.380	9779
403.459	8448
403.537	2567
403.615	459
403.694	-1551
403.772	1423
403.850	869
403.929	860
404.007	-340
404.085	2546
404.164	858
404.242	2862
404.320	16359
404.398	38720
404.477	29413
404.555	46397
404.633	40524
404.711	26684
404.789	10861
404.868	2021
404.946	371
405.024	617
405.102	568
405.180	-142
405.258	-997
405.336	993
405.415	-400
405.493	1251
405.571	1107
405.649	-68
405.727	-290
405.805	1620
405.883	769
405.961	985
406.039	656
406.117	-1071
406.195	2846
406.273	11211
406.351	34021
406.429	16598
406.507	1559
406.585	730
406.663	900
406.740	979
406.818	-308
406.896	-398
406.974	1207
407.052	3454
407.130	22095
407.208	24053
407.285	5157
407.363	-615
407.441	74
407.519	-40
407.596	-92
407.674	1656
407.752	4229
407.830	5169
407.907	2122
407.985	-32
408.063	275
408.141	-419
408.218	1753
408.296	-2
408.373	17
408.451	707
408.529	473
408.606	-307
408.684	285
408.762	-107
408.839	-374
408.917	-199
408.994	312
409.072	-287
409.149	-334
409.227	1662
409.304	922
409.382	1235
409.459	1100
409.537	2156
409.614	1455
409.692	1426
409.769	429
409.846	1268
409.924	4238
410.001	1156
410.079	607
410.156	1071
410.233	658
410.311	-147
410.388	307
410.465	1119
410.543	664
410.620	1441
410.697	1260
410.775	512
410.852	-950
410.929	1217
411.006	1260
411.083	1216
411.161	3203
411.238	2855
411.315	413
411.392	509
411.469	1526
411.547	1532
411.624	-1499
411.701	-156
411.778	-312
411.855	1422
411.932	515
412.009	361
412.086	691
412.163	178
412.240	514
412.317	1923
412.394	150
412.471	-425
412.548	314
412.625	422
412.702	637
412.779	1937
412.856	821
412.933	-918
413.010	-144
413.087	2209
413.164	8850
413.241	10622
413.318	1433
413.395	2109
413.471	1199
413.548	740
413.625	642
413.702	-1096
413.779	8
413.855	-240
413.932	-846
414.009	-695
414.086	113
414.162	260
414.239	1792
414.316	9899
414.393	17357
414.469	3808
414.546	-96
414.623	304
414.699	614
414.776	635
414.853	-637
414.929	1151
415.006	-461
415.082	350
415.159	152
415.236	302
415.312	574
415.389	1174
415.465	417
415.542	75
415.618	399
415.695	1022
415.771	118
415.848	383
415.924	94
416.000	-827
416.077	-62
416.153	-331
416.230	-542
416.306	266
416.383	-523
416.459	606
416.535	-240
416.612	-450
416.688	-133
416.764	90
416.841	-342
416.917	-468
416.993	333
417.069	731
417.146	528
417.222	1240
417.298	540
417.374	-376
417.451	308
417.527	379
417.603	211
417.679	-230
417.755	-120
417.831	-504
417.908	-416
417.984	125
418.060	-1223
418.136	1369
418.212	2449
418.288	800
418.364	868
418.440	-843
418.516	1031
418.592	474
418.668	3000
418.744	4952
418.820	2341
418.896	614
418.972	-756
419.048	-35
419.124	1767
419.200	-56
419.276	-74
419.352	-737
419.428	560
419.504	-530
419.579	-255
419.655	-476
419.731	880
419.807	2828
419.883	4949
419.959	3042
420.034	1088
420.110	3597
420.186	12286
420.262	8057
420.337	938
420.413	278
420.489	664
420.565	545
420.640	-443
420.716	1387
420.792	-650
420.867	879
420.943	56
421.019	989
421.094	375
421.170	673
421.245	395
421.321	749
421.397	531
421.472	2292
421.548	2794
421.623	3409
421.699	1945
421.774	2297
421.850	1767
421.925	3488
422.001	3302
422.076	2959
422.152	3660
422.227	6004
422.302	9376
422.378	13654
422.453	24384
422.529	64445
422.604	149194
422.679	206200
422.755	131639
422.830	48886
422.905	20389
422.981	10915
423.056	7459
423.131	5768
423.207	3890
423.282	3981
423.357	5402
423.432	3628
423.508	3125
423.583	5600
423.658	4090
423.733	1849
423.808	1821
423.883	2609
423.959	1422
424.034	1083
424.109	1173
424.184	-38
424.259	805
424.334	175
424.409	-209
424.484	463
424.559	180
424.634	-435
424.709	400
424.784	2008
424.859	502
424.934	1661
425.009	9397
425.084	13825
425.159	3569
425.234	649
425.309	1295
425.384	10625
425.459	13482
425.534	2846
425.609	-364
425.683	-449
425.758	147
425.833	777
425.908	2083
425.983	4437
426.058	13258
426.132	5369
426.207	754
426.282	1951
426.357	180
426.431	-31
426.506	230
426.581	166
426.655	98
426.730	90
426.805	101
426.879	1007
426.954	423
427.029	2421
427.103	16402
427.178	33094
427.253	12326
427.327	1940
427.402	4528
427.476	13780
427.551	5337
427.625	1137
427.700	-42
427.774	-537
427.849	486
427.923	-1016
427.998	-696
428.072	20
428.147	3290
428.221	14043
428.296	33572
428.370	15953
428.444	1888
428.519	1796
428.593	2858
428.667	2843
428.742	3756
428.816	6648
428.890	25498
428.965	39151
429.039	12739
429.113	4305
429.188	1066
429.262	338
429.336	1745
429.410	7173
429.485	4744
429.559	3105
429.633	2354
429.707	641
429.781	5025
429.855	24168
429.930	32091
430.004	15328
430.078	17982
430.152	21719
430.226	47886
430.300	44330
430.374	5937
430.448	2371
430.522	6814
430.596	15430
430.670	14970
430.744	43146
430.818	51562
430.892	9774
430.966	815
431.040	1038
431.114	-1033
431.188	-327
431.262	-722
431.336	-400
431.410	2231
431.484	4733
431.557	3989
431.631	258
431.705	897
431.779	8757
431.853	30769
431.927	19197
432.000	1837
432.074	1048
432.148	613
432.222	94
432.295	-60
432.369	-67
432.443	2235
432.516	16045
432.590	34338
432.664	10991
432.737	548
432.811	-725
432.885	-1273
432.958	736
433.032	-1147
433.106	-252
433.179	-614
433.253	260
433.326	223
433.400	-213
433.473	-434
433.547	-857
433.620	489
433.694	1020
433.767	925
433.841	-178
433.914	-805
433.988	589
434.061	-106
434.134	248
434.208	-332
434.281	-679
434.355	-586
434.428	498
434.501	-721
434.575	-231
434.648	-119
434.721	-1258
434.795	-675
434.868	-764
434.941	-74
435.014	-1218
435.088	-47
435.161	641
435.234	717
435.307	2071
435.381	187
435.454	742
435.527	868
435.600	685
435.673	373
435.746	244
435.819	-170
435.892	-56
435.966	-577
436.039	-409
436.112	357
436.185	-1310
436.258	-874
436.331	-444
436.404	-601
436.477	-852
436.550	-395
436.623	252
436.696	-912
436.769	192
436.842	-74
436.915	-167
436.987	281
437.060	-372
437.133	-36
437.206	-1403
437.279	158
437.352	-529
437.425	328
437.498	1152
437.570	3102
437.643	2246
437.716	-54
437.789	-424
437.861	1882
437.934	5842
438.007	2914
438.080	-949
438.152	460
438.225	3438
438.298	23533
438.370	52974
438.443	23575
438.516	4880
438.588	496
438.661	-553
438.734	-178
438.806	371
438.879	277
438.951	1366
439.024	2700
439.096	709
439.169	-302
439.241	199
439.314	-509
439.386	-321
439.459	997
439.531	1597
439.604	559
439.676	196
439.749	-575
439.821	-279
439.893	-183
439.966	93
440.038	-226
440.110	238
440.183	-365
440.255	25
440.327	1293
440.400	10206
440.472	34555
440.544	22809
440.617	2592
440.689	2391
440.761	3173
440.833	4556
440.905	3599
440.978	468
441.050	-131
441.122	381
441.194	-65
441.266	-280
441.338	-159
441.411	1867
441.483	11800
441.555	17125
441.627	4224
441.699	984
441.771	-123
441.843	-322
441.915	100
441.987	-6
442.059	349
442.131	553
442.203	1469
442.275	1259
442.347	1907
442.419	4211
442.491	19335
442.563	45360
442.635	23686
442.706	9713
442.778	6484
442.850	1122
442.922	-205
442.994	1265
443.066	1661
443.137	1579
443.209	1480
443.281	2505
443.353	6399
443.425	27601
443.496	83347
443.568	86802
443.640	34824
443.711	7868
443.783	2306
443.855	1285
443.926	1057
443.998	913
444.070	1079
444.141	970
444.213	1932
444.285	2927
444.356	1889
444.428	1559
444.499	-415
444.571	284
444.642	328
444.714	393
444.785	826
444.857	1981
444.928	3503
445.000	2380
445.071	2779
445.143	3436
445.214	3092
445.285	5160
445.357	17379
445.428	62512
445.500	128938
445.571	91748
445.642	47747
445.714	18160
445.785	9848
445.856	3675
445.928	3352
445.999	2914
446.070	1991
446.141	2122
446.213	3448
446.284	785
446.355	507
446.426	414
446.497	663
446.569	1193
446.640	2149
446.711	2334
446.782	651
446.853	838
446.924	712
446.995	411
447.066	535
447.138	938
447.209	1338
447.280	35
447.351	-887
447.422	-93
447.493	-551
447.564	1003
447.635	1395
447.706	873
447.777	123
447.847	-485
447.918	-748
447.989	987
448.060	419
448.131	2647
448.202	3008
448.273	2748
448.344	1297
448.414	-576
448.485	-219
448.556	767
448.627	-442
448.698	75
448.768	-760
448.839	-475
448.910	1302
448.981	1088
449.051	81
449.122	181
449.193	327
449.263	407
449.334	-1017
449.405	1431
449.475	2602
449.546	2209
449.616	2187
449.687	1608
449.758	626
449.828	-634
449.899	-163
449.969	-1029
450.040	-964
450.110	-25
450.181	301
450.251	-375
450.322	-978
450.392	320
450.463	294
450.533	-453
450.604	-749
450.674	-1016
450.744	284
450.815	-863
450.885	-355
450.955	-103
451.026	-748
451.096	-483
451.166	-35
451.237	1621
451.307	5060
451.377	2420
451.447	-294
451.518	-6
451.588	-699
451.658	353
451.728	423
451.799	4684
451.869	6376
451.939	1550
452.009	604
452.079	-836
452.149	76
452.219	1423
452.289	5836
452.360	5495
452.430	766
452.500	692
452.570	950
452.640	2415
452.710	7139
452.780	11458
452.850	9148
452.920	8804
452.990	3512
453.060	1187
453.129	1874
453.199	2832
453.269	8718
453.339	19129
453.409	29584
453.479	24610
453.549	37991
453.619	38827
453.688	19871
453.758	2032
453.828	385
453.898	448
453.968	-470
454.037	65
454.087	-354
454.107	-557
454.168	-510
454.177	-540
454.247	-806
454.249	-719
454.316	482
454.330	711
454.386	1248
454.411	2059
454.456	2662
454.492	3868
454.525	4867
454.574	3347
454.595	2759
454.655	707
454.665	393
454.734	2119
454.736	2275
454.804	3840
454.817	5184
454.873	8185
454.898	8462
454.943	8686
454.979	5464
455.013	3104
455.060	2772
455.082	3040
455.141	4948
455.152	5355
455.221	12762
455.222	13189
455.291	22266
455.303	24567
455.360	31110
455.384	37336
455.430	38203
455.465	29481
455.499	24051
455.546	14873
455.569	10440
455.627	6983
455.638	6605
455.707	1734
455.708	1770
455.777	1615
455.789	1624
455.846	1294
455.869	1301
455.916	1564
455.950	1753
455.985	1601
456.031	1395
456.054	1281
456.112	1903
456.124	2028
456.193	2037
456.193	2006
456.262	2033
456.274	2286
456.332	2757
456.355	2757
456.401	2546
456.436	1998
456.470	1384
456.516	1324
456.540	1388
456.597	1130
456.609	1054
456.678	1947
456.678	1924
456.747	1442
456.759	1549
456.817	1938
456.840	1759
456.886	1467
456.920	1818
456.955	2230
457.001	2316
457.024	2319
457.082	3193
457.093	3300
457.162	4233
457.163	4270
457.232	3860
457.243	3770
457.301	3115
457.324	2778
457.370	2572
457.405	3105
457.439	3417
457.485	3235
457.508	3285
457.566	3803
457.577	4032
457.646	6255
457.647	6311
457.715	11230
457.727	12409
457.784	19287
457.808	22915
457.853	26036
457.889	29746
457.922	28819
457.969	23413
457.991	25349
458.050	30690
458.060	31783
458.129	45626
458.130	46159
458.198	36611
458.211	33357
458.267	22044
458.292	15622
458.336	12351
458.372	12464
458.405	17373
458.453	25940
458.474	32123
458.533	52825
458.543	53860
458.611	67672
458.614	68288
458.680	40069
458.694	31373
458.749	17734
458.775	12421
458.818	7633
458.855	6774
458.887	6442
458.936	5681
458.955	5504
459.016	5199
459.024	5207
459.093	5858
459.097	5916
459.162	6510
459.177	6624
459.230	7418
459.257	8068
459.299	8240
459.338	8393
459.368	8668
459.418	9213
459.437	8726
459.499	6011
459.505	5887
459.574	5525
459.579	5494
459.643	4974
459.659	4912
459.711	4740
459.740	4824
459.780	5777
459.820	6679
459.849	6793
459.900	6928
459.917	6864
459.981	6455
459.986	6420
460.054	6996
460.061	7044
460.123	7636
460.141	7580
460.191	8131
460.222	8737
460.260	9323
460.302	10601
460.328	9684
460.382	7207
460.397	7358
460.462	6891
460.465	7066
460.534	13031
460.543	13755
460.602	28950
460.623	34749
460.671	53061
460.703	67082
460.739	52843
460.783	33209
460.808	27646
460.864	9645
460.876	8713
460.944	6969
460.945	6941
461.013	6666
461.024	6628
461.081	7468
461.104	8028
461.150	7325
461.184	6719
461.218	7155
461.264	7467
461.286	7404
461.345	7075
461.355	7049
461.423	7515
461.425	7521
461.491	8833
461.505	9166
461.559	17382
461.585	21279
461.628	30519
461.665	38999
461.696	39110
461.745	39960
461.764	33547
461.825	10913
461.832	10944
461.901	9676
461.905	9750
461.969	7991
461.985	7458
462.037	8131
462.065	8469
462.105	9941
462.145	11552
462.173	15378
462.225	22753
462.241	24555
462.305	31911
462.310	30845
462.378	14265
462.385	12248
462.446	9537
462.465	8765
462.514	9094
462.545	9714
462.582	9582
462.625	9031
462.650	8801
462.705	8569
462.718	8891
462.785	10489
462.786	10567
462.854	15073
462.865	15741
462.922	16722
462.945	17299
462.990	12808
463.025	9009
463.058	8441
463.104	7587
463.126	7513
463.184	7470
463.194	7607
463.262	8710
463.264	8741
463.330	9006
463.344	8970
463.398	9783
463.424	10339
463.466	10740
463.504	11135
463.533	10756
463.583	9851
463.601	10452
463.663	12573
463.669	12966
463.737	17517
463.743	17907
463.805	26026
463.823	28422
463.873	42405
463.903	50927
463.940	49006
463.982	46859
464.008	36347
464.062	13874
464.076	13513
464.142	10254
464.144	10229
464.211	9788
464.221	9765
464.279	11101
464.301	11555
464.347	12441
464.381	13168
464.414	14655
464.461	16625
464.482	17230
464.540	18673
464.550	18588
464.617	18121
464.620	18068
464.685	15531
464.699	14921
464.753	16656
464.779	17634
464.820	18251
464.859	18694
464.888	19012
464.938	19462
464.956	19533
465.018	19748
465.023	19652
465.091	17654
465.098	17449
465.158	17669
465.177	17737
465.226	17059
465.257	16487
465.293	16659
465.336	16752
465.361	18261
465.416	21726
465.428	23233
465.495	31036
465.496	31212
465.563	50376
465.575	53607
465.631	58435
465.654	60440
465.698	36071
465.734	15535
465.765	14878
465.813	13721
465.833	13801
465.893	14329
465.900	14333
465.968	14275
465.972	14236
466.035	14106
466.052	14027
466.102	14555
466.131	14875
466.170	14970
466.210	14956
466.237	14938
466.290	14824
466.304	15162
466.369	16446
466.372	16481
466.439	16642
466.449	16615
466.506	19279
466.528	20260
466.573	30398
466.607	37943
466.641	52707
466.687	73052
466.708	77556
466.766	89615
466.775	82537
466.842	27943
466.845	25294
466.909	21069
466.925	20041
466.977	19241
467.004	18802
467.044	19382
467.083	19888
467.111	22122
467.163	26207
467.178	26374
467.242	26774
467.245	26782
467.312	25759
467.321	25569
467.379	25774
467.400	25768
467.446	28448
467.480	30285
467.559	23718
467.638	22163
467.717	22354
467.796	25500
467.875	27671
467.955	25602
468.034	43689
468.113	86638
468.192	115048
468.271	29831
468.350	26575
468.429	29897
468.508	27214
468.588	23747
468.667	22341
468.746	21573
468.825	20078
468.904	19892
468.983	24739
469.062	38540
469.141	44363
469.220	19438
469.299	19637
469.378	21902
469.456	25167
469.535	21512
469.614	21062
469.693	24174
469.772	30719
469.851	40979
469.930	25650
470.009	21432
470.088	21791
470.166	24799
470.245	34241
470.324	39046
470.403	32490
470.482	24933
470.560	22509
470.639	25411
470.718	26694
470.797	20800
470.875	24827
470.954	32651
471.033	32281
471.111	17085
471.190	16339
471.269	16217
471.347	17176
471.426	18079
471.505	20263
471.583	21455
471.662	18562
471.740	18033
471.819	18642
471.898	17225
471.976	17535
472.055	17919
472.133	20029
472.212	27686
472.290	26577
472.369	17789
472.447	17241
472.526	17637
472.604	19548
472.683	19817
472.761	18779
472.839	18336
472.918	17606
472.996	18274
473.075	21985
473.153	19770
473.231	16854
473.310	22591
473.388	18859
473.466	19638
473.545	22649
473.623	29385
473.701	27094
473.780	18401
473.858	15414
473.936	19025
474.014	17726
474.093	21868
474.171	29641
474.249	40912
474.327	22595
474.405	16550
474.484	16502
474.562	17314
474.640	16545
474.718	17823
474.796	16685
474.874	16252
474.952	14378
475.030	15068
475.108	15425
475.187	17686
475.265	18402
475.343	23136
475.421	23928
475.499	17516
475.577	18371
475.655	25437
475.733	48759
475.811	77982
475.889	71512
475.966	38160
476.044	17137
476.122	20261
476.200	22688
476.278	18325
476.356	16097
476.434	17855
476.512	19319
476.590	23465
476.667	20369
476.745	17843
476.823	16893
476.901	17072
476.979	17542
477.056	17905
477.134	17546
477.212	17540
477.290	15619
477.367	15387
477.445	15619
477.523	15493
477.601	15355
477.678	16695
477.756	19433
477.834	21477
477.911	15102
477.989	16178
478.066	15274
478.144	19275
478.222	18536
478.299	24652
478.377	21962
478.454	15076
478.532	14994
478.609	16989
478.687	16619
478.764	14848
478.842	16650
478.919	18724
478.997	16260
479.074	15145
479.152	18833
479.229	24130
479.307	14342
479.384	13622
479.461	13724
479.539	16036
479.616	18785
479.694	15435
479.771	18243
479.848	17895
479.926	24734
480.003	24684
480.080	14601
480.157	14390
480.235	14472
480.312	14131
480.389	17787
480.467	27392
480.544	31297
480.621	18449
480.698	17630
480.775	20273
480.853	18723
480.930	16048
481.007	17177
481.084	20419
481.161	20352
481.238	18884
481.315	14837
481.392	14909
481.470	14349
481.547	14600
481.624	13993
481.701	15411
481.778	16212
481.855	18914
481.932	28966
482.009	46978
482.086	25353
482.163	17374
482.240	21882
482.317	30134
482.393	21904
482.470	16808
482.547	16586
482.624	15958
482.701	17522
482.778	15724
482.855	13532
482.932	14433
483.009	14424
483.085	18179
483.162	20917
483.239	19957
483.316	16758
483.393	16564
483.469	15210
483.546	18915
483.623	18895
483.699	15544
483.776	15945
483.853	19574
483.930	30728
484.006	71131
484.083	106472
484.160	47300
484.236	65374
484.313	48292
484.389	38086
484.466	36570
484.543	35782
484.619	37313
484.696	39932
484.772	40399
484.849	40486
484.925	33201
485.002	34159
485.078	36919
485.155	36005
485.231	31089
485.308	30395
485.384	33256
485.461	42922
485.537	69991
485.614	72220
485.690	31270
485.766	30294
485.843	35514
485.919	49485
485.995	47682
486.072	28664
486.148	29466
486.224	28572
486.301	30853
486.377	37068
486.453	39401
486.530	34573
486.606	42691
486.682	45722
486.758	59293
486.835	63800
486.911	55586
486.987	93140
487.063	95443
487.139	119329
487.215	78598
487.292	39368
487.368	36332
487.444	42575
487.520	52656
487.596	53001
487.672	93840
487.748	219502
487.824	294535
487.900	102252
487.976	50783
488.052	45834
488.128	51561
488.204	38772
488.280	33401
488.356	44477
488.432	84266
488.508	111143
488.584	36644
488.660	29361
488.736	29961
488.812	32559
488.888	39996
488.964	58095
489.039	126765
489.115	174877
489.191	80520
489.267	30577
489.343	27927
489.418	24302
489.494	24180
489.570	23052
489.646	26991
489.722	24635
489.797	28597
489.873	46715
489.949	96543
490.024	59912
490.100	24324
490.176	26760
490.251	34405
490.327	41747
490.403	23934
490.478	23079
490.554	21045
490.629	21222
490.705	21414
490.781	23177
490.856	24033
490.932	27020
491.007	26460
491.083	24364
491.158	23835
491.234	35937
491.309	73149
491.385	58987
491.460	23981
491.536	26666
491.611	22540
491.686	26215
491.762	38057
491.837	81685
491.913	127343
491.988	181281
492.063	194002
492.139	54352
492.214	32562
492.289	20402
492.365	21437
492.440	25772
492.515	26625
492.590	24240
492.666	20009
492.741	31225
492.816	42187
492.891	22539
492.967	22167
493.042	21298
493.117	25462
493.192	33955
493.267	86763
493.342	285162
493.418	310583
493.493	34383
493.568	20332
493.643	20344
493.718	26959
493.793	37133
493.868	39715
493.943	24790
494.018	21079
494.093	18952
494.168	18965
494.243	17031
494.318	16793
494.393	17060
494.468	16805
494.543	16344
494.618	21034
494.693	17679
494.768	17975
494.842	17720
494.917	16659
494.992	18692
495.067	15868
495.142	17008
495.217	18712
495.292	18581
495.366	22970
495.441	26313
495.516	33579
495.591	56623
495.665	181486
495.740	368419
495.815	99743
495.890	26870
495.964	21535
496.039	25219
496.114	20632
496.188	24465
496.263	22966
496.338	21118
496.412	25575
496.487	27906
496.561	30494
496.636	28767
496.710	23180
496.785	26153
496.860	29544
496.934	22455
497.009	23998
497.083	22139
497.158	23486
497.232	28373
497.307	34439
497.381	28104
497.455	34870
497.530	42086
497.604	27544
497.679	30788
497.753	47966
497.827	51806
497.902	43355
497.976	58434
498.050	155870
498.125	494650
498.199	339562
498.273	62970
498.348	51294
498.422	44873
498.496	47451
498.570	40693
498.645	31233
498.719	28635
498.793	38723
498.867	58727
498.941	82464
499.016	230692
499.090	503449
499.164	99607
499.238	26044
499.312	27562
499.386	35726
499.460	27798
499.534	27165
499.609	33744
499.683	48028
499.757	43059
499.831	115592
499.905	381040
499.979	233864
500.053	54535
500.127	54679
500.201	39701
500.275	26924
500.349	25160
500.422	29796
500.496	48256
500.570	108181
500.644	235573
500.718	342274
500.792	48087
500.866	26250
500.940	35413
501.013	25927
501.087	29420
501.161	55045
501.235	67272
501.309	152070
501.382	371628
501.456	213646
501.530	72198
501.603	121085
501.677	33209
501.751	19889
501.825	28069
501.898	61307
501.972	157149
502.046	59981
502.119	30262
502.193	75379
502.266	159781
502.340	55018
502.413	80144
502.487	129349
502.561	65881
502.634	22964
502.708	21408
502.781	19810
502.855	16331
502.928	15592
503.002	15549
503.075	15494
503.149	16702
503.222	17609
503.295	18609
503.369	24049
503.442	38854
503.516	127366
503.589	270826
503.662	133662
503.736	56139
503.809	137144
503.882	92668
503.956	165942
504.029	122749
504.102	129348
504.175	142663
504.249	54998
504.322	36745
504.395	27399
504.468	19883
504.542	20122
504.615	12999
504.688	14467
504.761	13730
504.834	20346
504.907	26217
504.980	37037
505.053	18633
505.127	28165
505.200	27057
505.273	25710
505.346	14587
505.419	13788
505.492	13168
505.565	11773
505.638	11357
505.711	12092
505.784	11557
505.857	10821
505.930	13893
506.003	11848
506.076	15209
506.149	19073
506.221	20662
506.294	24136
506.367	69646
506.440	200109
506.513	61322
506.586	25067
506.659	13731
506.731	13658
506.804	19200
506.877	25483
506.950	15252
507.022	13475
507.095	18388
507.168	20238
507.241	14331
507.313	12280
507.386	14914
507.459	19326
507.531	12803
507.604	11499
507.677	11412
507.749	10994
507.822	18208
507.894	32229
507.967	30781
508.040	18347
508.112	17138
508.185	16771
508.257	17574
508.330	27290
508.402	15403
508.475	15918
508.547	17076
508.620	18873
508.692	27633
508.765	16020
508.837	12316
508.909	13532
508.982	13950
509.054	16595
509.127	12909
509.199	12925
509.271	11208
509.344	11689
509.416	12465
509.488	13307
509.560	13469
509.633	14899
509.705	17775
509.777	18082
509.849	25301
509.922	16208
509.994	13362
510.066	14960
510.138	15828
510.210	28220
510.283	22479
510.355	20402
510.427	18291
510.499	16501
510.571	15654
510.643	18723
510.715	32363
510.787	23087
510.859	18931
510.931	22094
511.003	32072
511.076	23897
511.148	15290
511.219	17762
511.291	30282
511.363	28129
511.435	13984
511.507	13965
511.579	14906
511.651	15365
511.723	14352
511.795	14192
511.867	14225
511.939	20452
512.010	39529
512.082	23996
512.154	14554
512.226	16982
512.298	24538
512.369	31673
512.441	23500
512.513	22959
512.585	17761
512.656	21462
512.728	22628
512.800	15160
512.871	15907
512.943	16853
513.015	13570
513.086	17779
513.158	19139
513.230	20381
513.301	27643
513.373	26458
513.444	17450
513.516	15216
513.588	15647
513.659	18377
513.731	21370
513.802	20919
513.874	48902
513.945	69335
514.016	19470
514.088	16473
514.159	18078
514.231	25650
514.302	29825
514.374	21497
514.445	23323
514.516	45831
514.588	24446
514.659	22794
514.730	39774
514.802	25211
514.873	18428
514.944	21141
515.016	20657
515.087	23703
515.158	33061
515.229	34897
515.301	17974
515.372	22370
515.443	17245
515.514	16469
515.585	14115
515.656	16841
515.728	15971
515.799	14606
515.870	16344
515.941	18481
516.012	18457
516.083	24640
516.154	25041
516.225	31555
516.296	30069
516.367	26465
516.438	31084
516.509	41601
516.580	74050
516.651	236857
516.722	634390
516.793	173270
516.864	53421
516.935	48123
517.006	57270
517.077	92739
517.148	236745
517.219	741530
517.289	794330
517.360	241657
517.431	61661
517.502	32854
517.573	30267
517.643	29502
517.714	31644
517.785	32428
517.856	32171
517.926	39154
517.997	42929
518.068	51714
518.138	75403
518.209	146705
518.280	520529
518.350	1284440
518.421	348572
518.492	70849
518.562	48908
518.633	48618
518.703	54332
518.774	97818
518.845	185321
518.915	135866
518.986	55889
519.056	47438
519.127	74360
519.197	109703
519.268	214536
519.338	84567
519.408	36427
519.479	46320
519.549	26833
519.620	22323
519.690	17861
519.760	17932
519.831	19899
519.901	18565
519.971	17857
520.042	20198
520.112	23032
520.182	26992
520.253	28299
520.323	25302
520.393	51637
520.463	69472
520.534	58049
520.604	103291
520.674	32176
520.744	48104
520.814	134294
520.885	75429
520.955	82428
521.025	220352
521.095	46908
521.165	20158
521.235	18021
521.305	15321
521.375	15096
521.445	19722
521.515	23591
521.585	30153
521.655	23127
521.725	21469
521.795	18461
521.865	13114
521.935	26395
522.005	18645
522.075	14033
522.145	17568
522.215	18528
522.285	27189
522.355	36945
522.424	65157
522.494	46534
522.564	31520
522.634	72825
522.704	170852
522.774	39283
522.843	18217
522.913	18616
522.983	22339
523.053	16084
523.122	19749
523.192	31527
523.262	100528
523.331	62624
523.401	18407
523.471	13302
523.540	14468
523.610	11169
523.680	12547
523.749	13121
523.819	18642
523.888	15583
523.958	12647
524.027	13035
524.097	14945
524.166	13698
524.236	15348
524.305	15275
524.375	12260
524.444	11988
524.514	15322
524.583	14987
524.653	17655
524.722	20702
524.791	13250
524.861	14101
524.930	12394
524.999	15852
525.069	22022
525.138	16684
525.207	20663
525.277	14787
525.346	15883
525.415	15434
525.484	17504
525.554	19145
525.623	19348
525.692	18205
525.761	20359
525.830	22204
525.900	27878
525.969	43246
526.038	71327
526.107	164253
526.176	371483
526.245	228698
526.314	100389
526.383	224624
526.452	246194
526.522	455968
526.591	309349
526.660	96944
526.729	53421
526.797	70619
526.867	165957
526.935	569109
527.004	843423
527.073	301526
527.142	41986
527.211	25281
527.280	27662
527.349	22926
527.418	14545
527.487	15801
527.555	13561
527.624	12837
527.693	12015
527.762	13367
527.831	11864
527.899	12765
527.968	12348
528.037	11489
528.106	17555
528.174	28610
528.243	22543
528.312	35692
528.380	36005
528.449	12572
528.518	12768
528.586	8089
528.655	11401
528.723	9824
528.792	11542
528.861	11478
528.929	10066
528.998	11071
529.066	13625
529.135	15056
529.203	15374
529.272	17434
529.340	19871
529.409	19370
529.477	17741
529.545	21485
529.614	25008
529.682	30056
529.751	30846
529.819	35453
529.887	28213
529.956	23029
530.024	22686
530.092	20310
530.161	25841
530.229	31604
530.297	23919
530.365	22567
530.434	23804
530.502	21555
530.570	21305
530.638	18406
530.707	20965
530.775	19935
530.843	19317
530.911	20560
530.979	20135
531.047	23088
531.115	21788
531.183	20223
531.252	20249
531.320	19085
531.388	17851
531.456	21399
531.524	20763
531.592	23547
531.660	26622
531.728	21978
531.796	21915
531.864	22250
531.932	22840
532.000	21912
532.067	25364
532.135	26636
532.203	31114
532.271	32092
532.339	45803
532.407	83567
532.475	43218
532.542	32393
532.610	36222
532.678	52878
532.746	177119
532.814	274543
532.881	63554
532.949	28740
533.017	26050
533.084	24980
533.152	23929
533.220	23945
533.287	26580
533.355	23490
533.423	24428
533.490	23395
533.558	23640
533.625	23736
533.693	23604
533.761	22798
533.828	24861
533.896	25693
533.963	40332
534.031	45516
534.098	56367
534.166	28722
534.233	24706
534.300	26317
534.368	26616
534.435	23593
534.503	27237
534.570	30998
534.637	26629
534.705	27481
534.772	34084
534.840	61265
534.907	199483
534.974	150045
535.041	29210
535.109	25434
535.176	19865
535.243	20990
535.310	21307
535.378	18935
535.445	19456
535.512	17673
535.579	18964
535.646	17288
535.714	18814
535.781	20426
535.848	21606
535.915	21985
535.982	23318
536.049	21154
536.116	22580
536.183	19232
536.250	19738
536.317	19528
536.384	23542
536.451	27021
536.518	27355
536.585	21785
536.652	29134
536.719	32678
536.786	23297
536.853	22500
536.920	33624
536.987	43790
537.053	52845
537.120	181830
537.187	92383
537.254	19508
537.321	17694
537.388	17053
537.454	14546
537.521	14570
537.588	15201
537.654	17254
537.721	18634
537.788	17268
537.855	15884
537.921	16949
537.988	16621
538.055	17261
538.121	15289
538.188	18195
538.254	27660
538.321	38518
538.388	22640
538.454	16421
538.521	16247
538.587	13952
538.654	15461
538.720	14907
538.787	14738
538.853	16938
538.920	19834
538.986	18260
539.053	16796
539.119	17114
539.185	17284
539.252	21161
539.318	27292
539.385	20181
539.451	19263
539.517	20299
539.583	26378
539.650	64402
539.716	110537
539.782	24419
539.849	15651
539.915	16809
539.981	16441
540.047	18728
540.114	17614
540.180	19094
540.246	18482
540.312	26451
540.378	42819
540.444	39216
540.510	65904
540.576	126766
540.643	28110
540.709	15249
540.775	16284
540.841	16915
540.907	26196
540.973	38299
541.039	26877
541.105	22373
541.171	16540
541.237	15087
541.303	17545
541.369	20500
541.435	26528
541.500	32809
541.566	19049
541.632	14043
541.698	13616
541.764	14645
541.830	13839
541.896	13010
541.961	15123
542.027	14407
542.093	15968
542.159	17241
542.224	19176
542.290	26687
542.356	36739
542.421	33473
542.487	20466
542.553	16843
542.618	18681
542.684	16964
542.750	17656
542.815	22772
542.881	41535
542.947	127110
543.012	56701
543.078	14895
543.143	15175
543.209	15508
543.274	17110
543.340	22170
543.405	57288
543.471	57726
543.536	15458
543.602	15344
543.667	13361
543.732	14775
543.798	14224
543.863	14849
543.928	14233
543.994	12764
544.059	13640
544.124	13526
544.190	14713
544.255	14919
544.320	15627
544.386	16522
544.451	21721
544.516	23418
544.581	30249
544.646	87785
544.712	89493
544.777	20597
544.842	17994
544.907	18736
544.972	17184
545.037	17472
545.102	19473
545.168	18641
545.233	19854
545.298	21040
545.363	24610
545.428	27154
545.493	53451
545.558	87659
545.623	28571
545.688	18347
545.753	18437
545.818	17037
545.883	18972
545.947	18737
546.012	21333
546.077	18940
546.142	21133
546.207	20522
546.272	25255
546.337	24131
546.401	22485
546.466	21316
546.531	20585
546.596	23537
546.661	23958
546.725	22249
546.790	22581
546.855	23402
546.919	24157
546.984	26739
547.049	28851
547.113	33078
547.178	32108
547.243	38282
547.307	41851
547.372	46900
547.436	47020
547.501	43852
547.565	47010
547.630	47167
547.695	46117
547.759	47040
547.823	42877
547.888	42345
547.952	43808
548.017	46510
548.081	50218
548.146	52678
548.210	50322
548.274	48388
548.339	46410
548.403	43252
548.468	40079
548.532	40299
548.596	41949
548.660	41623
548.725	48175
548.789	52272
548.853	50962
548.917	46661
548.982	53158
549.046	45935
549.110	38217
549.174	38854
549.238	44430
549.303	44904
549.367	48336
549.431	44573
549.495	43267
549.559	43798
549.623	52634
549.687	56728
549.751	65172
549.815	63984
549.879	61023
549.943	58859
550.007	64125
550.071	62324
550.135	63420
550.199	54619
550.263	52593
550.327	53434
550.391	58548
550.455	56869
550.519	60180
550.582	64466
550.646	82009
550.710	76083
550.774	68752
550.838	69437
550.901	72537
550.965	76804
551.029	81759
551.093	91271
551.156	107178
551.220	141320
551.284	128039
551.347	95009
551.411	125675
551.475	103257
551.538	74587
551.602	66472
551.666	63803
551.729	59542
551.793	60341
551.856	61588
551.920	62392
551.983	59048
552.047	56318
552.110	56949
552.174	56478
552.237	57338
552.301	53836
552.364	51566
552.428	49360
552.491	52642
552.554	55412
552.618	53127
552.681	58212
552.745	58603
552.808	73361
552.871	81694
552.934	66588
552.998	57155
553.061	56106
553.124	54893
553.187	54711
553.251	58519
553.314	61692
553.377	71043
553.440	105396
553.503	267467
553.567	276950
553.630	71724
553.693	57457
553.756	53896
553.819	51744
553.882	48896
553.945	50290
554.008	48881
554.071	49880
554.134	50609
554.197	47216
554.260	46202
554.323	49925
554.386	48464
554.449	50454
554.512	49391
554.575	48126
554.638	46879
554.701	47233
554.764	45220
554.827	44839
554.889	42287
554.952	39651
555.015	40382
555.078	40572
555.141	40946
555.203	40388
555.266	41041
555.329	41470
555.391	38677
555.454	40938
555.517	38105
555.580	36959
555.642	34556
555.705	35434
555.768	35778
555.830	34672
555.893	32658
555.955	32522
556.018	31889
556.080	32316
556.143	33768
556.206	32062
556.268	33418
556.330	33423
556.393	31771
556.455	33069
556.518	40083
556.580	34436
556.643	28429
556.705	29064
556.767	27311
556.830	30105
556.892	32175
556.955	39568
557.017	30380
557.079	28551
557.142	27949
557.204	31858
557.266	48668
557.328	35216
557.391	24769
557.453	24934
557.515	26252
557.577	30413
557.639	28064
557.701	25027
557.764	24347
557.826	27003
557.888	28414
557.950	29407
558.012	35024
558.074	50217
558.136	119469
558.198	198280
558.260	52945
558.322	32569
558.384	33101
558.446	36122
558.508	40395
558.570	52770
558.632	81749
558.694	109345
558.756	157671
558.818	463364
558.880	735604
558.942	208372
559.003	218792
559.065	76769
559.127	41764
559.189	45725
559.251	57899
559.312	93832
559.374	238075
559.436	564229
559.498	171548
559.559	46660
559.621	45180
559.683	62130
559.744	113367
559.806	337339
559.868	319604
559.929	58983
559.991	53613
560.052	96254
560.114	216035
560.176	104173
560.237	144249
560.299	158697
560.360	32124
560.422	22891
560.483	21316
560.545	20105
560.606	18782
560.667	18926
560.729	18450
560.790	18000
560.852	17738
560.913	18047
560.974	17137
561.036	18634
561.097	17129
561.158	17975
561.220	17450
561.281	17654
561.342	18004
561.403	22424
561.465	28704
561.526	58020
561.587	52409
561.648	20486
561.709	17453
561.771	16952
561.832	16727
561.893	17671
561.954	16395
562.015	16040
562.076	16481
562.137	18074
562.198	16272
562.259	17817
562.320	17737
562.381	19366
562.442	24430
562.503	19668
562.564	16618
562.625	16281
562.686	15763
562.747	17588
562.808	16940
562.869	17476
562.930	19051
562.991	18744
563.051	16783
563.112	17193
563.173	16421
563.234	16210
563.294	15549
563.355	15661
563.416	15908
563.477	14801
563.537	16554
563.598	17154
563.659	15983
563.720	16156
563.780	16161
563.841	16197
563.901	16612
563.962	15933
564.023	15687
564.083	16504
564.144	16723
564.204	16983
564.265	17043
564.325	20188
564.386	33279
564.446	23272
564.507	14849
564.567	15255
564.628	16222
564.688	15764
564.749	15970
564.809	18580
564.869	19211
564.930	15520
564.990	16258
565.050	15756
565.111	15763
565.171	15418
565.231	15420
565.292	16296
565.352	14732
565.412	15524
565.472	16290
565.532	16862
565.593	15647
565.653	15843
565.713	16428
565.773	16675
565.833	19757
565.893	22162
565.953	16272
566.013	15871
566.074	17577
566.134	22706
566.194	29895
566.254	27628
566.314	19282
566.374	16391
566.434	16839
566.494	17336
566.554	16666
566.614	17743
566.673	16408
566.733	18716
566.793	19440
566.853	19292
566.913	18429
566.973	19059
567.033	19156
567.092	19846
567.152	19162
567.212	19366
567.272	19639
567.331	20118
567.391	19675
567.451	22072
567.511	26668
567.570	24961
567.630	19272
567.690	18364
567.749	19053
567.809	19574
567.868	20493
567.928	23240
567.988	23608
568.047	25444
568.107	29757
568.166	35300
568.226	47413
568.285	58871
568.345	52854
568.404	43809
568.464	39435
568.523	37694
568.582	38683
568.642	42916
568.701	50869
568.761	67445
568.820	91304
568.879	89224
568.939	73786
568.998	56984
569.057	44802
569.116	38450
569.176	32801
569.235	29265
569.294	26712
569.353	24807
569.413	23023
569.472	21772
569.531	20129
569.590	19440
569.649	18964
569.708	18188
569.767	19924
569.827	23376
569.886	18676
569.945	17157
570.004	17167
570.063	16654
570.122	17754
570.181	18573
570.240	18757
570.299	19712
570.358	19678
570.417	15366
570.475	15005
570.534	16473
570.593	16758
570.652	18360
570.711	16732
570.770	14958
570.829	15634
570.887	16833
570.946	16804
571.005	15083
571.064	14462
571.122	16204
571.181	16264
571.240	14533
571.299	13729
571.357	15178
571.416	15133
571.475	17596
571.533	16289
571.592	14786
571.650	15301
571.709	14827
571.768	14491
571.826	14813
571.885	13760
571.943	13547
572.002	13125
572.060	14492
572.119	12246
572.177	13389
572.236	12146
572.294	13021
572.352	13825
572.411	13474
572.469	12389
572.528	13385
572.586	13925
572.644	15462
572.703	17834
572.761	14483
572.819	12669
572.877	12331
572.936	11931
572.994	12268
573.052	10793
573.110	13812
573.169	12925
573.227	12752
573.285	12204
573.343	13050
573.401	11961
573.459	13292
573.517	11950
573.576	12207
573.634	12290
573.692	13638
573.750	12488
573.808	12596
573.866	12969
573.924	16319
573.982	13939
574.040	12196
574.098	11203
574.155	10991
574.213	11826
574.271	12543
574.329	12206
574.387	12171
574.445	12023
574.503	10985
574.560	10016
574.618	10663
574.676	9677
574.734	10812
574.792	10412
574.849	10808
574.907	10106
574.965	11676
575.022	9847
575.080	10520
575.138	11593
575.195	11929
575.253	11571
575.311	11387
575.368	11184
575.426	10248
575.483	11292
575.541	10666
575.598	10759
575.656	10675
575.713	11162
575.771	10861
575.828	10477
575.886	10720
575.943	11464
576.001	11636
576.058	10191
576.115	12363
576.173	13268
576.230	14842
576.287	14611
576.345	12576
576.402	11121
576.459	11640
576.517	11085
576.574	12890
576.631	12673
576.688	11483
576.746	10469
576.803	11400
576.860	10439
576.917	12037
576.974	10422
577.031	11824
577.089	11128
577.146	12182
577.203	11449
577.260	11117
577.317	11989
577.374	12687
577.431	12896
577.488	11995
577.545	11044
577.602	13638
577.659	11935
577.716	16451
577.773	16957
577.830	14605
577.886	12219
577.943	11546
578.000	11465
578.057	12705
578.114	12966
578.171	14332
578.227	16024
578.284	15863
578.341	14745
578.398	13294
578.454	13055
578.511	13313
578.568	13565
578.625	11896
578.681	11643
578.738	12386
578.794	11229
578.851	12336
578.908	12078
578.964	13261
579.021	12527
579.077	12424
579.134	12338
579.190	11723
579.247	10840
579.303	10864
579.360	10230
579.416	11191
579.473	10657
579.529	11247
579.586	11475
579.642	12060
579.698	11746
579.755	12136
579.811	12313
579.867	12561
579.924	12200
579.980	13753
580.036	14855
580.093	16155
580.149	21580
580.205	23686
580.261	18439
580.317	16706
580.374	15379
580.430	16886
580.486	15108
580.542	14796
580.598	13921
580.619	13704
580.654	13347
580.692	12555
580.710	12192
580.765	13821
580.767	13893
580.823	12766
580.838	13087
580.879	13999
580.911	13082
580.935	12443
580.984	12654
580.991	12701
581.047	12980
581.057	12984
581.103	13130
581.130	13624
581.159	14154
581.203	15298
581.215	15627
581.270	14125
581.276	14090
581.326	13956
581.349	13986
581.382	14042
581.422	13800
581.438	13725
581.494	13554
581.494	13534
581.550	13014
581.567	13301
581.606	13941
581.640	13420
581.661	13136
581.713	13366
581.717	13392
581.773	13476
581.786	13300
581.829	12802
581.859	13329
581.885	13820
581.932	13821
581.940	13821
581.996	14046
582.004	13936
582.052	13458
582.077	13573
582.107	13663
582.150	12693
582.163	12455
582.219	13045
582.223	13088
582.274	13572
582.296	13773
582.330	14104
582.368	13846
582.386	13810
582.441	14657
582.441	14665
582.497	14047
582.514	14468
582.552	15585
582.587	17021
582.608	17812
582.659	15413
582.663	15237
582.719	13465
582.732	13560
582.774	14040
582.805	13918
582.830	13762
582.877	14461
582.885	14578
582.941	14730
582.950	14938
582.996	16063
583.023	16704
583.052	17551
583.095	17890
583.107	17933
583.162	18878
583.168	18842
583.218	18331
583.240	17800
583.273	17137
583.313	16283
583.328	15967
583.384	15063
583.385	15036
583.439	13989
583.458	13825
583.494	13658
583.531	13503
583.549	13506
583.603	13808
583.605	13800
583.660	13051
583.676	12945
583.715	12936
583.748	13411
583.770	13730
583.820	13221
583.825	13145
583.881	13047
583.893	12976
583.936	12818
583.965	12781
583.991	12750
584.038	12595
584.046	12569
584.101	12507
584.110	12555
584.156	12842
584.183	12941
584.211	12845
584.255	12100
584.266	11970
584.321	12845
584.328	12886
584.376	13213
584.400	13124
584.431	12804
584.472	13070
584.486	13164
584.541	13571
584.545	13559
584.596	13316
584.617	13526
584.651	14155
584.689	14635
584.706	14551
584.761	14413
584.762	14415
584.816	13979
584.834	14172
584.871	14299
584.906	14403
584.926	14501
584.978	14416
584.980	14402
585.035	14796
585.051	15338
585.090	16937
585.123	17107
585.145	16796
585.195	17367
585.200	17494
585.254	18679
585.267	19778
585.309	22965
585.340	24288
585.364	25021
585.412	23334
585.419	23120
585.473	26927
585.484	28282
585.528	34268
585.556	41168
585.583	49070
585.628	72046
585.637	77677
585.692	148076
585.700	157177
585.747	197458
585.772	148324
585.801	83110
585.845	38775
585.856	30471
585.910	21679
585.917	21045
585.965	18621
585.989	18236
586.019	17564
586.061	17513
586.074	17562
586.128	16314
586.133	16433
586.183	17491
586.205	17153
586.237	16345
586.277	16152
586.292	16161
586.346	15756
586.349	15826
586.401	16416
586.421	16592
586.455	16879
586.493	17651
586.509	17976
586.564	20021
586.565	20215
586.618	27633
586.637	26111
586.672	21831
586.709	19475
586.727	18470
586.781	18387
586.781	18350
586.835	16952
586.853	16613
586.889	16286
586.925	16418
586.944	16388
586.996	16539
586.998	16516
587.052	17856
587.068	17704
587.106	17082
587.140	17351
587.161	17479
587.212	17570
587.215	17529
587.269	18324
587.284	18455
587.323	18811
587.356	19097
587.377	19195
587.427	19792
587.431	19832
587.485	21231
587.499	21575
587.539	21875
587.571	22555
587.593	23097
587.643	24132
587.648	24160
587.702	24864
587.715	25325
587.755	26571
587.786	27377
587.810	27693
587.858	28739
587.864	28871
587.917	30876
587.930	31716
587.971	34558
588.001	36297
588.025	37167
588.073	39341
588.079	39621
588.133	43757
588.145	45035
588.187	49279
588.217	52404
588.241	54824
588.288	60681
588.295	61433
588.348	70544
588.360	72794
588.402	81128
588.431	88804
588.456	95289
588.503	109674
588.510	111626
588.564	134886
588.575	141313
588.617	165682
588.646	187112
588.671	208488
588.718	262370
588.725	272542
588.778	374867
588.789	401769
588.832	542570
588.861	649530
588.886	758449
588.932	897488
588.939	898090
588.993	855329
589.004	864542
589.047	773866
589.075	642860
589.100	534120
589.147	352273
589.154	335480
589.207	255179
589.218	244106
589.261	224364
589.290	221460
589.314	227582
589.361	255730
589.368	263202
589.421	352733
589.433	378512
589.475	531910
589.504	640961
589.528	717254
589.576	796432
589.582	776716
589.635	616474
589.647	566601
589.689	372026
589.718	254087
589.742	204864
589.790	135417
589.795	130117
589.849	98350
589.861	92769
589.902	79282
589.932	70205
589.955	64054
590.004	53699
590.009	52673
590.062	46183
590.075	44889
590.115	40447
590.146	37584
590.168	35924
590.218	33081
590.222	32725
590.275	30447
590.289	30043
590.328	28432
590.360	27275
590.381	26518
590.431	25384
590.435	25141
590.488	23284
590.503	22811
590.541	22237
590.574	21967
590.594	21329
590.645	20639
590.647	20529
590.700	19712
590.716	19674
590.753	19331
590.787	19329
590.806	18822
590.859	17549
590.859	17450
590.912	17165
590.930	17130
590.965	16820
591.001	16751
591.018	16511
591.071	15887
591.072	15968
591.124	16030
591.143	16267
591.177	15667
591.214	15103
591.230	15269
591.283	16216
591.285	16333
591.336	15719
591.356	15613
591.389	15187
591.427	14620
591.442	14355
591.495	13962
591.498	14014
591.547	13739
591.569	13715
591.600	13302
591.640	12948
591.653	12906
591.706	12997
591.711	13102
591.759	12970
591.782	13097
591.811	13482
591.853	14083
591.864	13745
591.917	12420
591.924	12329
591.969	13245
591.995	13914
592.022	13363
592.066	12639
592.075	12611
592.127	13035
592.137	13227
592.180	13544
592.208	13732
592.233	13011
592.279	12040
592.285	11969
592.338	12160
592.350	12287
592.390	12079
592.421	12093
592.443	12024
592.491	12152
592.495	12008
592.548	11277
592.562	11175
592.600	11119
592.633	11244
592.653	11170
592.704	11173
592.705	11234
592.775	11238
592.846	11372
592.916	11707
592.987	12346
593.058	11807
593.128	11106
593.199	11451
593.270	11596
593.341	11542
593.411	10982
593.482	12664
593.553	12255
593.623	11525
593.694	12284
593.764	11192
593.835	11074
593.906	11087
593.976	11228
594.047	11049
594.117	12306
594.188	11373
594.258	10869
594.329	10856
594.399	11040
594.470	11720
594.540	12726
594.611	11742
594.681	11817
594.751	10978
594.822	11995
594.892	11711
594.963	10955
595.033	12071
595.103	12087
595.174	12840
595.244	14482
595.314	14922
595.384	12987
595.455	12582
595.525	13422
595.595	13998
595.665	13805
595.736	12776
595.806	13280
595.876	12481
595.946	12765
596.016	13420
596.087	14360
596.157	14427
596.227	13601
596.297	14615
596.367	14631
596.437	15621
596.507	16277
596.577	17979
596.647	16976
596.717	16542
596.787	15913
596.857	17188
596.927	16757
596.997	16829
597.067	17150
597.137	18368
597.207	18147
597.277	17809
597.347	17124
597.417	16567
597.487	17615
597.557	17409
597.626	18209
597.696	18313
597.766	18713
597.836	19158
597.906	16454
597.975	15973
598.045	16336
598.115	16897
598.185	17357
598.254	19702
598.324	21382
598.394	20497
598.464	21115
598.533	20825
598.603	19784
598.672	17834
598.742	19938
598.812	19548
598.881	20056
598.951	19173
599.020	18812
599.090	20858
599.159	20852
599.229	20069
599.299	20238
599.368	20352
599.437	20013
599.507	18671
599.576	19888
599.646	19554
599.715	19740
599.785	18651
599.854	19091
599.924	18595
599.993	18807
600.062	18814
600.132	19127
600.201	19400
600.270	23373
600.340	23499
600.409	22974
600.478	23352
600.547	23122
600.617	22405
600.686	19015
600.755	18922
600.824	19302
600.894	18141
600.963	17896
601.032	18614
601.101	18470
601.170	17922
601.239	17789
601.308	18858
601.378	18325
601.447	18856
601.516	18672
601.585	20268
601.654	20664
601.723	20998
601.792	20839
601.861	20875
601.930	24388
601.999	24656
602.068	22767
602.137	22880
602.206	23057
602.275	23097
602.343	23769
602.412	24397
602.481	24216
602.550	24007
602.619	24291
602.688	24753
602.756	24893
602.825	25403
602.894	25329
602.963	25566
603.032	25646
603.100	25014
603.169	25032
603.238	25863
603.307	25385
603.375	25490
603.444	26390
603.513	24994
603.581	25628
603.650	27471
603.719	23623
603.787	21501
603.856	24251
603.924	23945
603.993	24677
604.061	25037
604.130	26514
604.198	26482
604.267	27162
604.335	27113
604.404	28220
604.472	27722
604.541	27801
604.609	29684
604.678	30096
604.746	30256
604.815	30757
604.883	30587
604.951	30281
605.020	30240
605.088	30504
605.156	28714
605.225	28753
605.293	28560
605.361	29434
605.429	29781
605.498	30032
605.566	29165
605.634	31895
605.702	31546
605.771	32353
605.839	32880
605.907	31270
605.975	30559
606.043	31004
606.111	30289
606.180	32192
606.248	29766
606.316	30697
606.384	30070
606.452	28667
606.520	26826
606.588	25921
606.656	25412
606.724	25099
606.792	23473
606.860	21562
606.928	19371
606.996	19610
607.064	18104
607.132	18764
607.200	20103
607.267	20670
607.335	20870
607.403	22320
607.471	20999
607.539	20500
607.607	20272
607.674	18941
607.742	18973
607.810	18702
607.878	18269
607.946	18105
608.013	18682
608.081	19009
608.149	19606
608.216	19237
608.284	21227
608.352	20128
608.419	19405
608.487	21459
608.555	18639
608.622	20585
608.690	21342
608.757	22654
608.825	23411
608.893	23235
608.960	22820
609.028	22260
609.095	21481
609.163	20634
609.230	18552
609.298	17958
609.365	17695
609.432	20168
609.500	20683
609.567	23986
609.635	27892
609.702	27909
609.769	27045
609.837	21338
609.904	19077
609.971	18900
610.039	22180
610.106	28376
610.173	53514
610.241	120159
610.308	69577
610.375	26817
610.442	19563
610.509	18385
610.577	20013
610.644	19466
610.711	18679
610.778	20581
610.845	19804
610.912	22242
610.980	23700
611.047	26201
611.114	23781
611.181	22794
611.248	20600
611.315	25172
611.382	23043
611.449	24291
611.516	26691
611.583	24831
611.650	24797
611.717	25539
611.784	25564
611.851	28153
611.918	30625
611.984	34622
612.051	53577
612.118	106959
612.185	258337
612.252	153866
612.319	40927
612.386	33475
612.452	29992
612.519	27733
612.586	28314
612.653	28846
612.719	28918
612.786	28029
612.853	26192
612.919	25167
612.986	25684
613.053	24248
613.120	21713
613.186	21072
613.253	23360
613.319	22180
613.386	21779
613.453	21820
613.519	23785
613.586	23430
613.652	28578
613.719	24999
613.785	25251
613.852	24082
613.918	22239
613.985	26174
614.051	27086
614.118	34780
614.184	33214
614.250	23837
614.317	24267
614.383	22497
614.449	23848
614.516	24030
614.582	23359
614.648	22126
614.715	22499
614.781	22095
614.847	23560
614.914	21206
614.980	21780
615.046	21701
615.112	23283
615.179	22986
615.245	23278
615.311	24530
615.377	26669
615.443	27683
615.509	25401
615.575	25311
615.642	24325
615.708	26525
615.774	27094
615.840	30513
615.906	32724
615.972	42521
616.038	68905
616.104	138854
616.170	322306
616.236	256992
616.302	62191
616.368	42961
616.434	31814
616.500	30809
616.565	33684
616.631	39418
616.697	32688
616.763	34237
616.829	48696
616.895	82941
616.961	76098
617.026	35436
617.092	26173
617.158	26200
617.224	24504
617.289	24138
617.355	23192
617.421	21339
617.487	23369
617.552	22526
617.618	21164
617.684	21311
617.749	23568
617.815	21705
617.880	20795
617.946	21656
618.012	21484
618.077	20402
618.143	20490
618.208	21287
618.274	23207
618.339	21895
618.405	16844
618.470	18518
618.536	17645
618.601	17944
618.667	17369
618.732	17175
618.798	16685
618.863	16487
618.928	16684
618.994	17976
619.059	17102
619.124	20296
619.190	16997
619.255	15895
619.320	16443
619.386	16268
619.451	15318
619.516	15741
619.581	14927
619.647	16227
619.712	16480
619.777	16167
619.842	15330
619.907	16401
619.972	16225
620.038	17272
620.103	16928
620.168	15332
620.233	16816
620.298	16566
620.363	17144
620.428	17785
620.493	17904
620.558	18190
620.623	17714
620.688	17729
620.753	17982
620.818	17269
620.883	17860
620.948	16994
621.013	16470
621.078	15747
621.143	14730
621.207	16792
621.272	15520
621.337	15109
621.402	15513
621.467	16474
621.532	16742
621.596	15809
621.661	16041
621.726	15018
621.791	15653
621.855	16653
621.920	16073
621.985	15448
622.049	17046
622.114	16151
622.179	16497
622.243	15937
622.308	15650
622.373	18422
622.437	16642
622.502	15585
622.566	16083
622.631	14688
622.695	17540
622.760	16269
622.824	16036
622.889	16428
622.953	16516
623.018	20700
623.082	20016
623.147	17416
623.211	16587
623.276	16470
623.340	15480
623.404	16703
623.469	15042
623.533	15858
623.597	14220
623.662	15357
623.726	14258
623.790	12525
623.854	13166
623.919	13449
623.983	13430
624.047	13642
624.111	13620
624.176	14578
624.240	13551
624.304	16784
624.368	13840
624.432	14202
624.496	13885
624.560	15188
624.625	15652
624.689	15640
624.753	14463
624.817	14952
624.881	12907
624.945	14388
625.009	13558
625.073	13499
625.137	12527
625.201	15247
625.265	14768
625.329	13585
625.393	13866
625.456	13550
625.520	13754
625.584	14690
625.648	15596
625.712	17136
625.776	22077
625.839	23427
625.903	13722
625.967	11292
626.031	16587
626.095	18617
626.158	13204
626.222	8600
626.286	10068
626.349	9023
626.413	8123
626.477	10714
626.540	8254
626.604	8171
626.668	10608
626.731	8742
626.795	8516
626.858	8850
626.922	8712
626.986	9388
627.049	7179
627.113	9710
627.176	8514
627.240	8727
627.303	8169
627.366	8055
627.430	8765
627.493	9333
627.557	7875
627.620	9811
627.684	8442
627.747	9439
627.810	6640
627.874	6872
627.937	6256
628.000	9174
628.064	7065
628.127	4590
628.190	6212
628.253	5604
628.317	5303
628.380	6410
628.443	5956
628.506	5984
628.569	5825
628.632	5212
628.696	5802
628.759	6113
628.822	4753
628.885	4878
628.948	5485
629.011	5802
629.074	4640
629.137	4826
629.200	4326
629.263	5854
629.326	4698
629.389	4326
629.452	4846
629.515	5176
629.578	4589
629.641	5645
629.704	4712
629.767	4858
629.830	4603
629.892	4897
629.955	4380
630.018	5868
630.081	4459
630.144	6924
630.207	3830
630.269	6300
630.332	4613
630.395	3995
630.458	4485
630.520	3241
630.583	5581
630.646	4136
630.708	3543
630.771	2884
630.834	5427
630.896	4002
630.959	4110
631.021	4359
631.084	4231
631.146	4353
631.209	5121
631.272	4005
631.334	4361
631.397	4249
631.459	3733
631.522	4656
631.584	5059
631.646	5201
631.709	4806
631.771	5849
631.834	5836
631.896	4884
631.958	3621
632.021	5199
632.083	3115
632.145	4633
632.208	3176
632.270	5143
632.332	2777
632.395	3600
632.457	5038
632.519	3123
632.581	4499
632.643	2980
632.706	3555
632.768	2444
632.830	4821
632.892	4205
632.954	2867
633.016	4784
633.078	3293
633.141	3752
633.203	4100
633.265	3826
633.327	4639
633.389	3745
633.451	4514
633.513	4148
633.575	4710
633.637	3236
633.698	4275
633.760	4276
633.822	3628
633.884	3834
633.946	3670
634.008	3338
634.070	4513
634.132	5597
634.193	4288
634.255	5240
634.317	3960
634.379	6239
634.441	3883
634.502	2589
634.564	4311
634.626	3511
634.687	3548
634.749	3667
634.811	3523
634.873	2213
634.934	3386
634.996	4156
635.057	2956
635.119	2364
635.181	3281
635.242	4039
635.304	1715
635.365	4874
635.427	2264
635.488	3141
635.550	2575
635.611	2753
635.673	1256
635.734	4653
635.796	3214
635.857	5713
635.918	2821
635.980	5108
636.041	3850
636.102	5350
636.164	4855
636.225	5523
636.286	3086
636.348	3841
636.409	3832
636.470	2544
636.531	3038
636.593	2653
636.654	3920
636.715	2861
636.776	2726
636.838	2842
636.899	2468
636.960	2355
637.021	2620
637.082	2356
637.143	3276
637.204	2187
637.265	1879
637.326	3428
637.387	3114
637.448	561
637.509	3054
637.570	1705
637.631	3655
637.692	1340
637.753	1124
637.814	2516
637.875	2580
637.936	2689
637.997	1367
638.058	1983
638.119	3058
638.179	1676
638.240	2524
638.301	1901
638.362	1911
638.423	1416
638.483	3246
638.544	1507
638.605	2722
638.666	1290
638.726	2980
638.787	3604
638.848	2229
638.908	1765
638.969	1835
639.030	2512
639.090	1672
639.151	955
639.211	3371
639.272	3123
639.332	4540
639.393	3195
639.453	1736
639.514	2005
639.574	2168
639.635	1633
639.695	2090
639.756	794
639.816	1836
639.877	2234
639.937	4943
639.997	5118
640.058	1166
640.118	1208
640.178	2734
640.239	2215
640.299	1274
640.359	633
640.420	2068
640.480	2756
640.540	1764
640.600	1973
640.661	2092
640.721	1046
640.781	3018
640.841	625
640.901	2764
640.961	2097
641.021	2464
641.082	2454
641.142	3462
641.202	3688
641.262	-240
641.322	2814
641.382	363
641.442	2103
641.502	1799
641.562	2559
641.622	1589
641.682	2395
641.742	1630
641.802	1358
641.861	1848
641.921	1645
641.981	2121
642.041	2760
642.101	1898
642.161	519
642.221	1469
642.280	1847
642.340	2116
642.400	686
642.460	2114
642.519	854
642.579	1385
642.639	1808
642.698	-384
642.758	2787
642.818	888
642.877	1014
642.937	1145
642.997	2438
643.056	2970
643.116	743
643.175	2136
643.235	1045
643.294	698
643.354	2018
643.414	2410
643.473	3356
643.532	2204
643.592	4691
643.651	9138
643.711	18425
643.770	37332
643.830	91596
643.889	193946
643.948	42032
644.008	7267
644.067	3382
644.126	2289
644.186	1878
644.245	3119
644.304	540
644.363	3499
644.423	1152
644.482	1311
644.541	1959
644.600	568
644.659	2776
644.719	2666
644.778	4264
644.837	8295
644.896	18325
644.955	42441
645.014	14367
645.073	4008
645.132	1420
645.191	2776
645.250	1806
645.309	2590
645.368	1736
645.427	2856
645.486	3615
645.545	8970
645.604	1813
645.663	2084
645.722	1619
645.781	2112
645.840	2032
645.898	2935
645.957	6395
646.016	7308
646.075	16698
646.134	34002
646.192	91133
646.251	132046
646.310	18646
646.369	4816
646.427	3767
646.486	1552
646.545	1762
646.603	1841
646.662	1802
646.721	2165
646.779	771
646.838	597
646.896	2395
646.955	2676
647.014	5021
647.072	8784
647.131	27034
647.189	11593
647.248	1337
647.306	2099
647.365	1821
647.423	-328
647.481	2521
647.540	-45
647.598	1106
647.657	586
647.715	1335
647.773	-779
647.832	1998
647.890	223
647.948	178
648.007	1244
648.065	-28
648.123	132
648.181	1900
648.240	1676
648.298	786
648.356	1030
648.414	952
648.472	809
648.531	385
648.589	528
648.647	858
648.705	200
648.763	494
648.821	419
648.879	354
648.937	540
648.995	1006
649.053	1318
649.111	3332
649.169	7121
649.227	11801
649.285	25963
649.343	77595
649.401	36785
649.459	8024
649.516	5925
649.574	1478
649.632	6891
649.690	7788
649.748	3686
649.806	4063
649.863	9743
649.921	19479
649.979	10356
650.037	1982
650.094	-1040
650.152	688
650.210	-1015
650.268	997
650.325	737
650.383	524
650.440	-90
650.498	173
650.556	958
650.613	-960
650.671	207
650.728	1155
650.786	199
650.843	669
650.901	-1098
650.958	293
651.016	-245
651.073	534
651.131	8
651.188	-581
651.246	350
651.303	-229
651.360	70
651.418	-212
651.475	778
651.532	19
651.590	898
651.647	-669
651.704	-532
651.762	-844
651.819	-297
651.876	-430
651.933	-327
651.990	333
652.048	-1456
652.105	-432
652.162	398
652.219	-324
652.276	-31
652.333	-196
652.390	-650
652.448	428
652.505	-19
652.562	37
652.619	700
652.676	920
652.733	2158
652.790	-615
652.847	-1639
652.904	1227
652.961	-964
653.017	420
653.074	-299
653.131	46
653.188	-1350
653.245	-512
653.302	359
653.359	-525
653.415	496
653.472	-472
653.529	308
653.586	-790
653.642	-1111
653.699	157
653.756	-734
653.813	-643
653.869	521
653.926	-841
653.983	-544
654.039	103
654.096	-298
654.152	441
654.209	-638
654.266	1145
654.322	-1699
654.379	-516
654.435	71
654.492	-315
654.548	798
654.605	1279
654.661	1035
654.717	133
654.774	224
654.830	-319
654.887	-868
654.943	-457
655.000	105
655.056	416
655.112	-637
655.168	-1147
655.225	248
655.281	110
655.337	-222
655.394	-273
655.450	-98
655.506	421
655.562	-9
655.618	1516
655.675	-627
655.731	-548
655.787	-859
655.843	376
655.899	-217
655.955	421
656.011	-594
656.067	-383
656.123	80
656.179	143
656.235	1094
656.291	-1218
656.347	1203
656.403	304
656.459	-247
656.515	-679
656.571	-290
656.627	355
656.683	-121
656.739	-207
656.795	273
656.850	-10
656.906	-53
656.962	257
657.018	-238
657.074	397
657.129	-244
657.185	848
657.241	1561
657.297	538
657.352	170
657.408	-1217
657.464	1482
657.519	-222
657.575	-1117
657.630	-242
657.686	-330
657.742	-356
657.797	-357
657.853	240
657.908	835
657.964	-1017
658.019	-303
658.075	269
658.130	-421
658.186	-962
658.241	273
658.297	-812
658.352	-944
658.407	244
658.463	-1251
658.518	110
658.573	-479
658.629	-954
658.684	-725
658.739	-464
658.795	-463
658.850	518
658.905	-1205
658.960	-501
659.016	-812
659.071	-338
659.126	-390
659.181	-280
659.236	698
659.291	1604
659.346	-473
659.401	699
659.457	767
659.512	467
659.567	901
659.622	-339
659.677	-494
659.732	-1048
659.787	248
659.842	-309
659.897	272
659.952	291
660.007	-448
660.061	-373
660.116	-958
660.171	-270
660.226	-515
660.281	861
660.336	-652
660.391	-248
660.445	-397
660.500	332
660.555	-540
660.610	-627
660.664	74
660.719	-430
660.774	-29
660.828	-34
660.883	-288
660.938	-75
660.992	-1390
661.047	233
661.101	-967
661.156	-513
661.211	-1200
661.265	-335
661.320	-242
661.374	-138
661.429	-983
661.483	445
661.538	-1757
661.592	-675
661.647	179
661.701	10
661.755	-289
661.810	318
661.864	-1461
661.919	-2152
661.973	193
662.027	-1266
662.081	-773
662.136	-834
662.190	205
662.244	-79
662.299	-765
662.353	97
662.407	-748
662.461	-546
662.515	-968
662.569	-674
662.624	145
662.678	-1033
662.732	-516
662.786	-766
662.840	-829
662.894	415
662.948	31
663.002	115
663.056	282
663.110	-763
663.164	-626
663.218	-335
663.272	778
663.326	407
663.380	-406
663.434	-560
663.488	-444
663.542	144
663.595	-454
663.649	-1033
663.703	570
663.757	-72
663.811	-668
663.864	-127
663.918	-177
663.972	-685
664.026	-599
664.079	-161
664.133	342
664.187	10
664.240	-522
664.294	46
664.348	-288
664.401	-233
664.455	-730
664.508	181
664.562	138
664.615	50
664.669	-676
664.722	-178
664.776	-41
664.829	165
664.883	-409
664.936	-972
664.990	-608
665.043	571
665.097	40
665.150	793
665.203	-503
665.257	124
665.310	8
665.363	-597
665.417	226
665.470	-560
665.523	-625
665.576	465
665.630	119
665.683	-311
665.736	-78
665.789	-186
665.842	-1536
665.895	-450
665.949	410
666.002	-181
666.055	154
666.108	495
666.161	-350
666.214	308
666.267	241
666.320	257
666.373	-257
666.426	110
666.479	-478
666.532	-544
666.585	607
666.638	834
666.691	-343
666.744	1283
666.796	-486
666.849	84
666.902	968
666.955	-299
667.008	-30
667.060	-880
667.113	-371
667.166	511
667.219	-389
667.271	-163
667.324	-284
667.377	52
667.430	711
667.482	505
667.535	626
667.587	541
667.640	58
667.693	399
667.745	1234
667.798	1162
667.850	296
667.903	584
667.955	-583
668.008	-463
668.060	886
668.113	163
668.165	345
668.218	758
668.270	729
668.322	-141
668.375	396
668.427	476
668.479	564
668.532	-599
668.584	537
668.636	-469
668.689	435
668.741	528
668.793	-630
668.845	-381
668.898	14
668.950	386
669.002	-136
669.054	148
669.106	-228
669.158	495
669.211	545
669.263	348
669.315	1209
669.367	1192
669.419	-115
669.471	550
669.523	-43
669.575	903
669.627	72
669.679	205
669.731	526
669.783	259
669.835	1209
669.886	195
669.938	282
669.990	484
670.042	-11
670.094	1180
670.146	-58
670.197	1260
670.249	1709
670.301	741
670.353	2104
670.404	3130
670.456	3721
670.508	7117
670.560	10688
670.611	18325
670.663	32620
670.715	85182
670.766	159849
670.818	65356
670.869	9296
670.921	4381
670.972	3535
671.024	971
671.075	1654
671.127	1629
671.178	153
671.230	520
671.281	595
671.333	605
671.384	364
671.436	971
671.487	2201
671.538	2041
671.590	3061
671.641	4201
671.692	8177
671.744	17788
671.795	14196
671.846	5276
671.897	2637
671.949	1586
672.000	1217
672.051	726
672.102	700
672.153	715
672.204	502
672.256	404
672.307	1065
672.358	1212
672.409	1467
672.460	568
672.511	-229
672.562	122
672.613	375
672.664	-477
672.715	-307
672.766	686
672.817	-551
672.868	435
672.919	400
672.970	335
673.021	690
673.071	-272
673.122	-38
673.173	757
673.224	137
673.275	554
673.326	365
673.376	-230
673.427	-149
673.478	1022
673.528	606
673.579	879
673.630	60
673.680	1577
673.731	-722
673.782	-252
673.832	804
673.883	1079
673.934	-335
673.984	20
674.035	393
674.085	1194
674.136	292
674.186	-52
674.237	168
674.287	951
674.338	770
674.388	210
674.438	419
674.489	579
674.539	152
674.589	677
674.640	717
674.690	54
674.740	-83
674.791	119
674.841	-2
674.891	524
674.942	226
674.992	1025
675.042	654
675.092	292
675.142	-977
675.193	985
675.243	-149
675.293	559
675.343	343
675.393	211
675.443	623
675.493	-368
675.543	-983
675.593	547
675.643	99
675.693	1824
675.743	1147
675.793	42
675.843	79
675.893	78
675.943	379
675.993	807
676.043	458
676.093	997
676.142	91
676.192	204
676.242	661
676.292	431
676.341	-234
676.391	-22
676.441	-915
676.491	394
676.540	-607
676.590	233
676.640	383
676.689	1512
676.739	-726
676.789	355
676.838	-1221
676.888	-577
676.937	-396
676.987	-271
677.037	-60
677.086	-340
677.136	-55
677.185	330
677.235	-667
677.284	-24
677.333	-459
677.383	-120
677.432	-1059
677.482	523
677.531	307
677.580	-488
677.630	-798
677.679	-10
677.728	88
677.778	1403
677.827	176
677.876	-196
677.925	-600
677.975	349
678.024	22
678.073	-318
678.122	936
678.171	-260
678.220	-323
678.269	968
678.319	556
678.368	13
678.417	118
678.466	999
678.515	1090
678.564	306
678.613	-330
678.662	11
678.711	466
678.760	-479
678.809	217
678.857	61
678.906	699
678.955	374
679.004	520
679.053	-245
679.102	75
679.151	258
679.199	26
679.248	314
679.297	-312
679.346	-156
679.394	275
679.443	28
679.492	67
679.540	275
679.589	850
679.638	-272
679.686	66
679.735	161
679.784	-525
679.832	329
679.881	-661
679.929	367
679.978	109
680.026	-159
680.075	-788
680.123	-388
680.172	-596
680.220	1226
680.268	-234
680.317	-623
680.365	249
680.414	-580
680.462	-438
680.510	602
680.559	-498
680.607	-66
680.655	-629
680.703	957
680.752	-476
680.800	13
680.848	-170
680.896	25
680.945	-395
680.993	362
681.041	555
681.089	-192
681.137	264
681.185	51
681.233	-334
681.258	-80
681.281	146
681.329	98
681.377	685
681.380	681
681.425	375
681.473	94
681.502	-59
681.521	-192
681.569	1359
681.617	304
681.624	245
681.665	-219
681.713	1015
681.745	272
681.761	-107
681.809	-264
681.857	-149
681.867	-179
681.904	-343
681.952	473
681.989	525
682.000	527
682.048	296
682.096	79
682.111	295
682.143	746
682.191	261
682.233	1400
682.239	1551
682.286	277
682.334	169
682.354	23
682.382	-187
682.430	1189
682.476	134
682.477	102
682.525	173
682.572	-281
682.598	-360
682.620	-444
682.667	628
682.715	438
682.720	416
682.763	79
682.810	155
682.841	325
682.857	403
682.905	237
682.952	939
682.963	852
683.000	441
683.047	780
683.085	1170
683.095	1284
683.142	623
683.190	989
683.206	821
683.237	422
683.284	1248
683.328	814
683.332	771
683.379	1050
683.426	465
683.449	488
683.473	516
683.521	660
683.568	809
683.571	827
683.615	880
683.662	1453
683.693	1002
683.709	737
683.757	856
683.804	1427
683.814	1311
683.851	941
683.898	1187
683.936	1454
683.945	1500
683.992	1225
684.039	1552
684.057	1504
684.086	1470
684.133	1036
684.179	1422
684.180	1417
684.227	2376
684.274	1721
684.300	2048
684.321	2387
684.368	875
684.415	1583
684.422	1586
684.462	1446
684.509	897
684.543	549
684.556	454
684.603	1684
684.649	1065
684.665	1351
684.696	1874
684.743	1933
684.786	2275
684.790	2300
684.837	1329
684.883	2224
684.908	2049
684.930	1818
684.977	1923
685.023	1437
685.029	1453
685.070	1607
685.117	1431
685.150	1402
685.164	1367
685.210	1881
685.257	2120
685.272	2067
685.303	2035
685.350	1839
685.393	1814
685.396	1808
685.443	1878
685.490	2459
685.514	2294
685.536	2015
685.583	1937
685.629	1921
685.636	1893
685.675	1897
685.722	2326
685.757	2384
685.768	2355
685.815	2441
685.861	1974
685.878	1859
685.908	1711
685.954	1721
686.000	2030
686.000	2034
686.047	2254
686.093	2783
686.121	2951
686.139	2972
686.185	2405
686.232	2738
686.242	2648
686.278	2290
686.324	1688
686.363	1906
686.370	1963
686.416	1923
686.463	2870
686.484	2892
686.509	2896
686.555	2498
686.601	2535
686.606	2616
686.647	3286
686.693	2118
686.727	2185
686.739	2251
686.785	2350
686.831	2944
686.848	2868
686.877	2614
686.923	2456
686.969	2158
686.969	2156
687.015	2702
687.061	2371
687.090	3082
687.107	3432
687.153	2473
687.199	2861
687.211	2764
687.245	2682
687.291	2824
687.332	2779
687.336	2758
687.382	2419
687.428	2535
687.453	2271
687.474	2113
687.520	3192
687.565	3169
687.574	2998
687.611	2312
687.657	2450
687.695	2931
687.702	3040
687.748	3427
687.794	3647
687.816	3710
687.839	3589
687.885	3665
687.931	3446
687.937	3323
687.976	2722
688.022	3202
688.058	3130
688.067	3160
688.113	2802
688.158	3260
688.179	3314
688.204	3350
688.249	3424
688.295	3456
688.300	3436
688.340	3155
688.386	3712
688.421	3355
688.431	3286
688.477	3463
688.522	3374
688.542	3394
688.567	3390
688.613	3179
688.658	3052
688.663	3055
688.703	3232
688.749	3420
688.784	3508
688.794	3469
688.839	3466
688.884	2938
688.905	2995
688.930	3337
688.975	3233
689.020	3929
689.026	3929
689.065	3624
689.110	3853
689.146	3594
689.155	3553
689.201	3193
689.246	3420
689.267	3551
689.291	3659
689.336	3291
689.381	3298
689.388	3245
689.426	3225
689.471	3487
689.509	3661
689.516	3674
689.561	3444
689.606	3656
689.630	3774
689.651	3916
689.696	3586
689.741	3919
689.750	3886
689.785	3687
689.830	3729
689.871	3589
689.875	3583
689.920	3571
689.965	3573
689.992	3511
690.010	3532
690.054	3628
690.099	3380
690.112	3555
690.144	4128
690.189	4102
690.233	4141
690.233	4146
690.278	3724
690.323	4046
690.354	3840
690.367	3889
690.412	3893
690.457	4534
690.474	4585
690.501	4443
690.546	4123
690.590	3822
690.595	3809
690.635	4145
690.680	4063
690.716	4396
690.724	4462
690.769	4715
690.813	5195
690.836	5164
690.857	5645
690.902	7108
690.946	7892
690.957	8348
690.991	11044
691.035	14865
691.077	18621
691.080	18670
691.124	16500
691.168	15969
691.198	14688
691.213	13485
691.257	10525
691.301	7443
691.318	6515
691.346	6389
691.390	5929
691.434	5348
691.439	5303
691.478	5234
691.522	4899
691.559	4316
691.567	4297
691.611	4673
691.655	5185
691.680	5168
691.699	4857
691.743	4742
691.787	4142
691.800	4026
691.831	4382
691.875	4756
691.919	5185
691.921	5180
691.964	4659
692.008	4287
692.041	3994
692.052	4079
692.096	4229
692.139	4812
692.162	4944
692.183	4857
692.227	4907
692.271	4487
692.282	4495
692.315	4761
692.359	4587
692.402	4757
692.403	4769
692.447	4852
692.490	4629
692.523	4615
692.534	4663
692.578	5137
692.622	5223
692.643	5218
692.666	5081
692.709	5112
692.753	4795
692.763	4792
692.797	4927
692.840	5003
692.884	4685
692.884	4696
692.928	5147
692.971	5095
693.004	5158
693.015	5173
693.059	5184
693.102	5385
693.124	5467
693.146	5500
693.189	5244
693.233	5566
693.245	5423
693.276	5288
693.320	5451
693.363	5883
693.365	5878
693.407	6150
693.450	6356
693.485	6527
693.493	6724
693.537	7717
693.580	8678
693.605	9283
693.624	10338
693.667	12573
693.710	14976
693.725	15862
693.753	20536
693.797	28483
693.840	36847
693.845	37596
693.883	35047
693.926	31366
693.966	28296
693.970	27722
694.013	21615
694.056	15470
694.086	11252
694.099	10745
694.142	9251
694.185	7867
694.206	7040
694.229	6784
694.272	6634
694.315	6205
694.326	6116
694.358	6397
694.401	6614
694.444	7092
694.446	7086
694.487	7047
694.530	7004
694.566	6953
694.573	6880
694.616	6507
694.659	6061
694.686	5617
694.702	5584
694.745	5759
694.787	5686
694.806	5615
694.830	5473
694.873	5375
694.916	5311
694.926	5233
694.959	5344
695.002	5641
695.044	5838
695.046	5839
695.087	6026
695.130	5707
695.166	5850
695.172	5892
695.215	5760
695.258	5715
695.286	5668
695.301	5623
695.343	5504
695.386	5232
695.406	5138
695.428	5249
695.471	5246
695.514	5471
695.526	5489
695.556	5714
695.599	6126
695.641	6383
695.646	6401
695.684	6424
695.726	6245
695.766	6337
695.769	6340
695.811	6027
695.854	5561
695.886	5322
695.896	5384
695.938	5458
695.981	5666
696.005	5650
696.023	5646
696.065	5740
696.108	5860
696.125	5848
696.150	5973
696.192	6085
696.235	6427
696.245	6437
696.277	6328
696.319	6332
696.361	6214
696.365	6196
696.404	6492
696.446	6565
696.485	6906
696.488	6931
696.530	6806
696.572	6587
696.604	6565
696.614	6595
696.656	6492
696.698	6423
696.724	6383
696.740	6393
696.783	6285
696.825	6235
696.844	6203
696.867	6363
696.909	6521
696.951	6696
696.964	6783
696.992	6591
697.034	6103
697.076	5685
697.083	5595
697.118	6143
697.160	6849
697.202	7391
697.203	7387
697.244	7071
697.286	6587
697.323	6169
697.327	6214
697.369	6468
697.411	6654
697.442	6828
697.453	6830
697.494	6687
697.536	6600
697.562	6516
697.578	6654
697.620	6964
697.661	7228
697.682	7350
697.703	7403
697.744	7421
697.786	7621
697.801	7586
697.828	7698
697.869	7932
697.911	8133
697.921	8179
697.952	7842
697.994	7271
698.035	6744
698.040	6657
698.077	6932
698.118	7251
698.160	7529
698.160	7507
698.201	7350
698.243	7116
698.279	6942
698.284	7002
698.325	7336
698.367	7673
698.399	7885
698.408	7826
698.449	7489
698.491	7127
698.518	6856
698.532	6989
698.573	7357
698.614	7708
698.638	7888
698.656	7887
698.697	7836
698.738	7784
698.757	7732
698.779	7681
698.820	7553
698.862	7411
698.877	7339
698.903	7511
698.944	7754
698.985	7997
698.996	8042
699.026	8026
699.067	7975
699.116	7893
699.235	7290
699.354	6983
699.474	7076
699.593	7923
699.713	7543
699.832	6387
699.951	8219
700.070	7579
700.190	6186
700.309	7411
700.428	7110
700.547	6748
700.667	6692
700.786	7329
700.905	7617
701.024	6272
701.143	6719
701.262	7301
701.381	6707
701.500	7396
701.619	7831
701.738	7710
701.857	6270
701.976	7108
702.095	5986
702.214	7822
702.333	7049
702.452	7008
702.571	5759
702.690	6775
702.809	6372
702.928	7309
703.047	6048
703.165	6655
703.284	6554
703.403	5932
703.522	6512
703.640	6617
703.759	7183
703.878	8709
703.997	6622
704.115	6080
704.234	6001
704.353	6408
704.471	5683
704.590	5764
704.708	5471
704.827	5151
704.946	6862
705.064	5969
705.183	5582
705.301	6197
705.420	7545
705.538	8073
705.656	6554
705.775	7870
705.893	15418
706.012	17913
706.130	7112
706.249	7544
706.367	5790
706.485	6776
706.604	6582
706.722	7104
706.840	8771
706.958	8361
707.077	6882
707.195	7010
707.313	6542
707.431	6765
707.549	5503
707.668	6563
707.786	6432
707.904	7098
708.022	5779
708.140	5436
708.258	6122
708.376	6968
708.494	5798
708.612	7096
708.730	7517
708.848	7393
708.966	6352
709.084	8689
709.202	6937
709.320	7267
709.438	6138
709.556	6344
709.674	5873
709.791	7192
709.909	5300
710.027	7088
710.145	6366
710.263	6982
710.380	6170
710.498	6354
710.616	6545
710.733	6005
710.851	6413
710.969	6690
711.086	5719
711.204	6599
711.322	5862
711.439	7258
711.557	5599
711.674	7051
711.792	6375
711.909	7122
712.027	6666
712.144	6292
712.262	5833
712.379	6689
712.497	7921
712.614	7594
712.732	6339
712.849	7603
712.966	6165
713.084	9217
713.201	7934
713.318	7364
713.436	7272
713.553	8512
713.670	7045
713.787	8925
713.905	7089
714.022	6850
714.139	6969
714.256	9292
714.373	11378
714.490	20488
714.608	52134
714.725	225214
714.842	243856
714.959	18626
715.076	8998
715.193	8516
715.310	6855
715.427	6515
715.544	6538
715.661	6657
715.778	5584
715.895	6602
716.011	6792
716.128	6193
716.245	6284
716.362	7936
716.479	7286
716.596	6720
716.713	5991
716.829	5538
716.946	5541
717.063	5852
717.180	5519
717.296	5709
717.413	5009
717.530	6047
717.646	5825
717.763	6019
717.880	4216
717.996	5622
718.113	4863
718.229	5127
718.346	4772
718.462	5683
718.579	7644
718.695	12172
718.812	8069
718.928	7345
719.045	5328
719.161	4931
719.277	4612
719.394	4689
719.510	5244
719.626	4800
719.743	6486
719.859	9203
719.975	16024
720.092	62825
720.208	151307
720.324	19421
720.440	6388
720.557	6912
720.673	8711
720.789	10500
720.905	16441
721.021	7795
721.137	4158
721.253	5459
721.369	4361
721.486	5434
721.602	6025
721.718	4547
721.834	4716
721.950	5506
722.066	3276
722.181	4655
722.297	4808
722.413	4846
722.529	4547
722.645	4700
722.761	4101
722.877	4490
722.993	3508
723.108	5008
723.224	4329
723.340	3985
723.456	4396
723.571	4659
723.687	3891
723.803	4409
723.918	3449
724.034	3789
724.150	4447
724.265	4421
724.381	6899
724.497	7862
724.612	3496
724.728	3164
724.843	3761
724.959	4011
725.074	6281
725.190	7489
725.305	3868
725.421	3594
725.536	4253
725.651	3696
725.767	3356
725.882	3856
725.997	2887
726.113	3471
726.228	2625
726.343	3348
726.459	3269
726.574	3503
726.689	3291
726.804	3909
726.920	2683
727.035	3384
727.150	3024
727.265	2916
727.380	3536
727.495	3626
727.610	3306
727.725	4321
727.841	4522
727.956	8918
728.071	7039
728.186	3391
728.301	2907
728.416	3122
728.531	3608
728.645	3590
728.760	3032
728.875	3862
728.990	2575
729.105	3419
729.220	3640
729.335	3991
729.449	3477
729.564	3382
729.679	2692
729.794	2626
729.908	2803
730.023	3249
730.138	3067
730.253	2988
730.367	2721
730.482	3507
730.596	2839
730.711	3734
730.826	4118
730.940	2510
731.055	3496
731.169	3220
731.284	1731
731.398	3113
731.513	2874
731.627	4302
731.742	4287
731.856	5053
731.970	3451
732.085	4103
732.199	6096
732.313	9860
732.428	24918
732.542	77806
732.656	47016
732.771	8594
732.885	5327
732.999	4965
733.113	3768
733.227	4932
733.342	2682
733.456	3586
733.570	3003
733.684	3131
733.798	2164
733.912	4066
734.026	2361
734.140	3014
734.254	2285
734.368	4674
734.482	6166
734.596	3447
734.710	2958
734.824	2980
734.938	2768
735.052	3227
735.166	2939
735.280	3959
735.393	3072
735.507	3382
735.621	3765
735.735	4932
735.849	3354
735.962	3837
736.076	3788
736.190	3752
736.303	3681
736.417	4444
736.531	2743
736.644	3741
736.758	2336
736.872	3104
736.985	2223
737.099	3539
737.212	2005
737.326	3613
737.439	2804
737.553	3302
737.666	2722
737.780	2934
737.893	2458
738.007	2872
738.120	2011
738.233	2735
738.347	2527
738.460	3081
738.573	2249
738.687	3123
738.800	3103
738.913	3821
739.026	2938
739.140	3517
739.253	2199
739.366	2804
739.479	2639
739.592	2748
739.705	2248
739.818	2267
739.932	2702
740.045	2704
740.158	3240
740.271	2787
740.384	2455
740.497	3065
740.610	2512
740.723	3450
740.836	2550
740.949	3011
741.062	4173
741.174	3353
741.287	2507
741.400	2531
741.513	2132
741.626	2829
741.739	1829
741.851	2999
741.964	2211
742.077	2322
742.189	3033
742.302	3607
742.415	2659
742.527	2985
742.640	1708
742.753	2862
742.865	2144
742.978	1540
743.090	1998
743.203	2000
743.316	2312
743.428	2580
743.541	2184
743.653	2886
743.766	1267
743.878	2909
743.990	2490
744.103	3561
744.215	3335
744.327	2710
744.440	3321
744.552	5612
744.664	1787
744.777	2353
744.889	1828
745.001	3169
745.113	1798
745.226	1900
745.338	2188
745.450	2813
745.562	1663
745.674	2111
745.786	1673
745.898	2087
746.010	1303
746.122	2295
746.234	1820
746.347	2290
746.459	1575
746.570	2797
746.682	2345
746.794	3261
746.906	2059
747.018	1396
747.130	1696
747.242	2613
747.354	2001
747.466	2277
747.577	2382
747.689	2489
747.801	1666
747.913	1720
748.024	1048
748.136	1822
748.248	1973
748.359	2459
748.471	839
748.583	2041
748.694	1976
748.806	3288
748.918	1973
749.029	1960
749.141	2112
749.252	3587
749.364	1945
749.475	5236
749.587	2942
749.698	1331
749.809	1728
749.921	2220
750.032	1608
750.144	2499
750.255	1890
750.366	2017
750.478	1876
750.589	2249
750.700	2270
750.811	2520
750.923	2896
751.034	6533
751.145	5500
751.256	2106
751.367	1549
751.479	2129
751.590	1677
751.701	1007
751.812	868
751.923	1283
752.034	1830
752.145	2463
752.256	1003
752.367	1833
752.478	1622
752.589	2144
752.700	1471
752.811	2712
752.922	1826
753.032	1860
753.143	2306
753.254	1525
753.365	2230
753.476	2578
753.586	2011
753.697	2093
753.808	679
753.919	1636
754.029	1340
754.140	1977
754.251	1738
754.361	1917
754.472	1122
754.582	2358
754.693	1905
754.804	1956
754.914	440
755.025	1380
755.135	1481
755.246	1533
755.356	381
755.466	1784
755.577	1821
755.687	2458
755.798	909
755.908	1869
756.018	1809
756.129	2584
756.239	1440
756.349	1984
756.460	1672
756.570	2859
756.680	2001
756.790	1564
756.900	1326
757.011	1711
757.121	1561
757.231	2661
757.341	1365
757.451	1488
757.561	1696
757.671	2010
757.781	1726
757.891	2846
758.001	1457
758.111	2674
758.221	1988
758.331	2899
758.441	2004
758.551	3516
758.661	2488
758.771	2506
758.880	1793
758.990	2380
759.100	1288
759.210	3115
759.320	2054
759.429	2413
759.539	2136
759.649	2354
759.758	2323
759.868	3056
759.978	2154
760.087	3094
760.197	3169
760.307	2987
760.416	3172
760.526	2023
760.635	1693
760.745	3391
760.854	2861
760.964	3191
761.073	3624
761.182	3377
761.292	2536
761.401	3383
761.511	3103
761.620	2987
761.729	2761
761.839	3070
761.948	3506
762.057	2811
762.166	3427
762.276	2579
762.385	3293
762.494	4168
762.603	3282
762.712	4184
762.822	3091
762.931	4011
763.040	3337
763.149	3864
763.258	4867
763.367	3877
763.476	4534
763.585	5103
763.694	5026
763.803	4962
763.912	6067
764.021	6216
764.130	5567
764.238	6716
764.347	5958
764.456	6845
764.565	7536
764.674	8252
764.783	9227
764.891	10074
765.000	11212
765.109	13528
765.217	14506
765.326	17460
765.435	20214
765.543	24280
765.652	28915
765.761	38249
765.869	50917
765.978	75125
766.086	114868
766.195	192915
766.303	346597
766.412	499771
766.520	440406
766.629	284960
766.737	149301
766.846	92315
766.954	62607
767.062	47993
767.171	37641
767.279	28033
767.387	21625
767.496	19074
767.604	16027
767.712	15411
767.820	13057
767.928	12609
768.037	10426
768.145	11404
768.253	10686
768.361	9615
768.469	9870
768.577	9737
768.685	11891
768.793	11704
768.901	11850
769.009	14318
769.117	16385
769.225	22534
769.333	31150
769.441	48215
769.549	79181
769.657	157803
769.765	327501
769.873	422948
769.981	273083
770.088	117025
770.196	61894
770.304	41783
770.412	29092
770.519	23220
770.627	18980
770.735	15252
770.842	12805
770.950	11582
771.058	10569
771.165	9529
771.273	7764
771.380	8214
771.488	6964
771.595	7671
771.703	5855
771.810	6267
771.918	4948
772.025	5420
772.133	4263
772.240	5050
772.348	4735
772.455	4741
772.562	4279
772.670	3931
772.777	4076
772.884	4849
772.991	3108
773.099	4163
773.206	2318
773.313	4151
773.420	3096
773.528	3199
773.635	2781
773.742	3504
773.849	3220
773.956	2962
774.063	2936
774.170	3624
774.277	2766
774.384	2906
774.491	1247
774.598	3297
774.705	2292
774.812	4291
774.919	2760
775.026	3445
775.133	2574
775.239	2307
775.346	2466
775.453	2518
775.560	1860
775.667	2536
775.773	1160
775.880	2964
775.987	2005
776.093	2231
776.200	2166
776.307	1912
776.413	1775
776.520	2041
776.627	2001
776.733	2437
776.840	808
776.946	3600
777.053	2585
777.159	4019
777.266	2020
777.372	4612
777.478	3286
777.585	3254
777.691	1668
777.798	2491
777.904	2992
778.010	3969
778.117	2501
778.223	1799
778.329	1084
778.435	984
778.542	1743
778.648	994
778.754	1355
778.860	1930
778.966	728
779.072	1883
779.178	1282
779.284	2900
779.391	1353
779.497	678
779.603	3737
779.708	2504
779.815	7882
779.920	25881
780.026	37787
780.132	5934
780.238	1051
780.344	1740
780.450	1615
780.556	1276
780.661	248
780.767	1680
780.873	575
780.979	1645
781.085	658
781.190	1912
781.296	393
781.402	1157
781.507	397
781.613	1745
781.719	253
781.824	1139
781.930	1828
782.035	1870
782.141	1101
782.246	323
782.352	334
782.457	1673
782.563	803
782.668	1164
782.773	346
782.879	1830
782.984	1333
783.090	1994
783.195	1982
783.300	2172
783.405	1191
783.511	1058
783.616	839
783.721	1132
783.826	50
783.932	1405
784.037	1507
784.142	737
784.247	98
784.352	570
784.457	341
784.562	1424
784.667	1121
784.772	-221
784.877	-63
784.982	1255
785.087	1102
785.192	1908
785.297	196
785.402	803
785.507	505
785.611	1506
785.716	268
785.821	653
785.926	-546
786.031	682
786.135	335
786.240	809
786.345	-678
786.450	1416
786.554	124
786.659	1182
786.763	-269
786.868	1199
786.973	580
787.077	807
787.182	224
787.286	1105
787.391	-104
787.495	874
787.600	-14
787.704	554
787.809	730
787.913	1069
788.017	362
788.122	511
788.226	669
788.330	309
788.435	329
788.539	780
788.643	-255
788.747	870
788.852	514
788.956	395
789.060	556
789.164	930
789.268	-579
789.372	859
789.476	410
789.580	190
789.684	96
789.788	505
789.892	268
789.996	893
790.100	499
790.204	1208
790.308	659
790.412	422
790.516	557
790.620	782
790.724	655
790.828	588
790.931	-573
791.035	2632
791.139	529
791.242	-195
791.346	105
791.450	1057
791.554	449
791.657	-230
791.761	1275
791.864	1482
791.968	198
792.072	102
792.175	561
792.279	428
792.382	773
792.486	825
792.589	43
792.693	432
792.796	-578
792.899	1098
793.003	170
793.106	32
793.209	-592
793.313	1620
793.416	-1090
793.519	1927
793.623	972
793.726	2257
793.829	1177
793.932	1294
794.035	-651
794.138	1218
794.242	689
794.345	1492
794.448	1342
794.551	4737
794.654	15020
794.757	22329
794.860	4094
794.963	1728
795.066	-718
795.169	2022
795.272	223
795.375	1703
795.477	-1003
795.580	1695
795.683	-827
795.786	264
795.889	-725
795.991	1150
796.094	559
796.197	-369
796.300	1993
796.402	54
796.505	-124
796.608	528
796.710	359
796.813	397
796.915	201
797.018	1036
797.120	200
797.223	-233
797.326	1166
797.428	147
797.530	-696
797.633	426
797.735	-138
797.838	117
797.940	1139
798.042	-330
798.145	321
798.247	872
798.349	-1376
798.452	881
798.554	-16
798.656	-56
798.758	564
798.860	442
798.962	686
799.065	-174
799.167	-862
799.269	1856
799.371	688
799.473	1531
799.575	-637
799.677	700
799.779	1106
799.881	1159
799.983	974
800.085	696
800.187	-14
800.289	-561
800.390	-303
800.492	876
800.594	1043
800.696	7
800.798	-197
800.899	-29
801.001	-730
801.103	19
801.205	-1103
801.306	-19
801.408	-1103
801.509	863
801.611	-225
801.713	384
801.814	-678
801.916	351
802.017	-380
802.119	-941
802.220	-67
802.322	-1797
802.423	1886
802.525	-1174
802.626	-368
802.727	417
802.829	219
802.930	-1483
803.031	590
803.133	-147
803.234	-434
803.335	-97
803.436	-861
803.538	28
803.639	-1237
803.740	415
803.841	-1033
803.942	498
804.043	696
804.144	-811
804.245	-617
804.346	-892
804.447	-975
804.548	296
804.649	1066
804.750	124
804.851	-584
804.952	-230
805.053	-678
805.154	-846
805.255	134
805.355	227
805.456	-906
805.557	-506
805.658	-1141
805.758	771
805.859	-799
805.960	-337
806.061	-760
806.161	-824
806.262	-850
806.362	-963
806.463	-322
806.564	347
806.664	-389
806.765	-732
806.865	-581
806.966	226
807.066	-867
807.166	-563
807.267	391
807.367	-611
807.468	-33
807.568	-1110
807.668	109
807.769	921
807.869	-1067
807.969	-720
808.069	-814
808.170	191
808.270	-236
808.370	496
808.470	60
808.570	-934
808.670	121
808.770	512
808.870	-495
808.970	63
809.070	-1091
809.170	-422
809.271	-218
809.370	-545
809.470	-588
809.570	-343
809.670	-753
809.770	-948
809.870	-437
809.970	341
810.070	-684
810.169	524
810.269	-2700
810.369	253
810.469	-337
810.568	-105
810.668	-928
810.768	-413
810.867	-240
810.967	89
811.066	-248
811.166	-385
811.265	-100
811.365	134
811.464	-864
811.564	239
811.663	-277
811.763	-1232
811.862	-1001
811.962	1125
812.061	-285
812.160	-49
812.260	-287
812.359	40
812.458	-582
812.557	1588
812.657	-90
812.756	268
812.855	-124
812.954	-627
813.053	760
813.153	-638
813.252	-1536
813.351	312
813.450	-402
813.549	-947
813.648	570
813.747	326
813.846	-8
813.945	-345
814.044	361
814.143	-93
814.242	-12
814.341	-415
814.439	817
814.538	582
814.637	136
814.736	150
814.835	249
814.933	-1003
815.032	-287
815.131	-192
815.229	-367
815.328	1415
815.427	-568
815.525	1457
815.624	285
815.722	-522
815.821	409
815.919	931
816.018	-676
816.116	1208
816.215	-448
816.313	238
816.412	18
816.510	495
816.609	1761
816.707	1355
816.805	438
816.904	86
817.002	1122
817.100	1918
817.198	1972
817.296	1656
817.395	775
817.493	2473
817.591	753
817.689	3315
817.787	3525
817.885	6765
817.983	12109
818.081	27441
818.179	64965
818.277	160940
818.375	138008
818.473	37545
818.571	14041
818.669	9950
818.767	8258
818.865	7896
818.963	9028
819.061	14038
819.158	25098
819.256	54425
819.354	124687
819.452	262843
819.549	170736
819.647	48962
819.745	19026
819.842	12119
819.940	7447
820.038	5249
820.135	4413
820.233	4427
820.330	2101
820.428	2294
820.525	2948
820.623	2037
820.720	962
820.818	2059
820.915	1276
821.012	2062
821.110	1
821.207	1673
821.304	-35
821.402	694
821.499	1302
821.596	1728
821.693	906
821.791	1186
821.888	1114
821.985	3824
822.082	1480
822.179	1076
822.276	379
822.373	785
822.470	349
822.567	870
822.664	136
822.761	1423
822.858	-373
822.955	406
823.052	556
823.149	91
823.246	413
823.343	674
823.440	568
823.536	-314
823.633	-546
823.730	614
823.827	349
823.923	293
824.020	577
824.117	597
824.213	-115
824.310	261
824.407	358
824.503	752
824.600	2
824.696	740
824.793	-166
824.889	-385
824.986	366
825.082	33
825.179	188
825.275	105
825.371	-444
825.468	317
825.564	-1040
825.660	50
825.757	341
825.853	611
825.949	-768
826.045	-114
826.142	-362
826.238	-53
826.334	-265
826.430	-1185
826.526	-378
826.622	206
826.718	38
826.814	-495
826.910	-419
827.006	6
827.102	-977
827.198	334
827.294	-564
827.390	18
827.486	250
827.582	-1326
827.678	-1344
827.774	455
827.869	-841
827.965	636
828.061	-1285
828.157	24
828.252	-1036
828.348	-1342
828.444	96
828.539	-914
828.635	-488
828.731	1376
828.826	-1240
828.922	-232
829.017	-740
829.113	313
829.208	-897
829.304	-316
829.399	371
829.495	-674
829.590	-621
829.685	-1195
829.781	-523
829.876	-178
829.971	-1064
830.066	-573
830.162	-1217
830.257	-76
830.352	-387
830.447	810
830.543	-539
830.638	-1283
830.733	663
830.828	-383
830.923	195
831.018	-119
831.113	-505
831.208	-810
831.303	-294
831.398	-239
831.493	-805
831.588	34
831.683	-1438
831.778	457
831.873	-480
831.967	794
832.062	-1266
832.157	-1255
832.252	120
832.346	-365
832.441	-317
832.536	928
832.631	2986
832.725	1777
832.820	-902
832.914	-55
833.009	-1051
833.104	-471
833.198	477
833.293	74
833.387	-264
833.482	-201
833.576	218
833.670	-189
833.765	-270
833.859	307
833.954	399
834.048	-93
834.142	-258
834.237	836
834.331	-273
834.425	-1004
834.519	-801
834.613	903
834.708	-1374
834.802	-43
834.896	-695
834.990	54
835.084	-583
835.178	46
835.272	-617
835.366	-672
835.460	-34
835.554	-829
835.648	-185
835.742	476
835.836	-1102
835.930	-1040
836.024	-461
836.117	1360
836.211	-808
836.305	642
836.399	431
836.493	-529
836.586	762
836.680	-595
836.774	-333
836.867	857
836.961	-1533
837.055	-29
837.148	-667
837.242	-240
837.335	-782
837.429	-20
837.522	-1335
837.616	-389
837.709	368
837.803	-265
837.896	-220
837.989	-1102
838.083	162
838.176	833
838.269	-651
838.363	462
838.456	-894
838.549	822
838.642	1067
838.735	3957
838.829	649
838.922	-802
839.015	-623
839.108	-1191
839.201	205
839.294	338
839.387	-114
839.480	-364
839.573	110
839.666	444
839.759	-701
839.852	-881
839.945	-742
840.038	275
840.131	-278
840.223	-108
840.316	290
840.409	-259
840.502	-1474
840.594	838
840.687	-1914
840.780	-104
840.873	-1038
840.965	-64
841.058	-95
841.150	1397
841.243	-762
841.336	-418
841.428	-444
841.521	-728
841.613	-841
841.706	-187
841.798	-502
841.890	-240
841.983	-1029
842.075	423
842.167	-348
842.260	735
842.352	796
842.444	1306
842.537	1233
842.629	2187
842.721	-270
842.813	469
842.905	-1689
842.997	1435
843.090	-1100
843.182	914
843.274	875
843.366	4328
843.458	6738
843.550	3725
843.642	-238
843.734	380
843.826	-1069
843.918	480
844.009	-357
844.101	-750
844.193	-17
844.285	561
844.377	-86
844.469	625
844.560	-677
844.652	-876
844.744	-113
844.835	-83
844.927	-1477
845.019	-138
845.110	-74
845.202	614
845.293	-1171
845.385	-679
845.476	-177
845.568	451
845.659	-87
845.751	-381
845.842	-365
845.934	-241
846.025	-746
846.116	-324
846.208	-1252
846.299	-299
846.390	159
846.482	-577
846.573	419
846.664	583
846.755	-69
846.846	1129
846.937	-1808
847.029	-820
847.120	-1278
847.211	-728
847.302	174
847.393	-1218
847.484	468
847.575	-317
847.666	-799
847.757	-375
847.847	117
847.938	197
848.029	-1188
848.120	-876
848.211	-482
848.302	-626
848.392	-780
848.483	258
848.574	-773
848.664	-515
848.755	-467
848.846	-217
848.936	-1444
849.027	-282
849.118	-728
849.208	-345
849.299	77
849.389	1537
849.480	2141
849.570	4874
849.661	9570
849.751	18944
849.841	5589
849.932	649
850.022	-622
850.112	20
850.203	-1028
850.293	-361
850.383	-587
850.474	-721
850.564	-516
850.654	62
850.744	-294
850.834	-633
850.924	464
851.014	-14
851.104	-44
851.194	288
851.284	620
851.374	100
851.464	-873
851.554	-198
851.644	-244
851.734	484
851.824	-156
851.914	500
852.004	1669
852.094	104
852.183	-568
852.273	46
852.363	-1086
852.452	-606
852.542	-56
852.632	-1022
852.721	-660
852.811	-952
852.901	235
852.990	-513
853.080	-1678
853.169	-497
853.259	-709
853.348	-591
853.438	262
853.527	1703
853.617	39
853.706	4026
853.795	6695
853.885	18499
853.974	34102
854.063	64341
854.152	103267
854.242	38432
854.331	5803
854.420	1857
854.509	1519
854.598	1407
854.687	-155
854.777	1369
854.866	-232
854.955	554
855.044	-1311
855.133	575
855.222	-287
855.311	-680
855.400	-640
855.488	-625
855.577	-717
855.666	879
855.755	1215
855.844	1167
855.933	527
856.021	981
856.110	-239
856.199	-389
856.288	-1209
856.376	-753
856.465	-1042
856.554	-701
856.642	-1323
856.731	49
856.819	-424
856.908	60
856.996	-785
857.085	-920
857.173	-1020
857.262	-316
857.350	-178
857.438	-91
857.527	-50
857.615	-456
857.703	-403
857.792	-345
857.880	-671
857.968	-203
858.056	-453
858.145	-489
858.233	-1043
858.321	-621
858.409	-518
858.497	-177
858.585	-1363
858.673	198
858.761	-738
858.849	-604
858.937	-1021
859.025	-321
859.113	-883
859.201	-1046
859.289	151
859.377	-124
859.465	-143
859.552	-777
859.640	-867
859.728	296
859.816	-1108
859.903	137
859.991	-1673
860.079	-325
860.166	-1227
860.254	-609
860.342	-808
860.429	-1257
860.517	-1573
860.604	177
860.692	-640
860.779	-136
860.867	-654
860.954	-364
861.042	-1160
861.129	262
861.216	-399
861.304	-1168
861.391	-880
861.478	-287
861.565	-336
861.653	326
861.740	-934
861.827	-147
861.914	-1022
862.001	-726
862.089	-113
862.176	-1087
862.263	-332
862.350	-1235
862.437	-1329
862.524	-538
862.611	-628
862.698	150
862.785	142
862.871	273
862.958	-585
863.045	73
863.132	-278
863.219	-853
863.306	-951
863.392	435
863.479	-573
863.566	-419
863.652	-960
863.739	-738
863.826	341
863.912	-767
863.999	-1569
864.086	-200
864.172	-783
864.259	-373
864.345	-787
864.432	253
864.518	-1204
864.604	-424
864.691	-659
864.777	108
864.863	-244
864.950	466
865.036	-64
865.122	1249
865.209	1329
865.295	924
865.381	779
865.467	995
865.553	1902
865.639	2134
865.726	3695
865.812	9262
865.898	18892
865.984	28156
866.070	50589
866.156	56795
866.242	13192
866.328	2923
866.414	598
866.499	1508
866.585	569
866.671	1029
866.757	-125
866.843	936
866.928	381
867.014	256
867.100	348
867.186	751
867.271	547
867.357	2109
867.442	1145
867.528	640
867.614	207
867.699	279
867.785	517
867.870	566
867.956	202
868.041	1052
868.127	915
868.212	699
868.297	-166
868.383	1777
868.468	1369
868.553	1984
868.639	2576
868.724	6430
868.809	3631
868.894	1450
868.979	-19
869.065	97
869.150	-800
869.235	694
869.320	-801
869.405	-120
869.490	-779
869.575	563
869.660	134
869.745	1146
869.830	-432
869.915	-288
870.000	-120
870.085	424
870.169	393
870.254	529
870.339	-777
870.424	105
870.509	-882
870.593	682
870.678	-122
870.763	71
870.847	-328
870.932	-593
871.016	71
871.101	-402
871.186	-769
871.270	1049
871.355	-804
871.439	-631
871.523	-679
871.608	612
871.692	-174
871.777	859
871.861	101
871.945	203
872.030	-146
872.114	246
872.198	-1244
872.282	167
872.367	-222
872.451	240
872.535	464
872.619	-630
872.703	125
872.787	110
872.871	-963
872.955	-291
873.039	-715
873.123	-243
873.207	-213
873.291	-167
873.375	-1509
873.459	-75
873.543	-1518
873.627	-425
873.711	-330
873.794	-130
873.878	-866
873.962	830
874.045	-412
874.129	-428
874.137	-443
874.213	-589
874.245	-744
874.296	-996
874.352	-992
874.380	-991
874.460	-409
874.464	-386
874.547	-653
874.568	-404
874.631	345
874.676	-124
874.714	-531
874.784	-365
874.798	-324
874.881	645
874.892	632
874.965	531
874.999	411
875.048	263
875.107	466
875.131	521
875.215	-341
875.215	-341
875.298	-639
875.323	-365
875.381	270
875.430	250
875.465	236
875.538	-717
875.548	-848
875.631	-275
875.646	-313
875.714	-495
875.753	-259
875.798	-7
875.861	-196
875.881	-236
875.964	280
875.968	258
876.047	-265
876.076	-85
876.130	351
876.183	-26
876.213	-232
876.291	819
876.296	886
876.379	-387
876.398	-330
876.462	-222
876.506	-168
876.545	-32
876.613	445
876.628	531
876.711	-194
876.721	-126
876.794	547
876.828	312
876.877	-164
876.935	213
876.960	399
877.043	-337
877.043	-334
877.125	501
877.150	503
877.208	578
877.258	228
877.291	-44
877.365	-727
877.374	-798
877.456	-125
877.472	-96
877.539	22
877.579	225
877.622	464
877.687	-143
877.704	-330
877.787	403
877.794	309
877.869	-535
877.901	59
877.952	831
878.008	166
878.034	-75
878.115	330
878.117	338
878.199	232
878.222	182
878.282	314
878.329	312
878.364	75
878.437	-201
878.447	-211
878.529	-339
878.544	-264
878.611	251
878.651	152
878.694	79
878.758	839
878.776	1001
878.858	375
878.865	402
878.941	459
878.972	182
879.023	74
879.078	-161
879.105	-168
879.185	769
879.187	779
879.269	334
879.292	253
879.351	187
879.399	523
879.433	732
879.506	1122
879.516	1195
879.598	909
879.613	777
879.680	63
879.720	293
879.762	662
879.827	679
879.844	589
879.926	751
879.933	695
880.007	624
880.040	661
880.089	625
880.147	745
880.171	898
880.253	2372
880.254	2375
880.335	2876
880.360	3102
880.417	4740
880.467	7190
880.499	8932
880.574	11049
880.580	10840
880.662	4098
880.680	3208
880.744	1481
880.787	494
880.825	171
880.893	190
880.907	171
880.989	-177
881.000	-25
881.070	1491
881.106	1261
881.152	476
881.213	307
881.233	419
881.315	678
881.319	709
881.396	1053
881.426	889
881.478	676
881.532	925
881.559	1043
881.639	561
881.641	553
881.722	576
881.745	498
881.803	393
881.852	425
881.885	539
881.958	1012
881.966	1013
882.047	1027
882.064	964
882.129	1256
882.171	1594
882.210	2049
882.277	2849
882.291	2998
882.372	2600
882.383	2561
882.454	1400
882.489	1252
882.535	1293
882.596	879
882.616	789
882.697	1044
882.702	996
882.778	472
882.808	430
882.859	403
882.914	738
882.940	882
883.020	714
883.021	719
883.102	730
883.127	898
883.183	1545
883.233	1579
883.264	1232
883.339	728
883.345	756
883.426	930
883.445	1064
883.507	1224
883.551	1028
883.587	1022
883.657	1302
883.668	1367
883.749	1698
883.763	1743
883.830	1438
883.869	1237
883.910	1190
883.975	928
883.991	943
884.072	1608
884.081	1623
884.152	1231
884.187	974
884.233	935
884.292	1110
884.314	1023
884.394	412
884.398	399
884.475	901
884.504	900
884.555	785
884.610	711
884.636	847
884.716	1538
884.716	1549
884.797	2115
884.821	2071
884.877	1640
884.927	1556
884.958	1404
885.033	954
885.038	986
885.118	1269
885.139	1296
885.199	907
885.244	838
885.279	1198
885.350	1637
885.359	1548
885.439	1261
885.456	979
885.520	1101
885.561	1626
885.600	1580
885.667	1235
885.680	1391
885.760	2249
885.773	2383
885.840	1757
885.878	1475
885.920	1676
885.984	1764
886.000	1703
886.080	1410
886.089	1385
886.160	1327
886.195	1310
886.240	1688
886.300	1842
886.320	1820
886.400	2153
886.406	2149
886.480	1805
886.511	1772
886.560	2376
886.616	2760
886.640	2413
886.720	1520
886.722	1483
886.800	1408
886.827	1546
886.879	1769
886.932	1724
886.959	1948
887.038	2829
887.039	2836
887.119	2279
887.143	2167
887.198	2353
887.248	2436
887.278	2234
887.354	1623
887.358	1656
887.437	2103
887.459	2289
887.517	2257
887.564	2071
887.596	2191
887.669	2571
887.676	2518
887.755	1553
887.774	1367
887.835	2016
887.880	2329
887.914	2100
887.985	1816
887.994	1911
888.073	2611
888.090	2732
888.153	2609
888.195	2539
888.232	2480
888.300	2394
888.311	2377
888.391	1987
888.405	1940
888.470	2335
888.510	2506
888.549	2058
888.615	1368
888.628	1485
888.708	2074
888.720	2174
888.787	1940
888.825	1719
888.866	1704
888.930	1756
888.945	1770
889.024	1764
889.035	1766
889.103	2660
889.140	3084
889.182	2535
889.245	1746
889.261	1815
889.340	2083
889.349	2113
889.419	3102
889.454	3565
889.498	3327
889.559	2987
889.577	2737
889.656	1599
889.664	1482
889.735	2529
889.768	3018
889.814	2809
889.873	2512
889.978	1839
890.083	1502
890.187	2911
890.292	2417
890.397	2628
890.501	2377
890.606	2496
890.710	3115
890.815	3072
890.919	2258
891.024	2186
891.128	2287
891.233	2309
891.337	2618
891.442	2465
891.546	2083
891.650	1295
891.755	2431
891.859	3139
891.963	2502
892.068	2948
892.172	1837
892.276	2501
892.380	2270
892.484	2701
892.589	2197
892.693	2332
892.797	2681
892.901	1877
893.005	1086
893.109	2149
893.213	1859
893.317	2737
893.421	1208
893.525	1841
893.629	1695
893.733	2314
893.837	1805
893.941	1453
894.045	2591
894.148	3706
894.252	5282
894.356	3871
894.460	2169
894.564	2515
894.667	2075
894.771	1874
894.875	1821
894.978	2272
895.082	1297
895.186	2494
895.289	2289
895.393	2056
895.496	2261
895.600	1565
895.703	1610
895.807	2422
895.910	2121
896.014	1832
896.117	1955
896.221	2306
896.324	1770
896.427	2101
896.531	788
896.634	2004
896.737	1530
896.840	1609
896.944	1531
897.047	1729
897.150	1655
897.253	1405
897.356	2454
897.460	1849
897.563	1374
897.666	1715
897.769	1636
897.872	1668
897.975	1995
898.078	1703
898.181	875
898.284	1730
898.387	1628
898.490	2131
898.593	1449
898.695	1640
898.798	1355
898.901	1854
899.004	2404
899.107	2183
899.209	1110
899.312	2635
899.415	1643
899.518	1250
899.620	744
899.723	1512
899.826	1562
899.928	4383
900.031	1606
900.133	2104
900.236	1391
900.338	1267
900.441	1742
900.543	1463
900.646	1598
900.748	2076
900.851	1910
900.953	2298
901.055	1725
901.158	1611
901.260	1215
901.362	2240
901.465	1455
901.567	1719
901.669	2481
901.771	2396
901.873	1382
901.976	1977
902.078	1735
902.180	1769
902.282	229
902.384	2250
902.486	1591
902.588	2211
902.690	1131
902.792	1860
902.894	1298
902.996	962
903.098	1320
903.200	1994
903.302	1712
903.404	2047
903.505	702
903.607	2489
903.709	2791
903.811	1806
903.913	1262
904.014	1843
904.116	1318
904.218	2002
904.319	2044
904.421	2227
904.523	1839
904.624	1845
904.726	955
904.827	1678
904.929	1918
905.030	1697
905.132	1932
905.233	1881
905.335	1105
905.436	1092
905.537	1097
905.639	1865
905.740	1361
905.841	2115
905.943	1531
906.044	1228
906.145	1606
906.247	2412
906.348	871
906.449	1830
906.550	1258
906.651	2265
906.752	2010
906.854	1593
906.955	1327
907.056	1655
907.157	2022
907.258	1370
907.359	1363
907.460	2037
907.561	1145
907.662	1776
907.762	1863
907.863	1458
907.964	1910
908.065	2762
908.166	963
908.267	1827
908.367	2124
908.468	2223
908.569	1218
908.670	2198
908.770	1869
908.871	2606
908.971	1769
909.072	3087
909.173	1585
909.273	1483
909.374	1098
909.474	2227
909.575	1689
909.675	1675
909.776	1390
909.876	2087
909.977	1167
910.077	2481
910.177	1537
910.278	1875
910.378	2142
910.478	1657
910.579	1685
910.679	2012
910.779	1912
910.879	1922
910.980	2127
911.080	2396
911.180	1526
911.280	2206
911.380	1618
911.480	1366
911.580	1024
911.680	2034
911.780	2117
911.880	1255
911.980	2140
912.080	1796
912.180	1169
912.280	1975
912.380	2349
912.480	658
912.580	552
912.679	1940
912.779	1445
912.879	2718
912.979	640
913.078	1433
913.178	1108
913.278	2066
913.377	1121
913.477	2023
913.577	2089
913.676	1776
913.776	1453
913.875	1772
913.975	1890
914.074	2327
914.174	1601
914.273	1477
914.373	1913
914.472	1263
914.572	1488
914.671	1245
914.770	766
914.870	1757
914.969	1220
915.068	1774
915.167	2683
915.267	1862
915.366	919
915.465	2172
915.564	1789
915.663	1897
915.763	1220
915.862	2367
915.961	651
916.060	1673
916.159	1455
916.258	1150
916.357	974
916.456	2727
916.555	1075
916.654	1452
916.752	1388
916.851	1978
916.950	1378
917.049	1485
917.148	1296
917.247	1924
917.345	2039
917.444	1320
917.543	1692
917.642	1381
917.740	1502
917.839	1650
917.937	1543
918.036	1476
918.135	2207
918.233	2005
918.332	1257
918.430	1345
918.529	1502
918.627	1412
918.726	1218
918.824	1178
918.923	1754
919.021	1913
919.119	1803
919.218	1531
919.316	1423
919.414	2596
919.512	1413
919.611	1906
919.709	1091
919.807	2136
919.905	2101
920.003	2080
920.102	1323
920.200	2296
920.298	2062
920.396	2342
920.494	2158
920.592	1978
920.690	1732
920.788	2017
920.886	1964
920.984	2130
921.082	1091
921.180	2607
921.277	1768
921.375	2323
921.473	2495
921.571	2685
921.669	1231
921.766	2003
921.864	1876
921.962	2831
922.060	1400
922.157	2317
922.255	1694
922.352	2861
922.450	1903
922.548	2283
922.645	3919
922.743	2634
922.840	4401
922.938	4707
923.035	4271
923.133	3194
923.230	3773
923.327	5131
923.425	4093
923.522	5300
923.619	3181
923.717	4517
923.814	3283
923.911	3820
924.008	3762
924.106	3530
924.203	3498
924.300	3873
924.397	3596
924.494	4639
924.591	3837
924.688	4585
924.786	3519
924.883	4445
924.979	3507
925.077	4676
925.173	4278
925.270	4035
925.367	3843
925.464	3760
925.561	3846
925.658	4141
925.755	4635
925.852	4608
925.948	3366
926.045	4353
926.142	2944
926.239	4813
926.335	3209
926.432	4591
926.529	4909
926.625	4481
926.722	3187
926.818	3813
926.915	3805
927.011	3822
927.108	2323
927.204	3657
927.301	2616
927.397	3886
927.494	3444
927.590	3914
927.687	2294
927.783	3396
927.879	3164
927.976	3540
928.072	2462
928.168	3256
928.264	3547
928.361	3307
928.457	2765
928.553	3367
928.649	3009
928.745	3326
928.841	3359
928.937	3592
929.033	3289
929.129	3249
929.225	2931
929.321	3870
929.417	2781
929.513	3269
929.609	1868
929.705	2318
929.801	2853
929.897	3256
929.993	3377
930.089	3450
930.184	3199
930.280	3694
930.376	3544
930.471	3531
930.567	2320
930.663	3894
930.758	2929
930.854	3095
930.950	2265
931.045	3375
931.141	3270
931.236	3314
931.332	2002
931.427	2167
931.523	3307
931.618	2296
931.714	3205
931.809	2329
931.905	3177
932.000	2176
932.095	1618
932.191	3255
932.286	2758
932.381	3079
932.476	1961
932.572	3896
932.667	2955
932.762	2268
932.857	1815
932.952	2543
933.047	2574
933.142	1510
933.237	2948
933.332	2613
933.427	2768
933.522	2417
933.617	2534
933.712	2466
933.807	2973
933.902	2738
933.997	2568
934.092	2001
934.187	1948
934.282	3520
934.376	1917
934.471	3605
934.566	1431
934.661	2964
934.755	1919
934.850	3003
934.945	2786
935.039	1916
935.134	2201
935.228	2661
935.323	1490
935.417	2573
935.512	1943
935.606	1931
935.701	2072
935.795	2664
935.890	2391
935.984	2232
936.079	1763
936.173	2402
936.267	2069
936.362	2140
936.456	2589
936.550	3499
936.644	2748
936.738	2567
936.833	2723
936.927	3948
937.021	4377
937.115	3803
937.209	1055
937.303	2679
937.397	1539
937.491	2588
937.585	2373
937.679	2227
937.773	1452
937.867	2241
937.961	1849
938.055	2344
938.149	2924
938.243	1983
938.337	1394
938.430	2677
938.524	2084
938.618	3430
938.712	2319
938.805	2020
938.899	2437
938.993	2124
939.086	1807
939.180	2918
939.274	3014
939.367	2140
939.461	1583
939.554	2287
939.648	2135
939.741	1216
939.835	1393
939.928	2330
940.022	2391
940.115	1692
940.208	1876
940.302	2490
940.395	2659
940.488	1333
940.582	1562
940.675	1072
940.768	1581
940.861	2218
940.954	1796
941.048	1865
941.141	1322
941.234	2067
941.327	2235
941.420	2797
941.513	2318
941.606	2299
941.699	2062
941.792	1521
941.885	1093
941.978	1597
942.071	1400
942.164	1881
942.257	1181
942.349	1663
942.442	1834
942.535	1269
942.628	1925
942.721	2337
942.813	17
942.906	2866
942.999	1799
943.091	1408
943.184	1427
943.277	1445
943.369	1663
943.462	1615
943.554	2162
943.647	1172
943.739	1932
943.832	2115
943.924	563
944.017	2205
944.109	142
944.201	1188
944.294	1307
944.386	1623
944.478	1216
944.571	1198
944.663	1267
944.755	2353
944.847	1539
944.940	1201
945.032	753
945.124	1515
945.216	1296
945.308	2086
945.400	1636
945.492	1386
945.584	3024
945.676	1357
945.768	1744
945.860	1801
945.952	1152
946.044	2347
946.136	974
946.228	1965
946.320	1399
946.412	1885
946.503	1997
946.595	2299
946.687	551
946.779	1567
946.870	788
946.962	1620
947.054	931
947.145	2642
947.237	6
947.329	1319
947.420	1596
947.512	1480
947.603	865
947.695	1367
947.786	97
947.878	691
947.969	1388
948.061	1237
948.152	816
948.243	1845
948.335	805
948.426	1123
948.517	829
948.609	1462
948.700	239
948.791	1376
948.882	972
948.973	1121
949.065	845
949.156	1968
949.247	175
949.338	784
949.429	443
949.520	838
949.611	61
949.702	1959
949.793	1792
949.884	2094
949.975	802
950.066	550
950.157	362
950.247	1715
950.338	499
950.429	1447
950.520	1157
950.611	1213
950.701	841
950.792	1909
950.883	1621
950.973	1906
951.064	1230
951.155	1266
951.245	1801
951.336	1681
951.427	556
951.517	1853
951.608	1172
951.698	2036
951.788	511
951.879	1033
951.969	910
952.060	1342
952.150	609
952.240	2411
952.331	12
952.421	2219
952.511	1457
952.602	1546
952.692	319
952.782	866
952.872	723
952.962	1229
953.052	688
953.143	1113
953.233	1784
953.323	1473
953.413	871
953.503	1080
953.593	686
953.683	1112
953.773	203
953.863	1275
953.953	-21
954.042	915
954.132	159
954.222	1927
954.312	985
954.402	974
954.492	1053
954.581	3502
954.671	1015
954.761	765
954.850	2094
954.940	1356
955.030	663
955.119	194
955.209	364
955.298	1631
955.388	849
955.477	1640
955.567	882
955.656	1001
955.746	1842
955.835	1367
955.925	1048
956.014	1212
956.103	1441
956.193	1730
956.282	1867
956.371	1601
956.461	713
956.550	1091
956.639	1710
956.728	1544
956.817	1687
956.906	1225
956.995	1755
957.085	2188
957.174	1809
957.263	1662
957.352	1012
957.441	798
957.530	724
957.619	1478
957.708	413
957.796	1337
957.885	2310
957.974	1100
958.063	1597
958.152	350
958.241	936
958.329	1372
958.418	1904
958.507	1058
958.596	1966
958.684	1217
958.773	2559
958.861	1951
958.950	2104
959.039	2463
959.127	1799
959.216	1967
959.304	927
959.393	2067
959.481	1503
959.570	2052
959.658	1318
959.746	1629
959.835	1947
959.923	4775
960.011	2193
960.100	2720
960.188	959
960.276	1651
960.365	1859
960.453	826
960.541	671
960.629	1749
960.717	756
960.805	2047
960.893	1944
960.981	1000
961.069	1749
961.158	2297
961.245	2055
961.333	1164
961.421	585
961.509	1261
961.597	934
961.685	1548
961.773	156
961.861	597
961.949	1493
962.036	387
962.124	863
962.212	612
962.299	784
962.387	389
962.475	765
962.562	880
962.650	1489
962.738	1294
962.825	-66
962.913	808
963.000	503
963.088	729
963.175	746
963.263	1665
963.350	705
963.438	1226
963.525	763
963.612	3091
963.700	5154
963.787	14297
963.874	7470
963.962	2051
964.049	873
964.136	531
964.223	-108
964.310	1200
964.398	750
964.485	1154
964.572	1109
964.659	3409
964.746	2665
964.833	809
964.920	-628
965.007	695
965.094	625
965.181	322
965.268	461
965.355	902
965.441	1281
965.528	410
965.615	937
965.702	468
965.789	96
965.875	249
965.962	845
966.049	413
966.136	1452
966.222	745
966.309	1086
966.395	442
966.482	720
966.569	785
966.655	-208
966.742	-86
966.828	642
966.915	144
967.001	665
967.087	232
967.174	735
967.260	1371
967.347	1368
967.433	3599
967.519	9244
967.605	3415
967.692	-21
967.778	422
967.864	-90
967.950	219
968.036	-654
968.123	394
968.209	108
968.295	22
968.381	1190
968.467	885
968.553	-1223
968.639	1034
968.725	6
968.811	2174
968.897	2036
968.983	-242
969.069	-206
969.154	1024
969.240	651
969.326	188
969.412	346
969.497	921
969.583	-249
969.669	1648
969.755	-300
969.840	80
969.926	1777
970.012	1036
970.097	1314
970.183	1638
970.268	225
970.354	1275
970.439	1206
970.525	6846
970.610	1794
970.696	1083
970.781	139
970.866	-168
970.952	1299
971.037	-212
971.122	42
971.208	274
971.293	787
971.378	-626
971.463	442
971.549	826
971.634	-414
971.719	301
971.804	316
971.889	2104
971.974	-283
972.059	551
972.144	-66
972.229	-7
972.314	-397
972.399	903
972.484	638
972.569	1149
972.654	600
972.739	3952
972.824	2955
972.908	1595
972.993	155
973.078	381
973.163	592
973.247	584
973.332	-1917
973.417	1861
973.501	-437
973.586	435
973.671	347
973.755	1260
973.840	365
973.924	1463
974.009	27
974.093	640
974.178	1691
974.262	2037
974.346	2046
974.431	1100
974.515	-190
974.600	228
974.684	-489
974.768	-373
974.852	396
974.937	-546
975.021	914
975.105	699
975.189	-611
975.273	893
975.358	-516
975.442	-72
975.526	847
975.610	-161
975.694	-135
975.778	986
975.862	-108
975.946	-957
976.030	1103
976.114	-416
976.198	423
976.281	-153
976.365	250
976.449	510
976.533	206
976.617	349
976.700	-59
976.784	575
976.868	-310
976.951	1703
977.035	54
977.119	537
977.202	-302
977.286	491
977.369	455
977.453	977
977.536	928
977.620	-199
977.703	-382
977.787	172
977.870	794
977.953	1132
978.037	-1275
978.120	2170
978.203	45
978.287	3519
978.370	1828
978.453	491
978.536	-182
978.620	2071
978.703	1192
978.786	1250
978.869	-908
978.952	-525
979.035	1114
979.118	1303
979.201	-315
979.284	785
979.367	-868
979.450	-170
979.533	-558
979.616	-106
979.699	-648
979.782	576
979.865	-730
979.948	192
980.030	-66
980.113	596
980.196	-1199
980.279	908
980.361	98
980.444	-71
980.526	24
980.609	716
980.692	984
980.774	853
980.857	-443
980.939	383
981.022	-539
981.104	115
981.187	-264
981.269	1399
981.352	-142
981.434	-106
981.516	-857
981.599	890
981.681	715
981.763	52
981.846	401
981.928	-102
982.010	-72
982.092	252
982.174	329
982.256	-438
982.339	427
982.421	338
982.503	402
982.585	-891
982.667	-532
982.749	379
982.831	399
982.913	-192
982.995	1348
983.077	568
983.158	1062
983.240	-402
983.322	103
983.404	994
983.486	446
983.568	379
983.649	12
983.731	989
983.813	-349
983.894	931
983.976	-1018
984.058	472
984.139	490
984.221	-187
984.302	301
984.384	44
984.465	175
984.547	715
984.628	-797
984.710	1428
984.791	-166
984.872	187
984.954	-839
985.035	902
985.116	-146
985.198	380
985.279	465
985.360	-108
985.441	-615
985.522	1021
985.604	-337
985.685	-907
985.766	710
985.847	1077
985.928	-270
986.009	429
986.090	-820
986.171	1724
986.252	-41
986.333	616
986.414	514
986.495	743
986.576	-602
986.656	608
986.737	-262
986.818	354
986.899	264
986.980	-183
987.060	830
987.141	-60
987.222	80
987.302	298
987.383	672
987.464	-354
987.544	326
987.625	174
987.705	-398
987.786	681
987.866	-158
987.947	680
988.027	-241
988.108	-48
988.188	49
988.268	348
988.349	-207
988.429	8
988.509	-82
988.589	-360
988.670	-1205
988.750	755
988.830	-421
988.910	578
988.990	10
989.070	90
989.151	-409
989.231	-118
989.311	875
989.391	-612
989.471	-281
989.551	433
989.631	-629
989.711	882
989.791	-381
989.870	-712
989.950	388
990.030	-613
990.110	-78
990.190	-499
990.269	411
990.349	345
990.429	232
990.509	323
990.588	-1120
990.668	429
990.747	-164
990.827	545
990.907	-560
990.986	-536
991.066	-186
991.145	-113
991.225	922
991.304	416
991.383	64
991.463	-741
991.542	-113
991.622	-93
991.701	-693
991.780	-166
991.859	-1025
991.939	-781
992.018	-249
992.097	-365
992.176	-386
992.256	548
992.335	-1178
992.414	547
992.493	-956
992.572	-757
992.651	486
992.730	34
992.809	-526
992.888	-707
992.967	-535
993.046	132
993.125	-1382
993.203	-23
993.282	-620
993.361	475
993.440	-91
993.519	-829
993.597	-215
993.676	-496
993.755	126
993.834	-462
993.912	-1624
993.991	579
994.069	-880
994.148	-645
994.226	-293
994.305	-873
994.384	-944
994.462	492
994.540	-1674
994.619	-263
994.697	-608
994.776	-632
994.854	-178
994.932	-816
995.011	-1213
995.089	-189
995.167	-917
995.245	-225
995.324	-1433
995.402	-149
995.480	-498
995.558	-261
995.636	-1237
995.714	-263
995.792	69
995.870	-755
995.948	-283
996.026	591
996.104	-2038
996.182	517
996.260	-1560
996.338	23
996.416	-1543
996.494	-664
996.572	-484
996.649	-894
996.727	-1690
996.805	-335
996.883	-898
996.960	-376
997.038	-1089
997.116	-110
997.193	-1324
997.271	44
997.348	-929
997.426	-269
997.504	-1219
997.581	538
997.658	-661
997.736	-1024
997.813	-760
997.891	516
997.968	-840
998.046	-347
998.123	-1089
998.200	-328
998.277	-454
998.355	27
998.432	-1943
998.509	-987
998.586	-981
998.663	-108
998.741	-969
998.818	-198
998.895	-1609
998.972	-857
999.049	-914
999.126	-1623
999.203	-1048
999.280	259
999.357	-607
999.434	-1031
999.511	-823
999.587	7
999.664	-2099
999.741	-885
999.818	-248
999.895	-560
999.971	-1380
1000.048	-790
1000.125	-856
1000.202	-1351
1000.278	-1381
1000.355	-331
1000.431	-1649
1000.508	-1639
1000.584	-786
1000.661	-656
1000.738	-1637
1000.814	-1476
1000.890	-474
1000.967	-459
1001.043	-699
1001.120	-1563
1001.196	-679
1001.272	-1478
1001.349	-1145
1001.425	-142
1001.501	-858
1001.577	-1657
1001.654	-842
1001.730	-1190
1001.806	-1217
1001.882	-1357
1001.958	-960
1002.034	-297
1002.110	-1155
1002.186	-1250
1002.262	-1500
1002.338	-1663
1002.414	-1145
1002.490	-516
1002.566	-1837
1002.642	-872
1002.718	-748
1002.794	-1383
1002.870	-1461
1002.945	-749
1003.021	-1157
1003.097	-1313
1003.173	-385
1003.248	-1046
1003.324	-1009
1003.400	-436
1003.475	-1633
1003.551	-603
1003.626	-1565
1003.702	-1356
1003.777	-2169
1003.853	-1312
1003.928	-1304
1004.004	-1018
1004.079	-852
1004.155	-1270
1004.230	-2453
1004.305	-1201
1004.381	-1843
1004.456	-810
1004.531	-1008
1004.607	-1201
1004.682	-663
1004.757	-1382
1004.832	-1505
1004.907	-577
1004.982	-1935
1005.057	-1125
1005.133	-1566
1005.208	-910
1005.283	-2036
1005.358	-319
1005.433	-1945
1005.508	-87
1005.583	-2081
1005.657	-969
1005.732	-1347
1005.807	-1102
1005.882	-1424
1005.957	-961
1006.032	-992
1006.106	-1249
1006.181	-878
1006.256	-1392
1006.331	-2252
1006.405	-1998
1006.480	-677
1006.554	-372
1006.629	-590
1006.704	-1626
1006.778	-1594
1006.853	-809
1006.927	-1928
1007.002	-1363
1007.076	-1456
1007.150	-1135
1007.225	-1133
1007.299	-910
1007.373	-1991
1007.448	-577
1007.522	-838
1007.596	-928
1007.671	-1475
1007.745	-111
1007.819	-1162
1007.893	-870
1007.967	-1206
1008.041	-1848
1008.115	-892
1008.190	-1324
1008.264	-879
1008.338	-2393
1008.412	-1885
1008.486	-1207
1008.560	-1537
1008.633	-1551
1008.707	-1970
1008.781	-225
1008.855	-1389
1008.929	-1304
1009.003	-1527
1009.076	-742
1009.150	-1589
1009.224	-701
1009.298	-1157
1009.371	-1947
1009.445	-1169
1009.519	-1481
1009.592	-2052
1009.666	-1702
1009.739	-1397
1009.813	-1406
1009.886	-774
1009.960	-2391
1010.033	-1472
1010.107	-1162
1010.180	-2045
1010.253	-1288
1010.327	-2264
1010.400	-854
1010.473	-1583
1010.547	-904
1010.620	-2193
1010.693	-1313
1010.766	-1642
1010.840	-916
1010.913	-1988
1010.986	-1460
1011.059	-1459
1011.132	-1552
1011.205	-1678
1011.278	-1439
1011.351	-1885
1011.424	-966
1011.497	-1997
1011.570	-764
1011.643	-1847
1011.716	-1734
1011.789	-1953
1011.862	-1292
1011.934	-1407
1012.007	-1693
1012.080	-1044
1012.153	-1012
1012.225	-1206
1012.298	-2236
1012.371	-2149
1012.443	-573
1012.516	-2364
1012.588	-1322
1012.661	-1686
1012.733	-1456
1012.806	-1011
1012.879	-2038
1012.951	-1878
1013.023	-2352
1013.096	-1149
1013.168	-2199
1013.241	-340
1013.313	-1527
1013.385	-2500
1013.458	-1627
1013.530	-1112
1013.602	-2246
1013.674	-2019
1013.746	-1671
1013.819	-1482
1013.891	-1336
1013.963	-2812
1014.035	-1191
1014.107	-1069
1014.179	-1319
1014.251	-1754
1014.323	-894
1014.395	-1266
1014.467	-850
1014.539	-1533
1014.611	-1797
1014.683	-1110
1014.754	-853
1014.826	-2025
1014.898	-1556
1014.970	-2912
1015.042	-1161
1015.113	-1834
1015.185	-1456
1015.257	-2845
1015.328	-989
1015.400	-2249
1015.471	-1355
1015.543	-1558
1015.615	-1193
1015.686	-1854
1015.757	-1645
1015.829	-1958
1015.901	-2069
1015.972	-1532
1016.043	-2090
1016.115	-1932
1016.186	-1255
1016.257	-1861
1016.328	-1286
1016.400	-1181
1016.471	-1638
1016.542	-1812
1016.613	-1518
1016.685	-1501
1016.756	-1110
1016.827	-1783
1016.898	-2329
1016.969	-1442
1017.040	-1454
1017.111	-2346
1017.182	-1024
1017.253	-1560
1017.324	-1263
1017.395	-2314
1017.466	-1073
1017.537	-1776
1017.608	-1290
1017.678	-1430
1017.749	-1199
1017.820	-2142
1017.891	-1612
1017.961	-1983
1018.032	-1437
1018.103	-1761
1018.173	-1351
1018.244	-2412
1018.315	-1332
1018.385	-1190
1018.456	-822
1018.526	-2459
1018.597	-1813
1018.667	-1906
1018.738	-1918
1018.808	-2039
1018.878	-1893
1018.949	-2335
1019.019	-1373
1019.089	-1534
1019.160	-1658
1019.230	-2232
1019.300	-715
1019.371	-1791
1019.441	-1122
1019.511	-2083
1019.581	-1889
1019.651	-1554
1019.721	-1162
1019.791	-2352
1019.861	-1877
1019.931	-1488
1020.001	-1402
1020.071	-1770
1020.141	-2425
1020.211	-1963
1020.281	-2323
1020.351	-1975
1020.421	-891
1020.491	-1240
1020.560	-2138
1020.630	-2178
1020.700	-1701
1020.770	-2560
1020.839	-2275
1020.909	-1352
1020.979	-2044
1021.048	-2525
1021.118	-2070
1021.187	-1391
1021.257	-1279
1021.326	-1580
1021.396	-2251
1021.465	-1547
1021.535	-1760
1021.604	-2358
1021.674	-1787
1021.743	-1152
1021.812	-1359
1021.882	-1681
1021.951	-1520
1022.020	-822
1022.089	-1621
1022.159	-2456
1022.228	-731
1022.297	-2023
1022.366	-1685
1022.435	-2166
1022.504	-1744
1022.573	-2077
1022.642	-1212
1022.711	-2348
1022.781	-1588
1022.849	-1919
1022.918	-2412
1022.987	-1937
1023.056	-1358
1023.125	-2062
1023.194	-2136
1023.263	-1865
1023.331	-717
1023.400	-2025
1023.469	-1298
1023.538	-1550
1023.606	-2322
1023.675	-1343
1023.744	-1927
1023.812	-2231
1023.881	-2155
1023.949	-2096
1024.018	-811
1024.086	-2291
1024.155	-1842
1024.223	-2027
1024.292	-1243
1024.360	-1872
1024.429	-1906
1024.497	-2248
1024.565	-1487
1024.634	-1965
1024.702	-1663
1024.770	-2346
1024.838	-1635
1024.907	-1462
1024.975	-2075
1025.043	-2018
1025.111	-1507
1025.179	-1642
1025.247	-1719
1025.315	-2248
1025.383	-1676
1025.451	-2156
1025.519	-1804
1025.587	-2619
1025.655	-2256
1025.723	-1621
1025.791	-1530
1025.859	-1205
1025.927	-1255
1025.995	-2336
1026.062	-2495
1026.130	-2270
1026.198	-1875
1026.266	-1324
1026.333	-1158
1026.401	-1122
1026.469	-1881
1026.536	-1852
1026.604	-1871
1026.671	-2286
1026.739	-1403
1026.806	-2226
1026.874	-2426
1026.941	-2232
1027.009	-1554
1027.076	-1806
1027.144	-1526
1027.211	-2008
1027.278	-2313
1027.345	-2186
1027.413	-1994
1027.480	-2005
1027.547	-1830
1027.614	-2326
1027.682	-1265
1027.749	-2252
1027.816	-1448
1027.883	-1592
1027.950	-1827
1028.017	-1645
1028.084	-1543
1028.151	-2422
1028.218	-2117
1028.285	-1830
1028.352	-2298
1028.419	-2182
1028.486	-1754
1028.553	-2423
1028.619	-2166
1028.686	-2311
1028.753	-1573
1028.820	-2541
1028.886	-2224
1028.953	-2197
1029.020	-1442
1029.086	-1977
1029.153	-3004
1029.220	-2723
1029.286	-2110
1029.353	-2298
1029.419	-2245
1029.486	-1920
1029.552	-2119
1029.619	-2384
1029.685	-2440
1029.751	-2018
1029.818	-948
1029.884	-2554
1029.951	-722
1030.017	-2588
1030.083	-2378
1030.149	-2510
1030.216	-2548
1030.282	-1530
1030.348	-2659
1030.414	-1935
1030.480	-1995
1030.546	-1492
1030.612	-1855
1030.678	-2516
1030.744	-2535
1030.810	-1959
1030.876	-1634
1030.942	-1799
1031.008	-2453
1031.074	-1932
1031.140	-1914
1031.206	-1678
1031.272	-2220
1031.337	-2377
1031.403	-2146
1031.469	-1911
1031.534	-1722
1031.600	-2499
1031.666	-2156
1031.731	-3103
1031.797	-2065
1031.863	-2522
1031.928	-2781
1031.994	-2372
1032.059	-2032
1032.125	-2116
1032.190	-1837
1032.256	-2409
1032.321	-2346
1032.386	-1657
1032.452	-1796
1032.517	-2617
1032.582	-2385
1032.647	-2652
1032.713	-2592
1032.778	-2060
1032.843	-2278
1032.908	-2508
1032.974	-1821
1033.039	-3098
1033.104	-1007
1033.169	-2908
1033.234	-1882
1033.299	-2019
1033.364	-1794
1033.429	-2012
1033.494	-1584
1033.559	-1696
1033.624	-1781
1033.688	-2672
1033.753	-2096
1033.818	-1921
1033.883	-1977
1033.948	-1890
1034.013	-1552
1034.077	-1369
1034.142	-791
1034.207	-1386
1034.271	-328
1034.336	33
1034.400	-133
1034.465	-585
1034.530	-869
1034.594	-1866
1034.658	-1370
1034.723	-2195
1034.787	-2040
1034.852	-2625
1034.916	-2679
1034.981	-1869
1035.045	-2055
1035.109	-2407
1035.173	-1890
1035.238	-2165
1035.302	-2345
1035.366	-2357
1035.430	-2291
1035.495	-2751
1035.559	-2013
1035.623	-1531
1035.687	-2853
1035.751	-2397
1035.815	-1399
1035.879	-2910
1035.943	-2176
1036.007	-2610
1036.071	-2387
1036.135	-2617
1036.198	-836
1036.262	-2610
1036.326	-1538
1036.390	-2124
1036.454	-1738
1036.517	-2219
1036.581	-1213
1036.645	-1321
1036.709	-1354
1036.772	-2588
1036.836	-1216
1036.900	-2371
1036.963	-2674
1037.026	-2305
1037.090	-1738
1037.154	-2407
1037.217	-2048
1037.280	-2874
1037.344	-1303
1037.407	-2524
1037.471	-2635
1037.534	-2404
1037.597	-2534
1037.661	-2064
1037.724	-1943
1037.787	-2085
1037.850	-2598
1037.913	-2018
1037.977	-1563
1038.040	-2088
1038.103	-1673
1038.166	-2868
1038.229	-2507
1038.292	-2520
1038.355	-1646
1038.418	-2710
1038.481	-1825
1038.544	-2774
1038.607	-2053
1038.670	-2005
1038.732	-1490
1038.795	-2369
1038.858	-1783
1038.921	-2844
1038.984	-1890
1039.046	-2444
1039.109	-2423
1039.172	-2812
1039.234	-2386
1039.297	-2812
1039.360	-2280
1039.422	-2375
1039.485	-2251
1039.547	-2728
1039.610	-1615
1039.672	-2328
1039.734	-2192
1039.797	-2288
1039.859	-1755
1039.922	-2819
1039.984	-2409
1040.046	-2909
1040.109	-1486
1040.171	-3035
1040.233	-2080
1040.295	-2887
1040.358	-2895
1040.420	-2344
1040.482	-2785
1040.544	-2467
1040.606	-2274
1040.668	-1608
1040.730	-1716
1040.792	-2210
1040.854	-1937
1040.916	-2455
1040.978	-2572
1041.040	-1086
1041.102	-2668
1041.164	-2466
1041.225	-1587
1041.287	-2212
1041.349	-2925
1041.411	-2295
1041.472	-2073
1041.534	-2715
1041.596	-1549
1041.657	-2632
1041.719	-2022
1041.781	-2549
1041.842	-2138
1041.904	-2593
1041.965	-2616
1042.027	-2184
1042.088	-2319
1042.150	-1997
1042.211	-2123
1042.272	-2412
1042.334	-1608
1042.395	-2490
1042.456	-2121
1042.518	-2589
1042.579	-1705
1042.640	-2949
1042.701	-2065
1042.763	-2143
1042.824	-2287
1042.885	-2539
1042.946	-2262
1043.007	-2976
1043.068	-1777
1043.129	-2323
1043.190	-2198
1043.251	-2148
1043.312	-2095
1043.373	-2049
1043.434	-2012
1043.495	-2586
1043.556	-1569
1043.616	-2590
1043.677	-1673
1043.738	-2722
1043.799	-2587
1043.859	-2594
1043.920	-1613
1043.981	-2321
1044.041	-1446
1044.102	-2399
1044.162	-1996
1044.223	-2683
1044.284	-1705
1044.344	-1890
1044.405	-2080
1044.465	-2572
1044.525	-2358
1044.586	-2518
1044.646	-2120
1044.707	-876
1044.767	-1628
1044.827	-1602
1044.887	-2250
1044.948	-1639
1045.008	-1927
1045.068	-2662
1045.128	-1811
1045.188	-2692
1045.249	-1563
1045.309	-2649
1045.369	-1686
1045.429	-2237
1045.489	-1557
1045.549	-2036
1045.609	-2438
1045.669	-2163
1045.729	-2291
1045.789	-2300
1045.848	-1760
1045.908	-2391
1045.968	-1212
1046.028	-1645
1046.088	-1730
1046.147	-1917
1046.207	-1218
1046.267	-2202
1046.326	-2089
1046.386	-2501
1046.446	-1198
1046.505	-1276
1046.565	-501
1046.624	-1659
1046.684	-722
1046.743	-615
1046.803	-492
1046.862	-783
1046.922	0
