'Start Wavelength	183.907
'End Wavelength	1046.922
'Gate Delay	5.000
'Gate Width (ms)	1.050
'Laser Output Level	0.000
'X Position	0.000
'Y Position	0.000
'Z Position	0.000
'Grid Point Number	1.000
'Shot Number	100.000
183.907	133.000
183.977	-870.000
184.047	-215
184.116	622
184.186	139
184.256	337
184.325	-474
184.395	-323
184.465	662
184.534	-558
184.604	-38
184.674	292
184.743	-313
184.813	140
184.883	48
184.952	-560
185.022	54
185.092	-527
185.161	-262
185.231	-283
185.301	72
185.370	647
185.440	236
185.509	-483
185.579	-536
185.649	216
185.718	210
185.788	-287
185.857	-471
185.927	-473
185.996	6
186.066	-657
186.136	338
186.205	365
186.275	342
186.344	-441
186.414	503
186.483	-74
186.553	593
186.622	-90
186.692	-221
186.761	-194
186.831	14
186.900	142
186.970	522
187.039	206
187.109	-260
187.178	-493
187.248	610
187.317	-380
187.387	26
187.456	130
187.526	-110
187.595	-477
187.664	-256
187.734	-380
187.803	-916
187.873	56
187.942	111
188.012	-883
188.081	-189
188.150	-720
188.220	292
188.289	186
188.358	-13
188.428	698
188.497	-287
188.567	-213
188.636	-65
188.705	-264
188.775	-7
188.844	-771
188.913	226
188.983	-143
189.052	313
189.121	86
189.191	-413
189.260	581
189.329	-606
189.399	183
189.468	158
189.537	-292
189.606	-512
189.676	116
189.745	314
189.814	570
189.883	-690
189.953	-745
190.022	384
190.091	187
190.161	374
190.230	368
190.299	193
190.368	-407
190.437	-429
190.507	-361
190.576	65
190.645	-605
190.714	41
190.783	-371
190.853	775
190.922	-275
190.991	-416
191.060	-357
191.129	-50
191.198	647
191.268	-243
191.337	-767
191.406	-473
191.475	-428
191.544	-763
191.613	-66
191.682	-132
191.752	25
191.821	-1063
191.890	-692
191.959	-506
192.028	93
192.097	-105
192.166	55
192.235	-459
192.304	-69
192.373	-901
192.442	-49
192.511	-44
192.580	-241
192.650	-314
192.719	-412
192.788	333
192.857	-386
192.926	-397
192.995	-698
193.064	-709
193.133	-824
193.202	-325
193.271	-709
193.340	856
193.409	-473
193.478	210
193.547	-207
193.615	192
193.684	202
193.753	-607
193.822	-453
193.891	-651
193.960	-407
194.029	-622
194.098	-113
194.167	-116
194.236	-5
194.305	-245
194.374	-785
194.443	532
194.512	-724
194.580	-478
194.649	-272
194.718	238
194.787	235
194.856	53
194.925	-95
194.994	76
195.062	-162
195.131	44
195.200	237
195.269	5
195.338	-300
195.407	376
195.475	-849
195.544	298
195.613	37
195.682	-92
195.751	50
195.819	-229
195.888	-76
195.957	826
196.026	-514
196.094	316
196.163	-567
196.232	-425
196.301	-106
196.369	384
196.438	6
196.507	-260
196.576	-254
196.644	-178
196.713	-602
196.782	-172
196.850	-305
196.919	-32
196.988	281
197.056	-535
197.125	-248
197.194	296
197.262	-139
197.331	-1163
197.400	-191
197.468	-351
197.537	-322
197.606	-473
197.674	-44
197.743	-92
197.812	-683
197.880	-1206
197.949	372
198.017	447
198.086	209
198.155	-237
198.223	569
198.292	-161
198.360	-664
198.429	163
198.497	-532
198.566	1
198.635	-215
198.703	64
198.772	-431
198.840	8
198.909	292
198.977	21
199.046	-884
199.114	-249
199.183	254
199.251	-739
199.320	-197
199.388	-131
199.457	-421
199.525	-247
199.594	266
199.662	-2
199.731	-619
199.799	69
199.867	-1086
199.936	-305
200.004	-206
200.073	436
200.141	-361
200.210	179
200.278	-183
200.346	94
200.415	-403
200.483	-705
200.552	55
200.620	-132
200.688	32
200.757	-8
200.825	-567
200.893	-922
200.962	-5
201.030	-409
201.098	-470
201.167	-314
201.235	221
201.303	-290
201.372	265
201.440	33
201.508	-166
201.577	119
201.645	-271
201.713	-36
201.781	-1120
201.850	-18
201.918	-473
201.986	-519
202.055	322
202.123	-218
202.191	-494
202.259	-158
202.327	-74
202.396	-333
202.464	-468
202.532	-385
202.600	515
202.669	492
202.737	-105
202.805	-599
202.873	234
202.941	59
203.009	181
203.078	-347
203.146	-389
203.214	-793
203.282	-760
203.350	10
203.418	-694
203.487	-130
203.555	-369
203.623	-314
203.691	-920
203.759	-645
203.827	-539
203.895	-1136
203.963	-613
204.031	-482
204.099	-201
204.168	-431
204.236	-1001
204.304	-495
204.372	-1237
204.440	-591
204.508	-419
204.576	-480
204.644	-745
204.712	-1013
204.780	-12
204.848	-96
204.916	-968
204.984	195
205.052	-340
205.120	-181
205.188	117
205.256	-199
205.324	-94
205.392	-361
205.460	-499
205.528	-504
205.596	-420
205.664	-301
205.732	-360
205.799	-627
205.867	-251
205.935	-765
206.003	-603
206.071	-470
206.139	-557
206.207	-353
206.275	-329
206.343	-686
206.411	-212
206.478	214
206.546	-869
206.614	-210
206.682	-861
206.750	-610
206.818	-1172
206.885	-457
206.953	-751
207.021	1063
207.089	-806
207.157	-357
207.225	-265
207.292	-670
207.360	-273
207.428	-644
207.496	-561
207.563	526
207.631	-509
207.699	-887
207.767	-496
207.834	-696
207.902	-886
207.970	-514
208.038	-676
208.105	-411
208.173	-352
208.241	-330
208.309	-345
208.376	-929
208.444	-530
208.512	-728
208.579	-1466
208.647	167
208.715	-521
208.782	-865
208.850	-719
208.918	-558
208.985	-404
209.053	-158
209.120	-108
209.188	-1061
209.256	-333
209.323	-576
209.391	-634
209.459	341
209.526	-325
209.594	-504
209.661	-57
209.729	-195
209.796	-419
209.864	-490
209.932	-1513
209.999	178
210.067	-336
210.134	-238
210.202	-858
210.269	-938
210.337	723
210.404	106
210.472	-700
210.539	104
210.607	-1167
210.674	-178
210.742	-44
210.809	21
210.877	-1006
210.944	-157
211.012	-902
211.079	1053
211.146	-477
211.214	-323
211.281	-788
211.349	24
211.416	-465
211.484	-626
211.551	-933
211.618	-288
211.686	-207
211.753	-1491
211.821	-2
211.888	237
211.955	-801
212.023	-580
212.090	-686
212.157	-881
212.225	-329
212.292	-85
212.359	-1081
212.427	-188
212.494	-854
212.561	-190
212.629	-221
212.696	372
212.763	30
212.831	-1092
212.898	-735
212.965	-841
213.032	-510
213.100	-498
213.167	-732
213.234	159
213.301	-847
213.369	463
213.436	-893
213.503	-1315
213.570	-184
213.638	-1007
213.705	-822
213.772	-544
213.839	-1213
213.906	396
213.973	22
214.041	-388
214.108	-354
214.175	-427
214.242	-149
214.309	-756
214.376	-584
214.444	-530
214.511	-601
214.578	-148
214.645	-118
214.712	-174
214.779	-292
214.846	252
214.913	-433
214.980	-483
215.048	-112
215.115	-635
215.182	-800
215.249	-91
215.316	-757
215.383	-71
215.450	-527
215.517	-494
215.584	-391
215.651	-648
215.718	-760
215.785	125
215.852	-678
215.919	-1092
215.986	-1002
216.053	-163
216.120	-579
216.187	-408
216.254	-167
216.321	-127
216.388	-722
216.455	-768
216.522	-1025
216.589	-751
216.656	-286
216.722	-558
216.789	-381
216.856	-1014
216.923	-163
216.990	304
217.057	-437
217.124	466
217.191	-1151
217.258	65
217.324	-541
217.391	-183
217.458	-1498
217.525	-656
217.592	102
217.659	-1385
217.725	225
217.792	-931
217.859	173
217.926	-548
217.993	-637
218.059	-248
218.126	-603
218.193	-666
218.260	-991
218.327	-177
218.393	-710
218.460	-1270
218.527	-446
218.594	-654
218.660	-1122
218.727	447
218.794	-1752
218.860	-567
218.927	-978
218.994	-674
219.061	-970
219.127	-716
219.194	-256
219.261	-638
219.327	-1183
219.394	-768
219.461	-1341
219.527	-72
219.594	-836
219.661	-96
219.727	-732
219.794	-233
219.860	-953
219.927	-520
219.994	10
220.060	-337
220.127	905
220.193	80
220.260	-59
220.326	-780
220.393	234
220.460	-253
220.526	-1166
220.593	-695
220.659	305
220.726	-399
220.792	-68
220.859	-693
220.925	-346
220.992	-516
221.058	29
221.125	48
221.191	-169
221.258	-1688
221.324	-192
221.391	-623
221.457	-364
221.524	-593
221.590	-820
221.657	-405
221.723	-425
221.789	-454
221.856	-75
221.922	59
221.989	-417
222.055	-524
222.121	-1583
222.188	202
222.254	-20
222.321	-511
222.387	-670
222.453	-63
222.520	-465
222.586	-743
222.652	-36
222.719	-46
222.785	-247
222.851	-847
222.918	-1189
222.984	-554
223.050	-1212
223.116	-1766
223.183	-85
223.249	-1539
223.315	-697
223.382	95
223.448	-298
223.514	-938
223.580	-751
223.647	-548
223.713	-741
223.779	-591
223.845	-203
223.911	-680
223.978	-995
224.044	-500
224.110	-970
224.176	-960
224.242	-319
224.309	-1170
224.375	-492
224.441	-1130
224.507	-878
224.573	-1088
224.639	-268
224.705	-378
224.772	-534
224.838	-781
224.904	-136
224.970	-890
225.036	-731
225.102	-1473
225.168	-370
225.234	-759
225.300	-1400
225.366	-146
225.432	-793
225.499	-464
225.565	-663
225.631	-828
225.697	-1172
225.763	-945
225.829	-591
225.895	-246
225.961	-859
226.027	-781
226.093	-1019
226.159	-353
226.225	-13
226.291	-256
226.357	309
226.423	-207
226.489	-563
226.554	-464
226.620	-471
226.686	-51
226.752	4
226.818	-879
226.884	433
226.950	899
227.016	-560
227.082	424
227.148	-753
227.214	-375
227.279	-372
227.345	-489
227.411	-575
227.477	-143
227.543	1218
227.609	491
227.674	-161
227.740	-326
227.806	-551
227.872	-101
227.938	-764
228.003	-912
228.069	-757
228.135	-1309
228.201	-291
228.267	-1305
228.332	-981
228.398	-1774
228.464	-678
228.530	-822
228.595	-701
228.661	-324
228.727	-767
228.792	-307
228.858	-325
228.924	-1420
228.990	196
229.055	-1545
229.121	-1347
229.187	-1095
229.252	-1243
229.318	-793
229.384	-81
229.449	-1280
229.515	-2223
229.581	-946
229.646	312
229.712	-1695
229.777	-1065
229.843	-1368
229.909	-742
229.974	-606
230.040	-320
230.105	-383
230.171	-1092
230.236	-491
230.302	-802
230.368	-602
230.433	-1404
230.499	-511
230.564	-506
230.630	-1070
230.695	-603
230.761	-17
230.826	-1327
230.892	228
230.957	-689
231.023	-456
231.088	-813
231.154	-723
231.219	-384
231.284	-1753
231.350	-362
231.415	-1112
231.481	153
231.546	-874
231.612	-459
231.677	-1054
231.742	-1340
231.808	519
231.873	-898
231.939	-2026
232.004	-495
232.069	-95
232.135	-1073
232.200	-1068
232.265	-324
232.331	-746
232.396	-741
232.461	-972
232.527	-996
232.592	-1125
232.657	-957
232.723	-849
232.788	-1370
232.853	281
232.918	-1189
232.984	-911
233.049	-772
233.114	-1134
233.179	-439
233.245	-67
233.310	-1075
233.375	-1035
233.440	-253
233.506	-1580
233.571	-934
233.636	-104
233.701	-1346
233.766	-826
233.832	-1104
233.897	-937
233.962	-1735
234.027	-163
234.092	-748
234.157	-1298
234.222	-1090
234.288	-407
234.353	-1127
234.418	-1088
234.483	-396
234.548	-1224
234.613	-1431
234.678	26
234.743	-1390
234.808	-307
234.873	-1245
234.938	-92
235.004	-760
235.069	-264
235.134	-1847
235.199	-1219
235.264	-657
235.329	-1532
235.394	-214
235.459	-210
235.524	-1594
235.589	-654
235.654	-630
235.719	-1704
235.784	-532
235.849	-423
235.913	-1636
235.978	-596
236.043	-1604
236.108	-1029
236.173	-829
236.238	9
236.303	-1882
236.368	-1197
236.433	-230
236.498	-1458
236.563	-488
236.627	-852
236.692	1518
236.757	414
236.822	-622
236.887	-1242
236.952	-391
237.017	-1817
237.081	19
237.146	-1263
237.211	45
237.276	878
237.341	2633
237.405	-707
237.470	-556
237.535	-188
237.600	-528
237.664	190
237.729	-1968
237.794	-1399
237.859	-456
237.923	-1021
237.988	-1458
238.053	-179
238.118	-885
238.182	-573
238.247	-145
238.312	-1527
238.376	-26
238.441	-2076
238.506	838
238.570	-1683
238.635	37
238.700	-1000
238.764	-1805
238.829	109
238.893	-1141
238.958	-786
239.023	-1278
239.087	-625
239.152	-613
239.216	-1640
239.281	-639
239.346	-900
239.410	-1604
239.475	-1040
239.539	-9
239.604	-1662
239.668	109
239.733	-629
239.797	178
239.862	1714
239.926	442
239.991	328
240.055	-348
240.120	-1495
240.184	-351
240.249	-1213
240.313	-844
240.378	-820
240.442	-1530
240.507	-601
240.571	-492
240.635	-403
240.700	-1273
240.764	-540
240.829	-1143
240.893	-1612
240.957	-722
241.022	-735
241.086	-328
241.151	-1285
241.215	-1645
241.279	-80
241.344	-1684
241.408	-891
241.472	-1291
241.537	-356
241.601	-702
241.665	-1288
241.730	-1532
241.794	162
241.858	-1094
241.922	-490
241.987	-595
242.051	-624
242.115	-1647
242.179	-909
242.244	-1031
242.308	-590
242.372	-1229
242.436	-1279
242.501	-295
242.565	-1316
242.629	-2119
242.693	-227
242.757	-1038
242.822	-803
242.886	-332
242.950	-1207
243.014	-1600
243.078	-406
243.142	-809
243.206	-661
243.271	-1699
243.335	-1597
243.399	-296
243.463	387
243.527	1550
243.591	-587
243.655	-764
243.719	-1220
243.783	-69
243.847	-163
243.911	-204
243.975	-2072
244.040	-1781
244.104	31
244.168	-453
244.232	-1267
244.296	-1218
244.360	-920
244.424	-1270
244.488	-171
244.552	-705
244.615	-1550
244.679	-260
244.743	-791
244.807	-1312
244.871	-649
244.935	-662
244.999	-2438
245.063	-1298
245.127	331
245.191	-1171
245.255	-1592
245.319	-1353
245.383	-1910
245.446	457
245.510	-1582
245.574	-786
245.638	-775
245.702	-1644
245.766	-896
245.829	-500
245.893	-2162
245.957	-2496
246.021	-493
246.085	-1080
246.149	-923
246.212	-299
246.276	-930
246.340	-1446
246.404	-979
246.467	-248
246.531	-1976
246.595	-340
246.659	-309
246.722	-1727
246.786	-1234
246.850	-1292
246.913	-584
246.977	-1721
247.041	-1019
247.104	-1021
247.168	-773
247.232	-888
247.295	-219
247.359	-957
247.423	-684
247.486	-1157
247.550	-528
247.614	-1325
247.677	-1189
247.741	-464
247.804	-603
247.868	-791
247.932	-729
247.995	-28
248.059	-582
248.122	-2110
248.186	-353
248.249	-1304
248.313	226
248.376	-38
248.440	-1032
248.503	-1918
248.567	-351
248.630	-1554
248.694	-593
248.757	-419
248.821	939
248.884	97
248.948	-1180
249.011	-600
249.075	-213
249.138	367
249.202	-199
249.265	-1495
249.328	-242
249.392	-1570
249.455	-960
249.519	-1338
249.582	-470
249.645	-1279
249.709	-945
249.772	-1454
249.835	-1591
249.899	-1873
249.962	-872
250.025	-1287
250.089	-292
250.152	-477
250.215	-1334
250.279	-1249
250.342	-158
250.405	-732
250.468	-1625
250.532	-918
250.595	-656
250.658	63
250.721	3234
250.785	-1124
250.848	208
250.911	-1041
250.974	-733
251.038	-1336
251.101	52
251.164	-355
251.227	-769
251.290	-753
251.354	255
251.417	1805
251.480	1958
251.543	888
251.606	5366
251.669	2984
251.732	76
251.795	601
251.859	-537
251.922	3217
251.985	901
252.048	-261
252.111	-593
252.174	-1467
252.237	-82
252.300	70
252.363	-138
252.426	5087
252.489	-520
252.552	-721
252.615	-452
252.678	-122
252.741	221
252.804	-561
252.867	4638
252.930	1144
252.993	-1112
253.056	219
253.119	-951
253.182	-1210
253.245	-476
253.308	-98
253.371	-1499
253.434	-1225
253.497	85
253.559	325
253.622	-1318
253.685	-1818
253.748	-988
253.811	-762
253.874	-239
253.937	-1758
254.000	-356
254.062	-1091
254.125	-759
254.188	-362
254.251	-1347
254.314	-1020
254.376	-710
254.439	-444
254.502	-1334
254.565	-1935
254.628	290
254.690	-488
254.753	-1060
254.816	-1078
254.878	-978
254.941	-933
255.004	-844
255.067	-766
255.129	-880
255.192	-603
255.255	-2232
255.317	-1575
255.380	-1003
255.443	-729
255.505	-1100
255.568	-1887
255.631	-1533
255.693	-804
255.756	-787
255.819	62
255.881	-855
255.944	-376
256.006	-595
256.069	-1087
256.132	-1074
256.194	-1045
256.257	-1143
256.319	-692
256.382	-1287
256.444	-179
256.507	-1200
256.569	-1408
256.632	-1539
256.694	-1258
256.757	-523
256.819	1810
256.882	-940
256.944	99
257.007	-365
257.069	-1221
257.132	-1271
257.194	-408
257.257	-760
257.319	-1544
257.381	-2146
257.444	119
257.506	3693
257.569	3071
257.631	289
257.693	-237
257.756	-671
257.818	-1493
257.880	-1129
257.943	8
258.005	-1909
258.067	-1625
258.130	-600
258.192	-294
258.254	-855
258.317	-1147
258.379	-654
258.441	-376
258.503	-199
258.566	-1554
258.628	-36
258.690	-1592
258.753	-879
258.815	-1614
258.877	-1494
258.939	-880
259.001	-329
259.064	-1575
259.126	-1663
259.188	-733
259.250	-115
259.312	-1344
259.375	-1145
259.437	-1549
259.499	-795
259.561	-960
259.623	-509
259.685	-1408
259.747	-855
259.809	-966
259.872	-1105
259.934	-659
259.996	-451
260.058	-1126
260.120	-1602
260.182	-715
260.244	-875
260.306	-1754
260.368	-1012
260.430	-1452
260.492	-1336
260.554	175
260.616	-859
260.678	-1298
260.740	-1187
260.802	-1487
260.864	-626
260.926	-1792
260.988	-217
261.050	-1478
261.112	-1454
261.174	-610
261.236	-818
261.298	-927
261.359	-1294
261.421	-284
261.483	-1946
261.545	-1045
261.607	-2152
261.669	-783
261.731	-1522
261.793	-774
261.854	-2003
261.916	-684
261.978	-2272
262.040	-1615
262.102	-301
262.164	-1815
262.225	-617
262.287	-650
262.349	-1055
262.411	-1273
262.472	-103
262.534	-1930
262.596	-1791
262.658	-1784
262.719	-1437
262.781	-565
262.843	-1912
262.904	-614
262.966	-1751
263.028	-934
263.090	180
263.151	689
263.213	-701
263.275	-1705
263.336	-1441
263.398	365
263.459	-1792
263.521	-1346
263.583	-423
263.644	-996
263.706	-473
263.767	-1807
263.829	-710
263.891	-1224
263.952	-1351
264.014	-1284
264.075	-1276
264.137	-1287
264.198	-953
264.260	-918
264.321	-813
264.383	-1017
264.444	-487
264.506	-2059
264.567	-1216
264.629	20
264.690	-1651
264.752	-1673
264.813	-1198
264.875	-1740
264.936	-51
264.998	-1245
265.059	-956
265.120	-1101
265.182	-2019
265.243	238
265.305	-159
265.366	-961
265.427	-749
265.489	-387
265.550	-1974
265.611	-737
265.673	-1287
265.734	-1603
265.795	-1108
265.857	-1845
265.918	-1832
265.979	-612
266.040	1169
266.102	66
266.163	-663
266.224	-850
266.286	-1405
266.347	-952
266.408	-1419
266.469	-553
266.530	-1383
266.592	-1077
266.653	-993
266.714	-1929
266.775	-1094
266.836	-1321
266.898	-1378
266.959	-1127
267.020	-1411
267.081	-232
267.142	-1012
267.203	-1149
267.264	-1048
267.326	-303
267.387	-897
267.448	-961
267.509	-548
267.570	-812
267.631	-856
267.692	-2130
267.753	-844
267.814	-1555
267.875	-880
267.936	-1569
267.997	-1409
268.058	-1697
268.119	-1266
268.180	-1439
268.241	-940
268.302	-1340
268.363	-1517
268.424	-861
268.485	-1414
268.546	-1691
268.607	-1057
268.668	-1582
268.729	-1743
268.790	-956
268.851	-650
268.912	-1336
268.972	-1848
269.033	-1429
269.094	-1409
269.155	-882
269.216	-1229
269.277	-1558
269.338	-793
269.398	-730
269.459	-2066
269.520	-653
269.581	-1674
269.642	-1173
269.702	-1605
269.763	-930
269.824	-1315
269.885	-1345
269.945	-985
270.006	-1395
270.067	-1889
270.128	-542
270.188	-1361
270.249	-2502
270.310	-2275
270.370	-1522
270.431	-1552
270.492	-1711
270.553	-1073
270.613	-1278
270.674	-482
270.734	-1968
270.795	-817
270.856	-1003
270.916	-2335
270.977	-1348
271.038	-791
271.098	-1763
271.159	-1137
271.219	-1921
271.280	-572
271.340	-885
271.401	-2205
271.462	-1654
271.522	-1301
271.583	-1628
271.643	-804
271.704	-1702
271.764	-1329
271.825	-1207
271.885	290
271.946	241
272.006	-624
272.066	-1162
272.127	598
272.187	570
272.248	-884
272.308	-856
272.369	581
272.429	-739
272.489	-320
272.550	-1879
272.610	-882
272.671	-1093
272.731	-303
272.791	-1783
272.852	-1429
272.912	-776
272.972	-1003
273.033	-872
273.093	-1050
273.153	-496
273.214	-1013
273.274	-881
273.334	194
273.394	179
273.455	24
273.515	-129
273.575	-39
273.635	-387
273.696	272
273.756	1226
273.816	409
273.876	-295
273.936	-396
273.997	-272
274.057	-895
274.117	-1498
274.177	-615
274.237	128
274.297	281
274.358	-774
274.418	49
274.478	-854
274.538	-770
274.598	-1486
274.658	147
274.718	-745
274.778	-1108
274.838	-1644
274.898	-1683
274.958	-1418
275.018	-382
275.078	-1226
275.138	-1237
275.198	-1232
275.258	-1383
275.318	-548
275.378	-1791
275.438	-1307
275.498	-1060
275.558	-1208
275.618	-110
275.678	-656
275.738	-116
275.798	-1290
275.858	-1381
275.918	-1356
275.978	-1030
276.038	-1420
276.098	-1331
276.157	-1482
276.217	-485
276.277	-789
276.337	-807
276.397	-1020
276.457	-398
276.517	-747
276.576	-920
276.636	-1764
276.696	-200
276.756	-341
276.815	-521
276.875	-1228
276.935	-794
276.995	-693
277.055	-657
277.114	-1355
277.174	-1022
277.234	-473
277.293	-1325
277.353	-1110
277.413	-636
277.472	-815
277.532	-706
277.592	-191
277.651	2626
277.711	5336
277.771	370
277.830	4757
277.890	4265
277.950	3581
278.009	10068
278.069	3860
278.128	3674
278.188	5583
278.248	2146
278.307	6171
278.367	3354
278.426	-686
278.486	-788
278.545	-1515
278.605	-349
278.664	-989
278.724	-480
278.783	141
278.843	539
278.902	-890
278.962	-866
279.021	-475
279.081	1194
279.140	1182
279.199	20
279.259	-96
279.318	344
279.378	1490
279.437	1624
279.496	9088
279.556	27035
279.615	20160
279.675	6166
279.734	3117
279.793	2852
279.853	4280
279.912	1302
279.971	1546
280.031	1474
280.090	1065
280.149	3071
280.208	3903
280.268	19364
280.327	17967
280.386	3713
280.445	1373
280.505	342
280.564	855
280.623	89
280.682	205
280.742	-203
280.801	-151
280.860	-230
280.919	-203
280.978	-35
281.037	-553
281.097	-321
281.156	-89
281.215	208
281.274	-209
281.333	175
281.392	-918
281.451	-602
281.510	-1082
281.569	-720
281.628	-1167
281.688	-175
281.747	-728
281.806	-996
281.865	-857
281.924	-2033
281.983	-1276
282.042	-1253
282.101	-675
282.160	-324
282.219	-1433
282.278	-675
282.337	-496
282.396	-1525
282.454	-963
282.513	-990
282.572	-125
282.631	-189
282.690	-707
282.749	-1120
282.808	-1594
282.867	-795
282.926	-94
282.985	-824
283.043	-1143
283.102	-970
283.161	-461
283.220	12
283.279	123
283.338	-317
283.396	-961
283.455	-203
283.514	-51
283.573	-631
283.631	-431
283.690	-169
283.749	-875
283.808	-1209
283.866	309
283.925	-601
283.984	-442
284.043	434
284.101	104
284.160	-497
284.219	-191
284.277	77
284.336	249
284.395	937
284.453	1198
284.512	1138
284.570	2554
284.629	1925
284.688	2814
284.746	3991
284.805	5331
284.863	6693
284.922	7795
284.981	10675
285.039	14569
285.098	19877
285.156	21897
285.215	16085
285.273	15906
285.332	22334
285.390	21528
285.449	15770
285.507	11974
285.566	8630
285.624	6739
285.683	5837
285.741	4152
285.799	2942
285.858	1762
285.916	1782
285.975	1953
286.033	778
286.091	559
286.150	428
286.208	973
286.267	619
286.325	53
286.383	233
286.442	-139
286.500	-281
286.558	72
286.616	-18
286.675	126
286.733	-1081
286.791	-831
286.850	79
286.908	-128
286.966	-44
287.024	-905
287.083	-758
287.141	-952
287.199	205
287.257	-192
287.315	-543
287.374	-1186
287.432	-910
287.490	-672
287.548	-323
287.606	-898
287.664	-1045
287.723	-865
287.781	93
287.839	-390
287.897	-804
287.955	-1336
288.013	-774
288.071	8
288.129	4306
288.187	15282
288.245	5486
288.303	725
288.361	209
288.419	-831
288.477	-601
288.535	-39
288.593	-372
288.651	-602
288.709	-1159
288.767	-1024
288.825	-1304
288.883	-1159
288.941	-708
288.999	-815
289.057	-624
289.115	-1096
289.173	-834
289.231	-1188
289.289	-1381
289.346	-831
289.404	-287
289.462	-697
289.520	-1053
289.578	-454
289.636	-778
289.694	-1354
289.751	-173
289.809	-1629
289.867	-1120
289.925	-1016
289.983	-423
290.040	-1233
290.098	-729
290.156	-1761
290.214	-525
290.271	-1038
290.329	-132
290.387	-673
290.444	-1288
290.502	-1427
290.560	-1222
290.617	-1352
290.675	-802
290.733	-771
290.790	-1059
290.848	-770
290.906	-1334
290.963	-446
291.021	-788
291.078	-744
291.136	-1783
291.194	-622
291.251	-603
291.309	-764
291.366	-1374
291.424	-991
291.481	-1279
291.539	-890
291.596	390
291.654	-1147
291.711	-587
291.769	-1170
291.826	-1154
291.884	-1839
291.941	-992
291.999	-764
292.056	-614
292.114	-1093
292.171	-880
292.228	-388
292.286	-599
292.343	-1265
292.401	-474
292.458	-1579
292.515	-828
292.573	-518
292.630	-205
292.687	-843
292.745	-1154
292.802	-1255
292.859	182
292.917	-383
292.974	-786
293.031	-1057
293.089	-858
293.146	-999
293.203	-949
293.260	-1119
293.318	-1674
293.375	-1324
293.432	-461
293.489	-443
293.546	-897
293.604	-1032
293.661	105
293.718	1129
293.775	648
293.832	-93
293.889	-307
293.947	-294
294.004	-725
294.061	-11
294.118	-580
294.175	-274
294.232	1346
294.289	206
294.346	-1006
294.403	-670
294.460	-349
294.517	-852
294.574	-1332
294.631	-1248
294.688	-169
294.745	-596
294.802	318
294.859	636
294.916	-547
294.973	-651
295.030	-1003
295.087	-725
295.144	-345
295.201	-727
295.258	-1525
295.315	-1463
295.372	-367
295.429	214
295.486	-946
295.542	-1509
295.599	183
295.656	185
295.713	-608
295.770	-109
295.827	-601
295.883	-1080
295.940	-1168
295.997	-1001
296.054	-787
296.111	-1102
296.167	-482
296.224	-1136
296.281	-1040
296.338	-1557
296.394	-1289
296.451	-1525
296.508	-1041
296.564	-711
296.621	-141
296.678	296
296.734	788
296.791	-509
296.848	-946
296.904	-1194
296.961	-934
297.018	37
297.074	-113
297.131	-327
297.187	-32
297.244	-611
297.301	744
297.357	1671
297.414	18
297.470	-724
297.527	-1173
297.583	-982
297.640	-364
297.696	-1802
297.753	-1299
297.809	-605
297.866	-1545
297.922	-2090
297.979	-762
298.035	-933
298.092	-1543
298.148	-471
298.204	-24
298.261	-1518
298.317	-1224
298.374	944
298.430	-630
298.486	-793
298.543	-1306
298.599	-1766
298.656	-946
298.712	-1539
298.768	389
298.824	-487
298.881	-641
298.937	-1060
298.993	-1566
299.050	-1296
299.106	-1054
299.162	-836
299.218	-372
299.275	-1623
299.331	-1206
299.387	-986
299.443	1064
299.500	4406
299.556	2608
299.612	-551
299.668	59
299.724	2734
299.780	3805
299.837	-409
299.893	-32
299.949	1484
300.005	3218
300.061	2422
300.117	5423
300.173	2026
300.229	-562
300.285	-564
300.341	-1079
300.397	-355
300.453	-1213
300.510	-1050
300.566	-487
300.622	379
300.678	5004
300.734	6551
300.790	1859
300.845	1328
300.901	2080
300.957	4863
301.013	2457
301.069	-231
301.125	-153
301.181	-1468
301.237	44
301.293	-1371
301.349	-866
301.405	-563
301.461	-1485
301.516	-1094
301.572	-1016
301.628	-1320
301.684	-1130
301.740	-1184
301.796	-531
301.851	-475
301.907	-753
301.963	-949
302.019	89
302.074	3715
302.130	3658
302.186	715
302.242	188
302.297	-672
302.353	-357
302.409	146
302.464	-922
302.520	-1219
302.576	133
302.631	846
302.687	-593
302.743	-1135
302.798	-1184
302.854	-1260
302.910	-419
302.965	-1085
303.021	-1284
303.076	-672
303.132	-560
303.187	-1443
303.243	-923
303.299	-1035
303.354	-818
303.410	-877
303.465	-1360
303.521	-525
303.576	-791
303.632	-799
303.687	-619
303.743	167
303.798	362
303.853	-791
303.909	-1013
303.964	-1459
304.020	-1063
304.075	-866
304.130	-911
304.186	-1622
304.241	89
304.297	-484
304.352	-816
304.358	-868
304.407	-1288
304.449	-1331
304.463	-1345
304.518	-1241
304.539	-1250
304.573	-1272
304.629	-228
304.630	-243
304.684	-930
304.720	-445
304.739	-199
304.794	425
304.811	163
304.850	-478
304.902	-893
304.905	-918
304.960	-1289
304.992	-1022
305.015	-839
305.071	-557
305.083	-514
305.126	-390
305.173	-998
305.181	-1084
305.236	-667
305.264	-638
305.292	-660
305.347	-109
305.354	-181
305.402	-573
305.445	-473
305.457	-471
305.512	-976
305.535	-809
305.567	-535
305.622	-1196
305.626	-1197
305.678	-1073
305.716	-188
305.733	133
305.788	410
305.807	291
305.843	127
305.897	964
305.898	978
305.953	600
305.988	507
306.008	309
306.063	-864
306.078	-804
306.118	-311
306.168	-974
306.173	-1043
306.228	-284
306.259	-428
306.283	-502
306.338	-824
306.349	-625
306.393	-15
306.440	-489
306.448	-564
306.503	-200
306.530	-270
306.558	-167
306.613	145
306.620	128
306.668	-154
306.711	166
306.723	189
306.778	247
306.801	216
306.833	275
306.888	-150
306.892	-190
306.943	-599
306.982	-632
306.997	-606
307.052	-339
307.072	-374
307.107	-645
307.162	-434
307.163	-438
307.217	-259
307.253	-202
307.272	-217
307.327	-144
307.343	-153
307.381	-283
307.434	-389
307.436	-379
307.491	44
307.524	254
307.546	356
307.600	468
307.614	527
307.655	500
307.704	-172
307.710	-216
307.765	-215
307.795	-52
307.819	105
307.874	446
307.885	436
307.929	536
307.975	1139
307.984	1248
308.038	1347
308.065	1586
308.093	3064
308.148	7554
308.156	8651
308.202	15381
308.246	19533
308.257	18848
308.312	8628
308.336	5078
308.366	3477
308.421	2045
308.426	1924
308.475	1337
308.517	1145
308.530	1049
308.585	833
308.607	825
308.639	1144
308.694	1088
308.697	1108
308.748	1698
308.787	2121
308.803	2040
308.857	1599
308.877	1387
308.912	1627
308.967	2239
308.967	2248
309.021	3959
309.058	5248
309.076	6257
309.130	10222
309.148	11362
309.185	17838
309.238	29066
309.239	29228
309.293	37288
309.328	37618
309.348	33183
309.402	18140
309.418	14258
309.457	10523
309.508	6811
309.511	6820
309.566	8525
309.598	9863
309.620	12782
309.674	21396
309.688	23661
309.729	23766
309.778	20745
309.783	20129
309.837	12013
309.868	7813
309.892	6639
309.946	4263
309.959	3921
310.001	3778
310.049	3702
310.055	3616
310.109	2407
310.139	1892
310.163	1655
310.218	1198
310.229	1102
310.272	1171
310.319	1235
310.326	1115
310.381	391
310.409	-77
310.435	170
310.489	779
310.499	900
310.543	957
310.589	866
310.598	880
310.652	892
310.679	1043
310.706	1018
310.760	594
310.769	576
310.814	866
310.859	995
310.868	989
310.923	826
310.948	776
310.977	922
311.031	1236
311.038	1262
311.085	961
311.128	670
311.139	655
311.193	705
311.218	639
311.247	538
311.301	366
311.308	346
311.356	539
311.398	719
311.410	722
311.464	617
311.488	639
311.518	755
311.572	847
311.578	856
311.626	869
311.668	859
311.680	791
311.734	430
311.758	286
311.788	517
311.842	900
311.847	937
311.896	1226
311.937	1458
311.950	1310
312.004	647
312.027	345
312.058	500
312.112	790
312.117	815
312.165	931
312.207	1017
312.297	534
312.386	1045
312.476	1140
312.566	268
312.656	520
312.745	343
312.835	1481
312.925	1183
313.015	1290
313.104	1658
313.194	947
313.284	813
313.374	1557
313.463	1023
313.553	1429
313.643	1059
313.732	1476
313.822	791
313.912	1441
314.001	1039
314.091	1055
314.180	1043
314.270	2080
314.360	1167
314.449	1791
314.539	803
314.628	1643
314.718	1640
314.808	2053
314.897	1518
314.987	2639
315.076	1178
315.166	1582
315.255	1386
315.345	2029
315.434	1189
315.524	1146
315.613	1465
315.703	2471
315.792	3561
315.881	14962
315.971	5368
316.060	2832
316.150	1875
316.239	2383
316.328	1391
316.418	1620
316.507	1528
316.597	2382
316.686	1654
316.775	1644
316.865	1560
316.954	1375
317.043	1332
317.133	1378
317.222	1540
317.311	1219
317.400	432
317.490	2058
317.579	1711
317.668	1710
317.757	2380
317.847	6745
317.936	22902
318.025	9445
318.114	6286
318.203	3129
318.293	2184
318.382	2145
318.471	3264
318.560	2737
318.649	3809
318.738	1560
318.828	1285
318.917	539
319.006	497
319.095	1330
319.184	3188
319.273	2245
319.362	1039
319.451	1170
319.540	945
319.629	1192
319.718	1181
319.807	1018
319.896	663
319.985	5271
320.074	2156
320.163	1119
320.252	612
320.341	787
320.430	1246
320.519	905
320.608	1281
320.697	2186
320.786	963
320.875	2544
320.964	1640
321.053	2535
321.142	2482
321.230	2986
321.319	3234
321.408	4308
321.497	3649
321.586	3651
321.675	2170
321.764	2565
321.852	2548
321.941	2284
322.030	2083
322.119	2254
322.207	3096
322.296	3609
322.385	4344
322.474	5339
322.562	5917
322.651	3458
322.740	3013
322.829	3115
322.917	2349
323.006	2682
323.095	1919
323.183	1574
323.272	1480
323.361	1694
323.449	3826
323.538	2791
323.626	1297
323.715	1974
323.804	1230
323.892	1370
323.981	1177
324.069	1530
324.158	1061
324.246	1356
324.335	1135
324.424	1357
324.512	1265
324.601	1084
324.689	1381
324.778	1686
324.866	1076
324.954	1235
325.043	607
325.131	241
325.220	2151
325.308	1611
325.397	1299
325.485	1143
325.574	852
325.662	1452
325.750	266
325.839	1151
325.927	906
326.015	1058
326.104	848
326.192	931
326.280	370
326.369	772
326.457	1334
326.545	683
326.634	489
326.722	639
326.810	491
326.898	1872
326.987	1074
327.075	615
327.163	817
327.251	858
327.340	1159
327.428	1738
327.516	1500
327.604	1647
327.692	848
327.781	1397
327.869	783
327.957	1150
328.045	376
328.133	1213
328.221	415
328.309	1126
328.397	1100
328.485	1507
328.574	1220
328.662	2533
328.750	1551
328.838	1425
328.926	1100
329.014	704
329.102	484
329.190	1086
329.278	729
329.366	853
329.454	17
329.542	1142
329.630	123
329.718	1063
329.806	517
329.893	1038
329.981	296
330.069	1680
330.157	1214
330.245	2502
330.333	1122
330.421	664
330.509	1149
330.597	1179
330.684	605
330.772	963
330.860	408
330.948	999
331.036	430
331.123	644
331.211	710
331.299	1149
331.387	678
331.475	841
331.562	1667
331.650	1060
331.738	170
331.825	1009
331.913	1314
332.001	829
332.089	223
332.176	786
332.264	1319
332.352	1352
332.439	1110
332.527	1507
332.614	378
332.702	2074
332.790	282
332.877	668
332.965	3266
333.052	2980
333.140	2774
333.228	8725
333.315	2217
333.403	1369
333.490	1839
333.578	3304
333.665	11784
333.753	5976
333.840	1271
333.928	1831
334.015	1407
334.103	2686
334.190	5937
334.278	4093
334.365	5363
334.452	6108
334.540	3077
334.627	2836
334.715	3668
334.802	5566
334.889	10693
334.977	16352
335.064	9947
335.151	4863
335.239	3166
335.326	2867
335.413	3429
335.501	4447
335.588	2894
335.675	2139
335.762	2844
335.850	4787
335.937	6514
336.024	11387
336.111	20461
336.199	20188
336.286	9212
336.373	4561
336.460	2941
336.547	2753
336.635	1569
336.722	1365
336.809	808
336.896	1602
336.983	1470
337.070	3512
337.157	5603
337.245	2864
337.332	2151
337.419	1345
337.506	686
337.593	1316
337.680	1552
337.767	3381
337.854	1160
337.941	1601
338.028	997
338.115	984
338.202	1118
338.289	1504
338.376	980
338.463	1361
338.550	1389
338.637	2542
338.724	614
338.811	1537
338.898	1208
338.984	922
339.071	1286
339.158	266
339.245	548
339.332	1516
339.419	913
339.506	1197
339.593	402
339.679	877
339.766	975
339.853	843
339.940	1203
340.027	898
340.113	-140
340.200	759
340.287	805
340.374	553
340.460	576
340.547	-100
340.634	772
340.720	2126
340.807	-9
340.894	846
340.980	454
341.067	886
341.154	949
341.240	596
341.327	330
341.414	1563
341.500	617
341.587	1522
341.674	1011
341.760	1049
341.847	525
341.933	465
342.020	96
342.106	1238
342.193	174
342.279	955
342.366	-304
342.452	1761
342.539	-188
342.625	1106
342.712	1204
342.798	1268
342.885	363
342.971	257
343.058	476
343.144	1410
343.230	1051
343.317	1136
343.403	178
343.490	766
343.576	1083
343.662	284
343.749	966
343.835	460
343.921	1182
344.008	4101
344.094	8014
344.180	2823
344.267	423
344.353	1503
344.439	2214
344.525	1114
344.612	1514
344.698	1124
344.784	166
344.870	1155
344.957	199
345.043	1939
345.129	717
345.215	1286
345.301	791
345.387	785
345.474	292
345.560	648
345.646	-291
345.732	1471
345.818	969
345.904	585
345.990	525
346.076	911
346.162	853
346.249	1043
346.335	554
346.421	829
346.507	140
346.593	3088
346.679	401
346.765	1425
346.851	1522
346.937	841
347.023	1343
347.108	751
347.194	1007
347.280	756
347.366	637
347.452	3519
347.538	5789
347.624	4381
347.710	2160
347.796	438
347.882	575
347.967	780
348.053	545
348.139	498
348.225	-24
348.311	296
348.397	590
348.482	748
348.568	1313
348.654	943
348.740	4819
348.825	4568
348.911	2847
348.997	2287
349.083	3861
349.168	1255
349.254	575
349.340	252
349.425	1098
349.511	1078
349.597	504
349.682	801
349.768	1473
349.854	1784
349.939	872
350.025	639
350.110	1363
350.196	1109
350.282	-341
350.367	1114
350.453	572
350.538	-71
350.624	-164
350.709	1229
350.795	891
350.880	1280
350.966	556
351.051	770
351.137	273
351.222	607
351.308	1076
351.393	1305
351.479	575
351.564	165
351.649	1046
351.735	856
351.820	32
351.906	730
351.991	234
352.076	1493
352.162	1979
352.247	1029
352.332	726
352.418	1000
352.503	517
352.588	2343
352.673	1271
352.759	1152
352.844	-180
352.929	1167
353.014	168
353.100	699
353.185	859
353.270	252
353.355	607
353.441	815
353.526	438
353.611	585
353.696	328
353.781	1444
353.866	-303
353.952	1607
354.037	128
354.122	1405
354.207	792
354.292	677
354.377	-17
354.462	595
354.547	-82
354.632	669
354.717	722
354.802	504
354.887	401
354.972	311
355.057	581
355.142	-92
355.227	681
355.312	-140
355.397	371
355.482	1706
355.567	450
355.652	1692
355.737	1535
355.822	2045
355.907	971
355.991	1456
356.076	-338
356.161	1391
356.246	31
356.331	1035
356.416	186
356.501	3602
356.585	3296
356.670	320
356.755	1725
356.840	1005
356.924	2370
357.009	8875
357.094	4627
357.179	1293
357.263	1140
357.348	1073
357.433	337
357.517	1067
357.602	664
357.687	199
357.771	938
357.856	1521
357.941	1658
358.025	1750
358.110	9824
358.195	5397
358.279	718
358.364	1285
358.448	1598
358.533	3638
358.617	2256
358.702	2469
358.787	1293
358.871	1722
358.956	805
359.040	1169
359.125	370
359.209	948
359.294	191
359.378	1907
359.462	1700
359.547	818
359.631	254
359.716	861
359.800	852
359.885	2594
359.969	-336
360.053	1711
360.138	311
360.222	317
360.306	894
360.391	1000
360.475	1060
360.559	1329
360.644	1090
360.728	-136
360.812	3335
360.896	5664
360.981	2205
361.065	1363
361.149	847
361.233	373
361.318	-395
361.402	607
361.486	1426
361.570	1079
361.654	1127
361.739	1658
361.823	3194
361.907	7119
361.991	1992
362.075	1315
362.159	2174
362.243	4779
362.327	11670
362.411	22867
362.495	9245
362.580	3796
362.664	2929
362.748	2426
362.832	5058
362.916	10338
363.000	31820
363.084	55334
363.168	25945
363.252	6818
363.336	3498
363.420	2986
363.503	4113
363.587	4750
363.671	1686
363.755	1902
363.839	3621
363.923	1811
364.007	2590
364.091	4501
364.175	4982
364.258	17493
364.342	35419
364.426	76786
364.510	43619
364.594	12635
364.677	5325
364.761	6139
364.845	5553
364.929	1564
365.013	2166
365.096	1632
365.180	1429
365.264	2255
365.347	6480
365.431	2790
365.515	779
365.598	597
365.682	1830
365.766	261
365.849	1227
365.933	538
366.017	1812
366.100	1045
366.184	233
366.267	1800
366.351	833
366.435	1264
366.518	128
366.602	1376
366.685	899
366.769	1107
366.852	1218
366.936	1983
367.019	1138
367.103	733
367.186	1459
367.270	1661
367.353	679
367.436	1491
367.520	395
367.603	1724
367.687	303
367.770	1376
367.853	1748
367.937	2338
368.020	2304
368.104	1588
368.187	1667
368.270	1567
368.353	475
368.437	1291
368.520	1554
368.603	2301
368.687	1149
368.770	2586
368.853	1194
368.936	1821
369.020	1255
369.103	761
369.186	633
369.269	1052
369.352	1829
369.436	153
369.519	955
369.602	561
369.685	2139
369.768	1071
369.851	1565
369.934	1144
370.018	796
370.101	329
370.184	3634
370.267	1826
370.350	1540
370.433	2424
370.516	4363
370.599	10432
370.682	2916
370.765	3460
370.848	3542
370.931	3251
371.014	2975
371.097	1069
371.180	1971
371.263	1900
371.346	306
371.429	3598
371.511	1251
371.594	1968
371.677	2575
371.760	3517
371.843	2702
371.926	5654
372.009	10967
372.091	8010
372.174	4196
372.257	6432
372.340	3824
372.423	3716
372.505	4205
372.588	2769
372.671	2779
372.754	3671
372.836	2632
372.919	2985
373.002	5073
373.085	3003
373.167	2604
373.250	3139
373.332	4322
373.415	6506
373.498	11902
373.580	6612
373.663	13019
373.746	16455
373.828	4037
373.911	2926
373.993	2121
374.076	2909
374.159	3543
374.241	2270
374.324	3264
374.406	3175
374.489	3270
374.571	10002
374.654	3678
374.736	3598
374.819	5115
374.901	9477
374.983	9374
375.066	3380
375.148	1804
375.231	2986
375.313	5688
375.395	2766
375.478	1628
375.560	2329
375.643	1958
375.725	2753
375.807	6063
375.890	6280
375.972	1536
376.054	2213
376.136	2302
376.219	1482
376.301	2329
376.383	4638
376.465	2544
376.548	814
376.630	1596
376.712	4831
376.794	2685
376.877	839
376.959	592
377.041	1126
377.123	703
377.205	1580
377.287	675
377.369	1879
377.452	287
377.534	1749
377.616	1227
377.698	798
377.780	1004
377.862	1706
377.944	1423
378.026	562
378.108	1141
378.190	1238
378.272	1127
378.354	1705
378.436	729
378.518	139
378.600	804
378.682	2229
378.764	1892
378.846	2235
378.928	551
379.010	516
379.091	558
379.173	1324
379.255	486
379.337	740
379.419	359
379.501	3119
379.583	912
379.664	445
379.746	696
379.828	2692
379.910	2410
379.991	3477
380.073	1140
380.155	1338
380.237	1518
380.318	868
380.400	1462
380.482	1712
380.564	1392
380.645	1879
380.727	1497
380.809	2732
380.890	1204
380.972	1011
381.053	1003
381.135	2232
381.217	994
381.298	3445
381.380	1981
381.461	2150
381.543	4618
381.624	6046
381.706	2200
381.787	2115
381.869	2237
381.951	3166
382.032	8284
382.113	8916
382.195	1985
382.276	4426
382.358	4137
382.439	6181
382.521	8734
382.602	11154
382.684	8426
382.765	13382
382.846	30082
382.928	78482
383.009	49254
383.090	31952
383.172	84902
383.253	121942
383.334	47998
383.416	20131
383.497	15103
383.578	15047
383.659	27002
383.741	73796
383.822	147888
383.903	90777
383.984	27804
384.066	17282
384.147	9958
384.228	7880
384.309	5673
384.390	4719
384.471	4514
384.553	4336
384.634	3495
384.715	4712
384.796	2917
384.877	3176
384.958	3969
385.039	3292
385.120	2935
385.201	3213
385.282	3186
385.363	3729
385.444	3522
385.525	4447
385.606	5146
385.687	5543
385.768	2793
385.849	2246
385.930	6090
386.011	9372
386.092	3774
386.173	3285
386.254	2041
386.335	2481
386.416	2113
386.496	3100
386.577	2506
386.658	2331
386.739	1212
386.820	2557
386.901	1604
386.981	2838
387.062	2741
387.143	3444
387.224	3174
387.304	5153
387.385	4066
387.466	2611
387.547	4535
387.627	3210
387.708	4230
387.789	6081
387.869	5159
387.950	3533
388.031	2178
388.111	751
388.192	2717
388.273	3979
388.353	3020
388.434	2026
388.514	1349
388.595	4245
388.676	5458
388.756	3460
388.837	3151
388.917	1650
388.998	-765
389.078	2310
389.159	1359
389.239	677
389.320	2305
389.400	330
389.480	1522
389.561	2162
389.641	2118
389.722	2049
389.802	118
389.883	1696
389.963	3987
390.043	2443
390.124	556
390.204	1325
390.284	1827
390.365	1453
390.445	1979
390.525	3621
390.605	3319
390.686	1196
390.766	2072
390.846	2025
390.927	1258
391.007	644
391.087	1430
391.167	1323
391.247	434
391.328	1893
391.408	1619
391.488	2067
391.568	555
391.648	1756
391.728	1933
391.808	3195
391.888	1327
391.969	2468
392.049	2187
392.129	2759
392.209	2213
392.289	5278
392.369	3901
392.449	4253
392.529	2480
392.609	5266
392.689	5197
392.769	7184
392.849	7550
392.929	11217
393.009	13317
393.089	19883
393.169	33521
393.248	79609
393.328	183927
393.408	196283
393.488	95525
393.568	39132
393.648	20766
393.728	12935
393.807	7103
393.887	7742
393.967	5546
394.047	4435
394.127	3237
394.206	3944
394.286	8389
394.366	34833
394.446	42303
394.525	10298
394.605	2727
394.685	2878
394.764	3966
394.844	5919
394.924	8637
395.003	3690
395.083	1965
395.163	2306
395.242	1711
395.322	2195
395.402	186
395.481	3820
395.561	2158
395.640	9650
395.720	17788
395.799	11068
395.879	5278
395.958	3590
396.038	9279
396.117	45658
396.197	56156
396.276	14993
396.356	4693
396.435	7321
396.515	8409
396.594	11514
396.673	25836
396.753	73264
396.832	167931
396.912	137685
396.991	46324
397.070	19110
397.150	9105
397.229	8963
397.308	13082
397.388	27248
397.467	15141
397.546	4552
397.625	1339
397.705	3412
397.784	2014
397.863	1910
397.942	1725
398.022	1704
398.101	1580
398.180	3787
398.259	1785
398.338	1891
398.417	1160
398.497	1149
398.576	1864
398.655	183
398.734	1559
398.813	731
398.892	1701
398.971	3397
399.050	907
399.129	175
399.208	391
399.287	1792
399.366	-396
399.445	-145
399.524	387
399.603	-239
399.682	1036
399.761	680
399.840	4015
399.919	3522
399.998	604
400.077	-541
400.156	-704
400.235	2744
400.313	-2
400.392	-1253
400.471	753
400.550	1941
400.629	-377
400.708	658
400.786	-287
400.865	-184
400.944	-597
401.023	2201
401.102	-784
401.180	652
401.259	-292
401.338	441
401.416	716
401.495	191
401.574	125
401.652	38
401.731	1087
401.810	-216
401.888	-73
401.967	274
402.046	482
402.124	105
402.203	-952
402.281	513
402.360	-665
402.438	1325
402.517	-707
402.596	381
402.674	-850
402.753	820
402.831	167
402.910	1111
402.988	-384
403.066	4587
403.145	3005
403.223	1951
403.302	2973
403.380	3264
403.459	2437
403.537	1625
403.615	-204
403.694	-571
403.772	531
403.850	-68
403.929	-337
404.007	-195
404.085	1305
404.164	83
404.242	707
404.320	2060
404.398	5058
404.477	3563
404.555	4825
404.633	5125
404.711	4099
404.789	2506
404.868	351
404.946	19
405.024	-113
405.102	535
405.180	-767
405.258	-1118
405.336	33
405.415	-214
405.493	125
405.571	1050
405.649	-1121
405.727	-970
405.805	834
405.883	518
405.961	-41
406.039	-1061
406.117	-954
406.195	1374
406.273	-714
406.351	3753
406.429	2245
406.507	39
406.585	-535
406.663	356
406.740	-580
406.818	-184
406.896	-639
406.974	877
407.052	-1963
407.130	1721
407.208	1772
407.285	159
407.363	-656
407.441	255
407.519	-335
407.596	-615
407.674	208
407.752	2085
407.830	1089
407.907	491
407.985	-780
408.063	167
408.141	-778
408.218	467
408.296	-977
408.373	-461
408.451	600
408.529	555
408.606	-106
408.684	215
408.762	400
408.839	884
408.917	-112
408.994	480
409.072	-476
409.149	573
409.227	3141
409.304	5207
409.382	4666
409.459	5058
409.537	6235
409.614	6727
409.692	4040
409.769	3742
409.846	7336
409.924	9909
410.001	4587
410.079	3077
410.156	2888
410.233	2140
410.311	658
410.388	551
410.465	1290
410.543	600
410.620	1612
410.697	1034
410.775	731
410.852	-489
410.929	1642
411.006	1483
411.083	1282
411.161	737
411.238	789
411.315	89
411.392	217
411.469	1359
411.547	818
411.624	-1121
411.701	-1102
411.778	1063
411.855	-506
411.932	-199
412.009	-56
412.086	807
412.163	607
412.240	-700
412.317	210
412.394	-386
412.471	-248
412.548	-495
412.625	-79
412.702	-4
412.779	42
412.856	139
412.933	-543
413.010	515
413.087	-363
413.164	-244
413.241	836
413.318	100
413.395	106
413.471	179
413.548	222
413.625	593
413.702	-1280
413.779	-643
413.855	31
413.932	-994
414.009	-1722
414.086	657
414.162	-107
414.239	427
414.316	-232
414.393	1852
414.469	-844
414.546	-632
414.623	-610
414.699	-701
414.776	-669
414.853	-187
414.929	-844
415.006	159
415.082	-147
415.159	253
415.236	635
415.312	-383
415.389	-852
415.465	-785
415.542	-147
415.618	-556
415.695	-112
415.771	-904
415.848	-1074
415.924	557
416.000	-394
416.077	587
416.153	-1186
416.230	-316
416.306	-239
416.383	-647
416.459	-128
416.535	-1033
416.612	-236
416.688	-396
416.764	-369
416.841	-461
416.917	-739
416.993	618
417.069	-294
417.146	-1034
417.222	-557
417.298	-572
417.374	-1388
417.451	-399
417.527	-829
417.603	-547
417.679	-739
417.755	77
417.831	-858
417.908	-90
417.984	-943
418.060	-1247
418.136	-329
418.212	-848
418.288	-500
418.364	140
418.440	-1331
418.516	79
418.592	-852
418.668	-55
418.744	-388
418.820	-391
418.896	-210
418.972	-416
419.048	-343
419.124	1020
419.200	-1864
419.276	91
419.352	-1133
419.428	-496
419.504	-420
419.579	-739
419.655	357
419.731	-371
419.807	-114
419.883	-191
419.959	326
420.034	545
420.110	-92
420.186	-19
420.262	841
420.337	-28
420.413	132
420.489	263
420.565	1048
420.640	724
420.716	983
420.792	-448
420.867	1649
420.943	782
421.019	806
421.094	640
421.170	1058
421.245	780
421.321	1550
421.397	1007
421.472	2596
421.548	2784
421.623	2792
421.699	2515
421.774	3632
421.850	3713
421.925	4991
422.001	6356
422.076	7704
422.152	10044
422.227	11885
422.302	19262
422.378	27989
422.453	46044
422.529	78526
422.604	112311
422.679	97945
422.755	104607
422.830	86557
422.905	53518
422.981	34099
423.056	23695
423.131	17791
423.207	12094
423.282	9578
423.357	8193
423.432	5691
423.508	5093
423.583	3479
423.658	3770
423.733	3090
423.808	2995
423.883	2882
423.959	2666
424.034	2728
424.109	4875
424.184	2363
424.259	1972
424.334	1108
424.409	1255
424.484	281
424.559	855
424.634	715
424.709	626
424.784	852
424.859	789
424.934	-190
425.009	694
425.084	844
425.159	329
425.234	687
425.309	301
425.384	580
425.459	-100
425.534	507
425.609	-1036
425.683	-302
425.758	1099
425.833	428
425.908	678
425.983	-502
426.058	1288
426.132	60
426.207	-229
426.282	995
426.357	323
426.431	-276
426.506	592
426.581	-679
426.655	484
426.730	98
426.805	-1379
426.879	98
426.954	-219
427.029	-320
427.103	441
427.178	1511
427.253	1440
427.327	-421
427.402	-548
427.476	-393
427.551	96
427.625	132
427.700	-460
427.774	-709
427.849	503
427.923	-1330
427.998	-667
428.072	-320
428.147	1699
428.221	8667
428.296	36558
428.370	21435
428.444	1876
428.519	329
428.593	623
428.667	618
428.742	869
428.816	3167
428.890	19304
428.965	35839
429.039	8981
429.113	326
429.188	-325
429.262	-809
429.336	335
429.410	-456
429.485	799
429.559	133
429.633	396
429.707	-390
429.781	1839
429.855	18117
429.930	32426
430.004	7989
430.078	4415
430.152	11026
430.226	44492
430.300	50781
430.374	11040
430.448	2731
430.522	1448
430.596	1973
430.670	5198
430.744	25235
430.818	32466
430.892	5493
430.966	221
431.040	4
431.114	-600
431.188	-949
431.262	-926
431.336	-808
431.410	502
431.484	-912
431.557	738
431.631	-227
431.705	1126
431.779	5999
431.853	33839
431.927	24817
432.000	3030
432.074	-196
432.148	-797
432.222	-798
432.295	-521
432.369	-1048
432.443	-345
432.516	-14
432.590	2196
432.664	-389
432.737	-889
432.811	-687
432.885	-1012
432.958	-147
433.032	-1169
433.106	-1015
433.179	-1382
433.253	-1134
433.326	-726
433.400	-926
433.473	-700
433.547	-1378
433.620	-1087
433.694	-1976
433.767	-320
433.841	-1793
433.914	-411
433.988	-1224
434.061	-1345
434.134	-1548
434.208	-1478
434.281	-1497
434.355	-767
434.428	-1250
434.501	-935
434.575	-907
434.648	-920
434.721	-1220
434.795	-1003
434.868	-1276
434.941	-1061
435.014	-1109
435.088	-466
435.161	229
435.234	265
435.307	-171
435.381	670
435.454	799
435.527	3481
435.600	3041
435.673	2364
435.746	786
435.819	-132
435.892	-237
435.966	-445
436.039	-909
436.112	-226
436.185	-1143
436.258	-924
436.331	-2226
436.404	-668
436.477	-1033
436.550	-705
436.623	-735
436.696	-448
436.769	-1181
436.842	-550
436.915	-1100
436.987	-765
437.060	-839
437.133	-990
437.206	-1302
437.279	347
437.352	-1490
437.425	-1677
437.498	-1314
437.570	283
437.643	-1118
437.716	-1045
437.789	-1177
437.861	-945
437.934	-995
438.007	-555
438.080	-1178
438.152	-629
438.225	-490
438.298	535
438.370	2883
438.443	2275
438.516	-1181
438.588	-1646
438.661	-1368
438.734	-554
438.806	-1486
438.879	-174
438.951	-1309
439.024	-705
439.096	-1100
439.169	-1057
439.241	-1458
439.314	-1139
439.386	-1017
439.459	-515
439.531	-1677
439.604	-904
439.676	58
439.749	-482
439.821	-956
439.893	-437
439.966	-943
440.038	-1105
440.110	-1065
440.183	-1053
440.255	-1426
440.327	-495
440.400	-669
440.472	928
440.544	-548
440.617	-317
440.689	-343
440.761	-272
440.833	-744
440.905	-1085
440.978	-777
441.050	-1055
441.122	-225
441.194	-771
441.266	-554
441.338	-521
441.411	-995
441.483	-77
441.555	-168
441.627	-579
441.699	-879
441.771	-1272
441.843	-1098
441.915	-1194
441.987	-831
442.059	-514
442.131	-618
442.203	-240
442.275	-742
442.347	1354
442.419	3660
442.491	21916
442.563	55464
442.635	23615
442.706	3495
442.778	1364
442.850	72
442.922	-118
442.994	559
443.066	351
443.137	1084
443.209	926
443.281	2259
443.353	6074
443.425	24664
443.496	80595
443.568	90100
443.640	37904
443.711	7319
443.783	2811
443.855	-251
443.926	540
443.998	131
444.070	678
444.141	45
444.213	-69
444.285	88
444.356	-48
444.428	-270
444.499	-111
444.571	-390
444.642	3
444.714	-275
444.785	-339
444.857	-163
444.928	522
445.000	283
445.071	844
445.143	139
445.214	2242
445.285	4161
445.357	14283
445.428	49396
445.500	102587
445.571	80153
445.642	53429
445.714	16562
445.785	5198
445.856	717
445.928	1115
445.999	578
446.070	-297
446.141	-557
446.213	439
446.284	-1087
446.355	-219
446.426	-569
446.497	-57
446.569	-815
446.640	-1205
446.711	-1236
446.782	-475
446.853	-1080
446.924	-362
446.995	-1131
447.066	-150
447.138	-1257
447.209	-589
447.280	-1532
447.351	-1001
447.422	-713
447.493	3
447.564	-1549
447.635	-1094
447.706	-1163
447.777	-1451
447.847	-703
447.918	-1534
447.989	-1889
448.060	-1042
448.131	-619
448.202	-1390
448.273	-476
448.344	-144
448.414	-690
448.485	-932
448.556	-1055
448.627	-1414
448.698	-858
448.768	-1310
448.839	-833
448.910	-1196
448.981	-1199
449.051	-1041
449.122	-1191
449.193	-1197
449.263	-1035
449.334	-1510
449.405	-334
449.475	-1253
449.546	-1107
449.616	-511
449.687	-588
449.758	-983
449.828	-1463
449.899	-477
449.969	-865
450.040	-872
450.110	-640
450.181	-930
450.251	-1867
450.322	-921
450.392	-556
450.463	-640
450.533	-890
450.604	-1112
450.674	-1544
450.744	-16
450.815	-819
450.885	-197
450.955	-1028
451.026	-722
451.096	-1640
451.166	-731
451.237	-1010
451.307	1214
451.377	247
451.447	-1017
451.518	-847
451.588	-849
451.658	-1210
451.728	-527
451.799	-772
451.869	-447
451.939	-1623
452.009	-251
452.079	-862
452.149	-502
452.219	-1481
452.289	-478
452.360	-1556
452.430	-851
452.500	-739
452.570	-261
452.640	1360
452.710	6689
452.780	8377
452.850	3654
452.920	-119
452.990	-75
453.060	-196
453.129	-646
453.199	-1736
453.269	168
453.339	206
453.409	247
453.479	1021
453.549	1171
453.619	880
453.688	-127
453.758	-661
453.828	-290
453.898	-1143
453.968	-806
454.037	-1368
454.087	-756
454.107	-512
454.168	-1147
454.177	-1251
454.247	-1284
454.249	-1279
454.316	-1480
454.330	-1475
454.386	-1527
454.411	-1413
454.456	-1265
454.492	-1202
454.525	-1168
454.574	-591
454.595	-327
454.655	-1055
454.665	-1195
454.734	-823
454.736	-806
454.804	-568
454.817	-638
454.873	-1057
454.898	-815
454.943	-349
454.979	-483
455.013	-667
455.060	-414
455.082	-278
455.141	-941
455.152	-1099
455.221	54
455.222	54
455.291	-598
455.303	-517
455.360	-306
455.384	56
455.430	535
455.465	434
455.499	327
455.546	-829
455.569	-1369
455.627	-592
455.638	-476
455.707	-960
455.708	-952
455.777	-893
455.789	-896
455.846	-1039
455.869	-984
455.916	-822
455.950	-349
455.985	-37
456.031	-758
456.054	-988
456.112	-605
456.124	-574
456.193	-516
456.193	-527
456.262	-950
456.274	-807
456.332	-111
456.355	-184
456.401	-262
456.436	-181
456.470	-237
456.516	-682
456.540	-847
456.597	-853
456.609	-897
456.678	-72
456.678	-78
456.747	-75
456.759	-218
456.817	-957
456.840	-858
456.886	-571
456.920	-257
456.955	-105
457.001	-283
457.024	-278
457.082	3
457.093	-2
457.162	469
457.163	476
457.232	-186
457.243	-22
457.301	647
457.324	309
457.370	-463
457.405	-242
457.439	114
457.485	319
457.508	404
457.566	1028
457.577	1131
457.646	880
457.647	903
457.715	5286
457.727	6038
457.784	11079
457.808	14853
457.853	18970
457.889	22466
457.922	21446
457.969	12839
457.991	13244
458.050	17366
458.060	18328
458.129	33751
458.130	34228
458.198	32430
458.211	28797
458.267	13687
458.292	8422
458.336	5423
458.372	5070
458.405	7811
458.453	13114
458.474	17963
458.533	34367
458.543	35502
458.611	54978
458.614	55350
458.680	30969
458.694	23304
458.749	9371
458.775	6046
458.818	3153
458.855	2337
458.887	1913
458.936	1450
458.955	1281
459.016	801
459.024	779
459.093	1062
459.097	1042
459.162	414
459.177	518
459.230	1000
459.257	1034
459.299	1078
459.338	1374
459.368	1279
459.418	665
459.437	678
459.499	957
459.505	930
459.574	845
459.579	853
459.643	1221
459.659	1213
459.711	926
459.740	845
459.780	776
459.820	818
459.849	846
459.900	658
459.917	609
459.981	950
459.986	962
460.054	675
460.061	673
460.123	1014
460.141	1050
460.191	831
460.222	822
460.260	982
460.302	1282
460.328	1348
460.382	766
460.397	611
460.462	787
460.465	813
460.534	1368
460.543	1464
460.602	4229
460.623	5221
460.671	7477
460.703	9543
460.739	8881
460.783	7241
460.808	5932
460.864	1673
460.876	1504
460.944	1230
460.945	1214
461.013	1617
461.024	1489
461.081	978
461.104	1060
461.150	1516
461.184	1457
461.218	1270
461.264	1445
461.286	1433
461.345	685
461.355	620
461.423	1124
461.425	1119
461.491	841
461.505	980
461.559	1268
461.585	1047
461.628	1046
461.665	1389
461.696	1791
461.745	2379
461.764	2139
461.825	1126
461.832	1140
461.901	1049
461.905	1068
461.969	567
461.985	508
462.037	1786
462.065	2403
462.105	2000
462.145	1332
462.173	1284
462.225	1579
462.241	1651
462.305	1643
462.310	1639
462.378	1805
462.385	1805
462.446	1212
462.465	1076
462.514	1799
462.545	2235
462.582	1584
462.625	607
462.650	700
462.705	1193
462.718	1236
462.785	1303
462.786	1300
462.854	1287
462.865	1260
462.922	1156
462.945	1162
462.990	1323
463.025	1297
463.058	1274
463.104	1157
463.126	1132
463.184	1435
463.194	1487
463.262	1500
463.264	1512
463.330	2106
463.344	2099
463.398	1826
463.424	1884
463.466	1670
463.504	1397
463.533	1385
463.583	1294
463.601	1359
463.663	1583
463.669	1579
463.737	1739
463.743	1729
463.805	1430
463.823	1359
463.873	2358
463.903	2955
463.940	2680
463.982	2476
464.008	2305
464.062	1591
464.076	1605
464.142	2065
464.144	2068
464.211	1723
464.221	1696
464.279	1874
464.301	1854
464.347	1556
464.381	1512
464.414	1762
464.461	1905
464.482	1746
464.540	1607
464.550	1667
464.617	1731
464.620	1735
464.685	2579
464.699	2717
464.753	2633
464.779	2674
464.820	2615
464.859	2489
464.888	2347
464.938	2183
464.956	2407
465.018	2916
465.023	2924
465.091	3134
465.098	3147
465.158	1970
465.177	1593
465.226	1988
465.257	2243
465.293	2207
465.336	2111
465.361	2250
465.416	2557
465.428	2586
465.495	2863
465.496	2872
465.563	3021
465.575	3084
465.631	3415
465.654	3554
465.698	2840
465.734	2166
465.765	2072
465.813	1875
465.833	2009
465.893	2484
465.900	2456
465.968	2077
465.972	2056
466.035	2372
466.052	2433
466.102	2514
466.131	2513
466.170	2550
466.210	2626
466.237	2617
466.290	2583
466.304	2613
466.369	2633
466.372	2625
466.439	2268
466.449	2207
466.506	2729
466.528	2918
466.573	2797
466.607	2676
466.641	3281
466.687	4130
466.708	4069
466.766	3894
466.775	3809
466.842	3067
466.845	3025
466.909	2606
466.925	2506
466.977	2766
467.004	2885
467.044	3088
467.083	3285
467.111	3508
467.163	3905
467.178	3917
467.242	3924
467.245	3914
467.312	3563
467.321	3510
467.379	3326
467.400	3251
467.446	3596
467.480	3837
467.559	4137
467.638	3261
467.717	2925
467.796	3440
467.875	3440
467.955	3861
468.034	3973
468.113	5804
468.192	5981
468.271	5471
468.350	8067
468.429	11466
468.508	13260
468.588	8000
468.667	5079
468.746	4095
468.825	3243
468.904	4233
468.983	2881
469.062	4007
469.141	4306
469.220	3432
469.299	3164
469.378	2763
469.456	3946
469.535	3942
469.614	3189
469.693	3603
469.772	3829
469.851	4425
469.930	3600
470.009	3799
470.088	4479
470.166	6118
470.245	8627
470.324	11190
470.403	7081
470.482	5014
470.560	3733
470.639	3933
470.718	3464
470.797	3387
470.875	3197
470.954	3970
471.033	3491
471.111	3002
471.190	2716
471.269	1995
471.347	1976
471.426	3224
471.505	3049
471.583	3669
471.662	2885
471.740	3549
471.819	3138
471.898	3037
471.976	4086
472.055	3254
472.133	2867
472.212	3106
472.290	2487
472.369	2563
472.447	3638
472.526	3361
472.604	3050
472.683	2821
472.761	2086
472.839	3436
472.918	2966
472.996	2741
473.075	3472
473.153	3611
473.231	2460
473.310	3374
473.388	2889
473.466	3367
473.545	3295
473.623	3477
473.701	2557
473.780	3879
473.858	2332
473.936	4841
474.014	3187
474.093	3951
474.171	3642
474.249	3515
474.327	2895
474.405	2512
474.484	3059
474.562	2597
474.640	2869
474.718	3388
474.796	2860
474.874	3278
474.952	3143
475.030	3145
475.108	2912
475.187	2664
475.265	3565
475.343	4275
475.421	4152
475.499	3181
475.577	2943
475.655	3769
475.733	2906
475.811	3606
475.889	3547
475.966	4567
476.044	3108
476.122	3311
476.200	3414
476.278	2821
476.356	2743
476.434	3124
476.512	3569
476.590	3752
476.667	3581
476.745	3154
476.823	3090
476.901	2534
476.979	3022
477.056	3450
477.134	2840
477.212	3387
477.290	2160
477.367	2278
477.445	2747
477.523	2628
477.601	2838
477.678	2700
477.756	2170
477.834	2355
477.911	2541
477.989	2832
478.066	1906
478.144	2899
478.222	2044
478.299	3402
478.377	2569
478.454	3162
478.532	2458
478.609	2316
478.687	2872
478.764	2539
478.842	2420
478.919	2604
478.997	2892
479.074	2721
479.152	2752
479.229	3093
479.307	2308
479.384	2432
479.461	3100
479.539	2486
479.616	3427
479.694	2775
479.771	3139
479.848	2501
479.926	1550
480.003	4385
480.080	2676
480.157	3259
480.235	2584
480.312	3008
480.389	2718
480.467	2416
480.544	3288
480.621	3067
480.698	2973
480.775	3306
480.853	2440
480.930	3084
481.007	2741
481.084	2525
481.161	2921
481.238	2611
481.315	2837
481.392	2850
481.470	2909
481.547	2409
481.624	2289
481.701	2507
481.778	2705
481.855	3036
481.932	2427
482.009	3691
482.086	4033
482.163	4895
482.240	4558
482.317	5108
482.393	4183
482.470	3235
482.547	3387
482.624	2730
482.701	2697
482.778	3354
482.855	3361
482.932	3403
483.009	2482
483.085	4404
483.162	3594
483.239	4281
483.316	3991
483.393	4957
483.469	4072
483.546	3484
483.623	2544
483.699	2831
483.776	2881
483.853	2745
483.930	2077
484.006	3164
484.083	4540
484.160	4164
484.236	6943
484.313	5884
484.389	4862
484.466	6650
484.543	5957
484.619	6877
484.696	8754
484.772	5692
484.849	5241
484.925	4414
485.002	4241
485.078	4936
485.155	4075
485.231	4084
485.308	3023
485.384	3946
485.461	4137
485.537	3516
485.614	5700
485.690	3650
485.766	3567
485.843	3378
485.919	3347
485.995	3935
486.072	2996
486.148	2908
486.224	3293
486.301	3582
486.377	3868
486.453	3000
486.530	3558
486.606	5533
486.682	4735
486.758	4756
486.835	4463
486.911	4148
486.987	5897
487.063	4712
487.139	5705
487.215	5006
487.292	5926
487.368	7008
487.444	7841
487.520	12501
487.596	15675
487.672	36155
487.748	122016
487.824	190632
487.900	55704
487.976	14503
488.052	8048
488.128	6124
488.204	4670
488.280	5276
488.356	4447
488.432	6151
488.508	5318
488.584	4704
488.660	3411
488.736	3516
488.812	3457
488.888	4130
488.964	3702
489.039	4158
489.115	5357
489.191	4508
489.267	2995
489.343	3661
489.418	3627
489.494	3212
489.570	2723
489.646	4490
489.722	3106
489.797	3853
489.873	3427
489.949	4393
490.024	3967
490.100	2824
490.176	2354
490.251	3244
490.327	3664
490.403	3077
490.478	3437
490.554	3120
490.629	3370
490.705	3070
490.781	3983
490.856	2861
490.932	3875
491.007	3481
491.083	2001
491.158	3256
491.234	2906
491.309	3852
491.385	3244
491.460	2461
491.536	3391
491.611	3110
491.686	3360
491.762	3506
491.837	3687
491.913	3918
491.988	4094
492.063	4190
492.139	3951
492.214	3575
492.289	3187
492.365	2746
492.440	3203
492.515	2876
492.590	2605
492.666	2733
492.741	2914
492.816	2222
492.891	3191
492.967	3416
493.042	3112
493.117	2842
493.192	3231
493.267	3281
493.342	5511
493.418	7780
493.493	3695
493.568	2395
493.643	2952
493.718	3682
493.793	2647
493.868	3042
493.943	2987
494.018	3452
494.093	2178
494.168	3638
494.243	2411
494.318	2999
494.393	3232
494.468	2726
494.543	3006
494.618	3767
494.693	2232
494.768	3670
494.842	2743
494.917	4052
494.992	2777
495.067	3514
495.142	3492
495.217	3043
495.292	3078
495.366	3736
495.441	1564
495.516	3765
495.591	2915
495.665	4634
495.740	6022
495.815	4480
495.890	2565
495.964	2310
496.039	4514
496.114	3858
496.188	4189
496.263	4500
496.338	2318
496.412	3387
496.487	3912
496.561	3491
496.636	3113
496.710	2892
496.785	3074
496.860	4095
496.934	3186
497.009	4439
497.083	3089
497.158	3200
497.232	4075
497.307	3865
497.381	4465
497.455	4420
497.530	4181
497.604	3151
497.679	3194
497.753	3550
497.827	3359
497.902	4035
497.976	4272
498.050	6893
498.125	18040
498.199	17700
498.273	5040
498.348	3539
498.422	4269
498.496	5345
498.570	5492
498.645	3748
498.719	2028
498.793	3139
498.867	4018
498.941	4139
499.016	7333
499.090	17566
499.164	7940
499.238	3599
499.312	4052
499.386	4154
499.460	4172
499.534	5148
499.609	6720
499.683	5465
499.757	3239
499.831	4365
499.905	11171
499.979	11022
500.053	3361
500.127	3386
500.201	2667
500.275	3748
500.349	3387
500.422	4904
500.496	4178
500.570	5908
500.644	11394
500.718	14569
500.792	4695
500.866	2581
500.940	2768
501.013	2539
501.087	1497
501.161	2365
501.235	2064
501.309	5280
501.382	8901
501.456	9174
501.530	2152
501.603	3528
501.677	1622
501.751	914
501.825	2561
501.898	2436
501.972	3793
502.046	3162
502.119	1478
502.193	2838
502.266	4024
502.340	3784
502.413	2435
502.487	3894
502.561	2635
502.634	2343
502.708	1558
502.781	764
502.855	2675
502.928	1790
503.002	1898
503.075	2627
503.149	2394
503.222	2430
503.295	1370
503.369	2559
503.442	2093
503.516	4875
503.589	6273
503.662	5552
503.736	5034
503.809	7176
503.882	7160
503.956	12425
504.029	22251
504.102	64079
504.175	102343
504.249	34805
504.322	11014
504.395	5304
504.468	3656
504.542	2807
504.615	2024
504.688	2973
504.761	970
504.834	2949
504.907	1469
504.980	2288
505.053	1207
505.127	228
505.200	3210
505.273	1270
505.346	1221
505.419	1262
505.492	1588
505.565	1908
505.638	1755
505.711	1346
505.784	1002
505.857	907
505.930	2355
506.003	644
506.076	2625
506.149	750
506.221	526
506.294	2494
506.367	655
506.440	4904
506.513	3172
506.586	2089
506.659	944
506.731	1316
506.804	400
506.877	1142
506.950	1845
507.022	1867
507.095	216
507.168	1040
507.241	2175
507.313	1195
507.386	264
507.459	1537
507.531	1001
507.604	397
507.677	1612
507.749	932
507.822	2178
507.894	1316
507.967	2547
508.040	1835
508.112	2466
508.185	1349
508.257	672
508.330	2489
508.402	1625
508.475	1605
508.547	1351
508.620	1624
508.692	1844
508.765	718
508.837	650
508.909	1534
508.982	1292
509.054	1309
509.127	1118
509.199	1822
509.271	895
509.344	188
509.416	839
509.488	1967
509.560	1739
509.633	1872
509.705	1018
509.777	1765
509.849	1767
509.922	1114
509.994	1736
510.066	1548
510.138	-412
510.210	3834
510.283	1369
510.355	2558
510.427	1770
510.499	2875
510.571	876
510.643	1376
510.715	2432
510.787	421
510.859	1734
510.931	1917
511.003	2427
511.076	2709
511.148	1219
511.219	1630
511.291	2531
511.363	2387
511.435	1641
511.507	731
511.579	1371
511.651	2442
511.723	1460
511.795	1583
511.867	1157
511.939	1691
512.010	1064
512.082	2147
512.154	286
512.226	2235
512.298	2603
512.369	1974
512.441	3094
512.513	2120
512.585	976
512.656	3320
512.728	1656
512.800	1856
512.871	1228
512.943	1945
513.015	-197
513.086	1875
513.158	1268
513.230	1958
513.301	749
513.373	2415
513.444	1133
513.516	1982
513.588	1307
513.659	2255
513.731	1057
513.802	708
513.874	2688
513.945	2023
514.016	197
514.088	2800
514.159	650
514.231	2013
514.302	1918
514.374	2213
514.445	548
514.516	3752
514.588	1115
514.659	1910
514.730	1311
514.802	2234
514.873	-356
514.944	3306
515.016	1149
515.087	928
515.158	1536
515.229	2169
515.301	683
515.372	3250
515.443	869
515.514	2173
515.585	1459
515.656	1661
515.728	1861
515.799	2145
515.870	2502
515.941	2274
516.012	1769
516.083	3515
516.154	1886
516.225	4911
516.296	4441
516.367	5572
516.438	5418
516.509	7760
516.580	13197
516.651	43041
516.722	158936
516.793	62467
516.864	10573
516.935	11479
517.006	14630
517.077	18841
517.148	39985
517.219	187695
517.289	300568
517.360	42395
517.431	10649
517.502	5408
517.573	5368
517.643	4138
517.714	3580
517.785	6331
517.856	5956
517.926	7971
517.997	10979
518.068	15672
518.138	22619
518.209	34594
518.280	120360
518.350	437865
518.421	167958
518.492	24124
518.562	14341
518.633	15115
518.703	18370
518.774	41974
518.845	117869
518.915	117431
518.986	28996
519.056	11827
519.127	8077
519.197	6668
519.268	6524
519.338	6844
519.408	3142
519.479	2436
519.549	1530
519.620	3469
519.690	2454
519.760	1708
519.831	2474
519.901	1393
519.971	2332
520.042	2023
520.112	1528
520.182	2846
520.253	2186
520.323	1370
520.393	864
520.463	3196
520.534	-672
520.604	3547
520.674	1938
520.744	1637
520.814	1203
520.885	1970
520.955	1622
521.025	5737
521.095	2538
521.165	3012
521.235	210
521.305	489
521.375	947
521.445	2524
521.515	894
521.585	2276
521.655	-265
521.725	1919
521.795	2317
521.865	-331
521.935	2778
522.005	1429
522.075	974
522.145	2798
522.215	810
522.285	1568
522.355	1360
522.424	1965
522.494	1443
522.564	2041
522.634	2222
522.704	4323
522.774	1733
522.843	1784
522.913	1037
522.983	1275
523.053	571
523.122	1532
523.192	883
523.262	1056
523.331	1171
523.401	1995
523.471	1807
523.540	2235
523.610	387
523.680	1653
523.749	1239
523.819	1241
523.888	1296
523.958	1098
524.027	1903
524.097	2306
524.166	1445
524.236	145
524.305	3454
524.375	1097
524.444	804
524.514	3413
524.583	639
524.653	1190
524.722	1938
524.791	346
524.861	2797
524.930	1081
524.999	1203
525.069	3023
525.138	1464
525.207	1613
525.277	1964
525.346	2371
525.415	2601
525.484	2330
525.554	1690
525.623	3171
525.692	5307
525.761	5659
525.830	8356
525.900	11869
525.969	20843
526.038	37654
526.107	73430
526.176	233701
526.245	189383
526.314	51934
526.383	109891
526.452	155906
526.522	220067
526.591	215881
526.660	31867
526.729	18287
526.797	22747
526.867	31094
526.935	84804
527.004	342759
527.073	228441
527.142	26147
527.211	9577
527.280	6638
527.349	4559
527.418	2903
527.487	4468
527.555	2763
527.624	2033
527.693	1665
527.762	2747
527.831	893
527.899	1742
527.968	2882
528.037	785
528.106	2305
528.174	2353
528.243	2323
528.312	2408
528.380	1586
528.449	749
528.518	3247
528.586	511
528.655	3128
528.723	1544
528.792	1110
528.861	936
528.929	903
528.998	2090
529.066	1325
529.135	1598
529.203	1648
529.272	972
529.340	3755
529.409	3307
529.477	2036
529.545	1168
529.614	4328
529.682	1571
529.751	2985
529.819	5167
529.887	2802
529.956	2760
530.024	4056
530.092	2865
530.161	3942
530.229	3127
530.297	2692
530.365	4134
530.434	3974
530.502	3172
530.570	3320
530.638	883
530.707	3331
530.775	4405
530.843	2520
530.911	2349
530.979	4189
531.047	3115
531.115	3390
531.183	2783
531.252	3252
531.320	2081
531.388	2940
531.456	3715
531.524	2526
531.592	3503
531.660	5477
531.728	2493
531.796	3426
531.864	2424
531.932	3208
532.000	3138
532.067	3571
532.135	3261
532.203	4694
532.271	2811
532.339	5748
532.407	5466
532.475	5155
532.542	3965
532.610	4288
532.678	3614
532.746	6530
532.814	9345
532.881	5572
532.949	4591
533.017	4088
533.084	4887
533.152	4029
533.220	4213
533.287	4076
533.355	4429
533.423	4036
533.490	3330
533.558	5168
533.625	5133
533.693	4351
533.761	4534
533.828	4006
533.896	3584
533.963	5969
534.031	5099
534.098	6661
534.166	6369
534.233	6504
534.300	7375
534.368	7527
534.435	5921
534.503	7324
534.570	8623
534.637	8965
534.705	10245
534.772	13560
534.840	21950
534.907	95900
534.974	131348
535.041	16376
535.109	7701
535.176	6220
535.243	6632
535.310	6030
535.378	5337
535.445	6688
535.512	5779
535.579	7146
535.646	5008
535.714	6288
535.781	6600
535.848	8503
535.915	6899
535.982	6580
536.049	6486
536.116	7481
536.183	5055
536.250	6020
536.317	5135
536.384	6468
536.451	6472
536.518	6413
536.585	4685
536.652	8575
536.719	6668
536.786	5878
536.853	4791
536.920	6453
536.987	5343
537.053	5384
537.120	9392
537.187	8682
537.254	6624
537.321	6680
537.388	7529
537.454	6149
537.521	5527
537.588	5905
537.654	7331
537.721	6415
537.788	8040
537.855	6550
537.921	5746
537.988	6233
538.055	6717
538.121	6072
538.188	6419
538.254	5508
538.321	6036
538.388	6120
538.454	7041
538.521	7732
538.587	7135
538.654	6784
538.720	6944
538.787	7315
538.853	6907
538.920	6890
538.986	5553
539.053	5811
539.119	6318
539.185	6467
539.252	7375
539.318	6570
539.385	8281
539.451	6308
539.517	7321
539.583	6943
539.650	6434
539.716	7226
539.782	6378
539.849	5740
539.915	6689
539.981	6251
540.047	5817
540.114	6368
540.180	7174
540.246	6557
540.312	6523
540.378	7231
540.444	7110
540.510	7885
540.576	8366
540.643	7673
540.709	6232
540.775	7055
540.841	6834
540.907	7058
540.973	6839
541.039	7997
541.105	6944
541.171	7466
541.237	7169
541.303	8149
541.369	9095
541.435	8172
541.500	7061
541.566	5892
541.632	6873
541.698	7427
541.764	8547
541.830	5984
541.896	6287
541.961	6551
542.027	6875
542.093	8282
542.159	7517
542.224	5688
542.290	7173
542.356	7095
542.421	8296
542.487	7116
542.553	5968
542.618	6788
542.684	6938
542.750	7108
542.815	6987
542.881	6630
542.947	8276
543.012	8950
543.078	7283
543.143	6359
543.209	7221
543.274	5600
543.340	7100
543.405	6985
543.471	7245
543.536	6658
543.602	6886
543.667	5250
543.732	7831
543.798	6645
543.863	7570
543.928	7420
543.994	6433
544.059	8135
544.124	7578
544.190	7401
544.255	7631
544.320	8145
544.386	6914
544.451	9374
544.516	8165
544.581	7820
544.646	7963
544.712	10166
544.777	8117
544.842	7705
544.907	7601
544.972	8333
545.037	7729
545.102	8882
545.168	8205
545.233	8780
545.298	9954
545.363	8716
545.428	8952
545.493	10400
545.558	10372
545.623	9643
545.688	8838
545.753	10350
545.818	11405
545.883	12298
545.947	10782
546.012	11293
546.077	11377
546.142	13386
546.207	12549
546.272	13823
546.337	13145
546.401	15221
546.466	15042
546.531	14984
546.596	17630
546.661	18388
546.725	20036
546.790	19816
546.855	22412
546.919	23125
546.984	26706
547.049	28800
547.113	33002
547.178	36687
547.243	42056
547.307	48473
547.372	52928
547.436	53057
547.501	55025
547.565	60321
547.630	56238
547.695	53785
547.759	54473
547.823	54621
547.888	55015
547.952	57446
548.017	59249
548.081	60913
548.146	59204
548.210	63017
548.274	66414
548.339	65356
548.403	60778
548.468	57007
548.532	55675
548.596	58080
548.660	57576
548.725	64868
548.789	68327
548.853	67604
548.917	65748
548.982	63214
549.046	58175
549.110	52077
549.174	53590
549.238	63114
549.303	68318
549.367	72302
549.431	67724
549.495	64647
549.559	64576
549.623	74341
549.687	83129
549.751	80311
549.815	94109
549.879	98340
549.943	93083
550.007	97169
550.071	96917
550.135	89704
550.199	85359
550.263	85593
550.327	82378
550.391	83476
550.455	90331
550.519	97928
550.582	102412
550.646	115214
550.710	114587
550.774	115457
550.838	116848
550.901	119640
550.965	125770
551.029	130400
551.093	137360
551.156	144054
551.220	152238
551.284	166024
551.347	143410
551.411	129557
551.475	127375
551.538	133054
551.602	126460
551.666	121457
551.729	116994
551.793	114982
551.856	114224
551.920	113043
551.983	114640
552.047	113642
552.110	113499
552.174	115530
552.237	118288
552.301	113450
552.364	107849
552.428	107845
552.491	109422
552.554	112575
552.618	112248
552.681	113859
552.745	110444
552.808	117336
552.871	126213
552.934	118051
552.998	112937
553.061	110347
553.124	110658
553.187	109727
553.251	112569
553.314	113832
553.377	113908
553.440	121125
553.503	124798
553.567	129897
553.630	124858
553.693	127820
553.756	130203
553.819	131184
553.882	130824
553.945	129213
554.008	130421
554.071	130374
554.134	132783
554.197	129915
554.260	129516
554.323	129846
554.386	129237
554.449	132183
554.512	132701
554.575	127427
554.638	128304
554.701	126663
554.764	127697
554.827	123789
554.889	119852
554.952	115476
555.015	112261
555.078	112705
555.141	113698
555.203	112449
555.266	111576
555.329	110377
555.391	106875
555.454	106145
555.517	99742
555.580	97655
555.642	93772
555.705	92738
555.768	91818
555.830	90110
555.893	86363
555.955	83775
556.018	80393
556.080	80179
556.143	81636
556.206	81376
556.268	78461
556.330	77232
556.393	74292
556.455	72352
556.518	69930
556.580	69023
556.643	66499
556.705	65914
556.767	63360
556.830	62546
556.892	61303
556.955	59565
557.017	56801
557.079	56631
557.142	54919
557.204	53011
557.266	52793
557.328	50506
557.391	47239
557.453	46807
557.515	45273
557.577	45678
557.639	44176
557.701	44383
557.764	42324
557.826	43002
557.888	44454
557.950	44068
558.012	46181
558.074	51487
558.136	80741
558.198	174816
558.260	77757
558.322	40722
558.384	40303
558.446	42949
558.508	44784
558.570	49551
558.632	53034
558.694	65134
558.756	87968
558.818	206147
558.880	453273
558.942	190878
559.003	175709
559.065	100957
559.127	47260
559.189	46041
559.251	47665
559.312	61097
559.374	113679
559.436	330432
559.498	185983
559.559	50822
559.621	44362
559.683	47026
559.744	66117
559.806	169951
559.868	263740
559.929	68659
559.991	44991
560.052	59843
560.114	155667
560.176	110886
560.237	90233
560.299	147439
560.360	41840
560.422	21853
560.483	19928
560.545	19429
560.606	17976
560.667	17502
560.729	17332
560.790	16952
560.852	15970
560.913	16762
560.974	15470
561.036	16122
561.097	15957
561.158	15782
561.220	15334
561.281	14757
561.342	13722
561.403	14950
561.465	14158
561.526	14554
561.587	14714
561.648	12467
561.709	13072
561.771	13467
561.832	12901
561.893	13090
561.954	11945
562.015	12213
562.076	12585
562.137	12903
562.198	10260
562.259	12133
562.320	11136
562.381	11987
562.442	11397
562.503	11247
562.564	11120
562.625	10839
562.686	10526
562.747	9859
562.808	10591
562.869	10137
562.930	9726
562.991	10454
563.051	10348
563.112	8950
563.173	9702
563.234	8809
563.294	10224
563.355	9625
563.416	8427
563.477	9693
563.537	8693
563.598	9737
563.659	8381
563.720	8162
563.780	8706
563.841	8762
563.901	9953
563.962	8263
564.023	8653
564.083	8278
564.144	8402
564.204	8866
564.265	7377
564.325	8750
564.386	9283
564.446	8883
564.507	8406
564.567	7468
564.628	7182
564.688	7630
564.749	7586
564.809	8788
564.869	7458
564.930	7995
564.990	8102
565.050	7446
565.111	7101
565.171	7320
565.231	7661
565.292	7970
565.352	7223
565.412	7576
565.472	6417
565.532	7774
565.593	6515
565.653	6917
565.713	7357
565.773	8279
565.833	7562
565.893	7790
565.953	6511
566.013	7177
566.074	6864
566.134	7575
566.194	7370
566.254	7034
566.314	7098
566.374	5961
566.434	7282
566.494	6589
566.554	7365
566.614	7664
566.673	6677
566.733	8068
566.793	6669
566.853	7492
566.913	7785
566.973	7147
567.033	7367
567.092	7015
567.152	6429
567.212	6570
567.272	8150
567.331	8022
567.391	7336
567.451	8083
567.511	6701
567.570	7741
567.630	7263
567.690	7558
567.749	6876
567.809	7340
567.868	7172
567.928	6755
567.988	6830
568.047	7378
568.107	7155
568.166	7846
568.226	7239
568.285	8001
568.345	7461
568.404	7875
568.464	7356
568.523	7922
568.582	6511
568.642	7734
568.701	6996
568.761	7808
568.820	7781
568.879	8634
568.939	7748
568.998	7730
569.057	7253
569.116	7446
569.176	7066
569.235	7530
569.294	7532
569.353	7049
569.413	5858
569.472	5995
569.531	6609
569.590	5665
569.649	7103
569.708	7033
569.767	7403
569.827	7020
569.886	6370
569.945	6855
570.004	6600
570.063	7152
570.122	7691
570.181	7649
570.240	6838
570.299	8252
570.358	7303
570.417	7453
570.475	6472
570.534	8472
570.593	7596
570.652	7386
570.711	6728
570.770	6658
570.829	6776
570.887	7056
570.946	7680
571.005	7205
571.064	7322
571.122	7934
571.181	7993
571.240	7475
571.299	6380
571.357	6823
571.416	7110
571.475	6372
571.533	7086
571.592	7504
571.650	8020
571.709	7824
571.768	7774
571.826	9334
571.885	7723
571.943	8903
572.002	7146
572.060	7673
572.119	7562
572.177	8099
572.236	7370
572.294	7350
572.352	7424
572.411	8727
572.469	7004
572.528	7720
572.586	7312
572.644	8019
572.703	7427
572.761	6891
572.819	6979
572.877	7251
572.936	5918
572.994	6247
573.052	6270
573.110	6823
573.169	7459
573.227	7024
573.285	6770
573.343	6565
573.401	6115
573.459	6830
573.517	7185
573.576	7071
573.634	7033
573.692	6626
573.750	6550
573.808	6037
573.866	5641
573.924	5898
573.982	5997
574.040	5604
574.098	6354
574.155	6497
574.213	5929
574.271	6343
574.329	6593
574.387	5280
574.445	5088
574.503	5539
574.560	5069
574.618	4637
574.676	4689
574.734	5759
574.792	4916
574.849	4925
574.907	4185
574.965	4764
575.022	4821
575.080	5021
575.138	4281
575.195	3831
575.253	3636
575.311	4630
575.368	5006
575.426	4255
575.483	4775
575.541	5152
575.598	4734
575.656	3698
575.713	4955
575.771	3989
575.828	4689
575.886	3776
575.943	4680
576.001	4617
576.058	3475
576.115	4119
576.173	3578
576.230	4123
576.287	4352
576.345	3905
576.402	4707
576.459	4659
576.517	3423
576.574	3492
576.631	4503
576.688	3824
576.746	4097
576.803	3969
576.860	2805
576.917	4338
576.974	3789
577.031	4328
577.089	3881
577.146	3402
577.203	3591
577.260	4319
577.317	4037
577.374	3618
577.431	3087
577.488	3849
577.545	2699
577.602	3632
577.659	2986
577.716	3908
577.773	3102
577.830	3458
577.886	3722
577.943	3614
578.000	3725
578.057	3209
578.114	4561
578.171	3566
578.227	5056
578.284	4024
578.341	3593
578.398	4198
578.454	3797
578.511	3507
578.568	3595
578.625	4216
578.681	3602
578.738	4567
578.794	3639
578.851	4238
578.908	3503
578.964	3828
579.021	3218
579.077	3851
579.134	3682
579.190	3789
579.247	3585
579.303	3536
579.360	2829
579.416	3890
579.473	4053
579.529	4456
579.586	3421
579.642	3915
579.698	3141
579.755	3635
579.811	3737
579.867	4164
579.924	3237
579.980	4177
580.036	3867
580.093	5607
580.149	5438
580.205	6762
580.261	4320
580.317	4987
580.374	4190
580.430	4324
580.486	4446
580.542	3433
580.598	4136
580.619	4180
580.654	4257
580.692	4174
580.710	4140
580.765	4590
580.767	4605
580.823	4478
580.838	4376
580.879	4120
580.911	3961
580.935	3842
580.984	3908
580.991	3927
581.047	4861
581.057	4816
581.103	4565
581.130	4534
581.159	4519
581.203	4679
581.215	4725
581.270	3525
581.276	3581
581.326	4110
581.349	4142
581.382	4172
581.422	3857
581.438	3732
581.494	4080
581.494	4083
581.550	4531
581.567	4385
581.606	4063
581.640	4325
581.661	4478
581.713	5355
581.717	5429
581.773	4867
581.786	4888
581.829	4873
581.859	4536
581.885	4296
581.932	3939
581.940	3880
581.996	4063
582.004	4182
582.052	4769
582.077	4946
582.107	5175
582.150	4891
582.163	4782
582.219	4125
582.223	4131
582.274	4231
582.296	4142
582.330	3992
582.368	3967
582.386	4008
582.441	4580
582.441	4580
582.497	4886
582.514	4770
582.552	4443
582.587	4689
582.608	4913
582.659	4840
582.663	4815
582.719	4874
582.732	4847
582.774	4984
582.805	4924
582.830	4814
582.877	4481
582.885	4440
582.941	5005
582.950	4948
582.996	4509
583.023	4971
583.052	5682
583.095	6368
583.107	6482
583.162	5895
583.168	5923
583.218	6111
583.240	5833
583.273	5422
583.313	5076
583.328	4969
583.384	4764
583.385	4781
583.439	5336
583.458	5271
583.494	5121
583.531	5409
583.549	5541
583.603	4391
583.605	4363
583.660	4695
583.676	4843
583.715	5002
583.748	5063
583.770	5256
583.820	5622
583.825	5617
583.881	5149
583.893	5170
583.936	5467
583.965	5402
583.991	5282
584.038	5046
584.046	5044
584.101	5691
584.110	5711
584.156	5610
584.183	5641
584.211	5800
584.255	5662
584.266	5573
584.321	5969
584.328	5904
584.376	5690
584.400	5966
584.431	6201
584.472	6213
584.486	6251
584.541	6423
584.545	6406
584.596	5896
584.617	5844
584.651	6275
584.689	7035
584.706	7034
584.761	6376
584.762	6368
584.816	6681
584.834	7104
584.871	7643
584.906	7279
584.926	7172
584.978	7157
584.980	7166
585.035	8410
585.051	8485
585.090	8556
585.123	9234
585.145	9854
585.195	10575
585.200	10681
585.254	12243
585.267	12810
585.309	14626
585.340	16007
585.364	17118
585.412	19841
585.419	20341
585.473	24875
585.484	25834
585.528	31911
585.556	37853
585.583	50289
585.628	79552
585.637	91381
585.692	187488
585.700	205498
585.747	275820
585.772	250128
585.801	166816
585.845	62082
585.856	48973
585.910	24582
585.917	22124
585.965	17589
585.989	15835
586.019	14509
586.061	12956
586.074	12697
586.128	11619
586.133	11599
586.183	11628
586.205	11296
586.237	11122
586.277	11494
586.292	11506
586.346	10591
586.349	10578
586.401	11320
586.421	11404
586.455	11246
586.493	11440
586.509	11624
586.564	11355
586.565	11364
586.618	12735
586.637	12912
586.672	13641
586.709	14908
586.727	15619
586.781	17042
586.781	17058
586.835	14391
586.853	13784
586.889	13037
586.925	12439
586.944	12478
586.996	12200
586.998	12195
587.052	11492
587.068	11579
587.106	12602
587.140	12827
587.161	12713
587.212	12588
587.215	12594
587.269	12394
587.284	12348
587.323	12506
587.356	12530
587.377	13001
587.427	14545
587.431	14583
587.485	14444
587.499	14310
587.539	14483
587.571	14768
587.593	14927
587.643	15301
587.648	15408
587.702	16108
587.715	16306
587.755	16419
587.786	16349
587.810	16446
587.858	16344
587.864	16325
587.917	16401
587.930	16228
587.971	16278
588.001	16886
588.025	17069
588.073	16522
588.079	16670
588.133	18135
588.145	18476
588.187	18531
588.217	18410
588.241	18751
588.288	19250
588.295	19364
588.348	20356
588.360	20528
588.402	21189
588.431	21550
588.456	21884
588.503	22591
588.510	22853
588.564	24933
588.575	25426
588.617	27502
588.646	29022
588.671	30759
588.718	33973
588.725	34980
588.778	43626
588.789	45757
588.832	67025
588.861	84286
588.886	114780
588.932	181922
588.939	188679
588.993	236982
589.004	236268
589.047	149612
589.075	97723
589.100	74326
589.147	42432
589.154	41227
589.207	34161
589.218	32714
589.261	32674
589.290	33157
589.314	34020
589.361	35994
589.368	37347
589.421	49055
589.433	52041
589.475	83956
589.504	109445
589.528	140089
589.576	206352
589.582	202386
589.635	127946
589.647	112179
589.689	64307
589.718	37112
589.742	33391
589.790	26784
589.795	26626
589.849	25288
589.861	24947
589.902	24026
589.932	23295
589.955	23149
590.004	22463
590.009	22442
590.062	22351
590.075	22092
590.115	22248
590.146	22682
590.168	22516
590.218	21532
590.222	21610
590.275	22397
590.289	22431
590.328	22953
590.360	23586
590.381	23744
590.431	23677
590.435	23731
590.488	23683
590.503	23644
590.541	23800
590.574	23826
590.594	23989
590.645	24168
590.647	24306
590.700	26714
590.716	27293
590.753	27127
590.787	26967
590.806	27345
590.859	27953
590.859	28019
590.912	28039
590.930	27995
590.965	28626
591.001	29142
591.018	29054
591.071	28092
591.072	28011
591.124	28611
591.143	28585
591.177	28430
591.214	28337
591.230	28733
591.283	29685
591.285	29650
591.336	29567
591.356	29403
591.389	29648
591.427	29789
591.442	29763
591.495	29389
591.498	29297
591.547	29691
591.569	29745
591.600	29983
591.640	30012
591.653	30424
591.706	31971
591.711	32050
591.759	31263
591.782	30791
591.811	32002
591.853	33508
591.864	33658
591.917	33954
591.924	33915
591.969	34336
591.995	34413
592.022	34142
592.066	33467
592.075	33795
592.127	35312
592.137	35505
592.180	36043
592.208	36232
592.233	36874
592.279	37845
592.285	37993
592.338	38408
592.350	38404
592.390	38300
592.421	38054
592.443	38780
592.491	40082
592.495	40216
592.548	40599
592.562	40604
592.600	40640
592.633	40478
592.653	40540
592.704	40208
592.705	40470
592.775	42098
592.846	43120
592.916	43743
592.987	43999
593.058	44809
593.128	45615
593.199	45267
593.270	47557
593.341	45778
593.411	48027
593.482	50292
593.553	51016
593.623	51510
593.694	52206
593.764	53484
593.835	53171
593.906	53363
593.976	54127
594.047	55131
594.117	57688
594.188	60223
594.258	58914
594.329	59010
594.399	60343
594.470	61380
594.540	63272
594.611	64669
594.681	65663
594.751	64458
594.822	66735
594.892	68229
594.963	70385
595.033	71323
595.103	74991
595.174	75911
595.244	76747
595.314	79642
595.384	81710
595.455	83437
595.525	86058
595.595	88352
595.665	88862
595.736	85610
595.806	88040
595.876	89130
595.946	90355
596.016	92700
596.087	97407
596.157	96860
596.227	97284
596.297	101238
596.367	108747
596.437	113586
596.507	114116
596.577	112666
596.647	116929
596.717	121774
596.787	124273
596.857	122385
596.927	126208
596.997	123434
597.067	126983
597.137	129174
597.207	130224
597.277	129928
597.347	127193
597.417	122290
597.487	121560
597.557	125034
597.626	126946
597.696	129971
597.766	127753
597.836	124645
597.906	118086
597.975	117368
598.045	117745
598.115	122033
598.185	130198
598.254	142740
598.324	153102
598.394	155780
598.464	151977
598.533	150535
598.603	142167
598.672	136498
598.742	140985
598.812	139983
598.881	145242
598.951	144578
599.020	144955
599.090	149527
599.159	153667
599.229	146865
599.299	145580
599.368	149003
599.437	148364
599.507	137683
599.576	134711
599.646	132163
599.715	131265
599.785	131713
599.854	129044
599.924	126974
599.993	127654
600.062	129951
600.132	131578
600.201	137327
600.270	157369
600.340	166282
600.409	162675
600.478	162253
600.547	166355
600.617	154381
600.686	127182
600.755	119358
600.824	113740
600.894	111172
600.963	113132
601.032	112067
601.101	109511
601.170	106023
601.239	104859
601.308	103090
601.378	105458
601.447	105353
601.516	107648
601.585	108161
601.654	108217
601.723	107447
601.792	111905
601.861	113936
601.930	119925
601.999	119180
602.068	117766
602.137	119276
602.206	122382
602.275	122933
602.343	124364
602.412	123892
602.481	124963
602.550	124907
602.619	128056
602.688	130989
602.756	131155
602.825	131375
602.894	134762
602.963	139270
603.032	138651
603.100	138533
603.169	138823
603.238	141131
603.307	142681
603.375	142475
603.444	143695
603.513	144125
603.581	143287
603.650	144113
603.719	142541
603.787	143855
603.856	147295
603.924	148934
603.993	152309
604.061	159315
604.130	165421
604.198	164982
604.267	170129
604.335	170729
604.404	174774
604.472	176561
604.541	178471
604.609	179135
604.678	179620
604.746	178976
604.815	184981
604.883	187804
604.951	185117
605.020	188106
605.088	191609
605.156	192406
605.225	198227
605.293	196016
605.361	196559
605.429	198637
605.498	200889
605.566	206422
605.634	216620
605.702	220453
605.771	225165
605.839	228530
605.907	224075
605.975	217150
606.043	212671
606.111	214175
606.180	212234
606.248	212867
606.316	209233
606.384	207466
606.452	208962
606.520	211539
606.588	219186
606.656	219837
606.724	218032
606.792	206195
606.860	189292
606.928	174914
606.996	168112
607.064	164815
607.132	169900
607.200	177068
607.267	184712
607.335	185716
607.403	189639
607.471	186125
607.539	180970
607.607	181844
607.674	163223
607.742	162216
607.810	161323
607.878	160140
607.946	164130
608.013	172284
608.081	172603
608.149	174543
608.216	181122
608.284	185073
608.352	185578
608.419	183772
608.487	181778
608.555	178697
608.622	185245
608.690	191224
608.757	209602
608.825	214238
608.893	210984
608.960	200529
609.028	191667
609.095	193387
609.163	194541
609.230	176948
609.298	163070
609.365	171127
609.432	181739
609.500	193803
609.567	216780
609.635	243899
609.702	257243
609.769	247568
609.837	202398
609.904	174570
609.971	177194
610.039	187387
610.106	212568
610.173	307228
610.241	558734
610.308	401509
610.375	213685
610.442	189811
610.509	184612
610.577	184121
610.644	185643
610.711	192783
610.778	197312
610.845	201136
610.912	212780
610.980	220209
611.047	221308
611.114	218660
611.181	213595
611.248	211922
611.315	225120
611.382	227529
611.449	234163
611.516	237175
611.583	235645
611.650	234826
611.717	234858
611.784	239363
611.851	245610
611.918	249845
611.984	272356
612.051	320480
612.118	459901
612.185	811201
612.252	653576
612.319	329901
612.386	293244
612.452	273477
612.519	263683
612.586	259942
612.653	266731
612.719	272910
612.786	267023
612.853	252200
612.919	247786
612.986	250359
613.053	241697
613.120	229101
613.186	223450
613.253	226318
613.319	225097
613.386	224197
613.453	229696
613.519	230292
613.586	226537
613.652	229523
613.719	228721
613.785	229612
613.852	233722
613.918	234235
613.985	235843
614.051	242288
614.118	241257
614.184	235393
614.250	233374
614.317	239725
614.383	236497
614.449	240038
614.516	239786
614.582	239327
614.648	238782
614.715	238525
614.781	232257
614.847	231435
614.914	233705
614.980	226635
615.046	228563
615.112	235583
615.179	234434
615.245	237909
615.311	236736
615.377	237672
615.443	240996
615.509	241752
615.575	247037
615.642	242468
615.708	248977
615.774	255644
615.840	265295
615.906	268856
615.972	290458
616.038	349450
616.104	532857
616.170	880095
616.236	837261
616.302	419933
616.368	354775
616.434	293366
616.500	278605
616.565	288232
616.631	335558
616.697	299570
616.763	301116
616.829	364050
616.895	545534
616.961	544226
617.026	322064
617.092	261932
617.158	255534
617.224	253669
617.289	241040
617.355	235489
617.421	230699
617.487	234505
617.552	226896
617.618	226077
617.684	226304
617.749	230196
617.815	222059
617.880	220163
617.946	221363
618.012	224075
618.077	227939
618.143	221019
618.208	222131
618.274	229382
618.339	233925
618.405	209492
618.470	207663
618.536	206708
618.601	206979
618.667	198927
618.732	194217
618.798	193373
618.863	193919
618.928	189675
618.994	192412
619.059	189874
619.124	192782
619.190	191576
619.255	189293
619.320	190773
619.386	192794
619.451	188444
619.516	188955
619.581	190128
619.647	196047
619.712	198479
619.777	193061
619.842	194443
619.907	198128
619.972	197303
620.038	198270
620.103	193490
620.168	194246
620.233	197694
620.298	199595
620.363	199010
620.428	202566
620.493	206635
620.558	209352
620.623	210548
620.688	210446
620.753	207481
620.818	209993
620.883	209719
620.948	209685
621.013	210476
621.078	207292
621.143	205182
621.207	208714
621.272	204046
621.337	202016
621.402	201990
621.467	201528
621.532	200404
621.596	202728
621.661	198722
621.726	198468
621.791	199068
621.855	200385
621.920	199040
621.985	202025
622.049	202690
622.114	201262
622.179	202607
622.243	203822
622.308	209209
622.373	212449
622.437	211079
622.502	205030
622.566	202155
622.631	201135
622.695	204116
622.760	202461
622.824	203268
622.889	203353
622.953	204668
623.018	210591
623.082	211760
623.147	208949
623.211	205978
623.276	207368
623.340	201370
623.404	197016
623.469	199703
623.533	200287
623.597	195406
623.662	195691
623.726	188969
623.790	181519
623.854	180651
623.919	179184
623.983	179952
624.047	183243
624.111	183370
624.176	185675
624.240	184585
624.304	188004
624.368	183523
624.432	184834
624.496	185003
624.560	189062
624.625	189897
624.689	188999
624.753	191853
624.817	188591
624.881	183411
624.945	175014
625.009	169950
625.073	171581
625.137	172038
625.201	175886
625.265	176946
625.329	171942
625.393	170547
625.456	171355
625.520	172716
625.584	174266
625.648	175032
625.712	176821
625.776	175504
625.839	171130
625.903	152521
625.967	143328
626.031	149075
626.095	164509
626.158	157169
626.222	133455
626.286	127726
626.349	125166
626.413	118859
626.477	117445
626.540	118296
626.604	116199
626.668	115741
626.731	113421
626.795	111291
626.858	109622
626.922	108452
626.986	107142
627.049	106075
627.113	109284
627.176	104670
627.240	102567
627.303	101200
627.366	100297
627.430	100655
627.493	100229
627.557	95825
627.620	98785
627.684	100255
627.747	99708
627.810	93138
627.874	86386
627.937	81904
628.000	85565
628.064	82096
628.127	77358
628.190	76908
628.253	74630
628.317	71561
628.380	70076
628.443	67501
628.506	67779
628.569	65968
628.632	62417
628.696	61978
628.759	62782
628.822	58362
628.885	57536
628.948	57412
629.011	55839
629.074	53476
629.137	53174
629.200	50653
629.263	50882
629.326	48728
629.389	49662
629.452	47258
629.515	47315
629.578	46345
629.641	47975
629.704	46571
629.767	46661
629.830	45139
629.892	44719
629.955	42090
630.018	44129
630.081	42241
630.144	41977
630.207	40909
630.269	41513
630.332	39058
630.395	38762
630.458	37838
630.520	37089
630.583	38766
630.646	38729
630.708	39076
630.771	38092
630.834	39218
630.896	38864
630.959	38181
631.021	36106
631.084	36240
631.146	38413
631.209	36518
631.272	35213
631.334	36557
631.397	36705
631.459	35668
631.522	37136
631.584	37186
631.646	38305
631.709	39227
631.771	39332
631.834	38197
631.896	37734
631.958	34850
632.021	35792
632.083	33233
632.145	34273
632.208	32767
632.270	33809
632.332	32809
632.395	32353
632.457	32788
632.519	32095
632.581	33258
632.643	31374
632.706	31792
632.768	31522
632.830	31971
632.892	32972
632.954	32591
633.016	34322
633.078	32127
633.141	32467
633.203	30946
633.265	33480
633.327	31596
633.389	32004
633.451	31893
633.513	31396
633.575	32799
633.637	31617
633.698	30984
633.760	34249
633.822	34461
633.884	34447
633.946	34633
634.008	35153
634.070	35213
634.132	36543
634.193	38155
634.255	41025
634.317	41007
634.379	41590
634.441	38253
634.502	35837
634.564	33676
634.626	32250
634.687	31135
634.749	30899
634.811	31871
634.873	30553
634.934	30181
634.996	32105
635.057	30184
635.119	31803
635.181	31246
635.242	32774
635.304	29862
635.365	33437
635.427	30594
635.488	31773
635.550	30448
635.611	31227
635.673	30140
635.734	33304
635.796	32064
635.857	35383
635.918	35722
635.980	39294
636.041	39814
636.102	42798
636.164	42007
636.225	41745
636.286	36876
636.348	35195
636.409	32655
636.470	32811
636.531	30951
636.593	30837
636.654	30469
636.715	30078
636.776	29708
636.838	29792
636.899	29395
636.960	29740
637.021	27699
637.082	29933
637.143	28487
637.204	28200
637.265	27084
637.326	29961
637.387	29239
637.448	29483
637.509	29587
637.570	29556
637.631	28332
637.692	27269
637.753	26552
637.814	28282
637.875	27770
637.936	29325
637.997	27468
638.058	27658
638.119	28327
638.179	29278
638.240	28365
638.301	27319
638.362	27703
638.423	27237
638.483	28033
638.544	26242
638.605	27797
638.666	27257
638.726	27997
638.787	28376
638.848	28758
638.908	27126
638.969	26993
639.030	26931
639.090	26208
639.151	26967
639.211	28463
639.272	28368
639.332	27072
639.393	28849
639.453	27812
639.514	29619
639.574	27813
639.635	26175
639.695	25861
639.756	25789
639.816	26414
639.877	25534
639.937	26154
639.997	26287
640.058	25355
640.118	26144
640.178	26357
640.239	26178
640.299	25659
640.359	27212
640.420	27266
640.480	29325
640.540	30036
640.600	31741
640.661	28127
640.721	27229
640.781	29046
640.841	24828
640.901	27322
640.961	27298
641.021	26588
641.082	28397
641.142	26399
641.202	26384
641.262	24415
641.322	27036
641.382	24707
641.442	26199
641.502	25736
641.562	26270
641.622	25197
641.682	26988
641.742	28458
641.802	27131
641.861	25800
641.921	26044
641.981	23468
642.041	23700
642.101	23755
642.161	23410
642.221	24131
642.280	24151
642.340	23596
642.400	23662
642.460	25063
642.519	24769
642.579	26148
642.639	25110
642.698	22491
642.758	28273
642.818	24770
642.877	25146
642.937	24738
642.997	25839
643.056	24780
643.116	24253
643.175	26784
643.235	24945
643.294	25569
643.354	26365
643.414	25885
643.473	28415
643.532	30571
643.592	35321
643.651	45562
643.711	67162
643.770	112190
643.830	236716
643.889	463500
643.948	173328
644.008	48556
644.067	34308
644.126	29526
644.186	27396
644.245	24785
644.304	23462
644.363	25460
644.423	23214
644.482	23459
644.541	25306
644.600	23890
644.659	28246
644.719	28992
644.778	38039
644.837	54170
644.896	96443
644.955	211531
645.014	91540
645.073	30773
645.132	26009
645.191	25216
645.250	24637
645.309	25488
645.368	25755
645.427	30380
645.486	42695
645.545	69087
645.604	31151
645.663	23248
645.722	23194
645.781	23969
645.840	25461
645.898	26448
645.957	32584
646.016	40268
646.075	63120
646.134	108414
646.192	247026
646.251	376634
646.310	93923
646.369	37676
646.427	31359
646.486	25616
646.545	23373
646.603	21635
646.662	22110
646.721	21085
646.779	19870
646.838	19792
646.896	23564
646.955	26923
647.014	36254
647.072	58536
647.131	145368
647.189	86768
647.248	23004
647.306	19477
647.365	18463
647.423	16964
647.481	18241
647.540	15070
647.598	18042
647.657	16528
647.715	17482
647.773	15403
647.832	15644
647.890	14846
647.948	15869
648.007	15314
648.065	14822
648.123	14196
648.181	15820
648.240	14723
648.298	14129
648.356	14254
648.414	14940
648.472	14216
648.531	13713
648.589	13121
648.647	13732
648.705	12396
648.763	13801
648.821	12925
648.879	12983
648.937	13377
648.995	15573
649.053	15879
649.111	21577
649.169	30654
649.227	50909
649.285	94024
649.343	256431
649.401	148171
649.459	28079
649.516	17891
649.574	13844
649.632	14876
649.690	16396
649.748	18163
649.806	22890
649.863	39129
649.921	104061
649.979	80657
650.037	16511
650.094	10667
650.152	10522
650.210	9576
650.268	11527
650.325	8788
650.383	9327
650.440	7987
650.498	9061
650.556	7351
650.613	7688
650.671	8660
650.728	8772
650.786	8442
650.843	11556
650.901	8687
650.958	7706
651.016	7773
651.073	8005
651.131	6611
651.188	6613
651.246	7091
651.303	7095
651.360	5880
651.418	6064
651.475	6393
651.532	6261
651.590	6338
651.647	6170
651.704	5784
651.762	6794
651.819	6728
651.876	5970
651.933	6013
651.990	6248
652.048	5332
652.105	4937
652.162	5361
652.219	5553
652.276	5673
652.333	6015
652.390	4987
652.448	5331
652.505	5416
652.562	5039
652.619	5441
652.676	5448
652.733	6090
652.790	4874
652.847	3864
652.904	5552
652.961	4147
653.017	3889
653.074	5060
653.131	4289
653.188	3773
653.245	5253
653.302	5124
653.359	4935
653.415	4587
653.472	5058
653.529	4400
653.586	4383
653.642	4004
653.699	6003
653.756	3017
653.813	4725
653.869	5116
653.926	3943
653.983	3461
654.039	4808
654.096	4104
654.152	4549
654.209	3029
654.266	5694
654.322	2270
654.379	4155
654.435	4586
654.492	3888
654.548	4821
654.605	3033
654.661	4548
654.717	4165
654.774	4163
654.830	3536
654.887	2932
654.943	3766
655.000	3586
655.056	4378
655.112	3507
655.168	3227
655.225	3208
655.281	4985
655.337	3137
655.394	3643
655.450	3371
655.506	3773
655.562	2843
655.618	4827
655.675	2580
655.731	3477
655.787	2592
655.843	4300
655.899	3310
655.955	4753
656.011	3946
656.067	3710
656.123	4065
656.179	3500
656.235	4143
656.291	2671
656.347	3463
656.403	3896
656.459	3176
656.515	4393
656.571	2994
656.627	3422
656.683	3128
656.739	4769
656.795	3204
656.850	4229
656.906	3285
656.962	4177
657.018	4011
657.074	4725
657.129	5523
657.185	9522
657.241	19208
657.297	12963
657.352	3940
657.408	3015
657.464	2961
657.519	2867
657.575	2457
657.630	4144
657.686	3703
657.742	3217
657.797	2678
657.853	3581
657.908	4187
657.964	2716
658.019	2996
658.075	3976
658.130	3632
658.186	2584
658.241	3494
658.297	2953
658.352	2194
658.407	3084
658.463	2491
658.518	2551
658.573	2724
658.629	2886
658.684	2638
658.739	3196
658.795	2156
658.850	3516
658.905	1900
658.960	3153
659.016	1880
659.071	2811
659.126	2428
659.181	2151
659.236	3823
659.291	3162
659.346	2156
659.401	2853
659.457	3612
659.512	2836
659.567	3876
659.622	2703
659.677	2086
659.732	2254
659.787	2128
659.842	2734
659.897	2667
659.952	3461
660.007	2632
660.061	2633
660.116	1026
660.171	3242
660.226	2464
660.281	3540
660.336	1599
660.391	2856
660.445	1910
660.500	2779
660.555	2719
660.610	2109
660.664	2744
660.719	1733
660.774	3379
660.828	3424
660.883	2912
660.938	3087
660.992	1741
661.047	3435
661.101	2561
661.156	2356
661.211	1448
661.265	2559
661.320	1859
661.374	3307
661.429	1321
661.483	2725
661.538	1533
661.592	1891
661.647	2224
661.701	3077
661.755	2001
661.810	3368
661.864	1539
661.919	2059
661.973	2666
662.027	2639
662.081	1545
662.136	2331
662.190	1721
662.244	3238
662.299	1310
662.353	2732
662.407	2535
662.461	2783
662.515	2141
662.569	2422
662.624	3316
662.678	2293
662.732	1834
662.786	2365
662.840	2569
662.894	3121
662.948	1840
663.002	2063
663.056	2472
663.110	1951
663.164	1982
663.218	2931
663.272	2022
663.326	2636
663.380	1834
663.434	2686
663.488	1707
663.542	3394
663.595	2607
663.649	2496
663.703	2333
663.757	2476
663.811	1551
663.864	2023
663.918	2126
663.972	1808
664.026	1952
664.079	3026
664.133	2337
664.187	2867
664.240	2789
664.294	2366
664.348	2493
664.401	3116
664.455	1889
664.508	2209
664.562	2091
664.615	2999
664.669	2041
664.722	2285
664.776	1961
664.829	1964
664.883	1343
664.936	1892
664.990	2289
665.043	3017
665.097	1752
665.150	2692
665.203	1407
665.257	2549
665.310	2459
665.363	1740
665.417	2153
665.470	2708
665.523	1920
665.576	2336
665.630	1867
665.683	2479
665.736	2591
665.789	2433
665.842	1764
665.895	2307
665.949	2718
666.002	2174
666.055	1772
666.108	3230
666.161	2117
666.214	2007
666.267	2232
666.320	2580
666.373	3100
666.426	2620
666.479	1739
666.532	2376
666.585	2070
666.638	2236
666.691	2082
666.744	2996
666.796	1647
666.849	2358
666.902	2511
666.955	2225
667.008	1859
667.060	2007
667.113	1437
667.166	2357
667.219	1729
667.271	2337
667.324	2601
667.377	2996
667.430	1754
667.482	2348
667.535	1837
667.587	2379
667.640	2411
667.693	2197
667.745	1756
667.798	2398
667.850	1730
667.903	2537
667.955	2457
668.008	2159
668.060	1567
668.113	1861
668.165	2141
668.218	3263
668.270	2862
668.322	2335
668.375	2036
668.427	3047
668.479	1292
668.532	1980
668.584	1559
668.636	1892
668.689	2137
668.741	1696
668.793	1347
668.845	2683
668.898	1689
668.950	2306
669.002	1915
669.054	1822
669.106	1991
669.158	2234
669.211	1508
669.263	1475
669.315	1440
669.367	2275
669.419	1355
669.471	2279
669.523	865
669.575	2376
669.627	675
669.679	1669
669.731	1904
669.783	2355
669.835	925
669.886	2032
669.938	1749
669.990	1411
670.042	1729
670.094	1666
670.146	1306
670.197	1558
670.249	2371
670.301	2774
670.353	2570
670.404	3215
670.456	3234
670.508	4678
670.560	6804
670.611	11614
670.663	19844
670.715	47096
670.766	80892
670.818	23725
670.869	3984
670.921	3135
670.972	3578
671.024	2245
671.075	2164
671.127	2135
671.178	1057
671.230	2124
671.281	1641
671.333	2268
671.384	2121
671.436	3827
671.487	4868
671.538	7491
671.590	13244
671.641	21227
671.692	39065
671.744	80503
671.795	56742
671.846	17689
671.897	7654
671.949	5270
672.000	3546
672.051	3346
672.102	3051
672.153	1886
672.204	1655
672.256	1402
672.307	1962
672.358	2211
672.409	892
672.460	1330
672.511	685
672.562	725
672.613	174
672.664	1105
672.715	1183
672.766	1106
672.817	472
672.868	1398
672.919	1353
672.970	831
673.021	313
673.071	685
673.122	415
673.173	901
673.224	229
673.275	491
673.326	953
673.376	1690
673.427	-144
673.478	1061
673.528	1100
673.579	823
673.630	238
673.680	2198
673.731	238
673.782	1315
673.832	958
673.883	1427
673.934	909
673.984	960
674.035	561
674.085	728
674.136	765
674.186	1265
674.237	636
674.287	1067
674.338	524
674.388	679
674.438	234
674.489	1242
674.539	565
674.589	979
674.640	868
674.690	1682
674.740	-31
674.791	1345
674.841	115
674.891	744
674.942	386
674.992	1130
675.042	358
675.092	861
675.142	-588
675.193	424
675.243	61
675.293	1017
675.343	-732
675.393	783
675.443	1091
675.493	504
675.543	-263
675.593	1079
675.643	504
675.693	1172
675.743	546
675.793	1220
675.843	-452
675.893	402
675.943	811
675.993	504
676.043	495
676.093	1004
676.142	-42
676.192	590
676.242	-124
676.292	181
676.341	118
676.391	542
676.441	400
676.491	-115
676.540	-626
676.590	837
676.640	456
676.689	1029
676.739	-624
676.789	174
676.838	-611
676.888	1027
676.937	100
676.987	393
677.037	185
677.086	-521
677.136	135
677.185	322
677.235	-476
677.284	852
677.333	-492
677.383	-408
677.432	-846
677.482	1093
677.531	-133
677.580	62
677.630	-312
677.679	194
677.728	-273
677.778	874
677.827	-289
677.876	521
677.925	834
677.975	886
678.024	-390
678.073	-225
678.122	-458
678.171	506
678.220	-536
678.269	770
678.319	669
678.368	1094
678.417	528
678.466	915
678.515	304
678.564	126
678.613	-707
678.662	-519
678.711	-265
678.760	588
678.809	-347
678.857	849
678.906	-451
678.955	169
679.004	-232
679.053	-22
679.102	-527
679.151	404
679.199	336
679.248	-231
679.297	-387
679.346	63
679.394	-681
679.443	75
679.492	-292
679.540	815
679.589	-1162
679.638	177
679.686	-144
679.735	-630
679.784	-221
679.832	500
679.881	-288
679.929	211
679.978	-61
680.026	61
680.075	-563
680.123	52
680.172	-408
680.220	-231
680.268	28
680.317	167
680.365	-101
680.414	-46
680.462	-352
680.510	-257
680.559	-413
680.607	-387
680.655	-137
680.703	-138
680.752	-403
680.800	-161
680.848	-652
680.896	-213
680.945	-818
680.993	-39
681.041	-535
681.089	260
681.137	-218
681.185	-566
681.233	183
681.258	-127
681.281	-435
681.329	-139
681.377	-510
681.380	-459
681.425	246
681.473	590
681.502	357
681.521	159
681.569	194
681.617	261
681.624	301
681.665	471
681.713	209
681.745	367
681.761	422
681.809	-396
681.857	686
681.867	573
681.904	138
681.952	102
681.989	-357
682.000	-530
682.048	758
682.096	158
682.111	46
682.143	-202
682.191	-299
682.233	596
682.239	716
682.286	126
682.334	-56
682.354	60
682.382	167
682.430	650
682.476	202
682.477	179
682.525	1089
682.572	227
682.598	436
682.620	630
682.667	460
682.715	1437
682.720	1384
682.763	655
682.810	1139
682.841	603
682.857	321
682.905	719
682.952	137
682.963	354
683.000	1082
683.047	111
683.085	1749
683.095	2190
683.142	1060
683.190	1381
683.206	1186
683.237	695
683.284	1634
683.328	702
683.332	625
683.379	1265
683.426	1436
683.449	934
683.473	398
683.521	1011
683.568	1962
683.571	1923
683.615	1233
683.662	2214
683.693	1203
683.709	601
683.757	1296
683.804	662
683.814	728
683.851	1003
683.898	1772
683.936	1740
683.945	1702
683.992	1080
684.039	1228
684.057	1183
684.086	1177
684.133	1341
684.179	1127
684.180	1109
684.227	1344
684.274	1335
684.300	1411
684.321	1432
684.368	1092
684.415	1693
684.422	1642
684.462	1374
684.509	1359
684.543	1500
684.556	1528
684.603	2479
684.649	1353
684.665	1553
684.696	1919
684.743	2216
684.786	2737
684.790	2773
684.837	1196
684.883	2088
684.908	1864
684.930	1677
684.977	1927
685.023	1665
685.029	1711
685.070	1965
685.117	1673
685.150	2461
685.164	2725
685.210	2282
685.257	2664
685.272	2502
685.303	2203
685.350	2413
685.393	1796
685.396	1737
685.443	2301
685.490	2090
685.514	1898
685.536	1834
685.583	1980
685.629	1917
685.636	1886
685.675	1505
685.722	2802
685.757	2308
685.768	2171
685.815	2226
685.861	1868
685.878	2151
685.908	2550
685.954	2160
686.000	2784
686.000	2793
686.047	2227
686.093	2818
686.121	2441
686.139	2145
686.185	3664
686.232	2701
686.242	2941
686.278	3678
686.324	2523
686.363	2677
686.370	2704
686.416	2272
686.463	2566
686.484	2322
686.509	2190
686.555	3161
686.601	3044
686.606	3075
686.647	3099
686.693	2121
686.727	2580
686.739	2780
686.785	2631
686.831	2755
686.848	2860
686.877	2956
686.923	3441
686.969	3012
686.969	3011
687.015	3712
687.061	3259
687.090	3421
687.107	3424
687.153	3217
687.199	4014
687.211	3798
687.245	3307
687.291	3642
687.332	3314
687.336	3272
687.382	3404
687.428	2982
687.453	3309
687.474	3573
687.520	3602
687.565	3713
687.574	3604
687.611	3233
687.657	3257
687.695	3403
687.702	3461
687.748	3924
687.794	3886
687.816	3887
687.839	3679
687.885	3903
687.931	3758
687.937	3699
687.976	3659
688.022	3871
688.058	3632
688.067	3538
688.113	4160
688.158	3779
688.179	3776
688.204	3884
688.249	4025
688.295	4352
688.300	4359
688.340	4261
688.386	4417
688.421	3931
688.431	3821
688.477	4007
688.522	3966
688.542	4168
688.567	4564
688.613	4743
688.658	4840
688.663	4859
688.703	4661
688.749	4368
688.784	4504
688.794	4570
688.839	4607
688.884	4355
688.905	4590
688.930	4920
688.975	4497
689.020	4125
689.026	4191
689.065	4461
689.110	4262
689.146	3747
689.155	3747
689.201	4700
689.246	4758
689.267	4913
689.291	4819
689.336	5153
689.381	4651
689.388	4551
689.426	4190
689.471	4703
689.509	4380
689.516	4358
689.561	5235
689.606	4707
689.630	4917
689.651	4963
689.696	4874
689.741	4651
689.750	4592
689.785	4709
689.830	5552
689.871	5251
689.875	5189
689.920	4881
689.965	5028
689.992	4966
690.010	5025
690.054	4638
690.099	4802
690.112	4884
690.144	5163
690.189	5224
690.233	5232
690.233	5238
690.278	4714
690.323	4664
690.354	4307
690.367	4375
690.412	4655
690.457	5019
690.474	5044
690.501	4748
690.546	4953
690.590	4561
690.595	4520
690.635	4536
690.680	4330
690.716	4636
690.724	4733
690.769	4788
690.813	5312
690.836	5296
690.857	5553
690.902	6705
690.946	7302
690.957	7468
690.991	8577
691.035	10039
691.077	12131
691.080	12148
691.124	10622
691.168	9426
691.198	8761
691.213	8275
691.257	7199
691.301	5130
691.318	4783
691.346	5199
691.390	4923
691.434	5150
691.439	5139
691.478	5107
691.522	5499
691.559	5554
691.567	5615
691.611	5770
691.655	5978
691.680	6199
691.699	6048
691.743	5698
691.787	5311
691.800	5041
691.831	5077
691.875	5582
691.919	6108
691.921	6106
691.964	5768
692.008	5529
692.041	5233
692.052	5239
692.096	5090
692.139	5453
692.162	5471
692.183	5355
692.227	5018
692.271	4538
692.282	4505
692.315	4661
692.359	4570
692.402	4739
692.403	4753
692.447	4800
692.490	5174
692.523	5188
692.534	5159
692.578	5206
692.622	5071
692.643	5124
692.666	5229
692.709	5148
692.753	5054
692.763	5109
692.797	5356
692.840	5521
692.884	5335
692.884	5345
692.928	5099
692.971	4670
693.004	4799
693.015	4947
693.059	4984
693.102	5326
693.124	5222
693.146	5018
693.189	4927
693.233	4763
693.245	4684
693.276	4889
693.320	5554
693.363	5682
693.365	5683
693.407	5715
693.450	5856
693.485	5577
693.493	5643
693.537	6391
693.580	6750
693.605	7206
693.624	7666
693.667	8559
693.710	9296
693.725	9611
693.753	12098
693.797	15990
693.840	20203
693.845	20546
693.883	18051
693.926	15171
693.966	13177
693.970	12985
694.013	10304
694.056	7888
694.086	6022
694.099	5858
694.142	5878
694.185	5243
694.206	5060
694.229	5290
694.272	5746
694.315	6240
694.326	6290
694.358	6111
694.401	6242
694.444	5816
694.446	5800
694.487	6128
694.530	6238
694.566	6301
694.573	6240
694.616	5703
694.659	5381
694.686	5033
694.702	5109
694.745	5582
694.787	5492
694.806	5756
694.830	5862
694.873	5664
694.916	5443
694.926	5313
694.959	5399
695.002	5958
695.044	6141
695.046	6153
695.087	6527
695.130	6302
695.166	6496
695.172	6542
695.215	6331
695.258	6270
695.286	6062
695.301	6038
695.343	6312
695.386	6313
695.406	6442
695.428	6798
695.471	7234
695.514	7544
695.526	7664
695.556	8094
695.599	8778
695.641	9181
695.646	9208
695.684	8765
695.726	8295
695.766	7967
695.769	7981
695.811	7634
695.854	7474
695.886	7172
695.896	7235
695.938	7773
695.981	7864
696.005	8136
696.023	8432
696.065	8844
696.108	9266
696.125	9475
696.150	9585
696.192	9619
696.235	9647
696.245	9653
696.277	9643
696.319	9450
696.361	9359
696.365	9318
696.404	9567
696.446	9864
696.485	10090
696.488	10092
696.530	9828
696.572	9598
696.604	9245
696.614	9311
696.656	9519
696.698	9773
696.724	9885
696.740	9837
696.783	9834
696.825	9692
696.844	9582
696.867	9470
696.909	9226
696.951	9018
696.964	8900
696.992	8987
697.034	9143
697.076	9247
697.083	9249
697.118	9673
697.160	10131
697.202	10633
697.203	10614
697.244	10347
697.286	10112
697.323	9855
697.327	9895
697.369	10093
697.411	10170
697.442	10258
697.453	10206
697.494	9686
697.536	9411
697.562	9150
697.578	9361
697.620	9838
697.661	10266
697.682	10530
697.703	10795
697.744	11174
697.786	11590
697.801	11682
697.828	11541
697.869	11272
697.911	10974
697.921	10894
697.952	10828
697.994	10596
698.035	10458
698.040	10404
698.077	10787
698.118	11240
698.160	11631
698.160	11600
698.201	11322
698.243	10923
698.279	10603
698.284	10688
698.325	11182
698.367	11696
698.399	12023
698.408	12096
698.449	12315
698.491	12515
698.518	12642
698.532	12733
698.573	12859
698.614	13016
698.638	13066
698.656	12973
698.697	12676
698.738	12383
698.757	12209
698.779	12381
698.820	12635
698.862	12909
698.877	12968
698.903	13100
698.944	13271
698.985	13426
698.996	13437
699.026	13419
699.067	13335
699.116	13203
699.235	13096
699.354	12078
699.474	11202
699.593	11915
699.713	11355
699.832	12404
699.951	12934
700.070	12186
700.190	10803
700.309	11904
700.428	10704
700.547	11089
700.667	11179
700.786	10926
700.905	10267
701.024	10832
701.143	9786
701.262	10746
701.381	11491
701.500	11357
701.619	10140
701.738	11019
701.857	11042
701.976	10179
702.095	10399
702.214	10927
702.333	9329
702.452	11176
702.571	10837
702.690	10729
702.809	10527
702.928	10796
703.047	9762
703.165	10378
703.284	10829
703.403	9510
703.522	9140
703.640	9501
703.759	8230
703.878	9091
703.997	8843
704.115	9667
704.234	8960
704.353	9100
704.471	7849
704.590	8533
704.708	7860
704.827	8031
704.946	8176
705.064	7639
705.183	7632
705.301	9352
705.420	8173
705.538	7997
705.656	7715
705.775	6867
705.893	6685
706.012	8194
706.130	7392
706.249	8682
706.367	6366
706.485	7771
706.604	6992
706.722	7565
706.840	7345
706.958	8025
707.077	6860
707.195	7493
707.313	7074
707.431	6746
707.549	6811
707.668	7103
707.786	7045
707.904	6464
708.022	6388
708.140	7061
708.258	5521
708.376	8092
708.494	5604
708.612	7223
708.730	6583
708.848	6551
708.966	6368
709.084	7467
709.202	6828
709.320	6329
709.438	5762
709.556	6565
709.674	5321
709.791	5254
709.909	5697
710.027	6374
710.145	5382
710.263	6755
710.380	5149
710.498	6089
710.616	5187
710.733	5476
710.851	5583
710.969	5820
711.086	4659
711.204	5164
711.322	5025
711.439	5427
711.557	4587
711.674	5152
711.792	5131
711.909	5741
712.027	4671
712.144	5085
712.262	4952
712.379	5016
712.497	5416
712.614	5037
712.732	5642
712.849	6060
712.966	4885
713.084	6477
713.201	4370
713.318	5469
713.436	5600
713.553	5405
713.670	5031
713.787	5473
713.905	5227
714.022	5054
714.139	5103
714.256	6731
714.373	7676
714.490	13378
714.608	31185
714.725	132544
714.842	168263
714.959	17237
715.076	6465
715.193	6477
715.310	6226
715.427	5074
715.544	4876
715.661	4887
715.778	4050
715.895	4878
716.011	4091
716.128	4629
716.245	5230
716.362	5345
716.479	3368
716.596	4363
716.713	3896
716.829	4938
716.946	3802
717.063	4579
717.180	3744
717.296	3968
717.413	4561
717.530	4546
717.646	3427
717.763	4584
717.880	3699
717.996	3945
718.113	3011
718.229	4051
718.346	3478
718.462	2750
718.579	3006
718.695	3723
718.812	3502
718.928	2878
719.045	3755
719.161	3817
719.277	3177
719.394	4930
719.510	3357
719.626	4331
719.743	3980
719.859	7108
719.975	12578
720.092	45692
720.208	119313
720.324	18537
720.440	4581
720.557	4224
720.673	4055
720.789	4356
720.905	3877
721.021	3155
721.137	3587
721.253	3097
721.369	2132
721.486	3488
721.602	3014
721.718	3293
721.834	3285
721.950	2623
722.066	2418
722.181	3152
722.297	3810
722.413	2787
722.529	2777
722.645	3080
722.761	2779
722.877	3167
722.993	2657
723.108	3841
723.224	3108
723.340	2771
723.456	3129
723.571	3088
723.687	1999
723.803	3004
723.918	2311
724.034	2863
724.150	2345
724.265	2557
724.381	2353
724.497	2825
724.612	2783
724.728	2139
724.843	2211
724.959	2357
725.074	2509
725.190	2898
725.305	2470
725.421	2120
725.536	2869
725.651	2722
725.767	2245
725.882	3044
725.997	1996
726.113	2696
726.228	2100
726.343	3073
726.459	2259
726.574	2408
726.689	2741
726.804	3510
726.920	2742
727.035	2328
727.150	2374
727.265	2350
727.380	1808
727.495	2878
727.610	2278
727.725	2295
727.841	2071
727.956	2681
728.071	2749
728.186	2692
728.301	1483
728.416	3181
728.531	2364
728.645	1863
728.760	2500
728.875	2683
728.990	1573
729.105	2474
729.220	1412
729.335	2563
729.449	2524
729.564	2863
729.679	1680
729.794	3108
729.908	2354
730.023	2298
730.138	2176
730.253	2963
730.367	2349
730.482	2597
730.596	1912
730.711	2469
730.826	3796
730.940	3652
731.055	2562
731.169	3584
731.284	3345
731.398	2661
731.513	3190
731.627	3640
731.742	4313
731.856	4866
731.970	4582
732.085	6035
732.199	6313
732.313	9808
732.428	23699
732.542	81458
732.656	62870
732.771	11543
732.885	7169
732.999	6849
733.113	6905
733.227	7070
733.342	6727
733.456	7408
733.570	7057
733.684	6766
733.798	5515
733.912	6709
734.026	6732
734.140	6339
734.254	6054
734.368	5870
734.482	5714
734.596	6118
734.710	6059
734.824	5974
734.938	5508
735.052	6127
735.166	6288
735.280	6838
735.393	5527
735.507	6197
735.621	4886
735.735	5349
735.849	5064
735.962	5329
736.076	5139
736.190	5517
736.303	5517
736.417	5970
736.531	4662
736.644	6104
736.758	4875
736.872	5342
736.985	4235
737.099	5590
737.212	4607
737.326	5322
737.439	4784
737.553	4008
737.666	4308
737.780	4668
737.893	4478
738.007	4331
738.120	4750
738.233	4636
738.347	3779
738.460	4679
738.573	4616
738.687	3949
738.800	4030
738.913	4355
739.026	3659
739.140	4491
739.253	4081
739.366	4838
739.479	3471
739.592	4701
739.705	4291
739.818	5025
739.932	3292
740.045	4655
740.158	4114
740.271	4660
740.384	3778
740.497	3909
740.610	3808
740.723	3790
740.836	3300
740.949	4875
741.062	4232
741.174	4396
741.287	3511
741.400	3989
741.513	2480
741.626	3629
741.739	3490
741.851	4085
741.964	3594
742.077	4578
742.189	2249
742.302	4198
742.415	3413
742.527	3552
742.640	3909
742.753	3238
742.865	2789
742.978	3857
743.090	3380
743.203	3670
743.316	2793
743.428	3591
743.541	2438
743.653	3618
743.766	3172
743.878	3559
743.990	2712
744.103	3708
744.215	3027
744.327	2839
744.440	3569
744.552	3864
744.664	2550
744.777	3900
744.889	2951
745.001	3593
745.113	3569
745.226	3765
745.338	2813
745.450	4340
745.562	2406
745.674	3095
745.786	3168
745.898	3987
746.010	2512
746.122	2575
746.234	2611
746.347	2789
746.459	2432
746.570	2288
746.682	2422
746.794	3315
746.906	1615
747.018	3397
747.130	3531
747.242	2219
747.354	2475
747.466	3101
747.577	1727
747.689	2624
747.801	3018
747.913	2125
748.024	2611
748.136	3426
748.248	1842
748.359	2735
748.471	2601
748.583	2675
748.694	1648
748.806	2877
748.918	2649
749.029	3079
749.141	2063
749.252	2881
749.364	1067
749.475	2733
749.587	1808
749.698	2670
749.809	2046
749.921	3108
750.032	1952
750.144	2441
750.255	2073
750.366	2626
750.478	2163
750.589	2998
750.700	1479
750.811	2438
750.923	1879
751.034	2347
751.145	2137
751.256	2560
751.367	1640
751.479	1837
751.590	1956
751.701	2374
751.812	1256
751.923	2220
752.034	2259
752.145	2547
752.256	1273
752.367	2622
752.478	2754
752.589	2683
752.700	1867
752.811	1862
752.922	2118
753.032	2093
753.143	1603
753.254	2005
753.365	1793
753.476	2956
753.586	2047
753.697	2143
753.808	1707
753.919	2180
754.029	1744
754.140	1942
754.251	1531
754.361	1864
754.472	2523
754.582	2639
754.693	1901
754.804	2887
754.914	1565
755.025	1504
755.135	2175
755.246	2862
755.356	1295
755.466	2384
755.577	2075
755.687	2903
755.798	1572
755.908	2191
756.018	1636
756.129	2852
756.239	2035
756.349	2391
756.460	1685
756.570	2277
756.680	1379
756.790	2644
756.900	1099
757.011	1904
757.121	1163
757.231	1304
757.341	2840
757.451	2195
757.561	1884
757.671	1801
757.781	1481
757.891	2747
758.001	843
758.111	2600
758.221	2106
758.331	1942
758.441	2323
758.551	1834
758.661	1836
758.771	2899
758.880	1263
758.990	2692
759.100	1632
759.210	1715
759.320	2114
759.429	2507
759.539	1839
759.649	2433
759.758	2270
759.868	2498
759.978	1808
760.087	3119
760.197	2066
760.307	2109
760.416	2350
760.526	2433
760.635	1467
760.745	3487
760.854	1727
760.964	3256
761.073	2280
761.182	2818
761.292	1643
761.401	2710
761.511	1065
761.620	1892
761.729	2988
761.839	3203
761.948	2232
762.057	2475
762.166	2477
762.276	1347
762.385	2845
762.494	2045
762.603	2462
762.712	2195
762.822	1993
762.931	1939
763.040	1148
763.149	1961
763.258	2484
763.367	2763
763.476	2813
763.585	2875
763.694	2483
763.803	2626
763.912	3707
764.021	3807
764.130	2490
764.238	3960
764.347	3022
764.456	4553
764.565	3840
764.674	4221
764.783	4122
764.891	5984
765.000	6109
765.109	7050
765.217	6560
765.326	8763
765.435	9757
765.543	12984
765.652	15339
765.761	19673
765.869	27484
765.978	40841
766.086	63688
766.195	107711
766.303	182526
766.412	221990
766.520	178968
766.629	165709
766.737	103479
766.846	63155
766.954	41890
767.062	30105
767.171	21909
767.279	17646
767.387	14238
767.496	12220
767.604	9936
767.712	9316
767.820	7589
767.928	7898
768.037	6992
768.145	7674
768.253	5836
768.361	6174
768.469	6337
768.577	6999
768.685	6293
768.793	6488
768.901	7009
769.009	8861
769.117	9533
769.225	11971
769.333	17363
769.441	27618
769.549	45224
769.657	89500
769.765	170957
769.873	185281
769.981	148048
770.088	85812
770.196	45075
770.304	29314
770.412	20528
770.519	14945
770.627	11628
770.735	10102
770.842	8221
770.950	7673
771.058	6635
771.165	7489
771.273	5696
771.380	7048
771.488	6477
771.595	7962
771.703	5786
771.810	6289
771.918	5177
772.025	6693
772.133	6693
772.240	6619
772.348	7188
772.455	7249
772.562	5218
772.670	6430
772.777	6146
772.884	5996
772.991	4682
773.099	5696
773.206	3960
773.313	6021
773.420	4461
773.528	4830
773.635	4607
773.742	6305
773.849	3818
773.956	4778
774.063	4528
774.170	5054
774.277	4801
774.384	4357
774.491	4584
774.598	5362
774.705	3539
774.812	4828
774.919	4589
775.026	5302
775.133	4023
775.239	5318
775.346	3698
775.453	3882
775.560	3474
775.667	3929
775.773	2589
775.880	4138
775.987	3478
776.093	4212
776.200	3954
776.307	3431
776.413	3417
776.520	4568
776.627	3733
776.733	2709
776.840	3174
776.946	4895
777.053	3782
777.159	3292
777.266	1739
777.372	3975
777.478	3421
777.585	4513
777.691	3044
777.798	3983
777.904	2984
778.010	3117
778.117	3209
778.223	3986
778.329	3019
778.435	2737
778.542	3332
778.648	3225
778.754	2861
778.860	2678
778.966	2744
779.072	2608
779.178	2866
779.284	2824
779.391	2103
779.497	2684
779.603	4072
779.708	3029
779.815	3913
779.920	9186
780.026	18683
780.132	4630
780.238	2689
780.344	2457
780.450	3496
780.556	2250
780.661	2358
780.767	3058
780.873	2022
780.979	1786
781.085	1858
781.190	2684
781.296	2445
781.402	2555
781.507	2384
781.613	2258
781.719	2303
781.824	3478
781.930	2810
782.035	2196
782.141	2931
782.246	1920
782.352	1404
782.457	2401
782.563	1977
782.668	2576
782.773	1844
782.879	2085
782.984	1637
783.090	2776
783.195	2014
783.300	2206
783.405	1060
783.511	1840
783.616	1525
783.721	2733
783.826	1880
783.932	2359
784.037	1336
784.142	1702
784.247	1576
784.352	1667
784.457	585
784.562	2506
784.667	2350
784.772	1966
784.877	43
784.982	2394
785.087	1787
785.192	1750
785.297	1771
785.402	1580
785.507	859
785.611	2311
785.716	662
785.821	2360
785.926	965
786.031	1457
786.135	1792
786.240	1706
786.345	699
786.450	1722
786.554	1821
786.659	1369
786.763	-221
786.868	2244
786.973	1357
787.077	1139
787.182	491
787.286	2064
787.391	1045
787.495	923
787.600	-223
787.704	1213
787.809	1269
787.913	1202
788.017	918
788.122	1963
788.226	1232
788.330	847
788.435	904
788.539	1759
788.643	-204
788.747	746
788.852	623
788.956	1498
789.060	1707
789.164	1989
789.268	644
789.372	2516
789.476	653
789.580	971
789.684	356
789.788	2426
789.892	1027
789.996	1494
790.100	66
790.204	1155
790.308	1117
790.412	1906
790.516	202
790.620	709
790.724	1559
790.828	1601
790.931	-173
791.035	2442
791.139	-358
791.242	1118
791.346	1353
791.450	1466
791.554	806
791.657	705
791.761	1604
791.864	1383
791.968	136
792.072	945
792.175	294
792.279	1058
792.382	936
792.486	974
792.589	-475
792.693	1738
792.796	205
792.899	1572
793.003	1111
793.106	409
793.209	-166
793.313	1317
793.416	-573
793.519	1639
793.623	713
793.726	910
793.829	-380
793.932	308
794.035	-548
794.138	1519
794.242	1187
794.345	743
794.448	-147
794.551	882
794.654	4471
794.757	9270
794.860	1767
794.963	1178
795.066	781
795.169	1809
795.272	125
795.375	1590
795.477	-250
795.580	906
795.683	-480
795.786	1361
795.889	-290
795.991	979
796.094	471
796.197	-93
796.300	1296
796.402	785
796.505	-691
796.608	865
796.710	-140
796.813	939
796.915	-786
797.018	851
797.120	815
797.223	-821
797.326	1339
797.428	214
797.530	-429
797.633	-67
797.735	331
797.838	113
797.940	232
798.042	245
798.145	-820
798.247	921
798.349	-1150
798.452	1311
798.554	19
798.656	-1174
798.758	946
798.860	691
798.962	177
799.065	194
799.167	-911
799.269	725
799.371	1302
799.473	1059
799.575	-908
799.677	91
799.779	614
799.881	-90
799.983	297
800.085	800
800.187	233
800.289	540
800.390	-471
800.492	229
800.594	931
800.696	73
800.798	106
800.899	356
801.001	135
801.103	432
801.205	73
801.306	364
801.408	-554
801.509	720
801.611	-146
801.713	554
801.814	-583
801.916	-311
802.017	-141
802.119	-804
802.220	-260
802.322	-678
802.423	1353
802.525	-707
802.626	497
802.727	-26
802.829	949
802.930	-1004
803.031	-79
803.133	1001
803.234	-390
803.335	-18
803.436	-271
803.538	333
803.639	-1082
803.740	1187
803.841	-188
803.942	538
804.043	-237
804.144	99
804.245	-563
804.346	23
804.447	-925
804.548	311
804.649	567
804.750	-225
804.851	-671
804.952	-367
805.053	-406
805.154	-627
805.255	143
805.355	-110
805.456	-148
805.557	345
805.658	-1428
805.758	873
805.859	-730
805.960	-306
806.061	-187
806.161	-478
806.262	252
806.362	-605
806.463	497
806.564	-38
806.664	164
806.765	-396
806.865	-756
806.966	54
807.066	-492
807.166	186
807.267	389
807.367	246
807.468	324
807.568	-140
807.668	41
807.769	1054
807.869	574
807.969	693
808.069	-9
808.170	206
808.270	-466
808.370	294
808.470	-272
808.570	-994
808.670	-149
808.770	-116
808.870	-1009
808.970	441
809.070	380
809.170	8
809.271	-326
809.370	-610
809.470	-243
809.570	668
809.670	-722
809.770	431
809.870	-369
809.970	142
810.070	-354
810.169	184
810.269	-1525
810.369	1072
810.469	-85
810.568	301
810.668	372
810.768	-174
810.867	-459
810.967	1090
811.066	-737
811.166	-140
811.265	30
811.365	-465
811.464	-1015
811.564	692
811.663	-457
811.763	-550
811.862	-370
811.962	16
812.061	-785
812.160	-878
812.260	-863
812.359	195
812.458	-623
812.557	220
812.657	-971
812.756	200
812.855	-680
812.954	-811
813.053	228
813.153	-460
813.252	-813
813.351	365
813.450	-440
813.549	-368
813.648	-839
813.747	590
813.846	-456
813.945	-241
814.044	212
814.143	169
814.242	-139
814.341	-130
814.439	-371
814.538	380
814.637	-789
814.736	363
814.835	312
814.933	291
815.032	406
815.131	530
815.229	1352
815.328	4340
815.427	2376
815.525	1977
815.624	2242
815.722	2429
815.821	1454
815.919	2002
816.018	1888
816.116	2330
816.215	1898
816.313	2601
816.412	2606
816.510	3744
816.609	4086
816.707	3685
816.805	1911
816.904	2804
817.002	2800
817.100	3654
817.198	2567
817.296	2720
817.395	2221
817.493	3028
817.591	2208
817.689	3471
817.787	1624
817.885	2631
817.983	2439
818.081	3484
818.179	2729
818.277	6798
818.375	4808
818.473	3143
818.571	2254
818.669	2730
818.767	2795
818.865	3199
818.963	1521
819.061	2548
819.158	1185
819.256	3787
819.354	3615
819.452	9340
819.549	5033
819.647	3381
819.745	2162
819.842	1922
819.940	1958
820.038	1113
820.135	1390
820.233	2032
820.330	1696
820.428	1923
820.525	2232
820.623	2280
820.720	1888
820.818	2622
820.915	1702
821.012	2131
821.110	79
821.207	2917
821.304	1040
821.402	2056
821.499	2849
821.596	1975
821.693	1118
821.791	2350
821.888	1190
821.985	1799
822.082	489
822.179	2065
822.276	3032
822.373	1062
822.470	1035
822.567	2245
822.664	1486
822.761	1452
822.858	1163
822.955	1238
823.052	780
823.149	1401
823.246	1537
823.343	1067
823.440	1391
823.536	2031
823.633	1292
823.730	1759
823.827	1440
823.923	1435
824.020	1505
824.117	1147
824.213	891
824.310	2123
824.407	953
824.503	1725
824.600	1672
824.696	1373
824.793	1474
824.889	1187
824.986	710
825.082	1308
825.179	1058
825.275	2358
825.371	1157
825.468	2195
825.564	-252
825.660	1054
825.757	1239
825.853	1768
825.949	81
826.045	1091
826.142	602
826.238	1509
826.334	1018
826.430	652
826.526	244
826.622	-316
826.718	303
826.814	1606
826.910	1619
827.006	363
827.102	237
827.198	1432
827.294	503
827.390	312
827.486	931
827.582	-37
827.678	-684
827.774	2203
827.869	702
827.965	2012
828.061	47
828.157	684
828.252	1412
828.348	364
828.444	775
828.539	460
828.635	1413
828.731	1268
828.826	-177
828.922	1098
829.017	667
829.113	2074
829.208	-791
829.304	473
829.399	1796
829.495	813
829.590	-225
829.685	-300
829.781	170
829.876	582
829.971	-507
830.066	-148
830.162	30
830.257	1104
830.352	508
830.447	1125
830.543	-431
830.638	-180
830.733	511
830.828	771
830.923	-131
831.018	325
831.113	189
831.208	253
831.303	-1567
831.398	-194
831.493	530
831.588	1606
831.683	-438
831.778	-42
831.873	-863
831.967	1155
832.062	543
832.157	-476
832.252	1032
832.346	-163
832.441	408
832.536	557
832.631	453
832.725	950
832.820	-340
832.914	188
833.009	-1189
833.104	642
833.198	-516
833.293	390
833.387	726
833.482	1191
833.576	-473
833.670	625
833.765	-400
833.859	342
833.954	63
834.048	989
834.142	-801
834.237	-1205
834.331	-701
834.425	1064
834.519	-366
834.613	273
834.708	-148
834.802	-186
834.896	-827
834.990	695
835.084	-635
835.178	-54
835.272	-256
835.366	1171
835.460	152
835.554	445
835.648	-45
835.742	-705
835.836	-429
835.930	-1009
836.024	782
836.117	1233
836.211	-615
836.305	-120
836.399	46
836.493	-511
836.586	1045
836.680	-72
836.774	-798
836.867	838
836.961	-838
837.055	-403
837.148	-1117
837.242	25
837.335	-1185
837.429	916
837.522	-1306
837.616	-15
837.709	-14
837.803	-315
837.896	-82
837.989	902
838.083	-29
838.176	430
838.269	-534
838.363	-84
838.456	-355
838.549	414
838.642	-739
838.735	224
838.829	-817
838.922	-211
839.015	-1294
839.108	-1221
839.201	-385
839.294	347
839.387	-46
839.480	-645
839.573	-123
839.666	-996
839.759	-930
839.852	-841
839.945	-715
840.038	-116
840.131	-386
840.223	-832
840.316	-200
840.409	13
840.502	-941
840.594	552
840.687	-2143
840.780	-197
840.873	-2035
840.965	-238
841.058	-290
841.150	286
841.243	-1638
841.336	-289
841.428	-89
841.521	-1148
841.613	-1768
841.706	574
841.798	-1049
841.890	400
841.983	-1105
842.075	568
842.167	-781
842.260	-769
842.352	-972
842.444	361
842.537	-1031
842.629	-618
842.721	-652
842.813	426
842.905	-1045
842.997	-319
843.090	-429
843.182	-753
843.274	-1578
843.366	-143
843.458	-963
843.550	186
843.642	-853
843.734	217
843.826	-1299
843.918	-120
844.009	-829
844.101	-353
844.193	-505
844.285	-372
844.377	-592
844.469	338
844.560	-922
844.652	-904
844.744	-683
844.835	-847
844.927	-863
845.019	-485
845.110	-197
845.202	-328
845.293	-559
845.385	-804
845.476	-690
845.568	378
845.659	-296
845.751	-814
845.842	-1767
845.934	431
846.025	-518
846.116	-292
846.208	-1093
846.299	-767
846.390	-523
846.482	-737
846.573	-2078
846.664	52
846.755	-1103
846.846	-763
846.937	-1755
847.029	-764
847.120	-1090
847.211	-5
847.302	232
847.393	-507
847.484	-310
847.575	-601
847.666	-746
847.757	-1398
847.847	-1473
847.938	-133
848.029	-560
848.120	-659
848.211	-1110
848.302	-659
848.392	-1725
848.483	-296
848.574	-1169
848.664	-335
848.755	-852
848.846	-205
848.936	-1669
849.027	-485
849.118	7
849.208	-596
849.299	-1088
849.389	141
849.480	461
849.570	2871
849.661	5053
849.751	12522
849.841	4544
849.932	345
850.022	-738
850.112	-96
850.203	-457
850.293	-213
850.383	-854
850.474	-542
850.564	-920
850.654	-528
850.744	-1004
850.834	-970
850.924	-1596
851.014	-25
851.104	-1124
851.194	-1129
851.284	-859
851.374	-1238
851.464	-1267
851.554	-945
851.644	-1932
851.734	583
851.824	-615
851.914	-766
852.004	76
852.094	-742
852.183	-904
852.273	-301
852.363	-818
852.452	-625
852.542	-903
852.632	-1376
852.721	-1220
852.811	-1002
852.901	-478
852.990	-327
853.080	-1134
853.169	-559
853.259	-978
853.348	20
853.438	-792
853.527	80
853.617	-642
853.706	1468
853.795	3154
853.885	8044
853.974	15401
854.063	27983
854.152	43764
854.242	20235
854.331	3578
854.420	747
854.509	-226
854.598	934
854.687	-1163
854.777	-317
854.866	-944
854.955	155
855.044	-1436
855.133	-885
855.222	-955
855.311	-1200
855.400	-441
855.488	-370
855.577	-1664
855.666	-760
855.755	-702
855.844	-424
855.933	-907
856.021	-799
856.110	-528
856.199	-892
856.288	-1147
856.376	-1227
856.465	-2007
856.554	-356
856.642	-926
856.731	-279
856.819	-1070
856.908	-312
856.996	-769
857.085	-673
857.173	-1386
857.262	-588
857.350	-1684
857.438	-543
857.527	-1294
857.615	-83
857.703	-858
857.792	-528
857.880	-1301
857.968	-755
858.056	-756
858.145	-809
858.233	-1092
858.321	-901
858.409	-699
858.497	-1071
858.585	-937
858.673	-402
858.761	-1256
858.849	-1154
858.937	-932
859.025	-741
859.113	-388
859.201	-769
859.289	-279
859.377	-349
859.465	-1268
859.552	-601
859.640	-1347
859.728	-236
859.816	-1516
859.903	-613
859.991	-1130
860.079	-596
860.166	-731
860.254	-1547
860.342	-868
860.429	-1065
860.517	-1528
860.604	-179
860.692	-1563
860.779	-349
860.867	-1314
860.954	-1289
861.042	-1254
861.129	-479
861.216	-1180
861.304	-1095
861.391	-983
861.478	-996
861.565	-692
861.653	768
861.740	-1719
861.827	-1046
861.914	-1230
862.001	-714
862.089	-728
862.176	-667
862.263	-1438
862.350	-374
862.437	-1533
862.524	-905
862.611	-1200
862.698	-589
862.785	-365
862.871	150
862.958	-1929
863.045	-579
863.132	-1161
863.219	365
863.306	-1404
863.392	-312
863.479	-761
863.566	-555
863.652	-219
863.739	-594
863.826	-1268
863.912	-919
863.999	-1222
864.086	-391
864.172	-1048
864.259	426
864.345	-1250
864.432	-537
864.518	-312
864.604	-316
864.691	-1070
864.777	-550
864.863	124
864.950	1546
865.036	515
865.122	4040
865.209	3283
865.295	2961
865.381	2892
865.467	2563
865.553	2451
865.639	3523
865.726	3331
865.812	6062
865.898	10280
865.984	15757
866.070	24593
866.156	30342
866.242	10219
866.328	4723
866.414	1986
866.499	1840
866.585	329
866.671	2332
866.757	2116
866.843	3242
866.928	1803
867.014	1806
867.100	2313
867.186	1944
867.271	1620
867.357	2692
867.442	1380
867.528	1661
867.614	1048
867.699	2041
867.785	2445
867.870	1884
867.956	1423
868.041	2566
868.127	362
868.212	1760
868.297	1780
868.383	1599
868.468	2122
868.553	2928
868.639	2050
868.724	1191
868.809	1391
868.894	2044
868.979	1405
869.065	2369
869.150	410
869.235	1309
869.320	1606
869.405	1431
869.490	1324
869.575	1345
869.660	532
869.745	1562
869.830	1642
869.915	929
870.000	1100
870.085	1345
870.169	1062
870.254	2185
870.339	498
870.424	302
870.509	1267
870.593	1531
870.678	1417
870.763	1568
870.847	630
870.932	930
871.016	1400
871.101	862
871.186	671
871.270	2433
871.355	149
871.439	1253
871.523	831
871.608	842
871.692	145
871.777	1717
871.861	1352
871.945	337
872.030	1099
872.114	1591
872.198	1605
872.282	916
872.367	264
872.451	269
872.535	743
872.619	523
872.703	-103
872.787	1719
872.871	632
872.955	746
873.039	-871
873.123	811
873.207	599
873.291	930
873.375	66
873.459	1483
873.543	18
873.627	508
873.711	244
873.794	1310
873.878	338
873.962	-317
874.045	-372
874.129	609
874.137	583
874.213	320
874.245	545
874.296	912
874.352	187
874.380	-171
874.460	937
874.464	982
874.547	-765
874.568	-285
874.631	1116
874.676	413
874.714	-167
874.784	534
874.798	665
874.881	1175
874.892	1081
874.965	462
874.999	357
875.048	227
875.107	820
875.131	1033
875.215	-17
875.215	-17
875.298	-168
875.323	-129
875.381	-15
875.430	479
875.465	826
875.538	664
875.548	633
875.631	144
875.646	-38
875.714	-874
875.753	-243
875.798	492
875.861	461
875.881	452
875.964	888
875.968	849
876.047	74
876.076	243
876.130	622
876.183	103
876.213	-213
876.291	747
876.296	815
876.379	655
876.398	653
876.462	553
876.506	85
876.545	-238
876.613	475
876.628	600
876.711	-3
876.721	57
876.794	591
876.828	615
876.877	532
876.935	254
876.960	232
877.043	-199
877.043	-196
877.125	514
877.150	626
877.208	882
877.258	492
877.291	189
877.365	-821
877.374	-943
877.456	-9
877.472	-284
877.539	-1151
877.579	-416
877.622	259
877.687	266
877.704	265
877.787	285
877.794	308
877.869	619
877.901	622
877.952	491
878.008	40
878.034	-128
878.115	291
878.117	300
878.199	-355
878.222	-102
878.282	668
878.329	933
878.364	1065
878.437	838
878.447	778
878.529	304
878.544	282
878.611	457
878.651	285
878.694	72
878.758	743
878.776	888
878.858	-396
878.865	-341
878.941	524
878.972	414
879.023	194
879.078	243
879.105	338
879.185	347
879.187	346
879.269	345
879.292	305
879.351	242
879.399	388
879.433	286
879.506	-305
879.516	-320
879.598	407
879.613	267
879.680	-359
879.720	262
879.762	871
879.827	226
879.844	19
879.926	651
879.933	607
880.007	461
880.040	344
880.089	-42
880.147	68
880.171	349
880.253	1090
880.254	1091
880.335	1067
880.360	1175
880.417	1685
880.467	2560
880.499	3239
880.574	4251
880.580	4232
880.662	1761
880.680	1516
880.744	900
880.787	315
880.825	9
880.893	60
880.907	54
880.989	226
881.000	249
881.070	658
881.106	494
881.152	169
881.213	339
881.233	401
881.315	-9
881.319	39
881.396	1096
881.426	1020
881.478	637
881.532	605
881.559	696
881.639	202
881.641	185
881.722	466
881.745	370
881.803	407
881.852	615
881.885	679
881.958	180
881.966	122
882.047	238
882.064	236
882.129	483
882.171	287
882.210	-169
882.277	-373
882.291	-246
882.372	512
882.383	592
882.454	686
882.489	924
882.535	1108
882.596	507
882.616	388
882.697	846
882.702	823
882.778	283
882.808	413
882.859	586
882.914	174
882.940	134
883.020	561
883.021	566
883.102	515
883.127	631
883.183	1384
883.233	1513
883.264	974
883.339	343
883.345	371
883.426	-251
883.445	-226
883.507	-41
883.551	216
883.587	308
883.657	345
883.668	403
883.749	786
883.763	801
883.830	351
883.869	43
883.910	61
883.975	479
883.991	514
884.072	263
884.081	261
884.152	313
884.187	329
884.233	821
884.292	1331
884.314	1104
884.394	-197
884.398	-230
884.475	-12
884.504	-84
884.555	195
884.610	811
884.636	826
884.716	518
884.716	524
884.797	1040
884.821	1104
884.877	667
884.927	496
884.958	644
885.033	365
885.038	322
885.118	113
885.139	38
885.199	242
885.244	370
885.279	485
885.350	575
885.359	551
885.439	848
885.456	688
885.520	-98
885.561	-132
885.600	75
885.667	332
885.680	425
885.760	837
885.773	866
885.840	77
885.878	-220
885.920	-172
885.984	-321
886.000	-259
886.080	353
886.089	397
886.160	713
886.195	860
886.240	584
886.300	178
886.320	246
886.400	678
886.406	684
886.480	122
886.511	44
886.560	270
886.616	197
886.640	230
886.720	539
886.722	543
886.800	339
886.827	237
886.879	504
886.932	685
886.959	673
887.038	786
887.039	787
887.119	408
887.143	282
887.198	531
887.248	727
887.278	697
887.354	696
887.358	689
887.437	403
887.459	356
887.517	789
887.564	899
887.596	679
887.669	516
887.676	543
887.755	720
887.774	725
887.835	682
887.880	787
887.914	549
887.985	-166
887.994	-52
888.073	1099
888.090	1340
888.153	1372
888.195	1257
888.232	827
888.300	168
888.311	267
888.391	872
888.405	992
888.470	718
888.510	490
888.549	713
888.615	1214
888.628	1246
888.708	1288
888.720	1294
888.787	1281
888.825	1228
888.866	546
888.930	-462
888.945	-220
889.024	1071
889.035	1240
889.103	614
889.140	225
889.182	506
889.245	999
889.261	884
889.340	267
889.349	199
889.419	902
889.454	1226
889.498	1159
889.559	1073
889.577	969
889.656	499
889.664	453
889.735	851
889.768	1036
889.814	633
889.873	100
889.978	660
890.083	884
890.187	1203
890.292	507
890.397	1124
890.501	401
890.606	120
890.710	1085
890.815	1032
890.919	1091
891.024	925
891.128	487
891.233	109
891.337	636
891.442	454
891.546	127
891.650	698
891.755	362
891.859	2442
891.963	799
892.068	475
892.172	722
892.276	-451
892.380	836
892.484	708
892.589	850
892.693	685
892.797	549
892.901	150
893.005	936
893.109	772
893.213	736
893.317	1143
893.421	266
893.525	127
893.629	-574
893.733	826
893.837	523
893.941	1593
894.045	521
894.148	290
894.252	-40
894.356	1110
894.460	747
894.564	511
894.667	638
894.771	253
894.875	-266
894.978	-372
895.082	-192
895.186	875
895.289	594
895.393	1072
895.496	469
895.600	796
895.703	-25
895.807	108
895.910	322
896.014	563
896.117	463
896.221	-170
896.324	456
896.427	726
896.531	-122
896.634	-668
896.737	618
896.840	278
896.944	567
897.047	723
897.150	590
897.253	13
897.356	1362
897.460	232
897.563	257
897.666	917
897.769	-367
897.872	53
897.975	-770
898.078	708
898.181	-55
898.284	169
898.387	582
898.490	829
898.593	-94
898.695	36
898.798	613
898.901	419
899.004	675
899.107	-17
899.209	298
899.312	730
899.415	81
899.518	157
899.620	-622
899.723	-363
899.826	329
899.928	980
900.031	-258
900.133	493
900.236	-120
900.338	454
900.441	599
900.543	558
900.646	-607
900.748	169
900.851	548
900.953	315
901.055	-229
901.158	-22
901.260	200
901.362	23
901.465	-148
901.567	316
901.669	103
901.771	446
901.873	-161
901.976	235
902.078	-309
902.180	345
902.282	130
902.384	-75
902.486	291
902.588	793
902.690	49
902.792	-127
902.894	214
902.996	125
903.098	465
903.200	-279
903.302	-259
903.404	-365
903.505	-96
903.607	933
903.709	-17
903.811	609
903.913	245
904.014	23
904.116	98
904.218	113
904.319	104
904.421	-83
904.523	320
904.624	759
904.726	-227
904.827	-874
904.929	-375
905.030	-343
905.132	-128
905.233	511
905.335	59
905.436	814
905.537	287
905.639	-59
905.740	508
905.841	307
905.943	333
906.044	-872
906.145	63
906.247	345
906.348	254
906.449	-493
906.550	-92
906.651	480
906.752	-192
906.854	-672
906.955	-329
907.056	-577
907.157	-35
907.258	-11
907.359	-9
907.460	53
907.561	-283
907.662	37
907.762	615
907.863	513
907.964	575
908.065	389
908.166	-25
908.267	833
908.367	-623
908.468	-475
908.569	-89
908.670	323
908.770	72
908.871	-53
908.971	-38
909.072	543
909.173	-754
909.273	820
909.374	-168
909.474	65
909.575	-515
909.675	-291
909.776	63
909.876	229
909.977	-441
910.077	-59
910.177	-431
910.278	305
910.378	-903
910.478	373
910.579	367
910.679	217
910.779	111
910.879	427
910.980	-908
911.080	285
911.180	-162
911.280	288
911.380	-184
911.480	-495
911.580	224
911.680	-146
911.780	-400
911.880	696
911.980	-769
912.080	-535
912.180	-357
912.280	663
912.380	223
912.480	111
912.580	717
912.679	-373
912.779	617
912.879	63
912.979	305
913.078	-57
913.178	-324
913.278	155
913.377	-54
913.477	405
913.577	-150
913.676	574
913.776	417
913.875	489
913.975	390
914.074	237
914.174	-62
914.273	96
914.373	556
914.472	-59
914.572	-783
914.671	-217
914.770	65
914.870	25
914.969	73
915.068	-585
915.167	-437
915.267	-201
915.366	-570
915.465	199
915.564	112
915.663	-298
915.763	-240
915.862	311
915.961	105
916.060	510
916.159	-275
916.258	-347
916.357	190
916.456	213
916.555	732
916.654	82
916.752	-172
916.851	-452
916.950	645
917.049	-357
917.148	711
917.247	217
917.345	-573
917.444	195
917.543	30
917.642	-135
917.740	-444
917.839	769
917.937	-536
918.036	398
918.135	-6
918.233	327
918.332	-335
918.430	-651
918.529	241
918.627	123
918.726	398
918.824	547
918.923	-82
919.021	-147
919.119	-542
919.218	288
919.316	-426
919.414	-55
919.512	-35
919.611	447
919.709	204
919.807	741
919.905	398
920.003	588
920.102	422
920.200	763
920.298	236
920.396	524
920.494	566
920.592	-12
920.690	449
920.788	81
920.886	268
920.984	1165
921.082	746
921.180	1038
921.277	798
921.375	-285
921.473	1128
921.571	922
921.669	1168
921.766	388
921.864	1240
921.962	1433
922.060	756
922.157	1197
922.255	732
922.352	598
922.450	2019
922.548	975
922.645	1492
922.743	2775
922.840	3798
922.938	4872
923.035	4129
923.133	3517
923.230	3612
923.327	5725
923.425	5630
923.522	5048
923.619	4413
923.717	4049
923.814	4338
923.911	3745
924.008	4653
924.106	3476
924.203	3229
924.300	4124
924.397	3898
924.494	4861
924.591	3625
924.688	4318
924.786	3243
924.883	3961
924.979	3780
925.077	4969
925.173	4025
925.270	3980
925.367	3689
925.464	3735
925.561	4576
925.658	4213
925.755	3637
925.852	4190
925.948	3651
926.045	3839
926.142	3787
926.239	3843
926.335	2921
926.432	3556
926.529	3145
926.625	4191
926.722	3218
926.818	3447
926.915	3427
927.011	3447
927.108	3427
927.204	3325
927.301	3077
927.397	2999
927.494	3775
927.590	3429
927.687	2467
927.783	4483
927.879	4101
927.976	3949
928.072	1519
928.168	2779
928.264	2982
928.361	3675
928.457	3663
928.553	2918
928.649	2819
928.745	4093
928.841	3171
928.937	3045
929.033	3085
929.129	2474
929.225	2861
929.321	4011
929.417	1513
929.513	2715
929.609	2515
929.705	1965
929.801	2633
929.897	2105
929.993	2081
930.089	2517
930.184	2067
930.280	1673
930.376	2854
930.471	2831
930.567	2317
930.663	2377
930.758	2225
930.854	2089
930.950	2928
931.045	1569
931.141	2735
931.236	2924
931.332	2925
931.427	1877
931.523	3160
931.618	2709
931.714	1653
931.809	1521
931.905	2815
932.000	1899
932.095	1265
932.191	2473
932.286	2939
932.381	2717
932.476	2312
932.572	1743
932.667	2195
932.762	2458
932.857	2455
932.952	2097
933.047	3398
933.142	1901
933.237	1779
933.332	2349
933.427	2203
933.522	2071
933.617	2005
933.712	2657
933.807	2321
933.902	2752
933.997	2617
934.092	1777
934.187	2111
934.282	3013
934.376	1655
934.471	3369
934.566	1484
934.661	1449
934.755	2007
934.850	2009
934.945	2759
935.039	835
935.134	1185
935.228	1191
935.323	3081
935.417	2246
935.512	1099
935.606	1121
935.701	1127
935.795	2269
935.890	1921
935.984	1334
936.079	685
936.173	2503
936.267	1252
936.362	473
936.456	1463
936.550	2811
936.644	2340
936.738	1095
936.833	1213
936.927	1306
937.021	1203
937.115	2477
937.209	1747
937.303	1197
937.397	1107
937.491	1824
937.585	2447
937.679	2513
937.773	1906
937.867	1503
937.961	621
938.055	2102
938.149	1785
938.243	1279
938.337	933
938.430	425
938.524	2461
938.618	1258
938.712	1192
938.805	921
938.899	1071
938.993	1931
939.086	793
939.180	-23
939.274	658
939.367	935
939.461	1413
939.554	1162
939.648	1347
939.741	867
939.835	1845
939.928	2061
940.022	2383
940.115	717
940.208	1813
940.302	2067
940.395	1884
940.488	987
940.582	1699
940.675	382
940.768	990
940.861	1771
940.954	2342
941.048	110
941.141	247
941.234	701
941.327	1272
941.420	1303
941.513	1823
941.606	779
941.699	713
941.792	2259
941.885	1022
941.978	655
942.071	1559
942.164	493
942.257	975
942.349	1099
942.442	1330
942.535	293
942.628	635
942.721	1193
942.813	220
942.906	1573
942.999	1135
943.091	-111
943.184	709
943.277	480
943.369	717
943.462	-391
943.554	733
943.647	74
943.739	1597
943.832	1941
943.924	-202
944.017	53
944.109	259
944.201	1120
944.294	925
944.386	573
944.478	1024
944.571	79
944.663	799
944.755	864
944.847	1296
944.940	1439
945.032	-919
945.124	-700
945.216	1241
945.308	846
945.400	1511
945.492	1029
945.584	496
945.676	1478
945.768	621
945.860	775
945.952	289
946.044	907
946.136	-821
946.228	111
946.320	297
946.412	1289
946.503	295
946.595	1055
946.687	-221
946.779	-201
946.870	82
946.962	493
947.054	24
947.145	985
947.237	519
947.329	-56
947.420	370
947.512	365
947.603	-179
947.695	616
947.786	-363
947.878	-796
947.969	544
948.061	-185
948.152	-313
948.243	19
948.335	-663
948.426	511
948.517	99
948.609	3
948.700	503
948.791	249
948.882	-1222
948.973	281
949.065	82
949.156	580
949.247	-53
949.338	375
949.429	-564
949.520	227
949.611	140
949.702	291
949.793	-171
949.884	-294
949.975	717
950.066	-1425
950.157	-436
950.247	56
950.338	-657
950.429	-535
950.520	-553
950.611	-199
950.701	-641
950.792	567
950.883	788
950.973	261
951.064	-306
951.155	169
951.245	551
951.336	148
951.427	177
951.517	825
951.608	322
951.698	-56
951.788	-237
951.879	-1075
951.969	-83
952.060	-195
952.150	-281
952.240	674
952.331	189
952.421	1842
952.511	-474
952.602	-295
952.692	71
952.782	-1043
952.872	-90
952.962	99
953.052	-826
953.143	-246
953.233	621
953.323	191
953.413	-725
953.503	557
953.593	-201
953.683	-538
953.773	-107
953.863	-394
953.953	-336
954.042	227
954.132	225
954.222	380
954.312	361
954.402	78
954.492	-5
954.581	-215
954.671	38
954.761	-1102
954.850	86
954.940	-289
955.030	-1078
955.119	-527
955.209	-653
955.298	-652
955.388	-74
955.477	29
955.567	-1027
955.656	-204
955.746	-493
955.835	-128
955.925	-467
956.014	-147
956.103	-454
956.193	897
956.282	-135
956.371	-322
956.461	-1026
956.550	-635
956.639	-263
956.728	-668
956.817	-738
956.906	-476
956.995	129
957.085	-162
957.174	-369
957.263	-419
957.352	-904
957.441	-377
957.530	-574
957.619	175
957.708	-587
957.796	-1068
957.885	-832
957.974	-707
958.063	401
958.152	-251
958.241	-381
958.329	-543
958.418	-570
958.507	-273
958.596	512
958.684	-509
958.773	166
958.861	-446
958.950	-350
959.039	-317
959.127	-980
959.216	-399
959.304	-347
959.393	-487
959.481	-164
959.570	-492
959.658	-87
959.746	-787
959.835	-406
959.923	427
960.011	-942
960.100	496
960.188	-69
960.276	-73
960.365	-122
960.453	215
960.541	-1052
960.629	-54
960.717	-476
960.805	-1221
960.893	-300
960.981	-488
961.069	-381
961.158	164
961.245	-21
961.333	-142
961.421	-946
961.509	-194
961.597	-127
961.685	-666
961.773	-1063
961.861	-41
961.949	300
962.036	-669
962.124	-65
962.212	-370
962.299	-795
962.387	-473
962.475	-1094
962.562	-1039
962.650	532
962.738	-626
962.825	-1171
962.913	-507
963.000	-339
963.088	-75
963.175	-628
963.263	422
963.350	-473
963.438	-682
963.525	-1170
963.612	-185
963.700	-692
963.787	389
963.874	5
963.962	-219
964.049	-1059
964.136	-731
964.223	-1351
964.310	-609
964.398	-881
964.485	-663
964.572	-434
964.659	-497
964.746	-893
964.833	-622
964.920	-848
965.007	-903
965.094	-1378
965.181	-924
965.268	-561
965.355	117
965.441	-761
965.528	-1219
965.615	-245
965.702	-668
965.789	-801
965.875	-544
965.962	-673
966.049	-421
966.136	-1
966.222	-523
966.309	-269
966.395	-477
966.482	-168
966.569	-347
966.655	-1043
966.742	-775
966.828	-742
966.915	-511
967.001	-11
967.087	-1161
967.174	-439
967.260	-494
967.347	-796
967.433	-383
967.519	-227
967.605	-932
967.692	-265
967.778	-316
967.864	-586
967.950	-543
968.036	-782
968.123	-401
968.209	-779
968.295	-807
968.381	244
968.467	-37
968.553	-1739
968.639	-662
968.725	-1104
968.811	-259
968.897	-7
968.983	-156
969.069	-1909
969.154	-104
969.240	-714
969.326	-237
969.412	-1204
969.497	-303
969.583	-1159
969.669	606
969.755	37
969.840	-829
969.926	-243
970.012	254
970.097	-61
970.183	-440
970.268	-1026
970.354	-525
970.439	-1151
970.525	295
970.610	-1908
970.696	43
970.781	-1030
970.866	-787
970.952	321
971.037	-988
971.122	-923
971.208	-189
971.293	-427
971.378	-1708
971.463	-631
971.549	-869
971.634	-1165
971.719	-399
971.804	-584
971.889	-718
971.974	-869
972.059	-548
972.144	-297
972.229	-921
972.314	-1090
972.399	212
972.484	-962
972.569	-1059
972.654	-1260
972.739	-482
972.824	-533
972.908	-73
972.993	-1437
973.078	-1311
973.163	52
973.247	-60
973.332	-2189
973.417	-55
973.501	-984
973.586	-1025
973.671	-390
973.755	-64
973.840	-363
973.924	-389
974.009	62
974.093	-299
974.178	-333
974.262	-404
974.346	-120
974.431	-646
974.515	-841
974.600	-653
974.684	-381
974.768	-988
974.852	-156
974.937	-857
975.021	262
975.105	-140
975.189	53
975.273	-488
975.358	-307
975.442	-707
975.526	-240
975.610	-1091
975.694	-1421
975.778	468
975.862	-867
975.946	-1813
976.030	719
976.114	-337
976.198	-956
976.281	-624
976.365	-296
976.449	-436
976.533	-46
976.617	-354
976.700	-784
976.784	-1025
976.868	-857
976.951	-531
977.035	-55
977.119	-903
977.202	-68
977.286	-95
977.369	-635
977.453	25
977.536	-35
977.620	-25
977.703	-273
977.787	-1041
977.870	116
977.953	191
978.037	-980
978.120	-496
978.203	-872
978.287	179
978.370	-709
978.453	-865
978.536	-921
978.620	-712
978.703	-558
978.786	-318
978.869	-887
978.952	-1155
979.035	434
979.118	-1009
979.201	-917
979.284	-6
979.367	-1005
979.450	-171
979.533	-1073
979.616	-519
979.699	-306
979.782	-383
979.865	-304
979.948	-571
980.030	-1244
980.113	-372
980.196	-1402
980.279	726
980.361	-677
980.444	-694
980.526	-624
980.609	-100
980.692	138
980.774	486
980.857	-537
980.939	45
981.022	-623
981.104	-763
981.187	-1181
981.269	-527
981.352	-72
981.434	-1245
981.516	-542
981.599	573
981.681	-38
981.763	-608
981.846	-292
981.928	-1205
982.010	-1196
982.092	-1105
982.174	-66
982.256	-415
982.339	-497
982.421	392
982.503	123
982.585	-1501
982.667	-444
982.749	-722
982.831	-352
982.913	-961
982.995	-497
983.077	-725
983.158	412
983.240	-951
983.322	-612
983.404	738
983.486	-432
983.568	625
983.649	194
983.731	226
983.813	-229
983.894	524
983.976	238
984.058	-774
984.139	-525
984.221	-965
984.302	267
984.384	-57
984.465	-177
984.547	-216
984.628	-586
984.710	-72
984.791	-350
984.872	-364
984.954	-450
985.035	247
985.116	-402
985.198	-389
985.279	-472
985.360	-232
985.441	489
985.522	77
985.604	-329
985.685	-945
985.766	369
985.847	180
985.928	-212
986.009	-368
986.090	-1098
986.171	-97
986.252	-441
986.333	184
986.414	-320
986.495	-630
986.576	11
986.656	-481
986.737	863
986.818	314
986.899	-845
986.980	312
987.060	34
987.141	-225
987.222	1147
987.302	112
987.383	374
987.464	-25
987.544	19
987.625	190
987.705	1094
987.786	638
987.866	1141
987.947	210
988.027	134
988.108	291
988.188	1122
988.268	320
988.349	-126
988.429	70
988.509	-652
988.589	-24
988.670	-1409
988.750	768
988.830	-733
988.910	73
988.990	-488
989.070	519
989.151	26
989.231	369
989.311	646
989.391	713
989.471	516
989.551	-1088
989.631	-376
989.711	1091
989.791	97
989.870	-373
989.950	1197
990.030	-221
990.110	-78
990.190	-431
990.269	-175
990.349	-783
990.429	178
990.509	257
990.588	-1292
990.668	-159
990.747	-853
990.827	-129
990.907	-450
990.986	-834
991.066	-64
991.145	472
991.225	-206
991.304	-701
991.383	386
991.463	-298
991.542	-858
991.622	-764
991.701	-713
991.780	-17
991.859	-386
991.939	65
992.018	-667
992.097	-486
992.176	-864
992.256	-1113
992.335	-1264
992.414	188
992.493	-225
992.572	-698
992.651	22
992.730	-290
992.809	-1034
992.888	-1131
992.967	-591
993.046	-48
993.125	-1635
993.203	-1085
993.282	-8
993.361	-1077
993.440	-938
993.519	-486
993.597	-483
993.676	-1355
993.755	307
993.834	71
993.912	-1464
993.991	3
994.069	-1419
994.148	-607
994.226	-1069
994.305	-119
994.384	-1845
994.462	158
994.540	-1491
994.619	-1128
994.697	-974
994.776	-1193
994.854	-457
994.932	-1105
995.011	-41
995.089	-453
995.167	-538
995.245	-399
995.324	-1065
995.402	-462
995.480	-2160
995.558	-1013
995.636	-1898
995.714	-1587
995.792	-493
995.870	-776
995.948	-1311
996.026	-311
996.104	-1463
996.182	374
996.260	-1981
996.338	-1674
996.416	-1157
996.494	-1109
996.572	-930
996.649	-1192
996.727	-1317
996.805	-487
996.883	-1080
996.960	-1351
997.038	-1225
997.116	-941
997.193	-1932
997.271	-397
997.348	-1393
997.426	-588
997.504	-1163
997.581	-465
997.658	-653
997.736	-2231
997.813	-2220
997.891	-1288
997.968	-793
998.046	-874
998.123	-2074
998.200	-1367
998.277	-1349
998.355	-26
998.432	-2437
998.509	-992
998.586	-627
998.663	-731
998.741	-785
998.818	-2098
998.895	-1950
998.972	-1121
999.049	-1821
999.126	-1381
999.203	-1097
999.280	-1827
999.357	-2186
999.434	-1509
999.511	-874
999.587	-696
999.664	-1207
999.741	-921
999.818	-715
999.895	-1655
999.971	-1202
1000.048	-1063
1000.125	-711
1000.202	-1816
1000.278	-1012
1000.355	-1041
1000.431	-720
1000.508	-1432
1000.584	-1938
1000.661	-1179
1000.738	-1706
1000.814	-2500
1000.890	-1145
1000.967	-1267
1001.043	-946
1001.120	-2247
1001.196	-1290
1001.272	-1375
1001.349	-1183
1001.425	-1074
1001.501	-1362
1001.577	-1633
1001.654	-1166
1001.730	-1197
1001.806	-1093
1001.882	-1963
1001.958	-1746
1002.034	-1989
1002.110	-1685
1002.186	-1109
1002.262	-898
1002.338	-2574
1002.414	-1117
1002.490	-1095
1002.566	-1331
1002.642	-1656
1002.718	-1101
1002.794	-1525
1002.870	-900
1002.945	-1736
1003.021	-1285
1003.097	-1521
1003.173	-1616
1003.248	-1661
1003.324	-1377
1003.400	-1230
1003.475	-1911
1003.551	-1362
1003.626	-1516
1003.702	-1389
1003.777	-1701
1003.853	-1488
1003.928	-1614
1004.004	-1996
1004.079	-1601
1004.155	-1518
1004.230	-2344
1004.305	-376
1004.381	-727
1004.456	-1453
1004.531	-1705
1004.607	-1070
1004.682	-1881
1004.757	-1268
1004.832	-1885
1004.907	-1125
1004.982	-957
1005.057	-1141
1005.133	-1963
1005.208	-1852
1005.283	-1429
1005.358	-269
1005.433	-1964
1005.508	-1741
1005.583	-2668
1005.657	-1600
1005.732	-1306
1005.807	-2157
1005.882	-1067
1005.957	-1738
1006.032	-1722
1006.106	-1560
1006.181	-1252
1006.256	-1524
1006.331	-1643
1006.405	-2474
1006.480	-1250
1006.554	-1753
1006.629	-1190
1006.704	-1319
1006.778	-1127
1006.853	-1402
1006.927	-2265
1007.002	-1685
1007.076	-1625
1007.150	-1573
1007.225	-1610
1007.299	-1493
1007.373	-2626
1007.448	-1394
1007.522	-610
1007.596	-1713
1007.671	-1504
1007.745	-1150
1007.819	-1709
1007.893	-1227
1007.967	-1582
1008.041	-2429
1008.115	-1491
1008.190	-1757
1008.264	-2151
1008.338	-1946
1008.412	-1139
1008.486	-1765
1008.560	-2091
1008.633	-2379
1008.707	-1582
1008.781	-1881
1008.855	-1894
1008.929	-1571
1009.003	-1354
1009.076	-2019
1009.150	-2374
1009.224	-1272
1009.298	-1759
1009.371	-1725
1009.445	-997
1009.519	-1056
1009.592	-2205
1009.666	-943
1009.739	-1039
1009.813	-2300
1009.886	-1175
1009.960	-1820
1010.033	-845
1010.107	-1241
1010.180	-2078
1010.253	-1859
1010.327	-2498
1010.400	-1553
1010.473	-2622
1010.547	-560
1010.620	-1352
1010.693	-1568
1010.766	-1574
1010.840	-1741
1010.913	-1637
1010.986	-2024
1011.059	-2030
1011.132	-2172
1011.205	-1037
1011.278	-1413
1011.351	-1928
1011.424	-1660
1011.497	-2013
1011.570	-1254
1011.643	-1420
1011.716	-2305
1011.789	-1425
1011.862	-995
1011.934	-1094
1012.007	-2220
1012.080	-1370
1012.153	-733
1012.225	-2130
1012.298	-935
1012.371	-1577
1012.443	-968
1012.516	-2402
1012.588	-1125
1012.661	-1788
1012.733	-2214
1012.806	-1646
1012.879	-1570
1012.951	-1903
1013.023	-1904
1013.096	-1417
1013.168	-1947
1013.241	-1293
1013.313	-1767
1013.385	-2542
1013.458	-1946
1013.530	-308
1013.602	-1898
1013.674	-1398
1013.746	-1856
1013.819	-2109
1013.891	-562
1013.963	-2493
1014.035	-1611
1014.107	-1680
1014.179	-2037
1014.251	-2399
1014.323	-955
1014.395	-966
1014.467	-1509
1014.539	-1806
1014.611	-2211
1014.683	-1674
1014.754	-965
1014.826	-1608
1014.898	-1281
1014.970	-3150
1015.042	-1440
1015.113	-1652
1015.185	-1487
1015.257	-1579
1015.328	-1379
1015.400	-1728
1015.471	-1651
1015.543	-1998
1015.615	-1215
1015.686	-1719
1015.757	-1703
1015.829	-1003
1015.901	-2688
1015.972	-1688
1016.043	-2489
1016.115	-624
1016.186	-1436
1016.257	-2206
1016.328	-1168
1016.400	-1420
1016.471	-1510
1016.542	-1838
1016.613	-1791
1016.685	-1564
1016.756	-1980
1016.827	-2386
1016.898	-2000
1016.969	-716
1017.040	-1901
1017.111	-1584
1017.182	-2230
1017.253	-1645
1017.324	-1854
1017.395	-1921
1017.466	-734
1017.537	-1566
1017.608	-1137
1017.678	-2527
1017.749	-897
1017.820	-1202
1017.891	-1447
1017.961	-1771
1018.032	-1389
1018.103	-2055
1018.173	-1632
1018.244	-2019
1018.315	-1585
1018.385	-870
1018.456	-1805
1018.526	-2497
1018.597	-1358
1018.667	-1773
1018.738	-1627
1018.808	-1611
1018.878	-1447
1018.949	-1754
1019.019	-2118
1019.089	-1285
1019.160	-1523
1019.230	-2340
1019.300	-1888
1019.371	-1972
1019.441	-1745
1019.511	-1337
1019.581	-920
1019.651	-2407
1019.721	-2100
1019.791	-1243
1019.861	-1503
1019.931	-2201
1020.001	-2147
1020.071	-1471
1020.141	-1211
1020.211	-1143
1020.281	-1607
1020.351	-2474
1020.421	-1611
1020.491	-938
1020.560	-2732
1020.630	-1565
1020.700	-1798
1020.770	-2301
1020.839	-1424
1020.909	-1512
1020.979	-1546
1021.048	-918
1021.118	-1499
1021.187	-1381
1021.257	-1414
1021.326	-1304
1021.396	-1271
1021.465	-1182
1021.535	-285
1021.604	-2611
1021.674	-1613
1021.743	-1801
1021.812	-2599
1021.882	-2814
1021.951	-1105
1022.020	-1954
1022.089	-1317
1022.159	-2483
1022.228	-873
1022.297	-2362
1022.366	-1376
1022.435	-1743
1022.504	-1724
1022.573	-1645
1022.642	-1600
1022.711	-2758
1022.781	-1269
1022.849	-1636
1022.918	-2003
1022.987	-1075
1023.056	-2102
1023.125	-2047
1023.194	-1338
1023.263	-2251
1023.331	-1517
1023.400	-1756
1023.469	-2129
1023.538	-1804
1023.606	-1818
1023.675	-1739
1023.744	-2106
1023.812	-1522
1023.881	-1454
1023.949	-1855
1024.018	-2107
1024.086	-2686
1024.155	-1260
1024.223	-2521
1024.292	-1459
1024.360	-1803
1024.429	-2182
1024.497	-2721
1024.565	-1523
1024.634	-2265
1024.702	-1460
1024.770	-2094
1024.838	-1665
1024.907	-1169
1024.975	-2029
1025.043	-1478
1025.111	-2065
1025.179	-1537
1025.247	-1621
1025.315	-2795
1025.383	-1548
1025.451	-1550
1025.519	-1766
1025.587	-1493
1025.655	-1830
1025.723	-1357
1025.791	-1470
1025.859	-2394
1025.927	-1724
1025.995	-2407
1026.062	-1513
1026.130	-1710
1026.198	-1376
1026.266	-2038
1026.333	-1995
1026.401	-2202
1026.469	-1030
1026.536	-1196
1026.604	-1809
1026.671	-2161
1026.739	-2166
1026.806	-2403
1026.874	-2090
1026.941	-2380
1027.009	-1634
1027.076	-2156
1027.144	-1601
1027.211	-1872
1027.278	-1588
1027.345	-1989
1027.413	-2232
1027.480	-2234
1027.547	-1350
1027.614	-2287
1027.682	-1744
1027.749	-2136
1027.816	-2242
1027.883	-1953
1027.950	-1605
1028.017	-2668
1028.084	-2118
1028.151	-1996
1028.218	-955
1028.285	-1713
1028.352	-1214
1028.419	-2071
1028.486	-2124
1028.553	-2197
1028.619	-1632
1028.686	-2383
1028.753	-1113
1028.820	-1993
1028.886	-1783
1028.953	-1963
1029.020	-2198
1029.086	-1948
1029.153	-1677
1029.220	-1885
1029.286	-1800
1029.353	-2218
1029.419	-2000
1029.486	-1495
1029.552	-2160
1029.619	-1554
1029.685	-1544
1029.751	-1838
1029.818	-1653
1029.884	-2865
1029.951	-1106
1030.017	-1824
1030.083	-1516
1030.149	-2732
1030.216	-2253
1030.282	-1382
1030.348	-2269
1030.414	-2741
1030.480	-1694
1030.546	-2152
1030.612	-1105
1030.678	-1970
1030.744	-1869
1030.810	-2294
1030.876	-1454
1030.942	-2682
1031.008	-1589
1031.074	-2175
1031.140	-1626
1031.206	-1489
1031.272	-1930
1031.337	-2192
1031.403	-2003
1031.469	-2368
1031.534	-1602
1031.600	-1429
1031.666	-2056
1031.731	-2471
1031.797	-1280
1031.863	-1883
1031.928	-2111
1031.994	-1730
1032.059	-1273
1032.125	-1935
1032.190	-1722
1032.256	-1960
1032.321	-1919
1032.386	-1998
1032.452	-2616
1032.517	-2444
1032.582	-1959
1032.647	-1361
1032.713	-1680
1032.778	-1361
1032.843	-1641
1032.908	-1941
1032.974	-1497
1033.039	-2041
1033.104	-2065
1033.169	-2078
1033.234	-2496
1033.299	-1918
1033.364	-1855
1033.429	-2651
1033.494	-2039
1033.559	-2127
1033.624	-1921
1033.688	-1684
1033.753	-1951
1033.818	-2223
1033.883	-1823
1033.948	-1592
1034.013	-1688
1034.077	-1812
1034.142	-2019
1034.207	-1703
1034.271	-807
1034.336	-1328
1034.400	-1623
1034.465	-2067
1034.530	-2165
1034.594	-1470
1034.658	-2412
1034.723	-1522
1034.787	-2212
1034.852	-1464
1034.916	-2284
1034.981	-2013
1035.045	-1925
1035.109	-2094
1035.173	-1879
1035.238	-2449
1035.302	-1520
1035.366	-2746
1035.430	-2170
1035.495	-1720
1035.559	-2238
1035.623	-1042
1035.687	-2504
1035.751	-2112
1035.815	-2267
1035.879	-2287
1035.943	-1686
1036.007	-1986
1036.071	-2530
1036.135	-1700
1036.198	-1455
1036.262	-2163
1036.326	-1179
1036.390	-2134
1036.454	-2542
1036.517	-2383
1036.581	-1999
1036.645	-1993
1036.709	-2437
1036.772	-1458
1036.836	-2784
1036.900	-2203
1036.963	-1989
1037.026	-2061
1037.090	-2161
1037.154	-1785
1037.217	-1904
1037.280	-2112
1037.344	-1495
1037.407	-2526
1037.471	-2170
1037.534	-1591
1037.597	-2052
1037.661	-1812
1037.724	-1612
1037.787	-2306
1037.850	-2058
1037.913	-1995
1037.977	-1652
1038.040	-2550
1038.103	-2101
1038.166	-2070
1038.229	-1912
1038.292	-2557
1038.355	-1686
1038.418	-2616
1038.481	-1485
1038.544	-2845
1038.607	-1958
1038.670	-2386
1038.732	-1883
1038.795	-2351
1038.858	-1371
1038.921	-1383
1038.984	-2067
1039.046	-1975
1039.109	-2456
1039.172	-1889
1039.234	-2027
1039.297	-2504
1039.360	-2087
1039.422	-1517
1039.485	-2341
1039.547	-2065
1039.610	-1829
1039.672	-2313
1039.734	-2797
1039.797	-2317
1039.859	-2451
1039.922	-2102
1039.984	-1831
1040.046	-2546
1040.109	-1279
1040.171	-2142
1040.233	-1644
1040.295	-2583
1040.358	-1837
1040.420	-1741
1040.482	-1694
1040.544	-2029
1040.606	-1731
1040.668	-1861
1040.730	-1651
1040.792	-3011
1040.854	-1706
1040.916	-1239
1040.978	-1853
1041.040	-1893
1041.102	-1729
1041.164	-2021
1041.225	-2255
1041.287	-2514
1041.349	-2205
1041.411	-1376
1041.472	-1298
1041.534	-1736
1041.596	-2639
1041.657	-1599
1041.719	-1658
1041.781	-2056
1041.842	-1398
1041.904	-1775
1041.965	-2187
1042.027	-2430
1042.088	-2039
1042.150	-2433
1042.211	-2268
1042.272	-2461
1042.334	-1685
1042.395	-1528
1042.456	-1649
1042.518	-1801
1042.579	-1725
1042.640	-1752
1042.701	-1847
1042.763	-1904
1042.824	-1601
1042.885	-1300
1042.946	-1790
1043.007	-2086
1043.068	-1273
1043.129	-1538
1043.190	-2400
1043.251	-1224
1043.312	-1938
1043.373	-1381
1043.434	-2203
1043.495	-2261
1043.556	-1043
1043.616	-1875
1043.677	-1583
1043.738	-1545
1043.799	-2145
1043.859	-1935
1043.920	-2320
1043.981	-2490
1044.041	-1973
1044.102	-1630
1044.162	-2000
1044.223	-2726
1044.284	-1387
1044.344	-1842
1044.405	-1810
1044.465	-2211
1044.525	-2233
1044.586	-1746
1044.646	-1903
1044.707	-1520
1044.767	-2888
1044.827	-1406
1044.887	-1251
1044.948	-1869
1045.008	-1507
1045.068	-1603
1045.128	-1231
1045.188	-2331
1045.249	-1218
1045.309	-1934
1045.369	-2037
1045.429	-1881
1045.489	-1691
1045.549	-2286
1045.609	-1766
1045.669	-2187
1045.729	-1593
1045.789	-1233
1045.848	-1764
1045.908	-1597
1045.968	-1499
1046.028	-1230
1046.088	-1071
1046.147	-1114
1046.207	-1318
1046.267	-924
1046.326	-1558
1046.386	-1525
1046.446	-1109
1046.505	-1271
1046.565	-1382
1046.624	-1078
1046.684	-1467
1046.743	-910
1046.803	-830
1046.862	-440
1046.922	0
