'Start Wavelength	183.907
'End Wavelength	1046.922
'Gate Delay	5.000
'Gate Width (ms)	1.050
'Laser Output Level	0.000
'X Position	0.000
'Y Position	0.000
'Z Position	0.000
'Grid Point Number	1.000
'Shot Number	100.000
183.907	-89.000
183.977	525.000
184.047	298
184.116	611
184.186	569
184.256	-190
184.325	213
184.395	-662
184.465	-295
184.534	-166
184.604	376
184.674	9
184.743	22
184.813	107
184.883	-331
184.952	89
185.022	336
185.092	-64
185.161	-282
185.231	-362
185.301	184
185.370	511
185.440	-587
185.509	4
185.579	-214
185.649	-271
185.718	211
185.788	-717
185.857	-971
185.927	-652
185.996	-130
186.066	-860
186.136	-145
186.205	-75
186.275	-397
186.344	-318
186.414	343
186.483	-520
186.553	340
186.622	492
186.692	34
186.761	493
186.831	-417
186.900	208
186.970	142
187.039	573
187.109	-190
187.178	-189
187.248	322
187.317	-4
187.387	-345
187.456	-426
187.526	56
187.595	432
187.664	-418
187.734	30
187.803	-404
187.873	-322
187.942	-259
188.012	196
188.081	23
188.150	-200
188.220	161
188.289	242
188.358	-220
188.428	155
188.497	-182
188.567	-433
188.636	-243
188.705	-438
188.775	196
188.844	-657
188.913	177
188.983	533
189.052	21
189.121	70
189.191	-593
189.260	79
189.329	-235
189.399	-853
189.468	-470
189.537	-43
189.606	518
189.676	100
189.745	96
189.814	-156
189.883	-571
189.953	-149
190.022	-451
190.091	-294
190.161	-809
190.230	297
190.299	-496
190.368	-371
190.437	-330
190.507	-610
190.576	13
190.645	-528
190.714	321
190.783	-383
190.853	700
190.922	-35
190.991	34
191.060	355
191.129	-280
191.198	-261
191.268	10
191.337	127
191.406	-20
191.475	-304
191.544	-774
191.613	-472
191.682	-13
191.752	-483
191.821	131
191.890	-145
191.959	-380
192.028	-49
192.097	301
192.166	-509
192.235	-346
192.304	149
192.373	-99
192.442	7
192.511	368
192.580	-740
192.650	-176
192.719	-776
192.788	130
192.857	460
192.926	-398
192.995	347
193.064	86
193.133	-517
193.202	-226
193.271	-1114
193.340	-288
193.409	-37
193.478	220
193.547	-815
193.615	-577
193.684	226
193.753	-64
193.822	3
193.891	-391
193.960	-302
194.029	126
194.098	-300
194.167	-14
194.236	617
194.305	187
194.374	443
194.443	155
194.512	32
194.580	-471
194.649	-786
194.718	160
194.787	251
194.856	-368
194.925	336
194.994	-465
195.062	-48
195.131	-711
195.200	301
195.269	-302
195.338	363
195.407	-304
195.475	267
195.544	-214
195.613	-432
195.682	21
195.751	248
195.819	98
195.888	-180
195.957	121
196.026	178
196.094	345
196.163	-22
196.232	-61
196.301	-613
196.369	197
196.438	-197
196.507	-139
196.576	-581
196.644	-378
196.713	-199
196.782	-589
196.850	13
196.919	-432
196.988	-136
197.056	-432
197.125	-705
197.194	125
197.262	113
197.331	343
197.400	-492
197.468	-332
197.537	-187
197.606	356
197.674	108
197.743	666
197.812	-507
197.880	240
197.949	-375
198.017	-227
198.086	-121
198.155	50
198.223	19
198.292	-91
198.360	-380
198.429	-254
198.497	-374
198.566	-410
198.635	-52
198.703	-8
198.772	810
198.840	171
198.909	-490
198.977	-82
199.046	11
199.114	45
199.183	153
199.251	-264
199.320	-344
199.388	-565
199.457	-256
199.525	-3
199.594	-634
199.662	102
199.731	77
199.799	373
199.867	-365
199.936	-854
200.004	-532
200.073	-391
200.141	-83
200.210	-915
200.278	85
200.346	-10
200.415	85
200.483	73
200.552	-59
200.620	6
200.688	-178
200.757	180
200.825	-716
200.893	-461
200.962	-1023
201.030	-386
201.098	-246
201.167	-365
201.235	-705
201.303	-230
201.372	24
201.440	-248
201.508	-458
201.577	-81
201.645	362
201.713	-416
201.781	-671
201.850	132
201.918	-629
201.986	-229
202.055	-214
202.123	-122
202.191	-242
202.259	-276
202.327	-487
202.396	-636
202.464	-710
202.532	-33
202.600	62
202.669	-885
202.737	-448
202.805	-1193
202.873	-258
202.941	32
203.009	-633
203.078	6
203.146	-475
203.214	-605
203.282	-1025
203.350	-159
203.418	-390
203.487	237
203.555	-89
203.623	-816
203.691	-292
203.759	263
203.827	-300
203.895	511
203.963	-1099
204.031	-503
204.099	-953
204.168	-1268
204.236	-1274
204.304	-282
204.372	-522
204.440	-357
204.508	-673
204.576	-757
204.644	40
204.712	-543
204.780	-862
204.848	-613
204.916	-140
204.984	-657
205.052	-519
205.120	-475
205.188	98
205.256	-805
205.324	-161
205.392	-586
205.460	113
205.528	-592
205.596	-603
205.664	-754
205.732	-768
205.799	-522
205.867	-3
205.935	-710
206.003	-232
206.071	-798
206.139	-264
206.207	-25
206.275	-378
206.343	-722
206.411	-210
206.478	-254
206.546	-665
206.614	-178
206.682	-636
206.750	-417
206.818	-135
206.885	-101
206.953	-1223
207.021	20
207.089	-270
207.157	-588
207.225	27
207.292	-566
207.360	-724
207.428	-687
207.496	-915
207.563	-438
207.631	-381
207.699	-390
207.767	-699
207.834	-1003
207.902	-762
207.970	-457
208.038	-384
208.105	-899
208.173	-305
208.241	-583
208.309	-1100
208.376	-330
208.444	-91
208.512	-456
208.579	-550
208.647	-572
208.715	-380
208.782	-335
208.850	-911
208.918	-595
208.985	-776
209.053	-367
209.120	-353
209.188	-662
209.256	-444
209.323	-1833
209.391	-845
209.459	565
209.526	-710
209.594	-1050
209.661	-869
209.729	-578
209.796	-368
209.864	-962
209.932	-1007
209.999	1247
210.067	-471
210.134	-36
210.202	-495
210.269	-414
210.337	-142
210.404	-544
210.472	-894
210.539	-125
210.607	35
210.674	-337
210.742	-402
210.809	-279
210.877	-414
210.944	128
211.012	-1756
211.079	362
211.146	-5
211.214	-517
211.281	-707
211.349	-142
211.416	158
211.484	-412
211.551	-1310
211.618	142
211.686	-417
211.753	-674
211.821	111
211.888	-182
211.955	-473
212.023	-158
212.090	-1320
212.157	92
212.225	-384
212.292	35
212.359	-676
212.427	-401
212.494	-742
212.561	-227
212.629	-852
212.696	-580
212.763	-226
212.831	-678
212.898	-482
212.965	-632
213.032	-669
213.100	-379
213.167	-754
213.234	5
213.301	-1170
213.369	-132
213.436	-374
213.503	-786
213.570	369
213.638	-598
213.705	-649
213.772	-1148
213.839	-229
213.906	-442
213.973	-404
214.041	-94
214.108	178
214.175	271
214.242	-64
214.309	-677
214.376	-831
214.444	-429
214.511	-1008
214.578	-1046
214.645	-301
214.712	-657
214.779	-758
214.846	-607
214.913	-988
214.980	-645
215.048	-830
215.115	-831
215.182	-966
215.249	-410
215.316	-718
215.383	-204
215.450	-839
215.517	-226
215.584	-667
215.651	256
215.718	-973
215.785	72
215.852	127
215.919	-454
215.986	-1062
216.053	-136
216.120	-909
216.187	-1108
216.254	-385
216.321	-543
216.388	346
216.455	-468
216.522	-872
216.589	-1062
216.656	-1160
216.722	-579
216.789	-1590
216.856	-491
216.923	-230
216.990	-79
217.057	-996
217.124	-856
217.191	-1108
217.258	-660
217.324	-974
217.391	-512
217.458	-1367
217.525	-820
217.592	-224
217.659	-761
217.725	518
217.792	-241
217.859	-849
217.926	-798
217.993	-360
218.059	-241
218.126	-205
218.193	-918
218.260	-941
218.327	-706
218.393	-54
218.460	-980
218.527	-480
218.594	-1453
218.660	-996
218.727	-355
218.794	-577
218.860	69
218.927	-438
218.994	-121
219.061	-907
219.127	-1115
219.194	163
219.261	-484
219.327	-1047
219.394	-603
219.461	-1360
219.527	-341
219.594	-596
219.661	-53
219.727	-415
219.794	-260
219.860	-1195
219.927	-328
219.994	-41
220.060	-1010
220.127	-767
220.193	348
220.260	-755
220.326	-594
220.393	-1328
220.460	-1361
220.526	-733
220.593	-522
220.659	433
220.726	-410
220.792	-401
220.859	-985
220.925	-15
220.992	-837
221.058	-26
221.125	-868
221.191	-407
221.258	-559
221.324	-357
221.391	-766
221.457	-508
221.524	-324
221.590	-14
221.657	-1384
221.723	-854
221.789	-1054
221.856	-531
221.922	-791
221.989	-142
222.055	137
222.121	-1831
222.188	594
222.254	-360
222.321	-807
222.387	-650
222.453	-65
222.520	-854
222.586	-1054
222.652	-1117
222.719	-1338
222.785	-440
222.851	-704
222.918	-920
222.984	-802
223.050	-723
223.116	-1419
223.183	-249
223.249	-965
223.315	-1218
223.382	-976
223.448	-307
223.514	-1071
223.580	-829
223.647	-1045
223.713	-652
223.779	-527
223.845	-439
223.911	-594
223.978	-1504
224.044	-515
224.110	-879
224.176	-321
224.242	-1115
224.309	-814
224.375	-771
224.441	-671
224.507	-1298
224.573	-1164
224.639	148
224.705	-971
224.772	-120
224.838	-1032
224.904	-161
224.970	-404
225.036	-936
225.102	-747
225.168	-614
225.234	129
225.300	-739
225.366	-575
225.432	226
225.499	-669
225.565	-1570
225.631	-892
225.697	-843
225.763	-64
225.829	-1345
225.895	-1647
225.961	-275
226.027	-244
226.093	-1246
226.159	-462
226.225	-557
226.291	-1189
226.357	-1443
226.423	-795
226.489	-435
226.554	-1473
226.620	-443
226.686	-600
226.752	-1043
226.818	-1510
226.884	-410
226.950	-481
227.016	-762
227.082	-179
227.148	-831
227.214	-1047
227.279	-1088
227.345	-859
227.411	-1130
227.477	-1458
227.543	-956
227.609	-1244
227.674	-646
227.740	-566
227.806	-646
227.872	-559
227.938	-677
228.003	-625
228.069	-911
228.135	-936
228.201	-183
228.267	-938
228.332	-315
228.398	-1547
228.464	-655
228.530	-836
228.595	-549
228.661	-1582
228.727	-1086
228.792	-571
228.858	-1164
228.924	-1733
228.990	420
229.055	-1519
229.121	-809
229.187	-825
229.252	-1187
229.318	-488
229.384	8
229.449	-760
229.515	-1595
229.581	-830
229.646	-65
229.712	-674
229.777	-634
229.843	-1133
229.909	-1072
229.974	-372
230.040	-1439
230.105	-1136
230.171	-1089
230.236	-1117
230.302	-285
230.368	-792
230.433	-1582
230.499	-1208
230.564	-877
230.630	-970
230.695	-717
230.761	212
230.826	-888
230.892	72
230.957	-1660
231.023	-751
231.088	-1384
231.154	60
231.219	-117
231.284	-721
231.350	-1079
231.415	-715
231.481	-547
231.546	-623
231.612	-1252
231.677	-1221
231.742	-1308
231.808	88
231.873	-826
231.939	-2520
232.004	334
232.069	-985
232.135	-732
232.200	-1062
232.265	-261
232.331	-1184
232.396	-1015
232.461	-1110
232.527	-429
232.592	-1155
232.657	-119
232.723	-642
232.788	-1496
232.853	-249
232.918	-915
232.984	-1241
233.049	-1160
233.114	-639
233.179	-756
233.245	123
233.310	-1134
233.375	-1437
233.440	-131
233.506	-1076
233.571	-1561
233.636	-993
233.701	-183
233.766	-673
233.832	-1706
233.897	-1354
233.962	-1200
234.027	25
234.092	-904
234.157	-766
234.222	-856
234.288	-959
234.353	-1784
234.418	-552
234.483	-70
234.548	-397
234.613	-1262
234.678	-1404
234.743	-1362
234.808	-458
234.873	-1597
234.938	-825
235.004	-1495
235.069	-545
235.134	-1436
235.199	-913
235.264	-902
235.329	-1650
235.394	-552
235.459	-506
235.524	-923
235.589	-311
235.654	-1086
235.719	-1710
235.784	-159
235.849	-295
235.913	-988
235.978	-1210
236.043	-1097
236.108	-783
236.173	-636
236.238	-1485
236.303	-1024
236.368	-1378
236.433	-974
236.498	-923
236.563	-780
236.627	-861
236.692	-94
236.757	-727
236.822	-700
236.887	-1117
236.952	-38
237.017	-1920
237.081	157
237.146	-926
237.211	-519
237.276	-954
237.341	-699
237.405	-1650
237.470	-1529
237.535	-1226
237.600	-611
237.664	-749
237.729	-836
237.794	-1737
237.859	-906
237.923	-1802
237.988	-283
238.053	-458
238.118	-556
238.182	-1256
238.247	-390
238.312	-1334
238.376	-384
238.441	-2915
238.506	279
238.570	-1809
238.635	32
238.700	-606
238.764	-610
238.829	-772
238.893	-1972
238.958	54
239.023	-1642
239.087	-947
239.152	-877
239.216	-1479
239.281	-880
239.346	-539
239.410	-1109
239.475	-1917
239.539	-383
239.604	-1624
239.668	-529
239.733	-1171
239.797	-1127
239.862	-1056
239.926	-1106
239.991	-1038
240.055	-410
240.120	-1180
240.184	-358
240.249	-551
240.313	-1271
240.378	-665
240.442	-1327
240.507	-238
240.571	-596
240.635	-1454
240.700	-1042
240.764	-667
240.829	-585
240.893	-1042
240.957	-1299
241.022	-744
241.086	-953
241.151	-2007
241.215	-964
241.279	-544
241.344	-870
241.408	-726
241.472	-1105
241.537	-483
241.601	-189
241.665	-1742
241.730	-1506
241.794	166
241.858	-769
241.922	-1228
241.987	-812
242.051	-908
242.115	-1771
242.179	-328
242.244	-1852
242.308	-247
242.372	-755
242.436	-1688
242.501	-440
242.565	-813
242.629	-1661
242.693	-730
242.757	-1144
242.822	-1255
242.886	-96
242.950	-346
243.014	-1554
243.078	-526
243.142	-670
243.206	-1542
243.271	-972
243.335	-2347
243.399	-217
243.463	-890
243.527	-1054
243.591	-1237
243.655	-381
243.719	-1455
243.783	-268
243.847	-743
243.911	-500
243.975	-371
244.040	-2330
244.104	-291
244.168	-1082
244.232	-1161
244.296	-863
244.360	-1067
244.424	-1140
244.488	-723
244.552	-159
244.615	-2319
244.679	-1227
244.743	-874
244.807	-2086
244.871	-283
244.935	-1064
244.999	-1705
245.063	-650
245.127	-38
245.191	-406
245.255	-1289
245.319	-1362
245.383	-1540
245.446	682
245.510	-1542
245.574	-824
245.638	-1554
245.702	-1553
245.766	250
245.829	-1034
245.893	-2161
245.957	-1207
246.021	-194
246.085	-1125
246.149	-1490
246.212	-988
246.276	-1351
246.340	-1161
246.404	-546
246.467	-572
246.531	-3021
246.595	330
246.659	-312
246.722	-2437
246.786	-1207
246.850	-900
246.913	-1257
246.977	-1557
247.041	-951
247.104	-930
247.168	-889
247.232	-863
247.295	-1399
247.359	-1776
247.423	-1665
247.486	-325
247.550	-184
247.614	-919
247.677	-967
247.741	-1420
247.804	-845
247.868	-368
247.932	-961
247.995	-623
248.059	-1251
248.122	-1111
248.186	-246
248.249	-1089
248.313	-543
248.376	-1157
248.440	-1622
248.503	-2120
248.567	561
248.630	-2017
248.694	-1300
248.757	-492
248.821	-523
248.884	47
248.948	-1527
249.011	-677
249.075	-1219
249.138	185
249.202	-1353
249.265	-1706
249.328	-888
249.392	-1827
249.455	-448
249.519	-845
249.582	-1346
249.645	-1549
249.709	-2719
249.772	-1372
249.835	-940
249.899	-1460
249.962	-799
250.025	-2122
250.089	-635
250.152	-630
250.215	-1371
250.279	-1252
250.342	-400
250.405	-759
250.468	-1895
250.532	-1285
250.595	43
250.658	-2302
250.721	-750
250.785	-1575
250.848	-419
250.911	-1204
250.974	-800
251.038	-1870
251.101	-743
251.164	-1333
251.227	-362
251.290	-1978
251.354	-1752
251.417	-865
251.480	-434
251.543	-782
251.606	-824
251.669	-1338
251.732	-613
251.795	-1451
251.859	-588
251.922	-1226
251.985	-819
252.048	-262
252.111	-1108
252.174	-1993
252.237	-912
252.300	-1421
252.363	-2130
252.426	238
252.489	-1720
252.552	-354
252.615	-1709
252.678	38
252.741	-1018
252.804	-2238
252.867	-429
252.930	-979
252.993	-1550
253.056	-569
253.119	-718
253.182	-1318
253.245	-1237
253.308	-94
253.371	-1641
253.434	-1771
253.497	-47
253.559	-47
253.622	-867
253.685	-1216
253.748	-1802
253.811	-1169
253.874	-202
253.937	-975
254.000	-908
254.062	-1249
254.125	-1609
254.188	-468
254.251	-1290
254.314	-1182
254.376	-2167
254.439	-1315
254.502	-684
254.565	-1275
254.628	-899
254.690	-1055
254.753	-1644
254.816	-1349
254.878	-362
254.941	-1109
255.004	-1339
255.067	-1494
255.129	-1928
255.192	-1475
255.255	-2093
255.317	-400
255.380	-198
255.443	-1476
255.505	-935
255.568	-1741
255.631	-888
255.693	-1004
255.756	-2286
255.819	74
255.881	-875
255.944	-669
256.006	-1715
256.069	-1240
256.132	-1616
256.194	-1263
256.257	-814
256.319	-1258
256.382	-1341
256.444	-673
256.507	-1744
256.569	-1729
256.632	-1022
256.694	-1883
256.757	-166
256.819	-1072
256.882	-1466
256.944	-1428
257.007	-831
257.069	-1750
257.132	-1436
257.194	-1175
257.257	-976
257.319	-1856
257.381	-1268
257.444	-906
257.506	-988
257.569	-1073
257.631	-1139
257.693	-1247
257.756	-1647
257.818	-1818
257.880	-1751
257.943	-603
258.005	-1296
258.067	-664
258.130	-1006
258.192	-819
258.254	-1808
258.317	-1357
258.379	-618
258.441	-1527
258.503	-527
258.566	-1947
258.628	-889
258.690	-1413
258.753	-838
258.815	-1095
258.877	-1179
258.939	-1098
259.001	-984
259.064	-1682
259.126	-2041
259.188	-1452
259.250	-1379
259.312	-1407
259.375	-1653
259.437	-1866
259.499	-1234
259.561	-1740
259.623	-1113
259.685	-2136
259.747	-1306
259.809	-1620
259.872	-813
259.934	-1072
259.996	-969
260.058	-1087
260.120	-1124
260.182	-1153
260.244	-1259
260.306	-883
260.368	-854
260.430	-2476
260.492	-672
260.554	-673
260.616	-1280
260.678	-1075
260.740	-1440
260.802	-1640
260.864	-594
260.926	-1302
260.988	-620
261.050	-1731
261.112	-1969
261.174	-482
261.236	-1100
261.298	-2435
261.359	-1840
261.421	-761
261.483	-1773
261.545	-665
261.607	-1613
261.669	-936
261.731	-1480
261.793	-1588
261.854	-1968
261.916	-1340
261.978	-1681
262.040	-870
262.102	-1376
262.164	-1187
262.225	-1190
262.287	-713
262.349	-1757
262.411	-1802
262.472	-902
262.534	-2195
262.596	-1600
262.658	-63
262.719	-2003
262.781	-160
262.843	-2811
262.904	-674
262.966	-201
263.028	-1180
263.090	-816
263.151	-1696
263.213	-1183
263.275	-2019
263.336	-1292
263.398	-883
263.459	-2077
263.521	-1087
263.583	-1131
263.644	-1574
263.706	-1353
263.767	-1569
263.829	-1336
263.891	-2045
263.952	-1755
264.014	-1898
264.075	-1843
264.137	-1387
264.198	-1741
264.260	-1306
264.321	-614
264.383	-1258
264.444	-445
264.506	-1826
264.567	-1348
264.629	-546
264.690	-2249
264.752	-1293
264.813	-1403
264.875	-1330
264.936	-395
264.998	-1630
265.059	-1421
265.120	-1221
265.182	-1831
265.243	-977
265.305	-873
265.366	-1203
265.427	-1107
265.489	-665
265.550	-1906
265.611	-1328
265.673	-1332
265.734	-1414
265.795	-926
265.857	-1703
265.918	-1811
265.979	-924
266.040	-1652
266.102	-720
266.163	-1436
266.224	-1128
266.286	-1445
266.347	-2172
266.408	-944
266.469	-1201
266.530	-1666
266.592	-1915
266.653	-1463
266.714	-2013
266.775	-1307
266.836	-1673
266.898	-2118
266.959	-1218
267.020	-1508
267.081	-1331
267.142	-1471
267.203	-1114
267.264	-1712
267.326	-1031
267.387	-1406
267.448	-1808
267.509	-381
267.570	-1667
267.631	-1356
267.692	-1509
267.753	-565
267.814	-1669
267.875	-1535
267.936	-2302
267.997	-1315
268.058	-1788
268.119	-1257
268.180	-1123
268.241	-2072
268.302	-932
268.363	-1074
268.424	-992
268.485	-1460
268.546	-2125
268.607	-738
268.668	-1409
268.729	-1319
268.790	-1323
268.851	-1223
268.912	-1892
268.972	-1317
269.033	-1213
269.094	-1579
269.155	-1274
269.216	-1445
269.277	-1896
269.338	-1869
269.398	-1028
269.459	-1472
269.520	-1525
269.581	-1287
269.642	-956
269.702	-1566
269.763	-1027
269.824	-1449
269.885	-1748
269.945	-1675
270.006	-1406
270.067	-2191
270.128	-860
270.188	-1699
270.249	-1968
270.310	-1325
270.370	-675
270.431	-1324
270.492	-1792
270.553	-1123
270.613	-1630
270.674	-906
270.734	-1770
270.795	-1075
270.856	-981
270.916	-1580
270.977	-1775
271.038	-1022
271.098	-925
271.159	-1372
271.219	-1979
271.280	-1127
271.340	-1430
271.401	-1754
271.462	-1378
271.522	-2158
271.583	-1592
271.643	-1368
271.704	-1577
271.764	-1385
271.825	-1032
271.885	-617
271.946	-1853
272.006	-1637
272.066	-1622
272.127	-944
272.187	-1352
272.248	-2047
272.308	-1963
272.369	-1294
272.429	-1116
272.489	-1098
272.550	-1942
272.610	-691
272.671	-2383
272.731	-704
272.791	-1352
272.852	-1901
272.912	-1137
272.972	-1707
273.033	-1002
273.093	-1546
273.153	-971
273.214	-437
273.274	-1549
273.334	-1042
273.394	-1834
273.455	-1544
273.515	-1194
273.575	-1288
273.635	-610
273.696	-1255
273.756	-894
273.816	-1548
273.876	-1683
273.936	-1800
273.997	-1072
274.057	-1741
274.117	-1426
274.177	-1435
274.237	-1948
274.297	-1530
274.358	-1124
274.418	-1942
274.478	-1743
274.538	-2154
274.598	-2462
274.658	-776
274.718	-1392
274.778	-1212
274.838	-1349
274.898	-1301
274.958	-1859
275.018	-1528
275.078	-1397
275.138	-881
275.198	-2015
275.258	-1109
275.318	-1887
275.378	-1447
275.438	-1147
275.498	-1604
275.558	-1684
275.618	-1531
275.678	-1958
275.738	-1855
275.798	-1942
275.858	-1737
275.918	-1767
275.978	-2154
276.038	-1441
276.098	-1595
276.157	-2108
276.217	-1558
276.277	-1874
276.337	-1084
276.397	-1761
276.457	-1491
276.517	-1920
276.576	-1807
276.636	-1865
276.696	-1345
276.756	-1241
276.815	-1176
276.875	-1362
276.935	-1047
276.995	-1233
277.055	-2020
277.114	-1182
277.174	-1270
277.234	-1103
277.293	-525
277.353	-1977
277.413	-1281
277.472	-1935
277.532	-1488
277.592	-1222
277.651	-909
277.711	-1220
277.771	-2156
277.830	59
277.890	-693
277.950	-1955
278.009	-420
278.069	-1477
278.128	-860
278.188	-1514
278.248	-1489
278.307	-1016
278.367	-829
278.426	-2314
278.486	-2112
278.545	-1598
278.605	-1594
278.664	-1528
278.724	-1623
278.783	-1723
278.843	-1272
278.902	-1802
278.962	-1599
279.021	-1257
279.081	-937
279.140	-691
279.199	-1478
279.259	-1192
279.318	-1326
279.378	-1061
279.437	-1422
279.496	-499
279.556	2957
279.615	597
279.675	-366
279.734	-1450
279.793	-939
279.853	-902
279.912	-1539
279.971	-1065
280.031	-948
280.090	-888
280.149	-857
280.208	-894
280.268	1173
280.327	404
280.386	-1276
280.445	-1145
280.505	-1392
280.564	-1412
280.623	-1686
280.682	-1088
280.742	-1909
280.801	-1818
280.860	-1509
280.919	-1116
280.978	-1522
281.037	-1498
281.097	-1225
281.156	-1807
281.215	-1580
281.274	-1929
281.333	-1111
281.392	-1522
281.451	-1791
281.510	-1601
281.569	-1316
281.628	-1724
281.688	-1065
281.747	-1269
281.806	-1651
281.865	-751
281.924	-1410
281.983	-2111
282.042	-1836
282.101	-1215
282.160	-1006
282.219	-1068
282.278	-1809
282.337	-1014
282.396	-1404
282.454	-2176
282.513	-1531
282.572	-1615
282.631	-2071
282.690	-1375
282.749	-1759
282.808	-883
282.867	-1277
282.926	-688
282.985	-1393
283.043	-1308
283.102	-1442
283.161	-1391
283.220	-830
283.279	-1363
283.338	-1728
283.396	-1524
283.455	-1314
283.514	-1603
283.573	-1123
283.631	-1079
283.690	-1091
283.749	-1734
283.808	-744
283.866	-1680
283.925	-1850
283.984	-883
284.043	-1393
284.101	-1791
284.160	-1689
284.219	-1098
284.277	-733
284.336	-1328
284.395	-879
284.453	-1377
284.512	-1275
284.570	-1350
284.629	-1700
284.688	-1591
284.746	-1996
284.805	-1340
284.863	-1942
284.922	-696
284.981	-1553
285.039	-1264
285.098	-446
285.156	-370
285.215	2447
285.273	1058
285.332	-1006
285.390	-822
285.449	-1283
285.507	-1770
285.566	-919
285.624	-1440
285.683	-1688
285.741	-1349
285.799	-1954
285.858	-1534
285.916	-1954
285.975	-1201
286.033	-1973
286.091	-969
286.150	-1560
286.208	-1865
286.267	-1422
286.325	-1493
286.383	-2011
286.442	-1458
286.500	-1650
286.558	-791
286.616	-1919
286.675	-1804
286.733	-1840
286.791	-2235
286.850	-1150
286.908	-1650
286.966	-1683
287.024	-1965
287.083	-1385
287.141	-1421
287.199	-1208
287.257	-2016
287.315	-1166
287.374	-1728
287.432	-1788
287.490	-1709
287.548	-1320
287.606	-1898
287.664	-1957
287.723	-1165
287.781	-968
287.839	-1713
287.897	-1960
287.955	-1205
288.013	-1710
288.071	-1627
288.129	-1135
288.187	-343
288.245	-1967
288.303	-1212
288.361	-2148
288.419	-1217
288.477	-1446
288.535	-1652
288.593	-1450
288.651	-1045
288.709	-1869
288.767	-1192
288.825	-1579
288.883	-1677
288.941	-1777
288.999	-1300
289.057	-1881
289.115	-2189
289.173	-1294
289.231	-1358
289.289	-1556
289.346	-2126
289.404	-1143
289.462	-1532
289.520	-1651
289.578	-1588
289.636	-1578
289.694	-1725
289.751	-1343
289.809	-1899
289.867	-1632
289.925	-1072
289.983	-2134
290.040	-1801
290.098	-933
290.156	-1557
290.214	-1358
290.271	-1904
290.329	-873
290.387	-2379
290.444	-2251
290.502	-1852
290.560	-1468
290.617	-1977
290.675	-1760
290.733	-2023
290.790	-604
290.848	-1816
290.906	-1667
290.963	-1945
291.021	-1048
291.078	-1788
291.136	-1362
291.194	-1812
291.251	-2016
291.309	-1646
291.366	-2110
291.424	-1230
291.481	-1696
291.539	-1912
291.596	-1907
291.654	-1420
291.711	-1486
291.769	-1316
291.826	-1588
291.884	-1605
291.941	-1627
291.999	-1948
292.056	-1594
292.114	-1891
292.171	-1165
292.228	-2020
292.286	-1471
292.343	-2088
292.401	-1698
292.458	-1439
292.515	-2299
292.573	-1491
292.630	-1913
292.687	-1795
292.745	-1633
292.802	-1997
292.859	-1462
292.917	-1441
292.974	-1815
293.031	-726
293.089	-1761
293.146	-1764
293.203	-1852
293.260	-1549
293.318	-1094
293.375	-1597
293.432	-1842
293.489	-1675
293.546	-1571
293.604	-1316
293.661	-1227
293.718	-1191
293.775	-2270
293.832	-2018
293.889	-2031
293.947	-1911
294.004	-1929
294.061	-1887
294.118	-1610
294.175	-1985
294.232	-1483
294.289	-1571
294.346	-1797
294.403	-1056
294.460	-1839
294.517	-2217
294.574	-2003
294.631	-1840
294.688	-1868
294.745	-1346
294.802	-1819
294.859	-1767
294.916	-1381
294.973	-1795
295.030	-1491
295.087	-1516
295.144	-1793
295.201	-1456
295.258	-2252
295.315	-1615
295.372	-794
295.429	-923
295.486	-1533
295.542	-2258
295.599	-985
295.656	-1544
295.713	-1137
295.770	-1979
295.827	-1666
295.883	-1508
295.940	-2426
295.997	-1948
296.054	-2248
296.111	-1086
296.167	-1008
296.224	-1455
296.281	-1707
296.338	-1788
296.394	-2237
296.451	-1696
296.508	-2451
296.564	-1665
296.621	-1939
296.678	-1472
296.734	-1549
296.791	-1803
296.848	-2103
296.904	-1198
296.961	-1478
297.018	-1549
297.074	-1731
297.131	-1934
297.187	-2036
297.244	-2259
297.301	-1581
297.357	-1605
297.414	-2089
297.470	-1332
297.527	-1784
297.583	-747
297.640	-1311
297.696	-2098
297.753	-1580
297.809	-1679
297.866	-2040
297.922	-1884
297.979	-2183
298.035	-1667
298.092	-1804
298.148	-1708
298.204	-1822
298.261	-2053
298.317	-1854
298.374	-2791
298.430	-2058
298.486	-1181
298.543	-2024
298.599	-1588
298.656	-1709
298.712	-1592
298.768	-1756
298.824	-2291
298.881	-2592
298.937	-1899
298.993	-896
299.050	-1583
299.106	-2281
299.162	-1627
299.218	-1911
299.275	-2112
299.331	-1675
299.387	-1634
299.443	-1400
299.500	-1540
299.556	-1677
299.612	-1912
299.668	-1434
299.724	-1542
299.780	-1820
299.837	-1875
299.893	-883
299.949	-1935
300.005	-1209
300.061	-1647
300.117	-1513
300.173	-2356
300.229	-1852
300.285	-1362
300.341	-1483
300.397	-1288
300.453	-855
300.510	-1512
300.566	-2547
300.622	-1598
300.678	-1313
300.734	-1574
300.790	-1408
300.845	-1859
300.901	-1997
300.957	-1862
301.013	-1489
301.069	-1654
301.125	-2036
301.181	-2096
301.237	-1069
301.293	-2491
301.349	-1019
301.405	-1366
301.461	-1530
301.516	-2252
301.572	-2192
301.628	-1571
301.684	-1764
301.740	-1736
301.796	-1860
301.851	-1518
301.907	-2178
301.963	-950
302.019	-1965
302.074	-1603
302.130	-1616
302.186	-817
302.242	-1973
302.297	-1370
302.353	-1653
302.409	-1512
302.464	-1268
302.520	-1766
302.576	-1372
302.631	-1382
302.687	-1652
302.743	-2064
302.798	-1663
302.854	-2116
302.910	-1921
302.965	-2273
303.021	-1556
303.076	-2123
303.132	-2093
303.187	-2131
303.243	-1670
303.299	-1716
303.354	-1781
303.410	-1601
303.465	-1843
303.521	-2147
303.576	-1735
303.632	-2208
303.687	-879
303.743	-2216
303.798	-1203
303.853	-1911
303.909	-1817
303.964	-2343
304.020	-2020
304.075	-1361
304.130	-1842
304.186	-1411
304.241	-1517
304.297	-1619
304.352	-2071
304.358	-2057
304.407	-1952
304.449	-2037
304.463	-2064
304.518	-1813
304.539	-1724
304.573	-1601
304.629	-2304
304.630	-2285
304.684	-1512
304.720	-1529
304.739	-1546
304.794	-1643
304.811	-1729
304.850	-1899
304.902	-1473
304.905	-1446
304.960	-1754
304.992	-1921
305.015	-2069
305.071	-1546
305.083	-1559
305.126	-1605
305.173	-1692
305.181	-1703
305.236	-1707
305.264	-1468
305.292	-1214
305.347	-1645
305.354	-1631
305.402	-1531
305.445	-1427
305.457	-1415
305.512	-1364
305.535	-1262
305.567	-1094
305.622	-1611
305.626	-1577
305.678	-1036
305.716	-1283
305.733	-1381
305.788	-1006
305.807	-1036
305.843	-1115
305.897	-1162
305.898	-1162
305.953	-1398
305.988	-1512
306.008	-1560
306.063	-1726
306.078	-1645
306.118	-1413
306.168	-1090
306.173	-1069
306.228	-1395
306.259	-1164
306.283	-961
306.338	-2058
306.349	-1823
306.393	-898
306.440	-1801
306.448	-1950
306.503	-1526
306.530	-1379
306.558	-1223
306.613	-999
306.620	-1046
306.668	-1356
306.711	-1459
306.723	-1508
306.778	-1184
306.801	-1180
306.833	-1044
306.888	-1593
306.892	-1553
306.943	-1245
306.982	-1202
306.997	-1143
307.052	-1544
307.072	-1401
307.107	-1172
307.162	-1889
307.163	-1887
307.217	-1259
307.253	-1300
307.272	-1430
307.327	-1460
307.343	-1523
307.381	-1411
307.434	-857
307.436	-843
307.491	-1429
307.524	-1247
307.546	-1103
307.600	-1420
307.614	-1460
307.655	-1404
307.704	-1108
307.710	-1073
307.765	-1224
307.795	-1246
307.819	-1357
307.874	-921
307.885	-1050
307.929	-1177
307.975	-654
307.984	-641
308.038	-747
308.065	-845
308.093	-725
308.148	-665
308.156	-574
308.202	-116
308.246	278
308.257	303
308.312	-836
308.336	-860
308.366	-751
308.421	-936
308.426	-965
308.475	-1207
308.517	-1226
308.530	-1200
308.585	-1098
308.607	-1039
308.639	-830
308.694	-945
308.697	-917
308.748	-742
308.787	-879
308.803	-860
308.857	-489
308.877	-651
308.912	-1019
308.967	-934
308.967	-936
309.021	-483
309.058	-321
309.076	-319
309.130	-149
309.148	-139
309.185	483
309.238	1438
309.239	1439
309.293	1406
309.328	819
309.348	438
309.402	-412
309.418	-649
309.457	-596
309.508	-352
309.511	-342
309.566	-433
309.598	-280
309.620	-260
309.674	-402
309.688	-385
309.729	-226
309.778	-538
309.783	-546
309.837	-353
309.868	-231
309.892	-215
309.946	-251
309.959	-265
310.001	-340
310.049	-506
310.055	-495
310.109	-392
310.139	-355
310.163	-501
310.218	-633
310.229	-728
310.272	-548
310.319	-316
310.326	-385
310.381	-560
310.409	-943
310.435	-790
310.489	-117
310.499	-33
310.543	-117
310.589	-148
310.598	-133
310.652	74
310.679	39
310.706	-55
310.760	-355
310.769	-349
310.814	-323
310.859	-606
310.868	-512
310.923	53
310.948	367
310.977	191
311.031	-179
311.038	-234
311.085	-303
311.128	-463
311.139	-438
311.193	-338
311.218	-249
311.247	-247
311.301	-324
311.308	-331
311.356	-271
311.398	-264
311.410	-226
311.464	-95
311.488	-14
311.518	150
311.572	378
311.578	400
311.626	-258
311.668	-864
311.680	-810
311.734	-603
311.758	-471
311.788	-269
311.842	4
311.847	34
311.896	-46
311.937	-148
311.950	-241
312.004	-621
312.027	-789
312.058	-227
312.112	776
312.117	873
312.165	76
312.207	-608
312.297	-256
312.386	-47
312.476	38
312.566	-287
312.656	-365
312.745	-853
312.835	380
312.925	350
313.015	795
313.104	-360
313.194	-264
313.284	209
313.374	270
313.463	-772
313.553	-333
313.643	-301
313.732	410
313.822	-17
313.912	704
314.001	-538
314.091	394
314.180	-319
314.270	-1
314.360	187
314.449	-312
314.539	-338
314.628	-436
314.718	-82
314.808	-605
314.897	-896
314.987	-114
315.076	-817
315.166	-298
315.255	-353
315.345	-118
315.434	-993
315.524	-34
315.613	312
315.703	-358
315.792	329
315.881	119
315.971	-527
316.060	425
316.150	-198
316.239	-495
316.328	-42
316.418	345
316.507	-678
316.597	239
316.686	255
316.775	-289
316.865	-17
316.954	142
317.043	-405
317.133	-900
317.222	-1038
317.311	277
317.400	-1678
317.490	219
317.579	193
317.668	-267
317.757	-236
317.847	393
317.936	174
318.025	498
318.114	80
318.203	-600
318.293	156
318.382	-371
318.471	-316
318.560	401
318.649	-235
318.738	701
318.828	-789
318.917	111
319.006	-329
319.095	-509
319.184	-833
319.273	-494
319.362	-431
319.451	123
319.540	-499
319.629	-161
319.718	286
319.807	-802
319.896	-874
319.985	-492
320.074	-478
320.163	-830
320.252	-937
320.341	-907
320.430	-587
320.519	333
320.608	-641
320.697	-149
320.786	-965
320.875	416
320.964	53
321.053	-544
321.142	-655
321.230	-541
321.319	-559
321.408	-796
321.497	-180
321.586	-532
321.675	-898
321.764	273
321.852	300
321.941	-910
322.030	-633
322.119	120
322.207	-432
322.296	-461
322.385	-260
322.474	-166
322.562	27
322.651	194
322.740	-271
322.829	241
322.917	-485
323.006	-399
323.095	-1024
323.183	-172
323.272	-1258
323.361	-821
323.449	-82
323.538	-387
323.626	-911
323.715	-223
323.804	-1079
323.892	-480
323.981	-1317
324.069	-706
324.158	-173
324.246	-210
324.335	-1053
324.424	-736
324.512	-127
324.601	-700
324.689	-1014
324.778	150
324.866	-816
324.954	-58
325.043	-974
325.131	-1487
325.220	-758
325.308	-1127
325.397	-201
325.485	-299
325.574	-377
325.662	-773
325.750	-1211
325.839	-639
325.927	-583
326.015	-661
326.104	-912
326.192	-411
326.280	-1144
326.369	-719
326.457	-1442
326.545	-561
326.634	-967
326.722	-151
326.810	-1081
326.898	80
326.987	-185
327.075	-1315
327.163	-543
327.251	-603
327.340	-1815
327.428	-109
327.516	-465
327.604	-1094
327.692	-1033
327.781	-494
327.869	-753
327.957	-234
328.045	-610
328.133	-292
328.221	-984
328.309	-559
328.397	-518
328.485	-253
328.574	-1057
328.662	-499
328.750	-863
328.838	-851
328.926	-1195
329.014	-798
329.102	-1192
329.190	-1078
329.278	-453
329.366	-584
329.454	-1009
329.542	-901
329.630	-1461
329.718	-1219
329.806	-1046
329.893	-803
329.981	-1773
330.069	-633
330.157	-1007
330.245	-815
330.333	-607
330.421	-881
330.509	-805
330.597	-259
330.684	-651
330.772	-756
330.860	-813
330.948	-1243
331.036	-802
331.123	-907
331.211	-1140
331.299	-432
331.387	-768
331.475	-550
331.562	-392
331.650	-934
331.738	-1626
331.825	-140
331.913	-743
332.001	-621
332.089	-1165
332.176	-402
332.264	-401
332.352	-1072
332.439	-641
332.527	-488
332.614	-1433
332.702	-553
332.790	-423
332.877	-10
332.965	-79
333.052	-328
333.140	-1408
333.228	-570
333.315	-1002
333.403	-580
333.490	-971
333.578	-1968
333.665	-1083
333.753	-876
333.840	-1562
333.928	-795
334.015	-594
334.103	-45
334.190	-889
334.278	-191
334.365	-682
334.452	-245
334.540	-1134
334.627	-834
334.715	-1434
334.802	-829
334.889	-1225
334.977	-419
335.064	-837
335.151	-1229
335.239	-785
335.326	-644
335.413	-932
335.501	-740
335.588	-934
335.675	-931
335.762	-977
335.850	-584
335.937	-1051
336.024	-241
336.111	-647
336.199	-209
336.286	-612
336.373	-678
336.460	-1124
336.547	-832
336.635	-932
336.722	-567
336.809	-1232
336.896	-1349
336.983	-573
337.070	-446
337.157	-943
337.245	-743
337.332	-666
337.419	-1109
337.506	-1275
337.593	-649
337.680	-1366
337.767	-240
337.854	-1107
337.941	-674
338.028	-720
338.115	-1194
338.202	-430
338.289	-731
338.376	-948
338.463	22
338.550	-973
338.637	-579
338.724	-891
338.811	-589
338.898	-1197
338.984	-340
339.071	-411
339.158	-586
339.245	-571
339.332	-328
339.419	-1077
339.506	91
339.593	-2636
339.679	-523
339.766	-801
339.853	-1412
339.940	-1187
340.027	-1081
340.113	-677
340.200	-207
340.287	-811
340.374	-1242
340.460	-529
340.547	-1213
340.634	-580
340.720	-430
340.807	-753
340.894	-255
340.980	-1011
341.067	-1145
341.154	-346
341.240	-1589
341.327	-730
341.414	-298
341.500	-1969
341.587	-776
341.674	-887
341.760	-1222
341.847	-185
341.933	-194
342.020	-1316
342.106	-932
342.193	-1001
342.279	-19
342.366	-1075
342.452	-728
342.539	-1003
342.625	-477
342.712	-1583
342.798	-497
342.885	-1326
342.971	-1240
343.058	-444
343.144	-738
343.230	272
343.317	-934
343.403	-1865
343.490	-810
343.576	-1160
343.662	-523
343.749	-1328
343.835	-789
343.921	-1213
344.008	-243
344.094	-274
344.180	-381
344.267	-646
344.353	-1397
344.439	-681
344.525	-888
344.612	10
344.698	-138
344.784	-1440
344.870	-837
344.957	-1284
345.043	-176
345.129	-1339
345.215	-602
345.301	-1448
345.387	-678
345.474	-1557
345.560	-860
345.646	-1133
345.732	-1197
345.818	-957
345.904	-1081
345.990	-1064
346.076	-1032
346.162	-782
346.249	181
346.335	-1009
346.421	-534
346.507	-1242
346.593	-1833
346.679	-1273
346.765	327
346.851	-905
346.937	-1786
347.023	-311
347.108	-378
347.194	-541
347.280	-651
347.366	-1548
347.452	-510
347.538	-982
347.624	290
347.710	-426
347.796	-664
347.882	-588
347.967	-561
348.053	-936
348.139	-803
348.225	-930
348.311	-580
348.397	-724
348.482	16
348.568	-1544
348.654	-927
348.740	-1263
348.825	-1655
348.911	-51
348.997	-1067
349.083	-80
349.168	-274
349.254	-1691
349.340	-843
349.425	-1058
349.511	-774
349.597	-1543
349.682	-1430
349.768	61
349.854	-265
349.939	-473
350.025	-1165
350.110	-1100
350.196	-754
350.282	-1042
350.367	-306
350.453	-747
350.538	-611
350.624	-1240
350.709	-959
350.795	-1357
350.880	-810
350.966	-480
351.051	-423
351.137	-1329
351.222	-1393
351.308	-739
351.393	-747
351.479	-1105
351.564	-828
351.649	-694
351.735	-746
351.820	-880
351.906	-620
351.991	-1888
352.076	-1561
352.162	-694
352.247	-476
352.332	-710
352.418	-929
352.503	-1255
352.588	-300
352.673	-1121
352.759	-1130
352.844	-940
352.929	-522
353.014	-1084
353.100	-243
353.185	-957
353.270	-514
353.355	-733
353.441	-1051
353.526	-656
353.611	-631
353.696	-979
353.781	184
353.866	-901
353.952	-585
354.037	-1569
354.122	-796
354.207	-766
354.292	33
354.377	-740
354.462	6
354.547	-767
354.632	-673
354.717	-429
354.802	-731
354.887	-1413
354.972	-845
355.057	-822
355.142	-1058
355.227	-1131
355.312	-448
355.397	-1121
355.482	-1138
355.567	-1095
355.652	-586
355.737	-413
355.822	-224
355.907	-1078
355.991	267
356.076	-950
356.161	282
356.246	-981
356.331	-670
356.416	-1143
356.501	549
356.585	-1400
356.670	-762
356.755	409
356.840	-1012
356.924	132
357.009	153
357.094	-837
357.179	-622
357.263	-704
357.348	1
357.433	-550
357.517	-665
357.602	-966
357.687	-801
357.771	-493
357.856	-90
357.941	-929
358.025	-834
358.110	355
358.195	-428
358.279	-1210
358.364	-632
358.448	-623
358.533	-445
358.617	-151
358.702	-422
358.787	-679
358.871	-656
358.956	-504
359.040	24
359.125	-612
359.209	-166
359.294	-857
359.378	-801
359.462	-108
359.547	-305
359.631	-1311
359.716	-600
359.800	-1243
359.885	21
359.969	-1098
360.053	71
360.138	-759
360.222	-507
360.306	-1162
360.391	-275
360.475	-1066
360.559	-877
360.644	-939
360.728	-735
360.812	-37
360.896	9
360.981	-1045
361.065	-962
361.149	94
361.233	-273
361.318	-1473
361.402	-556
361.486	-241
361.570	-408
361.654	-437
361.739	-1470
361.823	-1907
361.907	64
361.991	-907
362.075	-1223
362.159	-1956
362.243	-116
362.327	-1610
362.411	1053
362.495	-655
362.580	-359
362.664	-577
362.748	-1390
362.832	-925
362.916	-1243
363.000	552
363.084	502
363.168	-510
363.252	-544
363.336	-217
363.420	267
363.503	-712
363.587	-1087
363.671	-600
363.755	-1143
363.839	-306
363.923	-1366
364.007	-1133
364.091	-545
364.175	-2636
364.258	1661
364.342	-1144
364.426	2103
364.510	59
364.594	219
364.677	-845
364.761	-1480
364.845	-311
364.929	-167
365.013	-608
365.096	-130
365.180	-1598
365.264	-651
365.347	159
365.431	-410
365.515	-840
365.598	-1661
365.682	134
365.766	-786
365.849	-1271
365.933	-955
366.017	-497
366.100	-1348
366.184	-1668
366.267	-447
366.351	-1053
366.435	-1445
366.518	-1361
366.602	-1095
366.685	-995
366.769	-1306
366.852	-689
366.936	-1167
367.019	-698
367.103	-1399
367.186	-78
367.270	-456
367.353	-2000
367.436	22
367.520	-1427
367.603	-974
367.687	-1765
367.770	-715
367.853	-148
367.937	-63
368.020	-858
368.104	-1446
368.187	-952
368.270	-389
368.353	-1477
368.437	-686
368.520	-1057
368.603	-767
368.687	-2155
368.770	-674
368.853	-951
368.936	-212
369.020	-580
369.103	-202
369.186	-1566
369.269	-1572
369.352	-750
369.436	-1084
369.519	-2100
369.602	-2426
369.685	-621
369.768	-1590
369.851	-1636
369.934	-834
370.018	-1590
370.101	-1823
370.184	-514
370.267	-258
370.350	-995
370.433	-490
370.516	-1198
370.599	-277
370.682	-2195
370.765	45
370.848	-67
370.931	-1085
371.014	-55
371.097	-1304
371.180	11
371.263	-1038
371.346	-2235
371.429	-586
371.511	-1508
371.594	-512
371.677	69
371.760	153
371.843	-1525
371.926	-153
372.009	-1099
372.091	1508
372.174	-1493
372.257	-1170
372.340	-2083
372.423	-752
372.505	-840
372.588	-1151
372.671	-1339
372.754	-1202
372.836	-1273
372.919	-345
373.002	-561
373.085	-1847
373.167	-1274
373.250	-1255
373.332	-1535
373.415	319
373.498	-754
373.580	113
373.663	-688
373.746	-138
373.828	-1809
373.911	-683
373.993	-1267
374.076	-285
374.159	-1012
374.241	-665
374.324	-703
374.406	458
374.489	-1422
374.571	-250
374.654	-889
374.736	-864
374.819	-1450
374.901	-64
374.983	-1370
375.066	-784
375.148	-1563
375.231	-1133
375.313	-1214
375.395	-1728
375.478	-978
375.560	-1072
375.643	-717
375.725	-601
375.807	-1976
375.890	90
375.972	-2174
376.054	-652
376.136	-1245
376.219	-1078
376.301	-1284
376.383	-1103
376.465	-1674
376.548	-678
376.630	-1677
376.712	-1887
376.794	-1389
376.877	-992
376.959	-1598
377.041	-907
377.123	-1737
377.205	-365
377.287	-1476
377.369	-534
377.452	-1676
377.534	-481
377.616	-909
377.698	-1397
377.780	-1780
377.862	-448
377.944	-214
378.026	-1258
378.108	-1397
378.190	-918
378.272	-737
378.354	-924
378.436	-1291
378.518	-1121
378.600	-1472
378.682	-573
378.764	-2210
378.846	-988
378.928	-2112
379.010	-1851
379.091	-1062
379.173	-941
379.255	-1972
379.337	-1223
379.419	-1618
379.501	-517
379.583	-1858
379.664	-1503
379.746	-1560
379.828	-44
379.910	-1730
379.991	-994
380.073	-1366
380.155	-1661
380.237	-1612
380.318	-1246
380.400	-1337
380.482	-820
380.564	-1416
380.645	-2264
380.727	-1976
380.809	-773
380.890	-2045
380.972	-2493
381.053	-1328
381.135	-767
381.217	-2470
381.298	-169
381.380	-2018
381.461	-1343
381.543	-892
381.624	-1150
381.706	-1078
381.787	-1506
381.869	-687
381.951	-1633
382.032	-2239
382.113	822
382.195	-2189
382.276	-100
382.358	-1963
382.439	-1565
382.521	-431
382.602	-513
382.684	-682
382.765	-345
382.846	-1672
382.928	1340
383.009	-768
383.090	-1195
383.172	170
383.253	3047
383.334	308
383.416	-1120
383.497	-686
383.578	-1036
383.659	-776
383.741	153
383.822	3774
383.903	1091
383.984	-1655
384.066	235
384.147	-1638
384.228	-656
384.309	-838
384.390	-1526
384.471	-1502
384.553	-1204
384.634	-1632
384.715	-1122
384.796	-1316
384.877	-1891
384.958	-1377
385.039	-1543
385.120	-1768
385.201	86
385.282	-1906
385.363	-296
385.444	-2213
385.525	-1267
385.606	-1153
385.687	-1313
385.768	-1901
385.849	-1657
385.930	-1016
386.011	257
386.092	-1964
386.173	-1610
386.254	-821
386.335	-1150
386.416	-1403
386.496	-984
386.577	-949
386.658	-1757
386.739	-1332
386.820	-889
386.901	-1840
386.981	-547
387.062	-1458
387.143	-1466
387.224	-2064
387.304	-157
387.385	-724
387.466	-2160
387.547	-1283
387.627	-1292
387.708	-1520
387.789	-798
387.869	-2230
387.950	-312
388.031	-1353
388.111	-3052
388.192	46
388.273	-123
388.353	-1964
388.434	-964
388.514	-2037
388.595	-1378
388.676	-1384
388.756	-831
388.837	-1392
388.917	-886
388.998	-2150
389.078	-299
389.159	-333
389.239	-2640
389.320	-517
389.400	-2654
389.480	-737
389.561	-1037
389.641	-839
389.722	-502
389.802	-2234
389.883	-608
389.963	-253
390.043	-1144
390.124	-2787
390.204	-648
390.284	-1011
390.365	-1840
390.445	-1171
390.525	-1594
390.605	-1327
390.686	-1212
390.766	-996
390.846	-39
390.927	-1720
391.007	-986
391.087	-361
391.167	-1435
391.247	-2012
391.328	-556
391.408	-1414
391.488	-967
391.568	-2268
391.648	-1535
391.728	-594
391.808	-908
391.888	-1548
391.969	-1441
392.049	-1172
392.129	-425
392.209	-1994
392.289	-69
392.369	-1470
392.449	-881
392.529	-1309
392.609	-54
392.689	-1207
392.769	-742
392.849	-1417
392.929	217
393.009	-1773
393.089	-2007
393.169	-468
393.248	-513
393.328	9479
393.408	9985
393.488	1524
393.568	-278
393.648	-1030
393.728	-1231
393.807	-2059
393.887	-503
393.967	-1710
394.047	-1269
394.127	-2026
394.206	413
394.286	-1203
394.366	662
394.446	1729
394.525	-1003
394.605	-1082
394.685	-244
394.764	-678
394.844	-1556
394.924	-2016
395.003	-1016
395.083	-963
395.163	-1133
395.242	-670
395.322	-95
395.402	-2700
395.481	-385
395.561	-1934
395.640	-173
395.720	-780
395.799	-1374
395.879	-1760
395.958	-1507
396.038	-883
396.117	1906
396.197	3173
396.276	460
396.356	-1867
396.435	-1203
396.515	40
396.594	-984
396.673	-775
396.753	1464
396.832	8584
396.912	5743
396.991	-875
397.070	500
397.150	-1938
397.229	-221
397.308	-1414
397.388	-659
397.467	-278
397.546	-366
397.625	-2514
397.705	89
397.784	-1272
397.863	-1192
397.942	-1409
398.022	-873
398.101	-2924
398.180	-812
398.259	-1849
398.338	-209
398.417	-1509
398.497	-1126
398.576	-703
398.655	-1740
398.734	-1272
398.813	-408
398.892	-1428
398.971	-432
399.050	-1519
399.129	-1743
399.208	-850
399.287	-336
399.366	-1506
399.445	-373
399.524	-959
399.603	-2596
399.682	-935
399.761	-1465
399.840	-231
399.919	-501
399.998	-1135
400.077	-1875
400.156	-2018
400.235	725
400.313	-1155
400.392	-2049
400.471	-1553
400.550	-553
400.629	-2359
400.708	-1582
400.786	-1442
400.865	-1645
400.944	-2403
401.023	267
401.102	-2098
401.180	-1137
401.259	-602
401.338	-1286
401.416	-801
401.495	-1294
401.574	-986
401.652	-1294
401.731	-611
401.810	-2250
401.888	-1496
401.967	-1080
402.046	-1821
402.124	-1069
402.203	-1985
402.281	-412
402.360	-2117
402.438	-1211
402.517	-2628
402.596	-424
402.674	-1724
402.753	-1257
402.831	-1216
402.910	-816
402.988	-2148
403.066	-1654
403.145	-611
403.223	10
403.302	-1513
403.380	-705
403.459	-1072
403.537	-1452
403.615	-1123
403.694	-2403
403.772	-302
403.850	-757
403.929	-1580
404.007	-1327
404.085	117
404.164	-1026
404.242	-701
404.320	-759
404.398	-844
404.477	-1311
404.555	-951
404.633	-934
404.711	-1276
404.789	-920
404.868	-2272
404.946	-1754
405.024	-1226
405.102	-1936
405.180	-1653
405.258	-1947
405.336	-751
405.415	-1817
405.493	-1601
405.571	-1432
405.649	-2258
405.727	-2233
405.805	-935
405.883	-1224
405.961	-717
406.039	-2440
406.117	-2091
406.195	-1274
406.273	-2071
406.351	-714
406.429	-544
406.507	-1741
406.585	-1261
406.663	-906
406.740	-1057
406.818	-1780
406.896	-1912
406.974	-623
407.052	-2198
407.130	-100
407.208	-1349
407.285	-739
407.363	-1796
407.441	-1510
407.519	-1570
407.596	-1126
407.674	-965
407.752	-1921
407.830	-1690
407.907	-957
407.985	-2460
408.063	-511
408.141	-2299
408.218	-672
408.296	-2752
408.373	-1796
408.451	-1761
408.529	-1419
408.606	-1555
408.684	-820
408.762	-947
408.839	-798
408.917	-1997
408.994	-1147
409.072	-1815
409.149	-1703
409.227	-444
409.304	58
409.382	-1972
409.459	-2033
409.537	-437
409.614	-1344
409.692	-1826
409.769	-1473
409.846	-1611
409.924	-226
410.001	-3194
410.079	-1555
410.156	-762
410.233	-1113
410.311	-1774
410.388	-1967
410.465	-1857
410.543	-2423
410.620	-632
410.697	-1546
410.775	-1638
410.852	-2650
410.929	-840
411.006	-343
411.083	-1526
411.161	-1925
411.238	-1374
411.315	-1714
411.392	-2234
411.469	-688
411.547	-1338
411.624	-2162
411.701	-2020
411.778	-1080
411.855	-1839
411.932	-1623
412.009	-1494
412.086	-1185
412.163	-527
412.240	-841
412.317	-672
412.394	-1447
412.471	-1664
412.548	-856
412.625	-1133
412.702	-1371
412.779	-1025
412.856	-1001
412.933	-1718
413.010	-1286
413.087	-1196
413.164	-1864
413.241	-1611
413.318	-1660
413.395	-129
413.471	-1794
413.548	-1142
413.625	-811
413.702	-2231
413.779	-1150
413.855	-1751
413.932	-1475
414.009	-2862
414.086	-630
414.162	-1164
414.239	-1080
414.316	-1763
414.393	-51
414.469	-2100
414.546	-1438
414.623	-1058
414.699	-1249
414.776	-1302
414.853	-1228
414.929	-1022
415.006	-1152
415.082	-1668
415.159	-1707
415.236	-845
415.312	-1100
415.389	-1624
415.465	-1858
415.542	-1285
415.618	-2248
415.695	-1093
415.771	-1655
415.848	-2298
415.924	-1088
416.000	-2028
416.077	-281
416.153	-2045
416.230	-2431
416.306	-1584
416.383	-1253
416.459	-1147
416.535	-828
416.612	-1452
416.688	-958
416.764	-1325
416.841	-2075
416.917	-1760
416.993	-1066
417.069	-1620
417.146	-1349
417.222	-1556
417.298	-1394
417.374	-2490
417.451	-714
417.527	-1277
417.603	-1429
417.679	-1636
417.755	-913
417.831	-2584
417.908	-1291
417.984	-1454
418.060	-2480
418.136	-1507
418.212	-2164
418.288	-1460
418.364	-621
418.440	-2508
418.516	-621
418.592	-1887
418.668	-1589
418.744	-1858
418.820	-721
418.896	-1263
418.972	-2150
419.048	-1506
419.124	-980
419.200	-2700
419.276	-967
419.352	-2215
419.428	-1434
419.504	-1902
419.579	-473
419.655	-2480
419.731	-1458
419.807	-2395
419.883	-2522
419.959	-1889
420.034	-1868
420.110	-2257
420.186	-2367
420.262	-1261
420.337	-1701
420.413	-2152
420.489	-1292
420.565	-845
420.640	-1970
420.716	-1466
420.792	-1765
420.867	-1193
420.943	-2113
421.019	-1962
421.094	-1800
421.170	-1836
421.245	-2526
421.321	-1267
421.397	-1298
421.472	-997
421.548	-2618
421.623	-1894
421.699	-997
421.774	-1304
421.850	-2192
421.925	-994
422.001	-1674
422.076	-1648
422.152	-1309
422.227	-1951
422.302	-188
422.378	-1375
422.453	-672
422.529	2150
422.604	8223
422.679	16806
422.755	10443
422.830	2748
422.905	514
422.981	-1706
423.056	-1572
423.131	-906
423.207	-1723
423.282	-1561
423.357	-1332
423.432	-1271
423.508	-1030
423.583	-3024
423.658	-1940
423.733	-1575
423.808	-1847
423.883	-1648
423.959	-1630
424.034	-2599
424.109	-765
424.184	-2343
424.259	-894
424.334	-1729
424.409	-2363
424.484	-2024
424.559	-1218
424.634	-2012
424.709	-1770
424.784	-967
424.859	-1557
424.934	-2350
425.009	-1050
425.084	-1587
425.159	-1345
425.234	-1399
425.309	-1863
425.384	-2238
425.459	-2237
425.534	-1351
425.609	-2131
425.683	-1621
425.758	-1705
425.833	-1500
425.908	-1035
425.983	-1955
426.058	-1422
426.132	-1983
426.207	-1279
426.282	-496
426.357	-2290
426.431	-1946
426.506	-1331
426.581	-1891
426.655	-1281
426.730	-2001
426.805	-2247
426.879	-998
426.954	-1246
427.029	-2008
427.103	-1698
427.178	-2027
427.253	-1351
427.327	-1493
427.402	-1982
427.476	-1982
427.551	-2476
427.625	-2057
427.700	-918
427.774	-2181
427.849	-1538
427.923	-2765
427.998	-1759
428.072	-1972
428.147	-1211
428.221	-1462
428.296	627
428.370	-1117
428.444	-1054
428.519	-1826
428.593	-2095
428.667	-2018
428.742	-1948
428.816	-1494
428.890	-333
428.965	128
429.039	-763
429.113	-1482
429.188	-2281
429.262	-2470
429.336	-1542
429.410	-2172
429.485	-637
429.559	-1624
429.633	-1082
429.707	-2093
429.781	-1316
429.855	-1942
429.930	37
430.004	-1691
430.078	-1656
430.152	-2270
430.226	928
430.300	1777
430.374	-1674
430.448	-1428
430.522	-1635
430.596	-2375
430.670	-281
430.744	-606
430.818	-45
430.892	-1460
430.966	-1856
431.040	-1908
431.114	-2077
431.188	-2969
431.262	-1988
431.336	-2077
431.410	-1860
431.484	-2271
431.557	-1122
431.631	-2444
431.705	-1034
431.779	-2132
431.853	845
431.927	-866
432.000	-1164
432.074	-1609
432.148	-1912
432.222	-2536
432.295	-1039
432.369	-1838
432.443	-2240
432.516	-1956
432.590	-1454
432.664	-1586
432.737	-1457
432.811	-1964
432.885	-892
432.958	-1707
433.032	-1509
433.106	-1916
433.179	-1601
433.253	-1625
433.326	-1565
433.400	-1879
433.473	-877
433.547	-2441
433.620	-1218
433.694	-2425
433.767	-1040
433.841	-2161
433.914	-1992
433.988	-1995
434.061	-1580
434.134	-1808
434.208	-1012
434.281	-2115
434.355	-2133
434.428	-1621
434.501	-1874
434.575	-1703
434.648	-1469
434.721	-1817
434.795	-1896
434.868	-2699
434.941	-2085
435.014	-2309
435.088	-2710
435.161	-1743
435.234	-1947
435.307	-2669
435.381	-1685
435.454	-2050
435.527	-667
435.600	-1284
435.673	-1765
435.746	-1995
435.819	-1291
435.892	-1326
435.966	-1893
436.039	-2302
436.112	-1077
436.185	-1619
436.258	-1588
436.331	-2632
436.404	-1049
436.477	-2467
436.550	-1676
436.623	-1474
436.696	-2353
436.769	-1335
436.842	-1384
436.915	-2076
436.987	-1890
437.060	-1956
437.133	-1680
437.206	-2986
437.279	-915
437.352	-1939
437.425	-1635
437.498	-1598
437.570	-1854
437.643	-2238
437.716	-1531
437.789	-1959
437.861	-1912
437.934	-2230
438.007	-1988
438.080	-2326
438.152	-1192
438.225	-1364
438.298	-1472
438.370	-2828
438.443	-942
438.516	-1778
438.588	-2151
438.661	-2861
438.734	-1080
438.806	-1485
438.879	-785
438.951	-1772
439.024	-2069
439.096	-2398
439.169	-1893
439.241	-1932
439.314	-1265
439.386	-2844
439.459	-1804
439.531	-2112
439.604	-1423
439.676	-1879
439.749	-2056
439.821	-1781
439.893	-1390
439.966	-2273
440.038	-1794
440.110	-1395
440.183	-1635
440.255	-1922
440.327	-2038
440.400	-1665
440.472	-1600
440.544	-1971
440.617	-2318
440.689	-1198
440.761	-1755
440.833	-1806
440.905	-1361
440.978	-1840
441.050	-1416
441.122	-1596
441.194	-1397
441.266	-1874
441.338	-1998
441.411	-1629
441.483	-909
441.555	-1806
441.627	-1651
441.699	-2110
441.771	-2218
441.843	-2913
441.915	-1171
441.987	-1729
442.059	-1468
442.131	-1954
442.203	-1591
442.275	-2265
442.347	-1182
442.419	-1843
442.491	-1097
442.563	114
442.635	-712
442.706	-2668
442.778	-1585
442.850	-1623
442.922	-1796
442.994	-1561
443.066	-1229
443.137	-2379
443.209	-1918
443.281	-1614
443.353	-1478
443.425	-765
443.496	1557
443.568	1826
443.640	-827
443.711	-1880
443.783	-1744
443.855	-2298
443.926	-1462
443.998	-1859
444.070	-1976
444.141	-2335
444.213	-1051
444.285	-1488
444.356	-1441
444.428	-2154
444.499	-1516
444.571	-2015
444.642	-1192
444.714	-1922
444.785	-2191
444.857	-2312
444.928	-1259
445.000	-1874
445.071	-1089
445.143	-1349
445.214	-1714
445.285	-1976
445.357	-1510
445.428	-270
445.500	3438
445.571	634
445.642	62
445.714	-1088
445.785	-1120
445.856	-2755
445.928	-1456
445.999	-1772
446.070	-2010
446.141	-1873
446.213	-1260
446.284	-2295
446.355	-1800
446.426	-1497
446.497	-1473
446.569	-2536
446.640	-2231
446.711	-1937
446.782	-1608
446.853	-2006
446.924	-1157
446.995	-2617
447.066	-1584
447.138	-2129
447.209	-1712
447.280	-2737
447.351	-2098
447.422	-2332
447.493	-2012
447.564	-2705
447.635	-2755
447.706	-2674
447.777	-2002
447.847	-1468
447.918	-2561
447.989	-2468
448.060	-1342
448.131	-1921
448.202	-2480
448.273	-2065
448.344	-1528
448.414	-1746
448.485	-2026
448.556	-2106
448.627	-1726
448.698	-1659
448.768	-1565
448.839	-1912
448.910	-2079
448.981	-1689
449.051	-2059
449.122	-2342
449.193	-1609
449.263	-2229
449.334	-1747
449.405	-1026
449.475	-1721
449.546	-2425
449.616	-1230
449.687	-1745
449.758	-1510
449.828	-2258
449.899	-1661
449.969	-1831
450.040	-2877
450.110	-1457
450.181	-1310
450.251	-2802
450.322	-1355
450.392	-1547
450.463	-1466
450.533	-1977
450.604	-1627
450.674	-2538
450.744	-1724
450.815	-2511
450.885	-1703
450.955	-2422
451.026	-2166
451.096	-2621
451.166	-2318
451.237	-2395
451.307	-1589
451.377	-2373
451.447	-1812
451.518	-2132
451.588	-2427
451.658	-2369
451.728	-2297
451.799	-2312
451.869	-2236
451.939	-2394
452.009	-1692
452.079	-2259
452.149	-1736
452.219	-2217
452.289	-1695
452.360	-1237
452.430	-2371
452.500	-2663
452.570	-2089
452.640	-2337
452.710	-1858
452.780	-1512
452.850	-2010
452.920	-2348
452.990	-2031
453.060	-2084
453.129	-1892
453.199	-3088
453.269	-1869
453.339	-2081
453.409	-2303
453.479	-1716
453.549	-1992
453.619	-1746
453.688	-2730
453.758	-2142
453.828	-2176
453.898	-2542
453.968	-1652
454.037	-2023
454.087	-2220
454.107	-2313
454.168	-2158
454.177	-2145
454.247	-1325
454.249	-1341
454.316	-1947
454.330	-1976
454.386	-2155
454.411	-2444
454.456	-2945
454.492	-2071
454.525	-1329
454.574	-1697
454.595	-1868
454.655	-2295
454.665	-2372
454.734	-2724
454.736	-2692
454.804	-1668
454.817	-1812
454.873	-2527
454.898	-2508
454.943	-2501
454.979	-2316
455.013	-2161
455.060	-1539
455.082	-1266
455.141	-1924
455.152	-2035
455.221	-1619
455.222	-1611
455.291	-1872
455.303	-1977
455.360	-2357
455.384	-2284
455.430	-2281
455.465	-2145
455.499	-2061
455.546	-1885
455.569	-1763
455.627	-1593
455.638	-1570
455.707	-1751
455.708	-1741
455.777	-1828
455.789	-1825
455.846	-1814
455.869	-2006
455.916	-2363
455.950	-2087
455.985	-1897
456.031	-2003
456.054	-2014
456.112	-1571
456.124	-1488
456.193	-1716
456.193	-1726
456.262	-2457
456.274	-2311
456.332	-1596
456.355	-1673
456.401	-1903
456.436	-2004
456.470	-2053
456.516	-1744
456.540	-1637
456.597	-1487
456.609	-1413
456.678	-1394
456.678	-1402
456.747	-1495
456.759	-1657
456.817	-2573
456.840	-2250
456.886	-1464
456.920	-1645
456.955	-1922
457.001	-1544
457.024	-1401
457.082	-1951
457.093	-2027
457.162	-1317
457.163	-1312
457.232	-1480
457.243	-1469
457.301	-1600
457.324	-1526
457.370	-1247
457.405	-1311
457.439	-1417
457.485	-1325
457.508	-1386
457.566	-1740
457.577	-1765
457.646	-1395
457.647	-1387
457.715	-1019
457.727	-1079
457.784	-977
457.808	-629
457.853	-565
457.889	-536
457.922	-585
457.969	-973
457.991	-1010
458.050	-918
458.060	-830
458.129	-382
458.130	-351
458.198	-948
458.211	-1084
458.267	-1607
458.292	-1790
458.336	-1581
458.372	-1181
458.405	-719
458.453	-699
458.474	-622
458.533	886
458.543	1056
458.611	958
458.614	990
458.680	-529
458.694	-996
458.749	-1579
458.775	-1490
458.818	-1249
458.855	-1111
458.887	-1083
458.936	-1233
458.955	-1322
459.016	-1513
459.024	-1476
459.093	-1129
459.097	-1087
459.162	-980
459.177	-1087
459.230	-1168
459.257	-1273
459.299	-1468
459.338	-1407
459.368	-1357
459.418	-1072
459.437	-1089
459.499	-1752
459.505	-1762
459.574	-776
459.579	-760
459.643	-1224
459.659	-1305
459.711	-1262
459.740	-1162
459.780	-1013
459.820	-897
459.849	-825
459.900	-700
459.917	-650
459.981	-606
459.986	-638
460.054	-835
460.061	-841
460.123	-612
460.141	-666
460.191	-910
460.222	-1001
460.260	-850
460.302	-646
460.328	-862
460.382	-1239
460.397	-1243
460.462	-1584
460.465	-1595
460.534	-589
460.543	-581
460.602	-496
460.623	-448
460.671	81
460.703	618
460.739	319
460.783	-481
460.808	-672
460.864	-400
460.876	-347
460.944	-1119
460.945	-1128
461.013	-524
461.024	-595
461.081	-1026
461.104	-928
461.150	-303
461.184	-275
461.218	-702
461.264	-857
461.286	-822
461.345	-952
461.355	-916
461.423	-319
461.425	-319
461.491	-970
461.505	-963
461.559	-581
461.585	-518
461.628	-636
461.665	-611
461.696	-475
461.745	-451
461.764	-495
461.825	-759
461.832	-776
461.901	-730
461.905	-706
461.969	-785
461.985	-923
462.037	-493
462.065	-128
462.105	-570
462.145	-918
462.173	-685
462.225	-698
462.241	-783
462.305	-681
462.310	-664
462.378	-412
462.385	-424
462.446	-667
462.465	-628
462.514	-517
462.545	-612
462.582	-756
462.625	-806
462.650	-844
462.705	-1045
462.718	-973
462.785	-206
462.786	-207
462.854	-1017
462.865	-1064
462.922	-584
462.945	-330
462.990	-148
463.025	-249
463.058	-409
463.104	-274
463.126	-286
463.184	-808
463.194	-729
463.262	-199
463.264	-166
463.330	214
463.344	207
463.398	50
463.424	-133
463.466	-768
463.504	-914
463.533	-277
463.583	537
463.601	303
463.663	-686
463.669	-677
463.737	-300
463.743	-271
463.805	-389
463.823	-493
463.873	-221
463.903	60
463.940	1
463.982	-230
464.008	-423
464.062	-592
464.076	-446
464.142	17
464.144	19
464.211	14
464.221	40
464.279	-677
464.301	-1069
464.347	-556
464.381	-46
464.414	-121
464.461	-248
464.482	-280
464.540	-412
464.550	-397
464.617	-312
464.620	-309
464.685	185
464.699	248
464.753	-131
464.779	-283
464.820	-400
464.859	-503
464.888	-486
464.938	-381
464.956	-102
465.018	692
465.023	639
465.091	57
465.098	-11
465.158	96
465.177	130
465.226	-22
465.257	-216
465.293	-113
465.336	157
465.361	191
465.416	153
465.428	44
465.495	-475
465.496	-471
465.563	-227
465.575	-163
465.631	114
465.654	178
465.698	-21
465.734	-133
465.765	106
465.813	406
465.833	492
465.893	717
465.900	663
465.968	216
465.972	185
466.035	146
466.052	91
466.102	26
466.131	-10
466.170	18
466.210	37
466.237	170
466.290	503
466.304	437
466.369	-27
466.372	-20
466.439	203
466.449	210
466.506	228
466.528	264
466.573	80
466.607	-100
466.641	-102
466.687	-60
466.708	13
466.766	139
466.775	109
466.842	-115
466.845	-129
466.909	292
466.925	392
466.977	510
467.004	548
467.044	500
467.083	485
467.111	489
467.163	456
467.178	480
467.242	580
467.245	568
467.312	264
467.321	225
467.379	400
467.400	458
467.446	135
467.480	-98
467.559	1495
467.638	-25
467.717	-490
467.796	815
467.875	554
467.955	-323
468.034	-138
468.113	636
468.192	931
468.271	1080
468.350	577
468.429	1000
468.508	348
468.588	1012
468.667	549
468.746	292
468.825	123
468.904	1086
468.983	-96
469.062	-435
469.141	620
469.220	607
469.299	238
469.378	-190
469.456	949
469.535	880
469.614	-134
469.693	255
469.772	204
469.851	496
469.930	417
470.009	1042
470.088	340
470.166	361
470.245	775
470.324	1481
470.403	6
470.482	624
470.560	456
470.639	223
470.718	521
470.797	960
470.875	401
470.954	-485
471.033	-20
471.111	52
471.190	-627
471.269	186
471.347	-127
471.426	436
471.505	7
471.583	114
471.662	1141
471.740	290
471.819	-63
471.898	138
471.976	486
472.055	233
472.133	860
472.212	233
472.290	-400
472.369	793
472.447	2
472.526	-270
472.604	877
472.683	124
472.761	311
472.839	-189
472.918	347
472.996	-94
473.075	790
473.153	767
473.231	-30
473.310	451
473.388	2
473.466	53
473.545	746
473.623	-257
473.701	349
473.780	286
473.858	-1021
473.936	1603
474.014	586
474.093	615
474.171	906
474.249	14
474.327	-105
474.405	-128
474.484	368
474.562	198
474.640	40
474.718	-473
474.796	518
474.874	1430
474.952	71
475.030	897
475.108	-332
475.187	-471
475.265	-362
475.343	-37
475.421	221
475.499	-406
475.577	1155
475.655	220
475.733	337
475.811	-142
475.889	-120
475.966	626
476.044	-15
476.122	-78
476.200	573
476.278	179
476.356	-661
476.434	-661
476.512	533
476.590	158
476.667	469
476.745	343
476.823	983
476.901	34
476.979	36
477.056	315
477.134	-119
477.212	-62
477.290	523
477.367	313
477.445	-76
477.523	-103
477.601	1175
477.678	311
477.756	-76
477.834	854
477.911	344
477.989	462
478.066	388
478.144	-218
478.222	125
478.299	9
478.377	-381
478.454	-772
478.532	664
478.609	835
478.687	52
478.764	-194
478.842	-300
478.919	156
478.997	861
479.074	210
479.152	763
479.229	428
479.307	683
479.384	105
479.461	908
479.539	-225
479.616	260
479.694	154
479.771	559
479.848	-198
479.926	-872
480.003	911
480.080	280
480.157	1179
480.235	382
480.312	116
480.389	225
480.467	178
480.544	588
480.621	234
480.698	612
480.775	266
480.853	196
480.930	-417
481.007	846
481.084	-600
481.161	-239
481.238	160
481.315	-278
481.392	56
481.470	769
481.547	-272
481.624	-125
481.701	-670
481.778	381
481.855	801
481.932	194
482.009	-198
482.086	107
482.163	-472
482.240	-367
482.317	379
482.393	-441
482.470	466
482.547	633
482.624	-7
482.701	-171
482.778	-488
482.855	65
482.932	-332
483.009	401
483.085	261
483.162	-176
483.239	484
483.316	-606
483.393	277
483.469	42
483.546	306
483.623	795
483.699	43
483.776	265
483.853	644
483.930	866
484.006	-108
484.083	894
484.160	149
484.236	1491
484.313	1092
484.389	236
484.466	483
484.543	669
484.619	565
484.696	626
484.772	-240
484.849	121
484.925	751
485.002	832
485.078	665
485.155	477
485.231	132
485.308	-835
485.384	601
485.461	1110
485.537	463
485.614	1186
485.690	-277
485.766	731
485.843	427
485.919	-240
485.995	722
486.072	362
486.148	-512
486.224	244
486.301	505
486.377	732
486.453	-67
486.530	887
486.606	1045
486.682	1277
486.758	288
486.835	581
486.911	-810
486.987	1479
487.063	362
487.139	-51
487.215	-28
487.292	604
487.368	-101
487.444	199
487.520	1295
487.596	310
487.672	2705
487.748	7112
487.824	9602
487.900	1577
487.976	1007
488.052	263
488.128	541
488.204	-1051
488.280	783
488.356	445
488.432	495
488.508	827
488.584	599
488.660	-268
488.736	569
488.812	-202
488.888	1319
488.964	359
489.039	428
489.115	400
489.191	487
489.267	906
489.343	-102
489.418	244
489.494	564
489.570	-481
489.646	975
489.722	-340
489.797	660
489.873	613
489.949	30
490.024	-229
490.100	258
490.176	343
490.251	606
490.327	742
490.403	268
490.478	132
490.554	629
490.629	-513
490.705	-292
490.781	300
490.856	-848
490.932	301
491.007	386
491.083	28
491.158	-580
491.234	-366
491.309	475
491.385	-109
491.460	-79
491.536	597
491.611	-490
491.686	-58
491.762	221
491.837	286
491.913	789
491.988	125
492.063	-519
492.139	819
492.214	661
492.289	308
492.365	-240
492.440	-18
492.515	19
492.590	618
492.666	272
492.741	575
492.816	601
492.891	93
492.967	-161
493.042	-544
493.117	-413
493.192	549
493.267	283
493.342	712
493.418	738
493.493	-201
493.568	313
493.643	-39
493.718	-221
493.793	-151
493.868	-172
493.943	-4
494.018	405
494.093	-302
494.168	471
494.243	217
494.318	140
494.393	-65
494.468	-13
494.543	204
494.618	-202
494.693	-66
494.768	-140
494.842	-387
494.917	311
494.992	-346
495.067	99
495.142	491
495.217	-37
495.292	-6
495.366	188
495.441	-499
495.516	25
495.591	-284
495.665	-20
495.740	589
495.815	-17
495.890	111
495.964	-1152
496.039	1547
496.114	714
496.188	509
496.263	577
496.338	880
496.412	-70
496.487	-176
496.561	139
496.636	881
496.710	236
496.785	1027
496.860	229
496.934	776
497.009	691
497.083	-177
497.158	-5
497.232	485
497.307	515
497.381	915
497.455	519
497.530	858
497.604	649
497.679	719
497.753	-315
497.827	948
497.902	308
497.976	795
498.050	635
498.125	3346
498.199	2517
498.273	352
498.348	200
498.422	1203
498.496	616
498.570	443
498.645	920
498.719	-387
498.793	851
498.867	123
498.941	-768
499.016	1343
499.090	1468
499.164	842
499.238	640
499.312	635
499.386	285
499.460	420
499.534	947
499.609	1289
499.683	-61
499.757	159
499.831	536
499.905	1656
499.979	1452
500.053	-533
500.127	8
500.201	-800
500.275	-451
500.349	768
500.422	180
500.496	986
500.570	597
500.644	1413
500.718	1381
500.792	573
500.866	-107
500.940	-356
501.013	643
501.087	33
501.161	370
501.235	-745
501.309	895
501.382	717
501.456	1295
501.530	-18
501.603	-133
501.677	80
501.751	-862
501.825	-45
501.898	-30
501.972	243
502.046	358
502.119	-704
502.193	363
502.266	-224
502.340	177
502.413	-517
502.487	332
502.561	-358
502.634	-62
502.708	157
502.781	-878
502.855	619
502.928	-934
503.002	-698
503.075	134
503.149	-380
503.222	64
503.295	-426
503.369	-350
503.442	-399
503.516	308
503.589	388
503.662	213
503.736	253
503.809	682
503.882	-487
503.956	153
504.029	1037
504.102	3266
504.175	4974
504.249	159
504.322	374
504.395	-58
504.468	-808
504.542	-1191
504.615	-229
504.688	11
504.761	-959
504.834	1026
504.907	-769
504.980	-182
505.053	-700
505.127	-2002
505.200	1241
505.273	150
505.346	-802
505.419	-848
505.492	-43
505.565	-606
505.638	62
505.711	-993
505.784	-900
505.857	-662
505.930	1311
506.003	-1654
506.076	760
506.149	-837
506.221	-1486
506.294	625
506.367	-997
506.440	-605
506.513	1331
506.586	-683
506.659	-429
506.731	-403
506.804	-592
506.877	-1230
506.950	49
507.022	205
507.095	-1956
507.168	-82
507.241	703
507.313	-808
507.386	-881
507.459	682
507.531	-197
507.604	-900
507.677	243
507.749	-1210
507.822	413
507.894	-417
507.967	731
508.040	-341
508.112	415
508.185	100
508.257	-1171
508.330	576
508.402	-668
508.475	-51
508.547	-51
508.620	-627
508.692	-667
508.765	-411
508.837	-563
508.909	466
508.982	-806
509.054	-91
509.127	-692
509.199	-823
509.271	-1240
509.344	-911
509.416	-408
509.488	-198
509.560	-502
509.633	-830
509.705	-559
509.777	-163
509.849	-123
509.922	-1123
509.994	-753
510.066	460
510.138	-1136
510.210	941
510.283	307
510.355	-24
510.427	355
510.499	61
510.571	-1128
510.643	-1534
510.715	765
510.787	-1877
510.859	852
510.931	-753
511.003	188
511.076	-104
511.148	-682
511.219	-894
511.291	250
511.363	-143
511.435	-282
511.507	-1086
511.579	373
511.651	297
511.723	150
511.795	98
511.867	-8
511.939	-1002
512.010	-1271
512.082	-820
512.154	-1483
512.226	879
512.298	97
512.369	-109
512.441	63
512.513	-250
512.585	-1438
512.656	18
512.728	84
512.800	-1010
512.871	127
512.943	-643
513.015	-1221
513.086	-90
513.158	-231
513.230	-707
513.301	-1421
513.373	399
513.444	-44
513.516	-374
513.588	-1022
513.659	-634
513.731	-566
513.802	-1440
513.874	440
513.945	-1048
514.016	-861
514.088	-145
514.159	-1022
514.231	-447
514.302	-45
514.374	-1140
514.445	-1682
514.516	793
514.588	-18
514.659	63
514.730	-1329
514.802	992
514.873	-1242
514.944	1396
515.016	634
515.087	-703
515.158	-518
515.229	734
515.301	-505
515.372	-1084
515.443	-759
515.514	-914
515.585	-1104
515.656	-107
515.728	631
515.799	-1222
515.870	-695
515.941	-610
516.012	-1478
516.083	-244
516.154	-1479
516.225	317
516.296	1369
516.367	-482
516.438	446
516.509	201
516.580	459
516.651	2687
516.722	7241
516.793	3886
516.864	-179
516.935	834
517.006	990
517.077	879
517.148	2135
517.219	11924
517.289	17612
517.360	1276
517.431	931
517.502	-1527
517.573	235
517.643	579
517.714	-906
517.785	-203
517.856	-164
517.926	203
517.997	714
518.068	-306
518.138	2318
518.209	939
518.280	7681
518.350	31105
518.421	8815
518.492	1525
518.562	-27
518.633	448
518.703	-982
518.774	4170
518.845	5998
518.915	6113
518.986	408
519.056	-135
519.127	256
519.197	-336
519.268	-224
519.338	704
519.408	-604
519.479	139
519.549	-220
519.620	516
519.690	-378
519.760	-197
519.831	-482
519.901	-1193
519.971	-571
520.042	-434
520.112	-1245
520.182	-7
520.253	-180
520.323	-775
520.393	-1227
520.463	1101
520.534	-2265
520.604	531
520.674	-74
520.744	-744
520.814	-924
520.885	-74
520.955	-61
521.025	19
521.095	-851
521.165	-46
521.235	-1150
521.305	-727
521.375	-941
521.445	385
521.515	-1217
521.585	-114
521.655	-1755
521.725	-22
521.795	-143
521.865	-2022
521.935	1179
522.005	-881
522.075	-911
522.145	248
522.215	-1230
522.285	-939
522.355	-814
522.424	-314
522.494	-1416
522.564	213
522.634	-332
522.704	633
522.774	-648
522.843	-18
522.913	-322
522.983	-737
523.053	-1235
523.122	-321
523.192	-1089
523.262	-581
523.331	-1204
523.401	155
523.471	-1032
523.540	-534
523.610	-400
523.680	531
523.749	-146
523.819	-612
523.888	-709
523.958	-1160
524.027	-434
524.097	-915
524.166	-649
524.236	-1561
524.305	314
524.375	-864
524.444	-760
524.514	797
524.583	-930
524.653	-1627
524.722	-613
524.791	-1120
524.861	1014
524.930	-1412
524.999	-1258
525.069	672
525.138	-682
525.207	-1373
525.277	-529
525.346	-1070
525.415	-341
525.484	-608
525.554	-1215
525.623	-28
525.692	-798
525.761	-803
525.830	260
525.900	705
525.969	1316
526.038	2337
526.107	2709
526.176	14365
526.245	9637
526.314	2830
526.383	7338
526.452	7421
526.522	16903
526.591	13724
526.660	745
526.729	-263
526.797	1610
526.867	1222
526.935	8157
527.004	26193
527.073	13794
527.142	733
527.211	359
527.280	162
527.349	-95
527.418	-1057
527.487	1524
527.555	-761
527.624	-675
527.693	-2043
527.762	731
527.831	-643
527.899	200
527.968	194
528.037	-1744
528.106	1006
528.174	327
528.243	-460
528.312	-475
528.380	-1107
528.449	-685
528.518	981
528.586	-1347
528.655	666
528.723	-339
528.792	-788
528.861	-769
528.929	-1194
528.998	771
529.066	-172
529.135	171
529.203	-955
529.272	-1821
529.340	540
529.409	828
529.477	-491
529.545	-668
529.614	940
529.682	-1434
529.751	-104
529.819	1440
529.887	424
529.956	-970
530.024	972
530.092	-461
530.161	649
530.229	77
530.297	-435
530.365	674
530.434	-469
530.502	-472
530.570	-5
530.638	-1092
530.707	758
530.775	1116
530.843	-545
530.911	420
530.979	676
531.047	-193
531.115	490
531.183	390
531.252	1020
531.320	337
531.388	-1106
531.456	485
531.524	-1732
531.592	974
531.660	2169
531.728	-86
531.796	-210
531.864	718
531.932	-296
532.000	-466
532.067	-321
532.135	1020
532.203	430
532.271	-1060
532.339	295
532.407	581
532.475	1404
532.542	497
532.610	552
532.678	-753
532.746	2025
532.814	1144
532.881	698
532.949	218
533.017	403
533.084	849
533.152	390
533.220	365
533.287	-384
533.355	46
533.423	242
533.490	257
533.558	493
533.625	189
533.693	-482
533.761	236
533.828	543
533.896	-760
533.963	662
534.031	9
534.098	793
534.166	346
534.233	-126
534.300	729
534.368	105
534.435	538
534.503	735
534.570	830
534.637	-36
534.705	1067
534.772	669
534.840	691
534.907	6741
534.974	8136
535.041	837
535.109	46
535.176	-97
535.243	1996
535.310	138
535.378	-637
535.445	1042
535.512	1401
535.579	1087
535.646	11
535.714	1475
535.781	273
535.848	709
535.915	925
535.982	394
536.049	-116
536.116	1190
536.183	23
536.250	153
536.317	330
536.384	522
536.451	1362
536.518	632
536.585	-1024
536.652	1787
536.719	686
536.786	-882
536.853	371
536.920	1754
536.987	86
537.053	-694
537.120	1462
537.187	554
537.254	-267
537.321	584
537.388	1661
537.454	721
537.521	858
537.588	609
537.654	620
537.721	355
537.788	1363
537.855	369
537.921	734
537.988	-390
538.055	833
538.121	103
538.188	111
538.254	626
538.321	379
538.388	1008
538.454	851
538.521	541
538.587	923
538.654	-212
538.720	488
538.787	838
538.853	1070
538.920	930
538.986	223
539.053	334
539.119	834
539.185	429
539.252	2107
539.318	-159
539.385	1474
539.451	-349
539.517	823
539.583	669
539.650	496
539.716	793
539.782	725
539.849	-711
539.915	1132
539.981	360
540.047	-352
540.114	439
540.180	1946
540.246	205
540.312	1197
540.378	302
540.444	1894
540.510	552
540.576	477
540.643	-168
540.709	-842
540.775	81
540.841	704
540.907	1282
540.973	1127
541.039	1211
541.105	1588
541.171	822
541.237	211
541.303	1973
541.369	2236
541.435	785
541.500	432
541.566	-587
541.632	441
541.698	-47
541.764	1045
541.830	718
541.896	-602
541.961	1347
542.027	388
542.093	556
542.159	557
542.224	-386
542.290	1913
542.356	506
542.421	1355
542.487	1251
542.553	-257
542.618	705
542.684	785
542.750	255
542.815	1235
542.881	-44
542.947	706
543.012	925
543.078	-105
543.143	219
543.209	1627
543.274	349
543.340	1710
543.405	400
543.471	391
543.536	386
543.602	1647
543.667	84
543.732	1796
543.798	-499
543.863	464
543.928	402
543.994	-132
544.059	1478
544.124	1063
544.190	864
544.255	1497
544.320	243
544.386	212
544.451	910
544.516	666
544.581	-271
544.646	101
544.712	1658
544.777	1182
544.842	787
544.907	307
544.972	906
545.037	514
545.102	1441
545.168	375
545.233	1656
545.298	2089
545.363	-282
545.428	1852
545.493	2504
545.558	196
545.623	1238
545.688	430
545.753	1812
545.818	1403
545.883	2753
545.947	1106
546.012	1947
546.077	1116
546.142	2800
546.207	1694
546.272	2280
546.337	1380
546.401	2876
546.466	2436
546.531	1088
546.596	2674
546.661	2588
546.725	3527
546.790	2959
546.855	3479
546.919	3335
546.984	4437
547.049	4268
547.113	6159
547.178	5350
547.243	6786
547.307	8437
547.372	8663
547.436	8140
547.501	9624
547.565	10804
547.630	8690
547.695	8698
547.759	8899
547.823	7866
547.888	9543
547.952	10856
548.017	10295
548.081	10590
548.146	9466
548.210	10817
548.274	11738
548.339	11514
548.403	10927
548.468	9417
548.532	9595
548.596	10533
548.660	9549
548.725	11966
548.789	11352
548.853	12206
548.917	11418
548.982	10905
549.046	10689
549.110	9486
549.174	11188
549.238	11066
549.303	12120
549.367	14365
549.431	11126
549.495	11889
549.559	12049
549.623	14168
549.687	15459
549.751	15282
549.815	17929
549.879	18381
549.943	16866
550.007	19664
550.071	18139
550.135	17193
550.199	16658
550.263	16965
550.327	17055
550.391	16863
550.455	18488
550.519	18844
550.582	21132
550.646	21933
550.710	22989
550.774	24057
550.838	23459
550.901	24737
550.965	26709
551.029	26296
551.093	27517
551.156	27279
551.220	27530
551.284	27198
551.347	27043
551.411	26911
551.475	27057
551.538	28423
551.602	26615
551.666	26730
551.729	25161
551.793	26817
551.856	26820
551.920	26173
551.983	25954
552.047	25159
552.110	26636
552.174	26079
552.237	27281
552.301	27030
552.364	26617
552.428	25315
552.491	25791
552.554	26616
552.618	25921
552.681	27211
552.745	25417
552.808	27247
552.871	27148
552.934	26648
552.998	25577
553.061	27349
553.124	27317
553.187	26534
553.251	27025
553.314	27690
553.377	27578
553.440	29701
553.503	31106
553.567	32079
553.630	32181
553.693	33450
553.756	34237
553.819	35300
553.882	34052
553.945	34391
554.008	35375
554.071	33628
554.134	35586
554.197	35384
554.260	36112
554.323	36005
554.386	35353
554.449	35071
554.512	35328
554.575	34477
554.638	33619
554.701	34175
554.764	34737
554.827	32630
554.889	32793
554.952	31817
555.015	30141
555.078	30268
555.141	31107
555.203	30537
555.266	29929
555.329	30248
555.391	29602
555.454	27324
555.517	26658
555.580	25663
555.642	24999
555.705	24279
555.768	24822
555.830	23651
555.893	22736
555.955	21836
556.018	21087
556.080	20243
556.143	20007
556.206	19767
556.268	19231
556.330	19828
556.393	18486
556.455	18703
556.518	18067
556.580	17030
556.643	16344
556.705	16251
556.767	14428
556.830	15453
556.892	15477
556.955	14153
557.017	14540
557.079	14463
557.142	13630
557.204	12488
557.266	12400
557.328	12432
557.391	11553
557.453	10749
557.515	11652
557.577	10548
557.639	10553
557.701	10165
557.764	9302
557.826	9998
557.888	9518
557.950	9144
558.012	8930
558.074	9228
558.136	11413
558.198	17007
558.260	9625
558.322	8209
558.384	8430
558.446	8012
558.508	8076
558.570	9144
558.632	8322
558.694	9378
558.756	11314
558.818	20655
558.880	44107
558.942	16303
559.003	15133
559.065	10205
559.127	7135
559.189	6701
559.251	7190
559.312	7400
559.374	11655
559.436	29464
559.498	16098
559.559	5847
559.621	6914
559.683	6874
559.744	7448
559.806	15063
559.868	20126
559.929	6158
559.991	6575
560.052	5582
560.114	12763
560.176	8651
560.237	8976
560.299	10751
560.360	4205
560.422	3132
560.483	3761
560.545	3826
560.606	3804
560.667	3101
560.729	2611
560.790	2936
560.852	3703
560.913	3466
560.974	2859
561.036	2170
561.097	3170
561.158	2857
561.220	2803
561.281	2742
561.342	2445
561.403	3082
561.465	2050
561.526	3570
561.587	3241
561.648	1814
561.709	2253
561.771	2324
561.832	2285
561.893	1551
561.954	2403
562.015	2254
562.076	2404
562.137	1780
562.198	1553
562.259	1709
562.320	1412
562.381	2137
562.442	2239
562.503	1864
562.564	1978
562.625	2172
562.686	2119
562.747	1901
562.808	1587
562.869	1953
562.930	2736
562.991	1902
563.051	1362
563.112	1727
563.173	1690
563.234	858
563.294	1788
563.355	1133
563.416	2294
563.477	2017
563.537	1460
563.598	1929
563.659	1293
563.720	496
563.780	1951
563.841	530
563.901	1516
563.962	419
564.023	596
564.083	1379
564.144	476
564.204	2082
564.265	1776
564.325	1147
564.386	1616
564.446	1355
564.507	771
564.567	1554
564.628	1474
564.688	625
564.749	899
564.809	1577
564.869	1334
564.930	-427
564.990	1541
565.050	894
565.111	1495
565.171	737
565.231	869
565.292	2122
565.352	-91
565.412	2247
565.472	1296
565.532	916
565.593	552
565.653	953
565.713	391
565.773	1085
565.833	617
565.893	2168
565.953	56
566.013	840
566.074	384
566.134	1255
566.194	1272
566.254	760
566.314	1963
566.374	536
566.434	161
566.494	1222
566.554	1158
566.614	289
566.673	849
566.733	862
566.793	151
566.853	619
566.913	1246
566.973	829
567.033	1048
567.092	161
567.152	401
567.212	967
567.272	584
567.331	1237
567.391	669
567.451	1011
567.511	807
567.570	874
567.630	679
567.690	614
567.749	1128
567.809	1193
567.868	1125
567.928	544
567.988	438
568.047	1314
568.107	1047
568.166	338
568.226	1273
568.285	1154
568.345	732
568.404	669
568.464	21
568.523	693
568.582	466
568.642	658
568.701	423
568.761	627
568.820	883
568.879	279
568.939	657
568.998	219
569.057	963
569.116	896
569.176	680
569.235	400
569.294	574
569.353	525
569.413	868
569.472	802
569.531	78
569.590	125
569.649	1229
569.708	560
569.767	610
569.827	395
569.886	354
569.945	459
570.004	919
570.063	361
570.122	214
570.181	1060
570.240	47
570.299	662
570.358	1227
570.417	807
570.475	588
570.534	1143
570.593	1415
570.652	967
570.711	1163
570.770	460
570.829	1026
570.887	-533
570.946	678
571.005	404
571.064	1042
571.122	708
571.181	395
571.240	745
571.299	315
571.357	1099
571.416	486
571.475	813
571.533	1205
571.592	204
571.650	816
571.709	1186
571.768	541
571.826	50
571.885	321
571.943	879
572.002	1127
572.060	1143
572.119	962
572.177	600
572.236	1413
572.294	538
572.352	1334
572.411	-318
572.469	1292
572.528	569
572.586	684
572.644	564
572.703	1028
572.761	980
572.819	191
572.877	1122
572.936	-428
572.994	265
573.052	1492
573.110	308
573.169	670
573.227	172
573.285	1034
573.343	1418
573.401	1286
573.459	965
573.517	921
573.576	668
573.634	509
573.692	107
573.750	769
573.808	259
573.866	733
573.924	-20
573.982	428
574.040	436
574.098	724
574.155	-104
574.213	163
574.271	704
574.329	285
574.387	516
574.445	196
574.503	-916
574.560	161
574.618	340
574.676	53
574.734	125
574.792	-216
574.849	-724
574.907	323
574.965	-278
575.022	140
575.080	-496
575.138	-305
575.195	319
575.253	492
575.311	149
575.368	571
575.426	-222
575.483	164
575.541	66
575.598	-372
575.656	741
575.713	-213
575.771	-807
575.828	714
575.886	-118
575.943	-164
576.001	-566
576.058	-313
576.115	-529
576.173	-531
576.230	-446
576.287	-445
576.345	-23
576.402	270
576.459	213
576.517	-1529
576.574	-224
576.631	-235
576.688	22
576.746	258
576.803	-229
576.860	-301
576.917	19
576.974	166
577.031	241
577.089	700
577.146	-163
577.203	-502
577.260	-50
577.317	-460
577.374	-337
577.431	-616
577.488	-133
577.545	569
577.602	306
577.659	143
577.716	494
577.773	-133
577.830	-682
577.886	43
577.943	-1421
578.000	719
578.057	-234
578.114	232
578.171	-277
578.227	30
578.284	-586
578.341	370
578.398	609
578.454	-42
578.511	102
578.568	-352
578.625	-699
578.681	-525
578.738	-509
578.794	-711
578.851	166
578.908	-231
578.964	-1229
579.021	-350
579.077	179
579.134	-318
579.190	144
579.247	-452
579.303	-225
579.360	218
579.416	-850
579.473	-295
579.529	202
579.586	-670
579.642	239
579.698	-99
579.755	-502
579.811	-92
579.867	-157
579.924	20
579.980	-649
580.036	-545
580.093	-15
580.149	107
580.205	-620
580.261	323
580.317	410
580.374	-436
580.430	136
580.486	-208
580.542	-425
580.598	9
580.619	-144
580.654	-409
580.692	-564
580.710	-645
580.765	-360
580.767	-353
580.823	206
580.838	59
580.879	-328
580.911	-630
580.935	-856
580.984	-318
580.991	-245
581.047	344
581.057	269
581.103	-77
581.130	160
581.159	427
581.203	-299
581.215	-508
581.270	286
581.276	271
581.326	179
581.349	271
581.382	345
581.422	-563
581.438	-910
581.494	-1160
581.494	-1147
581.550	26
581.567	211
581.606	612
581.640	67
581.661	-267
581.713	688
581.717	764
581.773	-65
581.786	28
581.829	358
581.859	-100
581.885	-513
581.932	-91
581.940	-11
581.996	-444
582.004	-400
582.052	-236
582.077	-288
582.107	-296
582.150	-173
582.163	-122
582.219	294
582.223	307
582.274	290
582.296	43
582.330	-298
582.368	-52
582.386	88
582.441	-586
582.441	-588
582.497	-478
582.514	-328
582.552	106
582.587	59
582.608	1
582.659	462
582.663	490
582.719	-219
582.732	-193
582.774	69
582.805	112
582.830	80
582.877	-8
582.885	2
582.941	6
582.950	39
582.996	-2
583.023	192
583.052	471
583.095	-52
583.107	-209
583.162	-134
583.168	-79
583.218	495
583.240	587
583.273	688
583.313	300
583.328	146
583.384	-114
583.385	-114
583.439	-155
583.458	18
583.494	393
583.531	51
583.549	-52
583.603	-63
583.605	-73
583.660	292
583.676	37
583.715	-490
583.748	-341
583.770	-314
583.820	174
583.825	236
583.881	-175
583.893	-259
583.936	-529
583.965	-245
583.991	24
584.038	4
584.046	-31
584.101	-40
584.110	-89
584.156	-190
584.183	-11
584.211	77
584.255	352
584.266	488
584.321	-184
584.328	-132
584.376	84
584.400	340
584.431	757
584.472	187
584.486	-46
584.541	433
584.545	441
584.596	417
584.617	63
584.651	-166
584.689	146
584.706	134
584.761	32
584.762	31
584.816	252
584.834	295
584.871	217
584.906	65
584.926	-25
584.978	-519
584.980	-520
585.035	473
585.051	480
585.090	384
585.123	804
585.145	986
585.195	572
585.200	542
585.254	699
585.267	660
585.309	461
585.340	137
585.364	-42
585.412	610
585.419	710
585.473	1316
585.484	1348
585.528	1492
585.556	1722
585.583	2080
585.628	2775
585.637	3098
585.692	6904
585.700	7585
585.747	10258
585.772	8389
585.801	4833
585.845	1227
585.856	833
585.910	1079
585.917	998
585.965	378
585.989	499
586.019	506
586.061	307
586.074	333
586.128	249
586.133	287
586.183	491
586.205	488
586.237	695
586.277	609
586.292	492
586.346	572
586.349	550
586.401	407
586.421	513
586.455	643
586.493	742
586.509	836
586.564	830
586.565	832
586.618	631
586.637	722
586.672	1109
586.709	1067
586.727	961
586.781	606
586.781	605
586.835	222
586.853	299
586.889	722
586.925	995
586.944	1021
586.996	1263
586.998	1262
587.052	804
587.068	809
587.106	1108
587.140	708
587.161	438
587.212	711
587.215	728
587.269	501
587.284	489
587.323	636
587.356	846
587.377	1004
587.427	1957
587.431	1979
587.485	1100
587.499	958
587.539	781
587.571	765
587.593	954
587.643	1327
587.648	1333
587.702	1297
587.715	1338
587.755	1456
587.786	1303
587.810	1209
587.858	1306
587.864	1325
587.917	1446
587.930	1486
587.971	1616
588.001	1628
588.025	1636
588.073	1665
588.079	1684
588.133	1768
588.145	1829
588.187	1674
588.217	1499
588.241	1554
588.288	1708
588.295	1703
588.348	1364
588.360	1378
588.402	1591
588.431	1721
588.456	1817
588.503	1973
588.510	2035
588.564	2452
588.575	2578
588.617	2581
588.646	2528
588.671	2857
588.718	3584
588.725	3655
588.778	4701
588.789	4925
588.832	7928
588.861	10625
588.886	16631
588.932	29890
588.939	31606
588.993	44344
589.004	44898
589.047	24182
589.075	11295
589.100	7838
589.147	4354
589.154	4210
589.207	3119
589.218	2963
589.261	3212
589.290	3436
589.314	3516
589.361	3989
589.368	4180
589.421	5829
589.433	6318
589.475	11894
589.504	16137
589.528	22789
589.576	37359
589.582	36314
589.635	19693
589.647	16149
589.689	7844
589.718	3464
589.742	3025
589.790	2005
589.795	2001
589.849	1924
589.861	2103
589.902	2418
589.932	2217
589.955	2022
590.004	1712
590.009	1726
590.062	2089
590.075	2155
590.115	1869
590.146	1687
590.168	1651
590.218	1465
590.222	1485
590.275	1765
590.289	1837
590.328	1858
590.360	1795
590.381	1718
590.431	1929
590.435	1943
590.488	1832
590.503	1854
590.541	1737
590.574	1520
590.594	1627
590.645	2113
590.647	2110
590.700	1891
590.716	1836
590.753	2096
590.787	2364
590.806	2215
590.859	1782
590.859	1784
590.912	1855
590.930	1936
590.965	2098
591.001	2286
591.018	2187
591.071	1701
591.072	1699
591.124	2093
591.143	2180
591.177	2289
591.214	2543
591.230	2564
591.283	2600
591.285	2600
591.336	2855
591.356	2949
591.389	2654
591.427	2312
591.442	2426
591.495	2823
591.498	2857
591.547	2527
591.569	2387
591.600	2331
591.640	2112
591.653	2121
591.706	2346
591.711	2364
591.759	2504
591.782	2597
591.811	2745
591.853	2875
591.864	2926
591.917	3341
591.924	3384
591.969	2849
591.995	2548
592.022	2694
592.066	2923
592.075	2929
592.127	3006
592.137	3011
592.180	2779
592.208	2682
592.233	2870
592.279	3159
592.285	3184
592.338	3441
592.350	3506
592.390	2805
592.421	2244
592.443	2546
592.491	3316
592.495	3314
592.548	3375
592.562	3403
592.600	3671
592.633	3918
592.653	3512
592.704	2455
592.705	2470
592.775	2496
592.846	3574
592.916	2939
592.987	2924
593.058	4361
593.128	3918
593.199	2871
593.270	3635
593.341	3304
593.411	4026
593.482	3056
593.553	4025
593.623	3710
593.694	3612
593.764	3426
593.835	3437
593.906	4391
593.976	3455
594.047	3532
594.117	4624
594.188	4713
594.258	5037
594.329	4678
594.399	3696
594.470	4604
594.540	4461
594.611	5187
594.681	4396
594.751	4423
594.822	5107
594.892	5590
594.963	4924
595.033	5341
595.103	5732
595.174	5362
595.244	6157
595.314	5521
595.384	5986
595.455	5889
595.525	6334
595.595	6781
595.665	7074
595.736	6006
595.806	6332
595.876	7068
595.946	6800
596.016	6811
596.087	6742
596.157	5983
596.227	7723
596.297	7022
596.367	7575
596.437	8422
596.507	8898
596.577	8238
596.647	8435
596.717	8890
596.787	8387
596.857	8927
596.927	8493
596.997	9636
597.067	8686
597.137	8839
597.207	9550
597.277	9582
597.347	9216
597.417	9132
597.487	9209
597.557	8965
597.626	9557
597.696	10255
597.766	9133
597.836	8912
597.906	9063
597.975	8491
598.045	8277
598.115	8787
598.185	8830
598.254	10672
598.324	11690
598.394	11562
598.464	11702
598.533	10883
598.603	10746
598.672	10176
598.742	11007
598.812	10046
598.881	10352
598.951	9968
599.020	10166
599.090	10871
599.159	11680
599.229	11076
599.299	11383
599.368	10907
599.437	10969
599.507	10324
599.576	9932
599.646	9636
599.715	10296
599.785	9167
599.854	8912
599.924	9984
599.993	10075
600.062	9775
600.132	10479
600.201	9960
600.270	11679
600.340	12920
600.409	11467
600.478	12527
600.547	12133
600.617	11169
600.686	9659
600.755	8500
600.824	8889
600.894	8131
600.963	9388
601.032	8911
601.101	9086
601.170	7605
601.239	8129
601.308	7597
601.378	8327
601.447	8496
601.516	8209
601.585	8707
601.654	8822
601.723	9275
601.792	8445
601.861	8823
601.930	9640
601.999	9118
602.068	9692
602.137	8672
602.206	9669
602.275	8817
602.343	9459
602.412	8994
602.481	9603
602.550	9952
602.619	9266
602.688	9685
602.756	9727
602.825	10747
602.894	10407
602.963	10523
603.032	10945
603.100	10936
603.169	10929
603.238	10580
603.307	11407
603.375	11209
603.444	11362
603.513	11587
603.581	10324
603.650	10666
603.719	9646
603.787	9921
603.856	10616
603.924	10427
603.993	12013
604.061	11261
604.130	12555
604.198	11906
604.267	11622
604.335	12435
604.404	12737
604.472	12266
604.541	12607
604.609	13077
604.678	13023
604.746	13577
604.815	13300
604.883	13022
604.951	14201
605.020	13380
605.088	14252
605.156	13724
605.225	14530
605.293	14299
605.361	14145
605.429	14273
605.498	14777
605.566	15045
605.634	15855
605.702	15517
605.771	16756
605.839	17702
605.907	16568
605.975	15762
606.043	15815
606.111	15116
606.180	15196
606.248	15490
606.316	15792
606.384	14969
606.452	16833
606.520	15538
606.588	16415
606.656	15799
606.724	15279
606.792	15127
606.860	13768
606.928	12229
606.996	11381
607.064	11684
607.132	11993
607.200	13572
607.267	12764
607.335	13287
607.403	13918
607.471	13230
607.539	13452
607.607	13306
607.674	11359
607.742	11955
607.810	11255
607.878	10945
607.946	12166
608.013	12368
608.081	11999
608.149	12702
608.216	12350
608.284	13882
608.352	13568
608.419	13438
608.487	13025
608.555	12542
608.622	13423
608.690	14493
608.757	15039
608.825	15404
608.893	15033
608.960	14966
609.028	13838
609.095	14788
609.163	15024
609.230	13439
609.298	12100
609.365	12326
609.432	13390
609.500	14547
609.567	16491
609.635	18950
609.702	19321
609.769	19703
609.837	15799
609.904	13526
609.971	12566
610.039	14366
610.106	14678
610.173	17974
610.241	29762
610.308	22007
610.375	15073
610.442	13385
610.509	13161
610.577	14313
610.644	13903
610.711	14053
610.778	14501
610.845	15130
610.912	15962
610.980	16543
611.047	16460
611.114	16422
611.181	16093
611.248	16094
611.315	16736
611.382	16837
611.449	18120
611.516	18415
611.583	18087
611.650	17668
611.717	18549
611.784	18099
611.851	19258
611.918	18413
611.984	19967
612.051	23156
612.118	30379
612.185	55688
612.252	40573
612.319	21399
612.386	21070
612.452	19874
612.519	19997
612.586	20736
612.653	20953
612.719	22544
612.786	21165
612.853	19106
612.919	19005
612.986	19923
613.053	18593
613.120	17730
613.186	16329
613.253	18630
613.319	17629
613.386	18142
613.453	18901
613.519	19088
613.586	17617
613.652	18967
613.719	19122
613.785	19176
613.852	19083
613.918	17273
613.985	19269
614.051	19068
614.118	20034
614.184	18687
614.250	18116
614.317	19541
614.383	19140
614.449	19496
614.516	19832
614.582	19881
614.648	18591
614.715	18663
614.781	19138
614.847	18767
614.914	18734
614.980	17917
615.046	18772
615.112	18844
615.179	19477
615.245	19941
615.311	18779
615.377	20261
615.443	19418
615.509	19797
615.575	20404
615.642	18862
615.708	20467
615.774	20951
615.840	21600
615.906	21432
615.972	22278
616.038	24819
616.104	35910
616.170	64485
616.236	57846
616.302	26898
616.368	23584
616.434	20827
616.500	22402
616.565	22118
616.631	22541
616.697	21699
616.763	22874
616.829	23334
616.895	30104
616.961	28408
617.026	22202
617.092	21006
617.158	21331
617.224	21575
617.289	19905
617.355	20117
617.421	19780
617.487	20525
617.552	19433
617.618	18951
617.684	19228
617.749	20418
617.815	18856
617.880	18787
617.946	18933
618.012	19660
618.077	20109
618.143	20237
618.208	19367
618.274	20837
618.339	20896
618.405	17994
618.470	19321
618.536	18540
618.601	17644
618.667	17315
618.732	18672
618.798	17086
618.863	17416
618.928	17166
618.994	17591
619.059	16989
619.124	18138
619.190	16927
619.255	16982
619.320	17397
619.386	18530
619.451	17652
619.516	17853
619.581	17972
619.647	18778
619.712	18936
619.777	18866
619.842	17835
619.907	17309
619.972	17764
620.038	18335
620.103	18114
620.168	18435
620.233	18420
620.298	18158
620.363	18424
620.428	19118
620.493	19001
620.558	19165
620.623	19916
620.688	20290
620.753	18651
620.818	19804
620.883	19572
620.948	20331
621.013	20018
621.078	19825
621.143	17919
621.207	21429
621.272	19417
621.337	19054
621.402	19456
621.467	19543
621.532	19083
621.596	19462
621.661	19523
621.726	18991
621.791	18315
621.855	19419
621.920	19095
621.985	18748
622.049	19848
622.114	19934
622.179	20598
622.243	18831
622.308	18478
622.373	21071
622.437	19830
622.502	18918
622.566	18966
622.631	18706
622.695	20162
622.760	19962
622.824	20073
622.889	19143
622.953	19399
623.018	20409
623.082	20276
623.147	19881
623.211	19499
623.276	20055
623.340	18620
623.404	18486
623.469	19125
623.533	19334
623.597	18440
623.662	19054
623.726	17648
623.790	17260
623.854	16947
623.919	17555
623.983	17983
624.047	17579
624.111	16878
624.176	18397
624.240	17599
624.304	18600
624.368	17307
624.432	17381
624.496	17767
624.560	17263
624.625	17608
624.689	18632
624.753	17527
624.817	18326
624.881	17054
624.945	16361
625.009	16080
625.073	15666
625.137	15808
625.201	16535
625.265	16415
625.329	15272
625.393	16737
625.456	16447
625.520	15875
625.584	15647
625.648	15688
625.712	15923
625.776	16380
625.839	15249
625.903	13787
625.967	13515
626.031	14337
626.095	15178
626.158	14458
626.222	11391
626.286	11534
626.349	11759
626.413	10706
626.477	11647
626.540	10737
626.604	10412
626.668	10723
626.731	10061
626.795	9316
626.858	9441
626.922	9575
626.986	10171
627.049	7799
627.113	10269
627.176	9697
627.240	8950
627.303	9226
627.366	8108
627.430	9070
627.493	8936
627.557	7593
627.620	9383
627.684	8472
627.747	7660
627.810	6533
627.874	7022
627.937	5868
628.000	7937
628.064	7190
628.127	5251
628.190	6314
628.253	7039
628.317	5688
628.380	6694
628.443	5374
628.506	5633
628.569	5424
628.632	4874
628.696	5325
628.759	5018
628.822	5014
628.885	4583
628.948	5003
629.011	4858
629.074	3798
629.137	4070
629.200	3010
629.263	5047
629.326	3108
629.389	4119
629.452	3232
629.515	4052
629.578	2979
629.641	4190
629.704	2445
629.767	2815
629.830	3941
629.892	2670
629.955	3104
630.018	4227
630.081	3198
630.144	3683
630.207	2504
630.269	3853
630.332	1805
630.395	2737
630.458	2503
630.520	1920
630.583	3212
630.646	2552
630.708	2206
630.771	2360
630.834	2579
630.896	2731
630.959	2300
631.021	1821
631.084	1739
631.146	3087
631.209	2907
631.272	1346
631.334	2355
631.397	2157
631.459	1676
631.522	2436
631.584	2483
631.646	1956
631.709	2500
631.771	2610
631.834	2086
631.896	2550
631.958	1663
632.021	2178
632.083	1546
632.145	2643
632.208	2453
632.270	3108
632.332	1890
632.395	1413
632.457	2860
632.519	1668
632.581	2258
632.643	1578
632.706	1628
632.768	1095
632.830	2934
632.892	1232
632.954	1414
633.016	2041
633.078	1648
633.141	1728
633.203	1336
633.265	1807
633.327	1617
633.389	1911
633.451	1672
633.513	1815
633.575	2013
633.637	877
633.698	1363
633.760	2255
633.822	1170
633.884	1809
633.946	1631
634.008	1971
634.070	1790
634.132	1594
634.193	1584
634.255	2183
634.317	1353
634.379	1800
634.441	1378
634.502	1345
634.564	1861
634.626	1504
634.687	1789
634.749	2140
634.811	2075
634.873	1361
634.934	1628
634.996	1606
635.057	1078
635.119	1635
635.181	1229
635.242	2731
635.304	-8
635.365	3130
635.427	1013
635.488	1968
635.550	619
635.611	2160
635.673	135
635.734	2551
635.796	1087
635.857	2125
635.918	1263
635.980	2103
636.041	1122
636.102	1652
636.164	1301
636.225	3131
636.286	368
636.348	2288
636.409	945
636.470	1030
636.531	2139
636.593	1354
636.654	2009
636.715	1572
636.776	2684
636.838	1947
636.899	2253
636.960	520
637.021	1211
637.082	1573
637.143	2029
637.204	1119
637.265	584
637.326	2327
637.387	1455
637.448	468
637.509	1992
637.570	1258
637.631	1676
637.692	1058
637.753	126
637.814	1031
637.875	1679
637.936	2088
637.997	1139
638.058	2064
638.119	1444
638.179	1971
638.240	1449
638.301	2495
638.362	158
638.423	1519
638.483	2085
638.544	447
638.605	2385
638.666	1259
638.726	2152
638.787	1747
638.848	1413
638.908	1470
638.969	2036
639.030	1895
639.090	1040
639.151	1398
639.211	1549
639.272	1063
639.332	1408
639.393	1540
639.453	1018
639.514	1323
639.574	1085
639.635	1486
639.695	1761
639.756	145
639.816	1770
639.877	502
639.937	2044
639.997	1535
640.058	1471
640.118	1465
640.178	2788
640.239	2255
640.299	1375
640.359	599
640.420	1808
640.480	1933
640.540	1004
640.600	604
640.661	1534
640.721	476
640.781	1693
640.841	332
640.901	1939
640.961	2543
641.021	1610
641.082	1063
641.142	1162
641.202	2186
641.262	759
641.322	2158
641.382	419
641.442	1794
641.502	1023
641.562	1945
641.622	1340
641.682	1450
641.742	1951
641.802	1061
641.861	1569
641.921	955
641.981	1259
642.041	1299
642.101	1501
642.161	421
642.221	475
642.280	1925
642.340	912
642.400	713
642.460	1853
642.519	1691
642.579	1222
642.639	1413
642.698	-827
642.758	3352
642.818	871
642.877	731
642.937	1302
642.997	1736
643.056	386
643.116	-684
643.175	2275
643.235	913
643.294	760
643.354	1989
643.414	1470
643.473	1745
643.532	1786
643.592	1115
643.651	2771
643.711	4293
643.770	5026
643.830	12382
643.889	30325
643.948	8175
644.008	1464
644.067	1369
644.126	230
644.186	1501
644.245	1674
644.304	-134
644.363	1959
644.423	263
644.482	1641
644.541	1344
644.600	20
644.659	1723
644.719	709
644.778	1268
644.837	1467
644.896	3938
644.955	7560
645.014	2472
645.073	1161
645.132	782
645.191	1606
645.250	1092
645.309	1724
645.368	345
645.427	2443
645.486	444
645.545	2693
645.604	423
645.663	1100
645.722	718
645.781	1063
645.840	988
645.898	999
645.957	2189
646.016	99
646.075	3915
646.134	4526
646.192	12712
646.251	22184
646.310	2798
646.369	647
646.427	1511
646.486	320
646.545	1232
646.603	1056
646.662	1748
646.721	799
646.779	-315
646.838	-142
646.896	785
646.955	440
647.014	2218
647.072	1290
647.131	4643
647.189	1799
647.248	-7
647.306	1091
647.365	975
647.423	-715
647.481	1828
647.540	-1263
647.598	911
647.657	559
647.715	1052
647.773	366
647.832	636
647.890	-385
647.948	41
648.007	571
648.065	-232
648.123	-246
648.181	953
648.240	357
648.298	41
648.356	43
648.414	204
648.472	-43
648.531	172
648.589	-552
648.647	-903
648.705	-6
648.763	-162
648.821	-224
648.879	-199
648.937	271
648.995	204
649.053	-623
649.111	440
649.169	1637
649.227	1328
649.285	3169
649.343	10778
649.401	5961
649.459	725
649.516	715
649.574	-1742
649.632	-468
649.690	636
649.748	-350
649.806	-616
649.863	520
649.921	3177
649.979	862
650.037	1215
650.094	-1749
650.152	68
650.210	-765
650.268	425
650.325	-424
650.383	-432
650.440	-1199
650.498	122
650.556	299
650.613	-396
650.671	353
650.728	-149
650.786	-687
650.843	-124
650.901	-2299
650.958	-92
651.016	-352
651.073	-761
651.131	-772
651.188	-1230
651.246	-582
651.303	-1202
651.360	-40
651.418	-1091
651.475	-28
651.532	-911
651.590	-98
651.647	-1130
651.704	-160
651.762	-663
651.819	-105
651.876	-970
651.933	-945
651.990	-87
652.048	-1719
652.105	-504
652.162	132
652.219	-928
652.276	324
652.333	475
652.390	-888
652.448	-285
652.505	-1085
652.562	-1355
652.619	-748
652.676	-648
652.733	198
652.790	-1406
652.847	-1483
652.904	-105
652.961	-1093
653.017	-1196
653.074	715
653.131	-671
653.188	-1464
653.245	-855
653.302	-745
653.359	-1074
653.415	-151
653.472	-122
653.529	-346
653.586	-1754
653.642	-938
653.699	-376
653.756	-1712
653.813	-1032
653.869	91
653.926	-992
653.983	-1085
654.039	-883
654.096	-781
654.152	12
654.209	-1835
654.266	-46
654.322	-1962
654.379	-803
654.435	-450
654.492	-989
654.548	-632
654.605	-1689
654.661	-478
654.717	-634
654.774	-1092
654.830	-1211
654.887	-1346
654.943	-1089
655.000	-1192
655.056	-1103
655.112	-383
655.168	-1643
655.225	-1501
655.281	-615
655.337	-1693
655.394	-1364
655.450	-1310
655.506	-886
655.562	-1200
655.618	229
655.675	-1546
655.731	-184
655.787	-1075
655.843	-578
655.899	-1157
655.955	-1137
656.011	-867
656.067	-1517
656.123	38
656.179	-662
656.235	-680
656.291	-2210
656.347	-258
656.403	-1726
656.459	-1330
656.515	-1605
656.571	-1876
656.627	-708
656.683	-1081
656.739	-504
656.795	-1206
656.850	-1344
656.906	-1014
656.962	45
657.018	-1076
657.074	-997
657.129	-245
657.185	-509
657.241	-453
657.297	-1599
657.352	-1083
657.408	-896
657.464	-197
657.519	-1129
657.575	-1256
657.630	-1041
657.686	-1152
657.742	-1658
657.797	-1326
657.853	-997
657.908	114
657.964	-1237
658.019	-1210
658.075	-392
658.130	-948
658.186	-1300
658.241	-648
658.297	-1680
658.352	-1070
658.407	-438
658.463	-2494
658.518	-831
658.573	-882
658.629	-2006
658.684	-1204
658.739	-603
658.795	-2382
658.850	-1409
658.905	-1765
658.960	-365
659.016	-1515
659.071	-1562
659.126	-1152
659.181	-1076
659.236	75
659.291	-773
659.346	-1643
659.401	-1041
659.457	-1330
659.512	-1761
659.567	-912
659.622	-273
659.677	-1716
659.732	-1370
659.787	-714
659.842	-1779
659.897	-1479
659.952	-982
660.007	-1156
660.061	-1098
660.116	-1864
660.171	-1034
660.226	-1332
660.281	-364
660.336	-1307
660.391	-512
660.445	-989
660.500	-816
660.555	-1055
660.610	-2367
660.664	-695
660.719	-1539
660.774	-439
660.828	-1016
660.883	-947
660.938	-651
660.992	-2023
661.047	-760
661.101	-1459
661.156	-1267
661.211	-2163
661.265	-1576
661.320	-1700
661.374	-1655
661.429	-1960
661.483	-493
661.538	-1833
661.592	-789
661.647	-1071
661.701	-822
661.755	-1551
661.810	-257
661.864	-1475
661.919	-1543
661.973	-1294
662.027	-916
662.081	-2314
662.136	-1019
662.190	-983
662.244	-740
662.299	-1582
662.353	-1257
662.407	-1861
662.461	-868
662.515	-1413
662.569	-1611
662.624	-178
662.678	-1806
662.732	-1260
662.786	-2018
662.840	-1566
662.894	-590
662.948	-1544
663.002	-943
663.056	-1365
663.110	-2045
663.164	-1743
663.218	-856
663.272	-1631
663.326	-1000
663.380	-1193
663.434	-597
663.488	-1065
663.542	-935
663.595	-1307
663.649	-1721
663.703	-748
663.757	-603
663.811	-2948
663.864	-1344
663.918	-1625
663.972	-1693
664.026	-1210
664.079	-1917
664.133	-924
664.187	-1256
664.240	-2277
664.294	-1556
664.348	-320
664.401	-1356
664.455	-1606
664.508	-2030
664.562	-1453
664.615	-1539
664.669	-2293
664.722	-1203
664.776	-1610
664.829	-1529
664.883	-1811
664.936	-1809
664.990	-1697
665.043	-999
665.097	-1950
665.150	-1186
665.203	-2414
665.257	-1215
665.310	-1185
665.363	-1203
665.417	-1626
665.470	-1351
665.523	-1258
665.576	-1220
665.630	-1586
665.683	-1577
665.736	-2167
665.789	-1702
665.842	-1461
665.895	-1523
665.949	-1015
666.002	-1861
666.055	-986
666.108	-1278
666.161	-1446
666.214	-1307
666.267	-1205
666.320	-1340
666.373	-795
666.426	-1520
666.479	-1551
666.532	-1400
666.585	-2389
666.638	-475
666.691	-1507
666.744	-1399
666.796	-2047
666.849	-2026
666.902	-471
666.955	-1387
667.008	-1470
667.060	-1277
667.113	-2217
667.166	-2441
667.219	-1657
667.271	-1636
667.324	-1201
667.377	-774
667.430	-1377
667.482	-1655
667.535	-1162
667.587	-1154
667.640	-1039
667.693	-800
667.745	-2119
667.798	-1177
667.850	-1675
667.903	-1327
667.955	-1966
668.008	-1836
668.060	-2438
668.113	-1069
668.165	-690
668.218	-1567
668.270	-1840
668.322	-1650
668.375	-1510
668.427	-58
668.479	-1700
668.532	-2124
668.584	-1579
668.636	-1399
668.689	-1018
668.741	-1770
668.793	-1746
668.845	-1579
668.898	-957
668.950	-1245
669.002	-985
669.054	-2107
669.106	-2369
669.158	-1656
669.211	-2007
669.263	-2576
669.315	-878
669.367	-1894
669.419	-2269
669.471	-631
669.523	-1447
669.575	-1711
669.627	-1806
669.679	-2139
669.731	-1405
669.783	-1188
669.835	-1642
669.886	-1504
669.938	-1725
669.990	-1292
670.042	-2447
670.094	-1568
670.146	-1378
670.197	-1865
670.249	-1464
670.301	-2074
670.353	-1622
670.404	-1262
670.456	-1676
670.508	-1370
670.560	-701
670.611	-676
670.663	-129
670.715	3871
670.766	7525
670.818	1605
670.869	-864
670.921	-975
670.972	-1211
671.024	-2266
671.075	-1625
671.127	-2167
671.178	-2443
671.230	-1158
671.281	-1438
671.333	-1019
671.384	-1852
671.436	-1079
671.487	-837
671.538	-1689
671.590	-1076
671.641	-615
671.692	-699
671.744	1085
671.795	-739
671.846	-1729
671.897	-2065
671.949	-2011
672.000	-1125
672.051	-1751
672.102	-1304
672.153	-1249
672.204	-1730
672.256	-1213
672.307	-1415
672.358	-1544
672.409	-1337
672.460	-1867
672.511	-1504
672.562	-2192
672.613	-2176
672.664	-1914
672.715	-1465
672.766	-1481
672.817	-2016
672.868	-864
672.919	-1724
672.970	-1457
673.021	-1876
673.071	-1159
673.122	-1592
673.173	-1285
673.224	-1477
673.275	-1991
673.326	-1635
673.376	-1330
673.427	-2434
673.478	-1221
673.528	-594
673.579	-1471
673.630	-1446
673.680	-1554
673.731	-2193
673.782	-1587
673.832	-2171
673.883	-1394
673.934	-2350
673.984	-1910
674.035	-1183
674.085	-1700
674.136	-1374
674.186	-1784
674.237	-1315
674.287	-2192
674.338	-1790
674.388	-2554
674.438	-2216
674.489	-1916
674.539	-2189
674.589	-2447
674.640	-2250
674.690	-1608
674.740	-1947
674.791	-1951
674.841	-2116
674.891	-1402
674.942	-1671
674.992	-1770
675.042	-2007
675.092	-2064
675.142	-1435
675.193	-1713
675.243	-2548
675.293	-1500
675.343	-2455
675.393	-2221
675.443	-1332
675.493	-1268
675.543	-2548
675.593	-2735
675.643	-1399
675.693	-726
675.743	-1518
675.793	-1838
675.843	-2684
675.893	-1844
675.943	-1798
675.993	-1968
676.043	-1820
676.093	-775
676.142	-2369
676.192	-990
676.242	-2333
676.292	-2403
676.341	-2188
676.391	-1108
676.441	-1944
676.491	-1578
676.540	-2268
676.590	-2030
676.640	-2293
676.689	-1782
676.739	-2023
676.789	-1629
676.838	-1985
676.888	-1644
676.937	-2904
676.987	-1449
677.037	-1880
677.086	-2207
677.136	-1548
677.185	-1066
677.235	-1885
677.284	-1777
677.333	-2442
677.383	-2067
677.432	-1936
677.482	-1120
677.531	-1657
677.580	-1891
677.630	-2348
677.679	-2443
677.728	-1671
677.778	-1497
677.827	-1771
677.876	-2031
677.925	-1943
677.975	-1662
678.024	-1411
678.073	-1645
678.122	-2282
678.171	-2394
678.220	-1583
678.269	-2155
678.319	-1418
678.368	-1802
678.417	-1972
678.466	-751
678.515	-1537
678.564	-2007
678.613	-2606
678.662	-2366
678.711	-2556
678.760	-1965
678.809	-1780
678.857	-2078
678.906	-2042
678.955	-2671
679.004	-2262
679.053	-1656
679.102	-2280
679.151	-2545
679.199	-1898
679.248	-1356
679.297	-1706
679.346	-1716
679.394	-2100
679.443	-2284
679.492	-2337
679.540	-1232
679.589	-2171
679.638	-1968
679.686	-1275
679.735	-1270
679.784	-1753
679.832	-2218
679.881	-2052
679.929	-2223
679.978	-2265
680.026	-1148
680.075	-2166
680.123	-1595
680.172	-1967
680.220	-1878
680.268	-2184
680.317	-1943
680.365	-2031
680.414	-2713
680.462	-2372
680.510	-1135
680.559	-2089
680.607	-1373
680.655	-1983
680.703	-1214
680.752	-2053
680.800	-1624
680.848	-1407
680.896	-1384
680.945	-1864
680.993	-2237
681.041	-1683
681.089	-2101
681.137	-2321
681.185	-1557
681.233	-2025
681.258	-2234
681.281	-2438
681.329	-2564
681.377	-2275
681.380	-2287
681.425	-2589
681.473	-1631
681.502	-1687
681.521	-1737
681.569	-1130
681.617	-1730
681.624	-1754
681.665	-1930
681.713	-1989
681.745	-1819
681.761	-1748
681.809	-1674
681.857	-979
681.867	-1195
681.904	-1951
681.952	-1727
681.989	-1863
682.000	-1906
682.048	-2125
682.096	-1168
682.111	-1360
682.143	-1797
682.191	-1559
682.233	-1503
682.239	-1500
682.286	-1951
682.334	-1775
682.354	-1880
682.382	-2013
682.430	-1537
682.476	-2084
682.477	-2099
682.525	-1702
682.572	-2254
682.598	-2048
682.620	-1867
682.667	-1851
682.715	-1185
682.720	-1246
682.763	-1930
682.810	-1482
682.841	-1784
682.857	-1916
682.905	-1455
682.952	-1623
682.963	-1545
683.000	-1340
683.047	-2006
683.085	-1264
683.095	-1050
683.142	-1636
683.190	-1794
683.206	-1912
683.237	-2177
683.284	-1452
683.328	-2440
683.332	-2525
683.379	-1807
683.426	-1521
683.449	-1752
683.473	-1967
683.521	-2090
683.568	-1561
683.571	-1530
683.615	-1194
683.662	-859
683.693	-1290
683.709	-1539
683.757	-1471
683.804	-1635
683.814	-1592
683.851	-1457
683.898	-1454
683.936	-1891
683.945	-1995
683.992	-1465
684.039	-1358
684.057	-1552
684.086	-1827
684.133	-1060
684.179	-1742
684.180	-1771
684.227	-1351
684.274	-905
684.300	-906
684.321	-908
684.368	-1940
684.415	-1685
684.422	-1672
684.462	-1494
684.509	-1549
684.543	-1501
684.556	-1515
684.603	-1373
684.649	-1344
684.665	-1369
684.696	-1409
684.743	-1548
684.786	-1314
684.790	-1295
684.837	-1541
684.883	-1442
684.908	-1291
684.930	-1161
684.977	-1381
685.023	-1104
685.029	-1079
685.070	-885
685.117	-1668
685.150	-1231
685.164	-1067
685.210	-1516
685.257	-1083
685.272	-1164
685.303	-1364
685.350	-1484
685.393	-1607
685.396	-1615
685.443	-1456
685.490	-1237
685.514	-1014
685.536	-806
685.583	-1616
685.629	-1619
685.636	-1633
685.675	-1785
685.722	-1333
685.757	-1670
685.768	-1754
685.815	-1437
685.861	-1057
685.878	-1103
685.908	-1304
685.954	-1396
686.000	-1194
686.000	-1190
686.047	-1925
686.093	-1409
686.121	-1522
686.139	-1565
686.185	-1017
686.232	-1126
686.242	-1133
686.278	-1118
686.324	-1350
686.363	-1040
686.370	-1012
686.416	-968
686.463	-755
686.484	-925
686.509	-1094
686.555	-1117
686.601	-1380
686.606	-1384
686.647	-1309
686.693	-1274
686.727	-851
686.739	-699
686.785	-362
686.831	-801
686.848	-604
686.877	-389
686.923	-1340
686.969	-1601
686.969	-1602
687.015	-1232
687.061	-1450
687.090	-845
687.107	-499
687.153	-869
687.199	-1029
687.211	-977
687.245	-821
687.291	-943
687.332	-1154
687.336	-1176
687.382	-643
687.428	-1330
687.453	-1143
687.474	-995
687.520	-1349
687.565	-1189
687.574	-1241
687.611	-1503
687.657	-1496
687.695	-1586
687.702	-1589
687.748	-1254
687.794	-747
687.816	-952
687.839	-1181
687.885	-1390
687.931	-952
687.937	-927
687.976	-685
688.022	-869
688.058	-954
688.067	-995
688.113	-615
688.158	-956
688.179	-929
688.204	-880
688.249	-1179
688.295	-873
688.300	-889
688.340	-1108
688.386	-847
688.421	-1041
688.431	-1056
688.477	-961
688.522	-614
688.542	-681
688.567	-760
688.613	-1234
688.658	-750
688.663	-747
688.703	-737
688.749	-940
688.784	-630
688.794	-593
688.839	-1199
688.884	-1262
688.905	-1429
688.930	-1463
688.975	-1010
689.020	-836
689.026	-830
689.065	-770
689.110	-497
689.146	-461
689.155	-474
689.201	-592
689.246	-304
689.267	-477
689.291	-697
689.336	-561
689.381	-972
689.388	-957
689.426	-804
689.471	-685
689.509	-405
689.516	-361
689.561	-891
689.606	-1172
689.630	-1172
689.651	-1136
689.696	-1068
689.741	-749
689.750	-766
689.785	-806
689.830	-880
689.871	-856
689.875	-847
689.920	-644
689.965	-368
689.992	-585
690.010	-761
690.054	-548
690.099	-822
690.112	-806
690.144	-771
690.189	-278
690.233	-876
690.233	-877
690.278	-290
690.323	-735
690.354	-395
690.367	-261
690.412	-374
690.457	-219
690.474	-427
690.501	-785
690.546	-716
690.590	-704
690.595	-697
690.635	-271
690.680	-517
690.716	-309
690.724	-365
690.769	-669
690.813	-319
690.836	-708
690.857	-881
690.902	-1116
690.946	-629
690.957	-668
690.991	-587
691.035	100
691.077	545
691.080	542
691.124	127
691.168	-289
691.198	-325
691.213	-274
691.257	-677
691.301	-603
691.318	-572
691.346	-454
691.390	-339
691.434	-359
691.439	-378
691.478	-593
691.522	-648
691.559	-530
691.567	-501
691.611	-270
691.655	-625
691.680	-696
691.699	-730
691.743	-638
691.787	-616
691.800	-599
691.831	-505
691.875	-754
691.919	-506
691.921	-497
691.964	-129
692.008	-541
692.041	-300
692.052	-187
692.096	-261
692.139	236
692.162	272
692.183	54
692.227	-139
692.271	-364
692.282	-520
692.315	-741
692.359	-764
692.402	-566
692.403	-560
692.447	-430
692.490	-330
692.523	-112
692.534	-66
692.578	-155
692.622	12
692.643	37
692.666	-13
692.709	-412
692.753	-333
692.763	-419
692.797	-478
692.840	-116
692.884	145
692.884	148
692.928	-194
692.971	-357
693.004	-748
693.015	-799
693.059	-451
693.102	52
693.124	-170
693.146	-383
693.189	-288
693.233	97
693.245	124
693.276	64
693.320	-89
693.363	-307
693.365	-320
693.407	-532
693.450	-471
693.485	-449
693.493	-392
693.537	-434
693.580	-247
693.605	-85
693.624	32
693.667	-150
693.710	109
693.725	181
693.753	333
693.797	462
693.840	633
693.845	646
693.883	619
693.926	668
693.966	511
693.970	481
694.013	444
694.056	197
694.086	-37
694.099	-135
694.142	-530
694.185	-771
694.206	-914
694.229	-797
694.272	-437
694.315	-100
694.326	-48
694.358	-42
694.401	76
694.444	45
694.446	38
694.487	4
694.530	-10
694.566	3
694.573	-9
694.616	-277
694.659	-25
694.686	-219
694.702	-302
694.745	-212
694.787	-443
694.806	-427
694.830	-278
694.873	-82
694.916	212
694.926	248
694.959	279
695.002	226
695.044	226
695.046	224
695.087	-41
695.130	-447
695.166	-667
695.172	-613
695.215	-446
695.258	-207
695.286	46
695.301	52
695.343	-181
695.386	-226
695.406	-279
695.428	-171
695.471	-6
695.514	105
695.526	151
695.556	249
695.599	387
695.641	480
695.646	503
695.684	543
695.726	446
695.766	258
695.769	267
695.811	343
695.854	598
695.886	605
695.896	581
695.938	646
695.981	530
696.005	603
696.023	648
696.065	537
696.108	543
696.125	451
696.150	332
696.192	388
696.235	220
696.245	208
696.277	336
696.319	501
696.361	585
696.365	580
696.404	384
696.446	348
696.485	254
696.488	269
696.530	339
696.572	299
696.604	432
696.614	458
696.656	508
696.698	429
696.724	375
696.740	411
696.783	663
696.825	857
696.844	867
696.867	648
696.909	344
696.951	20
696.964	-79
696.992	-46
697.034	-49
697.076	-71
697.083	-62
697.118	120
697.160	130
697.202	339
697.203	335
697.244	434
697.286	649
697.323	761
697.327	760
697.369	639
697.411	622
697.442	580
697.453	599
697.494	611
697.536	581
697.562	613
697.578	601
697.620	517
697.661	435
697.682	395
697.703	304
697.744	70
697.786	-118
697.801	-185
697.828	58
697.869	396
697.911	667
697.921	757
697.952	688
697.994	494
698.035	332
698.040	309
698.077	534
698.118	743
698.160	947
698.160	940
698.201	842
698.243	693
698.279	587
698.284	604
698.325	691
698.367	769
698.399	817
698.408	795
698.449	664
698.491	552
698.518	483
698.532	622
698.573	986
698.614	1394
698.638	1607
698.656	1547
698.697	1402
698.738	1244
698.757	1161
698.779	1104
698.820	987
698.862	869
698.877	819
698.903	796
698.944	752
698.985	700
698.996	684
699.026	889
699.067	1162
699.116	1484
699.235	755
699.354	762
699.474	1279
699.593	536
699.713	782
699.832	1685
699.951	673
700.070	788
700.190	-3
700.309	298
700.428	1033
700.547	863
700.667	748
700.786	823
700.905	784
701.024	361
701.143	348
701.262	1147
701.381	1059
701.500	262
701.619	1328
701.738	317
701.857	846
701.976	749
702.095	829
702.214	1497
702.333	772
702.452	600
702.571	735
702.690	720
702.809	828
702.928	1089
703.047	381
703.165	398
703.284	1090
703.403	1214
703.522	-15
703.640	1227
703.759	523
703.878	855
703.997	312
704.115	670
704.234	339
704.353	830
704.471	-116
704.590	351
704.708	506
704.827	1055
704.946	167
705.064	391
705.183	-450
705.301	1296
705.420	728
705.538	1028
705.656	-259
705.775	1030
705.893	279
706.012	271
706.130	-273
706.249	113
706.367	-625
706.485	444
706.604	-97
706.722	663
706.840	132
706.958	480
707.077	460
707.195	1174
707.313	446
707.431	547
707.549	-1062
707.668	593
707.786	-27
707.904	869
708.022	117
708.140	6
708.258	321
708.376	730
708.494	-341
708.612	546
708.730	175
708.848	704
708.966	-270
709.084	603
709.202	-534
709.320	544
709.438	228
709.556	439
709.674	-43
709.791	482
709.909	346
710.027	335
710.145	924
710.263	495
710.380	140
710.498	-595
710.616	-490
710.733	-243
710.851	532
710.969	443
711.086	187
711.204	477
711.322	123
711.439	257
711.557	-426
711.674	370
711.792	-188
711.909	52
712.027	-279
712.144	189
712.262	533
712.379	392
712.497	75
712.614	66
712.732	184
712.849	391
712.966	7
713.084	537
713.201	231
713.318	489
713.436	711
713.553	-315
713.670	160
713.787	579
713.905	436
714.022	502
714.139	-729
714.256	-31
714.373	79
714.490	892
714.608	973
714.725	5373
714.842	7083
714.959	979
715.076	24
715.193	165
715.310	-820
715.427	-106
715.544	-451
715.661	-267
715.778	-428
715.895	-242
716.011	104
716.128	-146
716.245	7
716.362	-48
716.479	-213
716.596	156
716.713	-306
716.829	-431
716.946	-363
717.063	-205
717.180	-680
717.296	156
717.413	-531
717.530	396
717.646	-43
717.763	786
717.880	-401
717.996	108
718.113	-632
718.229	-205
718.346	-142
718.462	85
718.579	-607
718.695	22
718.812	305
718.928	-138
719.045	-137
719.161	-631
719.277	-706
719.394	996
719.510	123
719.626	-9
719.743	-1033
719.859	413
719.975	-366
720.092	1402
720.208	3833
720.324	489
720.440	-187
720.557	-333
720.673	572
720.789	-380
720.905	234
721.021	129
721.137	218
721.253	520
721.369	-280
721.486	295
721.602	147
721.718	418
721.834	-424
721.950	-215
722.066	-790
722.181	-495
722.297	-447
722.413	-18
722.529	-1077
722.645	315
722.761	-440
722.877	343
722.993	-581
723.108	-1020
723.224	-391
723.340	-151
723.456	-417
723.571	-317
723.687	-370
723.803	452
723.918	-599
724.034	-81
724.150	127
724.265	226
724.381	-621
724.497	-232
724.612	-268
724.728	-267
724.843	-996
724.959	70
725.074	-698
725.190	440
725.305	-438
725.421	-110
725.536	-640
725.651	-220
725.767	-394
725.882	-8
725.997	-41
726.113	480
726.228	-723
726.343	5
726.459	-256
726.574	-729
726.689	-897
726.804	145
726.920	-934
727.035	-787
727.150	-606
727.265	162
727.380	178
727.495	-210
727.610	-885
727.725	-244
727.841	-484
727.956	324
728.071	-104
728.186	-240
728.301	-594
728.416	-34
728.531	-625
728.645	36
728.760	-535
728.875	-966
728.990	-1098
729.105	-988
729.220	-516
729.335	381
729.449	49
729.564	-474
729.679	-347
729.794	-272
729.908	-203
730.023	410
730.138	-573
730.253	-372
730.367	-556
730.482	-521
730.596	-536
730.711	-1194
730.826	-328
730.940	-434
731.055	229
731.169	160
731.284	-495
731.398	359
731.513	-706
731.627	327
731.742	-826
731.856	-781
731.970	-521
732.085	72
732.199	-328
732.313	-19
732.428	377
732.542	1131
732.656	757
732.771	631
732.885	142
732.999	-288
733.113	-590
733.227	-228
733.342	-327
733.456	346
733.570	-17
733.684	52
733.798	-455
733.912	702
734.026	358
734.140	-254
734.254	471
734.368	421
734.482	160
734.596	-136
734.710	-337
734.824	224
734.938	703
735.052	831
735.166	250
735.280	630
735.393	-381
735.507	-285
735.621	131
735.735	-308
735.849	131
735.962	-4
736.076	47
736.190	-1
736.303	173
736.417	233
736.531	-494
736.644	165
736.758	-587
736.872	-87
736.985	-64
737.099	139
737.212	-750
737.326	514
737.439	15
737.553	250
737.666	174
737.780	-427
737.893	-490
738.007	-309
738.120	461
738.233	267
738.347	88
738.460	105
738.573	-295
738.687	416
738.800	-81
738.913	-596
739.026	181
739.140	212
739.253	-128
739.366	-127
739.479	-773
739.592	-150
739.705	123
739.818	162
739.932	-410
740.045	-28
740.158	-622
740.271	-150
740.384	1014
740.497	-7
740.610	508
740.723	-443
740.836	-403
740.949	-428
741.062	-228
741.174	94
741.287	-520
741.400	13
741.513	-773
741.626	7
741.739	-176
741.851	-432
741.964	-9
742.077	-660
742.189	-836
742.302	13
742.415	-714
742.527	-113
742.640	-610
742.753	206
742.865	-1210
742.978	-595
743.090	0
743.203	39
743.316	-328
743.428	-432
743.541	-823
743.653	-573
743.766	-1004
743.878	-313
743.990	-429
744.103	-225
744.215	-145
744.327	-325
744.440	322
744.552	-10
744.664	140
744.777	382
744.889	-584
745.001	665
745.113	-197
745.226	-36
745.338	-37
745.450	123
745.562	-694
745.674	-41
745.786	299
745.898	-572
746.010	-646
746.122	-1089
746.234	-476
746.347	-172
746.459	-572
746.570	-609
746.682	-568
746.794	-624
746.906	-465
747.018	311
747.130	-3
747.242	-56
747.354	-588
747.466	531
747.577	-1167
747.689	-1434
747.801	-726
747.913	-170
748.024	-712
748.136	-158
748.248	-1116
748.359	-608
748.471	-957
748.583	-388
748.694	78
748.806	-566
748.918	-905
749.029	-525
749.141	-202
749.252	12
749.364	-662
749.475	-689
749.587	-245
749.698	221
749.809	-521
749.921	-580
750.032	-103
750.144	-582
750.255	-265
750.366	-309
750.478	-234
750.589	236
750.700	-646
750.811	-76
750.923	-147
751.034	-858
751.145	66
751.256	-751
751.367	323
751.479	-183
751.590	-1474
751.701	-521
751.812	-923
751.923	519
752.034	-527
752.145	243
752.256	-1452
752.367	-609
752.478	-1386
752.589	397
752.700	-75
752.811	118
752.922	-814
753.032	-813
753.143	-591
753.254	-170
753.365	709
753.476	-2
753.586	-316
753.697	-346
753.808	-729
753.919	-529
754.029	-887
754.140	-666
754.251	-660
754.361	-377
754.472	-860
754.582	-610
754.693	-1573
754.804	-448
754.914	-457
755.025	-375
755.135	18
755.246	-510
755.356	-797
755.466	-228
755.577	-169
755.687	-74
755.798	-762
755.908	313
756.018	-872
756.129	-265
756.239	-641
756.349	-667
756.460	-457
756.570	95
756.680	-1031
756.790	-144
756.900	-448
757.011	18
757.121	-1212
757.231	92
757.341	-349
757.451	-778
757.561	-714
757.671	-1071
757.781	-824
757.891	324
758.001	-717
758.111	53
758.221	24
758.331	-34
758.441	-1158
758.551	-15
758.661	-746
758.771	147
758.880	-454
758.990	-882
759.100	-402
759.210	-747
759.320	135
759.429	-937
759.539	-638
759.649	-1054
759.758	-369
759.868	-244
759.978	-510
760.087	-166
760.197	-898
760.307	-636
760.416	-94
760.526	-841
760.635	-608
760.745	-353
760.854	-803
760.964	-517
761.073	-412
761.182	-237
761.292	-501
761.401	-468
761.511	-1279
761.620	-445
761.729	-537
761.839	-755
761.948	-203
762.057	-1179
762.166	-1240
762.276	-166
762.385	42
762.494	-39
762.603	-538
762.712	-26
762.822	-924
762.931	-63
763.040	-682
763.149	-617
763.258	-816
763.367	-407
763.476	-567
763.585	-610
763.694	-210
763.803	-348
763.912	-312
764.021	-428
764.130	267
764.238	-70
764.347	-114
764.456	750
764.565	-717
764.674	15
764.783	-529
764.891	73
765.000	750
765.109	158
765.217	-951
765.326	631
765.435	60
765.543	653
765.652	1163
765.761	1753
765.869	3774
765.978	5508
766.086	8733
766.195	16539
766.303	29878
766.412	47156
766.520	37217
766.629	26404
766.737	14716
766.846	8335
766.954	5473
767.062	3905
767.171	2855
767.279	2808
767.387	953
767.496	1515
767.604	974
767.712	901
767.820	132
767.928	114
768.037	558
768.145	457
768.253	761
768.361	-469
768.469	-118
768.577	329
768.685	794
768.793	335
768.901	-10
769.009	986
769.117	258
769.225	1320
769.333	1277
769.441	4097
769.549	6312
769.657	14115
769.765	30412
769.873	40114
769.981	25172
770.088	12900
770.196	5947
770.304	2764
770.412	2437
770.519	1309
770.627	663
770.735	1273
770.842	1039
770.950	816
771.058	489
771.165	21
771.273	245
771.380	0
771.488	755
771.595	-346
771.703	-63
771.810	383
771.918	32
772.025	198
772.133	-353
772.240	154
772.348	1047
772.455	488
772.562	-427
772.670	570
772.777	899
772.884	428
772.991	-593
773.099	102
773.206	-1062
773.313	1059
773.420	-478
773.528	-280
773.635	-243
773.742	427
773.849	-400
773.956	-169
774.063	-701
774.170	-500
774.277	0
774.384	-763
774.491	-772
774.598	204
774.705	-305
774.812	-271
774.919	217
775.026	-59
775.133	-519
775.239	-597
775.346	19
775.453	-199
775.560	-770
775.667	124
775.773	-742
775.880	-280
775.987	-830
776.093	177
776.200	-296
776.307	168
776.413	-208
776.520	282
776.627	-737
776.733	-366
776.840	-1576
776.946	908
777.053	-634
777.159	-303
777.266	-1719
777.372	404
777.478	-192
777.585	316
777.691	-838
777.798	-18
777.904	-1007
778.010	-163
778.117	-203
778.223	-738
778.329	-392
778.435	-253
778.542	-358
778.648	26
778.754	-345
778.860	-130
778.966	-307
779.072	36
779.178	-52
779.284	-311
779.391	-1692
779.497	-1447
779.603	409
779.708	-1300
779.815	281
779.920	495
780.026	2714
780.132	-696
780.238	-1321
780.344	35
780.450	-393
780.556	-379
780.661	-925
780.767	-644
780.873	136
780.979	-130
781.085	-1242
781.190	-304
781.296	-945
781.402	-329
781.507	-838
781.613	-806
781.719	-900
781.824	507
781.930	-720
782.035	-302
782.141	-760
782.246	-508
782.352	-896
782.457	-581
782.563	-652
782.668	-1445
782.773	-1059
782.879	-474
782.984	-554
783.090	-703
783.195	69
783.300	-585
783.405	-652
783.511	-366
783.616	-1401
783.721	113
783.826	-200
783.932	-571
784.037	-831
784.142	-525
784.247	-1308
784.352	190
784.457	-977
784.562	38
784.667	-926
784.772	-321
784.877	-2190
784.982	-713
785.087	-686
785.192	-638
785.297	-1881
785.402	-680
785.507	-961
785.611	-215
785.716	-941
785.821	-671
785.926	-458
786.031	-615
786.135	-1580
786.240	-1216
786.345	-1292
786.450	-141
786.554	-273
786.659	-615
786.763	-1366
786.868	-64
786.973	190
787.077	-920
787.182	-1280
787.286	-581
787.391	-675
787.495	-1170
787.600	-556
787.704	-720
787.809	-319
787.913	-698
788.017	-259
788.122	-326
788.226	-809
788.330	-1536
788.435	-621
788.539	-918
788.643	-1345
788.747	-693
788.852	-323
788.956	-1293
789.060	-647
789.164	-967
789.268	-1625
789.372	-822
789.476	-694
789.580	-1379
789.684	-537
789.788	-922
789.892	-1321
789.996	-443
790.100	-755
790.204	-922
790.308	-589
790.412	-557
790.516	-1041
790.620	-1205
790.724	-767
790.828	-857
790.931	-1037
791.035	-340
791.139	-1365
791.242	-598
791.346	-344
791.450	-876
791.554	-926
791.657	-1409
791.761	-215
791.864	270
791.968	-871
792.072	-102
792.175	-422
792.279	-1568
792.382	-855
792.486	-19
792.589	-910
792.693	-560
792.796	-1391
792.899	-478
793.003	-616
793.106	-952
793.209	-1606
793.313	61
793.416	-2138
793.519	-255
793.623	-1212
793.726	-577
793.829	-1294
793.932	-1169
794.035	-1245
794.138	170
794.242	-1320
794.345	-1087
794.448	-1328
794.551	-1173
794.654	665
794.757	979
794.860	-18
794.963	-627
795.066	-1042
795.169	-198
795.272	-1308
795.375	-799
795.477	-1704
795.580	-433
795.683	-1032
795.786	-171
795.889	-1601
795.991	-207
796.094	-35
796.197	-1059
796.300	-362
796.402	-476
796.505	-1891
796.608	-438
796.710	-478
796.813	-635
796.915	-452
797.018	179
797.120	-1315
797.223	-1794
797.326	-349
797.428	-606
797.530	-677
797.633	-139
797.735	-322
797.838	-905
797.940	-1041
798.042	-1577
798.145	-980
798.247	-181
798.349	-1592
798.452	-310
798.554	-1079
798.656	-1687
798.758	-228
798.860	-472
798.962	-1244
799.065	-744
799.167	-1866
799.269	-113
799.371	178
799.473	-280
799.575	-1818
799.677	-1477
799.779	-3
799.881	-1888
799.983	-490
800.085	-820
800.187	-1098
800.289	-1243
800.390	-825
800.492	-848
800.594	-407
800.696	-440
800.798	-934
800.899	-1003
801.001	-466
801.103	-1593
801.205	-1041
801.306	-1238
801.408	-1550
801.509	-1167
801.611	-370
801.713	-598
801.814	-1651
801.916	-1311
802.017	-1085
802.119	-1090
802.220	-999
802.322	-2335
802.423	464
802.525	-1003
802.626	-1203
802.727	-574
802.829	-780
802.930	-1471
803.031	-104
803.133	-1238
803.234	-1488
803.335	-1553
803.436	-822
803.538	-608
803.639	-411
803.740	-556
803.841	-1024
803.942	-910
804.043	-840
804.144	-1459
804.245	-947
804.346	-1333
804.447	-1646
804.548	-414
804.649	-830
804.750	-1024
804.851	-1190
804.952	-622
805.053	-785
805.154	-1338
805.255	-632
805.355	-396
805.456	-863
805.557	-1439
805.658	-1862
805.758	-468
805.859	166
805.960	-976
806.061	-926
806.161	-665
806.262	-1008
806.362	-805
806.463	-1781
806.564	-631
806.664	-1679
806.765	-877
806.865	-1221
806.966	-922
807.066	-648
807.166	-896
807.267	-609
807.367	-1172
807.468	-1270
807.568	-1527
807.668	-287
807.769	-493
807.869	-1188
807.969	-757
808.069	-1051
808.170	-1172
808.270	-1208
808.370	-353
808.470	-1084
808.570	-1239
808.670	-612
808.770	-873
808.870	-1684
808.970	-660
809.070	-1134
809.170	-1493
809.271	-573
809.370	-493
809.470	-901
809.570	-2016
809.670	-998
809.770	-708
809.870	-595
809.970	-737
810.070	-1807
810.169	-748
810.269	-2386
810.369	-380
810.469	-1389
810.568	-438
810.668	-1286
810.768	-1479
810.867	-1163
810.967	-1181
811.066	-1117
811.166	-756
811.265	-553
811.365	-1285
811.464	-1445
811.564	-807
811.663	-634
811.763	-1519
811.862	-425
811.962	-877
812.061	-1297
812.160	-871
812.260	-1289
812.359	-349
812.458	-1339
812.557	-507
812.657	-479
812.756	-600
812.855	-456
812.954	-654
813.053	-661
813.153	-987
813.252	-1616
813.351	-593
813.450	-1560
813.549	-1452
813.648	-741
813.747	-748
813.846	-1195
813.945	-738
814.044	-1990
814.143	243
814.242	-612
814.341	-1488
814.439	-1714
814.538	-880
814.637	-1370
814.736	-1504
814.835	-418
814.933	-1441
815.032	-1289
815.131	-1365
815.229	-1029
815.328	-769
815.427	-688
815.525	-104
815.624	-707
815.722	-798
815.821	-368
815.919	-472
816.018	-439
816.116	-781
816.215	-1046
816.313	-660
816.412	134
816.510	-1226
816.609	-73
816.707	-294
816.805	-674
816.904	-1442
817.002	-444
817.100	-617
817.198	-1019
817.296	-891
817.395	-1668
817.493	738
817.591	-1177
817.689	-459
817.787	-1392
817.885	-200
817.983	-1526
818.081	-19
818.179	-361
818.277	-295
818.375	-938
818.473	-1059
818.571	-597
818.669	-1170
818.767	-473
818.865	-712
818.963	-864
819.061	-889
819.158	-952
819.256	583
819.354	-1949
819.452	611
819.549	-537
819.647	-43
819.745	-1336
819.842	-337
819.940	-964
820.038	-649
820.135	-1011
820.233	351
820.330	-1011
820.428	-947
820.525	-1277
820.623	-196
820.720	-940
820.818	-602
820.915	-914
821.012	-293
821.110	-1134
821.207	-600
821.304	-1016
821.402	-809
821.499	-698
821.596	-233
821.693	-1172
821.791	398
821.888	-615
821.985	-494
822.082	-2533
822.179	-581
822.276	-582
822.373	-879
822.470	-1192
822.567	-556
822.664	-1024
822.761	-491
822.858	-1969
822.955	-941
823.052	-1172
823.149	-663
823.246	-904
823.343	-1120
823.440	-247
823.536	-1307
823.633	-1270
823.730	-1037
823.827	-257
823.923	-1348
824.020	134
824.117	-1718
824.213	-1091
824.310	-186
824.407	-910
824.503	-126
824.600	-1269
824.696	-794
824.793	-1083
824.889	-1011
824.986	-1199
825.082	-955
825.179	-595
825.275	-902
825.371	-1195
825.468	-902
825.564	-1976
825.660	-635
825.757	-834
825.853	-1126
825.949	-1784
826.045	-850
826.142	-1185
826.238	-1273
826.334	-921
826.430	-1704
826.526	-526
826.622	-961
826.718	-1041
826.814	-1536
826.910	297
827.006	-1082
827.102	-1385
827.198	16
827.294	-1664
827.390	-821
827.486	-808
827.582	-1211
827.678	-1084
827.774	-292
827.869	-1978
827.965	-576
828.061	-1983
828.157	-590
828.252	-1519
828.348	-1749
828.444	325
828.539	-2021
828.635	-1221
828.731	66
828.826	-1617
828.922	-982
829.017	-1456
829.113	-765
829.208	-1627
829.304	-1735
829.399	-706
829.495	-1174
829.590	-844
829.685	-1117
829.781	-1089
829.876	-1534
829.971	-1523
830.066	-636
830.162	-1061
830.257	-1584
830.352	-1873
830.447	388
830.543	-803
830.638	-2180
830.733	-414
830.828	-957
830.923	-250
831.018	-775
831.113	-1516
831.208	-1048
831.303	-1477
831.398	-589
831.493	-1309
831.588	-413
831.683	-1559
831.778	-689
831.873	-1211
831.967	-606
832.062	-2566
832.157	-1589
832.252	15
832.346	-1887
832.441	-1569
832.536	-745
832.631	-395
832.725	-1003
832.820	-1108
832.914	-1618
833.009	-2008
833.104	-637
833.198	-1267
833.293	-1800
833.387	-1332
833.482	-1543
833.576	-2449
833.670	-1010
833.765	-1698
833.859	-2624
833.954	-662
834.048	-527
834.142	-641
834.237	-1656
834.331	-1039
834.425	-1795
834.519	-2154
834.613	-602
834.708	-566
834.802	-1574
834.896	-1615
834.990	-1303
835.084	-901
835.178	-1017
835.272	-1757
835.366	-1060
835.460	-929
835.554	-1946
835.648	-1645
835.742	-1442
835.836	-1637
835.930	-1287
836.024	-778
836.117	-435
836.211	-2125
836.305	-610
836.399	-1332
836.493	-1556
836.586	-950
836.680	-1525
836.774	-1267
836.867	-234
836.961	-1453
837.055	-1155
837.148	-1357
837.242	-998
837.335	-1554
837.429	-1431
837.522	-1730
837.616	-733
837.709	-1097
837.803	-1967
837.896	-647
837.989	-1330
838.083	-1754
838.176	-858
838.269	-1830
838.363	-590
838.456	-1477
838.549	-1231
838.642	-1872
838.735	-1113
838.829	-693
838.922	-1724
839.015	-1386
839.108	-1588
839.201	-1497
839.294	-543
839.387	-1101
839.480	-1580
839.573	-880
839.666	-1159
839.759	-1414
839.852	-1045
839.945	-528
840.038	-517
840.131	-1207
840.223	-1559
840.316	-1536
840.409	-1180
840.502	-1743
840.594	-861
840.687	-1836
840.780	-728
840.873	-1412
840.965	-1278
841.058	-1273
841.150	-1171
841.243	-1047
841.336	-1427
841.428	-911
841.521	-1545
841.613	-1835
841.706	-1266
841.798	-1248
841.890	-1169
841.983	-1461
842.075	-209
842.167	-1780
842.260	-781
842.352	-797
842.444	-1117
842.537	-1324
842.629	-1057
842.721	-1090
842.813	-1651
842.905	-2565
842.997	-1548
843.090	-1857
843.182	-977
843.274	-1905
843.366	-816
843.458	-1918
843.550	-424
843.642	-1690
843.734	-1273
843.826	-1631
843.918	-690
844.009	-1279
844.101	-1441
844.193	-613
844.285	-1554
844.377	-892
844.469	-1055
844.560	-1521
844.652	-568
844.744	-831
844.835	-677
844.927	-1546
845.019	-1622
845.110	-1330
845.202	-856
845.293	-1149
845.385	-1005
845.476	-1297
845.568	-1557
845.659	-1532
845.751	-879
845.842	-1951
845.934	-1968
846.025	-1748
846.116	-800
846.208	-1103
846.299	-909
846.390	-1007
846.482	-1500
846.573	-1713
846.664	-1728
846.755	-1352
846.846	-808
846.937	-2606
847.029	-1693
847.120	-993
847.211	-1388
847.302	-559
847.393	-2097
847.484	-1099
847.575	-1006
847.666	-1863
847.757	-946
847.847	-1036
847.938	-266
848.029	-1279
848.120	-1495
848.211	-1725
848.302	-943
848.392	-1907
848.483	-831
848.574	-1622
848.664	-1085
848.755	-1836
848.846	-1091
848.936	-1756
849.027	-1395
849.118	-1451
849.208	-1344
849.299	-1480
849.389	-1094
849.480	-735
849.570	-747
849.661	-1692
849.751	-1655
849.841	-1742
849.932	-739
850.022	-1493
850.112	-899
850.203	-1399
850.293	-1382
850.383	-1210
850.474	-1470
850.564	-2197
850.654	-1122
850.744	-1485
850.834	-1269
850.924	-939
851.014	-1421
851.104	-1480
851.194	-1104
851.284	-1289
851.374	-965
851.464	-1249
851.554	-1003
851.644	-1642
851.734	-556
851.824	-1861
851.914	-1243
852.004	-1030
852.094	-1491
852.183	-1372
852.273	-1215
852.363	-937
852.452	-1133
852.542	-1467
852.632	-1352
852.721	-2337
852.811	-1484
852.901	-1729
852.990	-1984
853.080	-1511
853.169	-1651
853.259	-1972
853.348	-305
853.438	-1261
853.527	-1252
853.617	-1905
853.706	-925
853.795	-1550
853.885	-1513
853.974	-1094
854.063	648
854.152	-117
854.242	-123
854.331	-1512
854.420	-1421
854.509	-1158
854.598	-1029
854.687	-1642
854.777	-1011
854.866	-2243
854.955	-757
855.044	-1549
855.133	-1018
855.222	-1906
855.311	-1168
855.400	-1532
855.488	-1424
855.577	-1672
855.666	-1002
855.755	-1666
855.844	-1166
855.933	-2193
856.021	-1688
856.110	-1288
856.199	-1881
856.288	-1720
856.376	-1660
856.465	-1581
856.554	-493
856.642	-1463
856.731	-1361
856.819	-1726
856.908	-1115
856.996	-1528
857.085	-1575
857.173	-1701
857.262	-1161
857.350	-1142
857.438	-1828
857.527	-1254
857.615	-1278
857.703	-1844
857.792	-1112
857.880	-1337
857.968	-1576
858.056	-1646
858.145	-1736
858.233	-1750
858.321	-1816
858.409	-1170
858.497	-1275
858.585	-2099
858.673	-1324
858.761	-1435
858.849	-1346
858.937	-1115
859.025	-1035
859.113	-1410
859.201	-1955
859.289	-1631
859.377	-1301
859.465	-1361
859.552	-1870
859.640	-2456
859.728	-1724
859.816	-2441
859.903	-1386
859.991	-1696
860.079	-1559
860.166	-666
860.254	-1010
860.342	-1164
860.429	-1599
860.517	-1563
860.604	-1714
860.692	-958
860.779	-775
860.867	-2205
860.954	-1186
861.042	-1706
861.129	-1322
861.216	-1960
861.304	-1557
861.391	-1076
861.478	-1715
861.565	-1049
861.653	-765
861.740	-1719
861.827	-1732
861.914	-1000
862.001	-866
862.089	-1242
862.176	-1450
862.263	-1635
862.350	-1441
862.437	-1631
862.524	-1704
862.611	-1253
862.698	-1688
862.785	-1705
862.871	-1440
862.958	-2263
863.045	-1571
863.132	-1378
863.219	-351
863.306	-2494
863.392	-1399
863.479	-1872
863.566	-1375
863.652	-1186
863.739	-1815
863.826	-1275
863.912	-1721
863.999	-2376
864.086	-1178
864.172	-1417
864.259	-1245
864.345	-1249
864.432	-1127
864.518	-1560
864.604	-1521
864.691	-1621
864.777	-979
864.863	-1233
864.950	-1130
865.036	-1890
865.122	-582
865.209	-691
865.295	-1175
865.381	-1709
865.467	-999
865.553	-919
865.639	-1193
865.726	-1102
865.812	-369
865.898	-865
865.984	-869
866.070	-1158
866.156	-71
866.242	-1775
866.328	-684
866.414	-1579
866.499	-818
866.585	-970
866.671	-953
866.757	-1452
866.843	-859
866.928	-1115
867.014	-1401
867.100	-1505
867.186	-889
867.271	-1797
867.357	-802
867.442	-1056
867.528	-1014
867.614	-963
867.699	-1960
867.785	-1658
867.870	-1441
867.956	-1529
868.041	-588
868.127	-1292
868.212	-1342
868.297	-1510
868.383	-1487
868.468	-780
868.553	-40
868.639	-2022
868.724	-999
868.809	-960
868.894	-935
868.979	-1170
869.065	-696
869.150	-1734
869.235	-601
869.320	-1795
869.405	-1455
869.490	-1667
869.575	-1880
869.660	-968
869.745	-764
869.830	-1349
869.915	-938
870.000	-1083
870.085	-1673
870.169	-930
870.254	-683
870.339	-1582
870.424	-1210
870.509	-1399
870.593	-1113
870.678	-984
870.763	-1459
870.847	-807
870.932	-1628
871.016	-1519
871.101	-1109
871.186	-1231
871.270	-1189
871.355	-2052
871.439	-837
871.523	-1769
871.608	-1413
871.692	-1363
871.777	-1604
871.861	-1367
871.945	-1062
872.030	-862
872.114	-1042
872.198	-1239
872.282	-1340
872.367	-1734
872.451	-1173
872.535	-1812
872.619	-1506
872.703	-2268
872.787	-1334
872.871	-1082
872.955	-1432
873.039	-1373
873.123	-1348
873.207	-1261
873.291	-1462
873.375	-2120
873.459	-1117
873.543	-1274
873.627	-1385
873.711	-2468
873.794	-953
873.878	-1410
873.962	-1547
874.045	-1791
874.129	-1876
874.137	-1879
874.213	-1907
874.245	-1783
874.296	-1584
874.352	-1692
874.380	-1746
874.460	-1358
874.464	-1344
874.547	-1621
874.568	-1580
874.631	-1446
874.676	-1535
874.714	-1613
874.784	-1103
874.798	-1003
874.881	-686
874.892	-806
874.965	-1644
874.999	-1440
875.048	-1151
875.107	-1551
875.131	-1703
875.215	-842
875.215	-842
875.298	-1047
875.323	-1561
875.381	-2824
875.430	-1781
875.465	-1009
875.538	-1400
875.548	-1469
875.631	-1619
875.646	-1629
875.714	-1600
875.753	-1276
875.798	-879
875.861	-1109
875.881	-1191
875.964	-371
875.968	-428
876.047	-1505
876.076	-1256
876.130	-719
876.183	-1008
876.213	-1214
876.291	-253
876.296	-184
876.379	-1748
876.398	-1537
876.462	-860
876.506	-1237
876.545	-1519
876.613	-1261
876.628	-1239
876.711	-1165
876.721	-1179
876.794	-1092
876.828	-1185
876.877	-1417
876.935	-1355
876.960	-1288
877.043	-755
877.043	-757
877.125	-1163
877.150	-1232
877.208	-1312
877.258	-1076
877.291	-859
877.365	-1115
877.374	-1175
877.456	-510
877.472	-612
877.539	-869
877.579	-952
877.622	-1144
877.687	-1216
877.704	-1182
877.787	-1321
877.794	-1318
877.869	-1526
877.901	-1580
877.952	-1515
878.008	-1292
878.034	-1176
878.115	-1081
878.117	-1080
878.199	-1676
878.222	-1363
878.282	-423
878.329	-636
878.364	-950
878.437	-959
878.447	-936
878.529	-1074
878.544	-1062
878.611	-988
878.651	-1172
878.694	-1291
878.758	-996
878.776	-899
878.858	-958
878.865	-906
878.941	-681
878.972	-861
879.023	-1144
879.078	-1322
879.105	-1260
879.185	-272
879.187	-253
879.269	-705
879.292	-736
879.351	-986
879.399	-896
879.433	-720
879.506	-543
879.516	-577
879.598	-1212
879.613	-1244
879.680	-743
879.720	-568
879.762	-628
879.827	-918
879.844	-1029
879.926	-851
879.933	-883
880.007	-971
880.040	-1111
880.089	-1319
880.147	-797
880.171	-540
880.253	-619
880.254	-621
880.335	-833
880.360	-738
880.417	-531
880.467	-622
880.499	-699
880.574	-854
880.580	-872
880.662	-194
880.680	-374
880.744	-899
880.787	-984
880.825	-1144
880.893	-852
880.907	-775
880.989	-814
881.000	-830
881.070	-720
881.106	-1032
881.152	-1597
881.213	-944
881.233	-641
881.315	-996
881.319	-971
881.396	-702
881.426	-683
881.478	-678
881.532	-818
881.559	-855
881.639	-880
881.641	-873
881.722	-721
881.745	-649
881.803	-747
881.852	-771
881.885	-625
881.958	-547
881.966	-617
882.047	-1133
882.064	-1324
882.129	-994
882.171	-527
882.210	-629
882.277	-1161
882.291	-1086
882.372	-72
882.383	-13
882.454	-402
882.489	-635
882.535	-1039
882.596	-1370
882.616	-1214
882.697	-430
882.702	-405
882.778	-395
882.808	-335
882.859	-418
882.914	-421
882.940	-420
883.020	-671
883.021	-665
883.102	-376
883.127	-195
883.183	-200
883.233	-278
883.264	-406
883.339	-548
883.345	-498
883.426	-429
883.445	-332
883.507	-759
883.551	-996
883.587	-863
883.657	-739
883.668	-669
883.749	-332
883.763	-237
883.830	-601
883.869	-822
883.910	-624
883.975	-217
883.991	-219
884.072	-456
884.081	-500
884.152	-854
884.187	-1015
884.233	-963
884.292	-739
884.314	-846
884.394	-1424
884.398	-1454
884.475	-1068
884.504	-832
884.555	-716
884.610	-760
884.636	-650
884.716	-163
884.716	-160
884.797	-545
884.821	-630
884.877	-655
884.927	-713
884.958	-671
885.033	-293
885.038	-274
885.118	-688
885.139	-714
885.199	-1030
885.244	-984
885.279	-573
885.350	-234
885.359	-229
885.439	182
885.456	104
885.520	-549
885.561	-646
885.600	-633
885.667	-696
885.680	-689
885.760	-626
885.773	-652
885.840	-668
885.878	-503
885.920	-137
885.984	48
886.000	-97
886.080	-503
886.089	-585
886.160	-349
886.195	-95
886.240	50
886.300	109
886.320	143
886.400	124
886.406	132
886.480	-671
886.511	-1032
886.560	-607
886.616	-109
886.640	-221
886.720	-752
886.722	-769
886.800	-392
886.827	-139
886.879	-450
886.932	-1036
886.959	-844
887.038	-141
887.039	-137
887.119	-272
887.143	-256
887.198	61
887.248	174
887.278	3
887.354	-479
887.358	-486
887.437	-580
887.459	-640
887.517	-20
887.564	487
887.596	251
887.669	-174
887.676	-132
887.755	204
887.774	307
887.835	-123
887.880	-496
887.914	-499
887.985	-565
887.994	-530
888.073	-213
888.090	-135
888.153	-13
888.195	-20
888.232	-160
888.300	-294
888.311	-201
888.391	394
888.405	479
888.470	183
888.510	-17
888.549	-229
888.615	-441
888.628	-391
888.708	-308
888.720	-274
888.787	85
888.825	235
888.866	59
888.930	-163
888.945	-163
889.024	-244
889.035	-248
889.103	-105
889.140	-64
889.182	-2
889.245	109
889.261	104
889.340	80
889.349	73
889.419	-484
889.454	-758
889.498	-645
889.559	-487
889.577	-431
889.656	-172
889.664	-145
889.735	-287
889.768	-350
889.814	-234
889.873	-77
889.978	-62
890.083	-441
890.187	-260
890.292	-194
890.397	907
890.501	-577
890.606	174
890.710	135
890.815	54
890.919	-31
891.024	-52
891.128	304
891.233	530
891.337	-327
891.442	-78
891.546	-443
891.650	-108
891.755	132
891.859	1202
891.963	178
892.068	323
892.172	-320
892.276	230
892.380	389
892.484	336
892.589	543
892.693	447
892.797	92
892.901	129
893.005	103
893.109	686
893.213	520
893.317	682
893.421	-547
893.525	-734
893.629	264
893.733	-489
893.837	-688
893.941	-430
894.045	-31
894.148	-8
894.252	-575
894.356	20
894.460	175
894.564	339
894.667	93
894.771	-201
894.875	92
894.978	-399
895.082	-765
895.186	367
895.289	131
895.393	-307
895.496	88
895.600	-500
895.703	182
895.807	975
895.910	-479
896.014	31
896.117	173
896.221	-583
896.324	-365
896.427	-347
896.531	18
896.634	26
896.737	618
896.840	655
896.944	-228
897.047	-127
897.150	332
897.253	15
897.356	-5
897.460	-302
897.563	-535
897.666	-273
897.769	-378
897.872	190
897.975	246
898.078	656
898.181	-362
898.284	290
898.387	-41
898.490	327
898.593	-465
898.695	283
898.798	-74
898.901	34
899.004	-1128
899.107	476
899.209	-295
899.312	750
899.415	326
899.518	-950
899.620	201
899.723	-367
899.826	-465
899.928	-581
900.031	-743
900.133	340
900.236	-410
900.338	-243
900.441	-273
900.543	-379
900.646	644
900.748	546
900.851	212
900.953	705
901.055	656
901.158	730
901.260	-28
901.362	-251
901.465	92
901.567	385
901.669	-285
901.771	-552
901.873	186
901.976	-178
902.078	-324
902.180	25
902.282	-801
902.384	282
902.486	-48
902.588	-375
902.690	-132
902.792	300
902.894	868
902.996	10
903.098	214
903.200	164
903.302	-405
903.404	41
903.505	-406
903.607	290
903.709	137
903.811	710
903.913	45
904.014	355
904.116	52
904.218	284
904.319	-245
904.421	172
904.523	-226
904.624	459
904.726	-798
904.827	265
904.929	161
905.030	-485
905.132	230
905.233	219
905.335	55
905.436	-519
905.537	-998
905.639	264
905.740	197
905.841	-262
905.943	-501
906.044	-67
906.145	-126
906.247	-371
906.348	297
906.449	726
906.550	425
906.651	69
906.752	-331
906.854	-485
906.955	-211
907.056	356
907.157	-435
907.258	-272
907.359	-806
907.460	-71
907.561	-529
907.662	-44
907.762	-472
907.863	128
907.964	35
908.065	553
908.166	186
908.267	781
908.367	-353
908.468	559
908.569	-423
908.670	-101
908.770	765
908.871	63
908.971	-780
909.072	739
909.173	-417
909.273	-66
909.374	-625
909.474	84
909.575	-247
909.675	-395
909.776	-76
909.876	289
909.977	-112
910.077	166
910.177	-980
910.278	510
910.378	-319
910.478	205
910.579	433
910.679	38
910.779	-591
910.879	645
910.980	-801
911.080	-123
911.180	2
911.280	-689
911.380	373
911.480	-273
911.580	-219
911.680	-378
911.780	-20
911.880	491
911.980	97
912.080	-217
912.180	-1014
912.280	-201
912.380	-602
912.480	-347
912.580	-1076
912.679	50
912.779	328
912.879	-108
912.979	-559
913.078	-101
913.178	728
913.278	-441
913.377	-280
913.477	17
913.577	-133
913.676	376
913.776	-365
913.875	204
913.975	26
914.074	-569
914.174	-440
914.273	-172
914.373	736
914.472	-453
914.572	-362
914.671	-548
914.770	-526
914.870	47
914.969	420
915.068	-409
915.167	-348
915.267	-406
915.366	-349
915.465	669
915.564	124
915.663	430
915.763	-533
915.862	685
915.961	-535
916.060	512
916.159	-49
916.258	-445
916.357	-843
916.456	-433
916.555	-1290
916.654	-682
916.752	-281
916.851	19
916.950	-166
917.049	-178
917.148	-579
917.247	-812
917.345	-482
917.444	-447
917.543	-293
917.642	-302
917.740	-399
917.839	-404
917.937	143
918.036	-498
918.135	166
918.233	-486
918.332	-525
918.430	-153
918.529	-28
918.627	-303
918.726	-752
918.824	-520
918.923	-897
919.021	26
919.119	-387
919.218	-120
919.316	-433
919.414	-921
919.512	-543
919.611	-147
919.709	30
919.807	23
919.905	-267
920.003	-128
920.102	-518
920.200	330
920.298	-503
920.396	-1052
920.494	-684
920.592	-708
920.690	-161
920.788	25
920.886	-240
920.984	511
921.082	-369
921.180	-47
921.277	40
921.375	-82
921.473	16
921.571	-735
921.669	-134
921.766	325
921.864	622
921.962	-441
922.060	255
922.157	499
922.255	46
922.352	86
922.450	6
922.548	-169
922.645	-825
922.743	114
922.840	-2
922.938	808
923.035	-505
923.133	241
923.230	141
923.327	292
923.425	1040
923.522	498
923.619	900
923.717	390
923.814	373
923.911	340
924.008	266
924.106	480
924.203	-299
924.300	-246
924.397	-296
924.494	708
924.591	260
924.688	-2
924.786	-68
924.883	487
924.979	34
925.077	508
925.173	340
925.270	-22
925.367	-130
925.464	-194
925.561	648
925.658	640
925.755	-403
925.852	-73
925.948	168
926.045	1309
926.142	107
926.239	912
926.335	-282
926.432	47
926.529	-121
926.625	410
926.722	377
926.818	-61
926.915	69
927.011	804
927.108	-413
927.204	-267
927.301	-184
927.397	-473
927.494	655
927.590	651
927.687	461
927.783	571
927.879	160
927.976	318
928.072	-211
928.168	155
928.264	265
928.361	-407
928.457	542
928.553	175
928.649	-76
928.745	429
928.841	-237
928.937	-57
929.033	-248
929.129	322
929.225	-203
929.321	755
929.417	-673
929.513	-119
929.609	-593
929.705	-186
929.801	687
929.897	89
929.993	-152
930.089	1004
930.184	-289
930.280	568
930.376	348
930.471	151
930.567	128
930.663	165
930.758	-16
930.854	-62
930.950	-225
931.045	-28
931.141	182
931.236	-204
931.332	57
931.427	52
931.523	-192
931.618	-43
931.714	-641
931.809	502
931.905	-423
932.000	223
932.095	-69
932.191	498
932.286	581
932.381	-771
932.476	-63
932.572	-159
932.667	-297
932.762	354
932.857	-306
932.952	-221
933.047	-369
933.142	-17
933.237	63
933.332	-240
933.427	398
933.522	-49
933.617	-423
933.712	425
933.807	670
933.902	-213
933.997	569
934.092	-399
934.187	-140
934.282	-294
934.376	-579
934.471	447
934.566	-108
934.661	163
934.755	-3
934.850	126
934.945	358
935.039	247
935.134	-730
935.228	-138
935.323	381
935.417	16
935.512	-754
935.606	-207
935.701	326
935.795	-408
935.890	-1156
935.984	-31
936.079	-705
936.173	-750
936.267	-108
936.362	-1404
936.456	173
936.550	328
936.644	627
936.738	251
936.833	-71
936.927	31
937.021	66
937.115	-615
937.209	-1325
937.303	99
937.397	-439
937.491	19
937.585	-359
937.679	195
937.773	-281
937.867	-83
937.961	-840
938.055	-262
938.149	-296
938.243	-33
938.337	-1084
938.430	304
938.524	-68
938.618	-75
938.712	-382
938.805	-85
938.899	-624
938.993	-475
939.086	-768
939.180	-1177
939.274	-395
939.367	308
939.461	-1367
939.554	-159
939.648	-733
939.741	-863
939.835	-867
939.928	49
940.022	-1234
940.115	-210
940.208	-910
940.302	348
940.395	-489
940.488	-527
940.582	148
940.675	-644
940.768	-15
940.861	-438
940.954	30
941.048	-156
941.141	-132
941.234	-544
941.327	-335
941.420	-819
941.513	29
941.606	-315
941.699	-964
941.792	-361
941.885	-1107
941.978	-471
942.071	-850
942.164	-62
942.257	-298
942.349	-239
942.442	-164
942.535	-8
942.628	-575
942.721	-146
942.813	-653
942.906	315
942.999	-401
943.091	-128
943.184	-583
943.277	-741
943.369	-504
943.462	-506
943.554	-392
943.647	-535
943.739	534
943.832	145
943.924	-519
944.017	-758
944.109	-1354
944.201	-258
944.294	168
944.386	-642
944.478	-271
944.571	-251
944.663	-23
944.755	-707
944.847	-106
944.940	-223
945.032	-1064
945.124	-1048
945.216	-7
945.308	-373
945.400	-549
945.492	-1260
945.584	-682
945.676	-604
945.768	-1059
945.860	-100
945.952	-343
946.044	-43
946.136	-1028
946.228	-50
946.320	-477
946.412	-77
946.503	-836
946.595	312
946.687	-894
946.779	-675
946.870	-180
946.962	-1095
947.054	-696
947.145	687
947.237	365
947.329	-376
947.420	-1050
947.512	106
947.603	-922
947.695	-122
947.786	-994
947.878	-1481
947.969	-526
948.061	-781
948.152	-493
948.243	-1020
948.335	-1027
948.426	-200
948.517	-1751
948.609	172
948.700	-180
948.791	-264
948.882	-1783
948.973	-736
949.065	-648
949.156	-26
949.247	-1623
949.338	-375
949.429	-1032
949.520	-52
949.611	-773
949.702	443
949.793	-245
949.884	-282
949.975	-1083
950.066	-348
950.157	-131
950.247	-1043
950.338	-1005
950.429	-778
950.520	-854
950.611	-824
950.701	-589
950.792	-552
950.883	-216
950.973	-47
951.064	-469
951.155	-748
951.245	-508
951.336	-520
951.427	-663
951.517	-148
951.608	-193
951.698	-328
951.788	172
951.879	-698
951.969	-545
952.060	-838
952.150	-686
952.240	-259
952.331	-1682
952.421	340
952.511	-336
952.602	-1072
952.692	-1264
952.782	-897
952.872	-969
952.962	-615
953.052	-784
953.143	-589
953.233	-374
953.323	-66
953.413	-1456
953.503	91
953.593	-434
953.683	-360
953.773	-867
953.863	-182
953.953	-1000
954.042	177
954.132	-1167
954.222	-437
954.312	-933
954.402	-401
954.492	-1344
954.581	-803
954.671	-913
954.761	-1480
954.850	534
954.940	-800
955.030	-506
955.119	-635
955.209	-870
955.298	-1785
955.388	-492
955.477	-240
955.567	-353
955.656	-311
955.746	-603
955.835	-173
955.925	-1029
956.014	-1125
956.103	-1730
956.193	-914
956.282	-713
956.371	-233
956.461	-552
956.550	-791
956.639	-629
956.728	-767
956.817	-528
956.906	-820
956.995	-829
957.085	-900
957.174	-1023
957.263	-262
957.352	-1202
957.441	-217
957.530	-583
957.619	-672
957.708	-240
957.796	-651
957.885	-571
957.974	-1287
958.063	-896
958.152	-1416
958.241	-1145
958.329	-742
958.418	-877
958.507	-929
958.596	-261
958.684	-968
958.773	-546
958.861	-208
958.950	187
959.039	-673
959.127	-1098
959.216	-864
959.304	-1199
959.393	-1365
959.481	-678
959.570	-63
959.658	-428
959.746	-1431
959.835	10
959.923	-352
960.011	-962
960.100	-676
960.188	-603
960.276	-1275
960.365	-1422
960.453	-967
960.541	-244
960.629	-782
960.717	-1048
960.805	-1684
960.893	-578
960.981	-300
961.069	-473
961.158	-828
961.245	-319
961.333	-214
961.421	-665
961.509	-401
961.597	-398
961.685	-1132
961.773	-824
961.861	-1191
961.949	266
962.036	-1361
962.124	-336
962.212	-786
962.299	-1245
962.387	-993
962.475	-784
962.562	-1079
962.650	-264
962.738	-215
962.825	-1165
962.913	-1037
963.000	-694
963.088	-413
963.175	-114
963.263	-872
963.350	-716
963.438	-481
963.525	-1509
963.612	-444
963.700	-982
963.787	-154
963.874	-1363
963.962	-74
964.049	-742
964.136	-455
964.223	-461
964.310	-1116
964.398	-509
964.485	-867
964.572	-804
964.659	-1004
964.746	-405
964.833	-1006
964.920	-508
965.007	-853
965.094	-534
965.181	-1575
965.268	-1022
965.355	-300
965.441	-1216
965.528	-1003
965.615	414
965.702	-778
965.789	-1226
965.875	-803
965.962	-269
966.049	-891
966.136	-574
966.222	-675
966.309	-1173
966.395	-305
966.482	-1191
966.569	-434
966.655	-651
966.742	-1119
966.828	-59
966.915	-1219
967.001	-143
967.087	-916
967.174	-964
967.260	-305
967.347	-906
967.433	-872
967.519	-887
967.605	-1213
967.692	-1264
967.778	-652
967.864	-1752
967.950	-1344
968.036	-1318
968.123	-117
968.209	-613
968.295	-1006
968.381	765
968.467	-8
968.553	-1873
968.639	75
968.725	-1182
968.811	-1125
968.897	-1419
968.983	-1178
969.069	-1414
969.154	-569
969.240	-1059
969.326	-1981
969.412	-1291
969.497	-1112
969.583	-937
969.669	176
969.755	-364
969.840	-643
969.926	-543
970.012	-1046
970.097	-1160
970.183	-1215
970.268	-1565
970.354	-1372
970.439	-1552
970.525	-469
970.610	-1395
970.696	-1117
970.781	-797
970.866	-1823
970.952	-284
971.037	-1321
971.122	-1204
971.208	-570
971.293	-1499
971.378	-1806
971.463	-1329
971.549	-722
971.634	-1423
971.719	-1025
971.804	-1168
971.889	-819
971.974	-1204
972.059	-1271
972.144	-1302
972.229	-565
972.314	-1824
972.399	-301
972.484	-616
972.569	-48
972.654	-2571
972.739	-541
972.824	-1368
972.908	-881
972.993	-540
973.078	-1447
973.163	-1079
973.247	-1169
973.332	-1880
973.417	-356
973.501	-1706
973.586	-1369
973.671	-1537
973.755	-2337
973.840	-798
973.924	-366
974.009	-1448
974.093	-994
974.178	-1198
974.262	-828
974.346	-1452
974.431	-775
974.515	-1511
974.600	-816
974.684	-1107
974.768	-1251
974.852	-800
974.937	-2484
975.021	-795
975.105	-258
975.189	-1594
975.273	-1030
975.358	-1728
975.442	-1474
975.526	-1936
975.610	-2086
975.694	-1604
975.778	-570
975.862	-1112
975.946	-2569
976.030	-249
976.114	-1145
976.198	-1187
976.281	-1820
976.365	-1358
976.449	-1437
976.533	-1665
976.617	-1059
976.700	-803
976.784	-278
976.868	-1345
976.951	-1105
977.035	-967
977.119	-1134
977.202	-803
977.286	-1093
977.369	-1413
977.453	-813
977.536	-509
977.620	-1025
977.703	-683
977.787	-1808
977.870	-624
977.953	-760
978.037	-2033
978.120	-568
978.203	-1070
978.287	-1245
978.370	-1784
978.453	-1120
978.536	-1585
978.620	-1170
978.703	-1853
978.786	-1167
978.869	-1740
978.952	-2460
979.035	-359
979.118	-1143
979.201	-1412
979.284	-1405
979.367	-2039
979.450	-1069
979.533	-2087
979.616	-1238
979.699	-1448
979.782	-1744
979.865	-1066
979.948	-1309
980.030	-1195
980.113	-2023
980.196	-2365
980.279	-791
980.361	-1731
980.444	-1793
980.526	-1704
980.609	-743
980.692	-1929
980.774	-638
980.857	-1875
980.939	-1018
981.022	-2435
981.104	-1491
981.187	-1637
981.269	-402
981.352	-869
981.434	-2536
981.516	-2522
981.599	-282
981.681	-1969
981.763	-1386
981.846	-1260
981.928	-1580
982.010	-1943
982.092	-2163
982.174	-439
982.256	-1519
982.339	-1118
982.421	-859
982.503	-1743
982.585	-1763
982.667	-1601
982.749	-1376
982.831	-1064
982.913	-1803
982.995	-940
983.077	-1400
983.158	-1123
983.240	-2558
983.322	-1431
983.404	-282
983.486	-2010
983.568	-1413
983.649	-853
983.731	-914
983.813	-1218
983.894	-1190
983.976	-1332
984.058	-1833
984.139	-948
984.221	-1247
984.302	-503
984.384	-1330
984.465	-1425
984.547	-800
984.628	-1626
984.710	-315
984.791	-1411
984.872	-503
984.954	-1361
985.035	-1425
985.116	-1722
985.198	-952
985.279	-1533
985.360	-1373
985.441	-1528
985.522	-1521
985.604	-1650
985.685	-3074
985.766	-343
985.847	104
985.928	-1763
986.009	-1564
986.090	-989
986.171	-787
986.252	-885
986.333	-1434
986.414	-1551
986.495	-1059
986.576	-986
986.656	-1060
986.737	-1819
986.818	-1531
986.899	-1786
986.980	-1240
987.060	-1323
987.141	-1876
987.222	-1235
987.302	-1549
987.383	-1918
987.464	-1729
987.544	-1419
987.625	-1325
987.705	-1208
987.786	-1340
987.866	-1544
987.947	-1301
988.027	-1446
988.108	-932
988.188	-897
988.268	-1177
988.349	-1447
988.429	-1162
988.509	-1333
988.589	-994
988.670	-3133
988.750	348
988.830	-1603
988.910	-1023
988.990	-1014
989.070	-903
989.151	-1733
989.231	-1671
989.311	-603
989.391	-1956
989.471	-1392
989.551	-996
989.631	-2080
989.711	-1232
989.791	-1953
989.870	-1597
989.950	-543
990.030	-1858
990.110	-1454
990.190	-1278
990.269	-1733
990.349	-1460
990.429	-1132
990.509	-890
990.588	-1366
990.668	-1645
990.747	-1617
990.827	-1603
990.907	-883
990.986	-1232
991.066	-1173
991.145	-1696
991.225	-1096
991.304	-842
991.383	-2013
991.463	-1247
991.542	-1022
991.622	-2328
991.701	-2120
991.780	-1408
991.859	-1396
991.939	-782
992.018	-1864
992.097	-1113
992.176	-627
992.256	-1038
992.335	-1843
992.414	-858
992.493	-2096
992.572	-1452
992.651	-661
992.730	-1224
992.809	41
992.888	-958
992.967	-1051
993.046	-674
993.125	-1994
993.203	-976
993.282	-1291
993.361	-958
993.440	-938
993.519	-1509
993.597	-1027
993.676	-1373
993.755	-1255
993.834	-1058
993.912	-1922
993.991	-737
994.069	-1867
994.148	-1442
994.226	-1689
994.305	-434
994.384	-1434
994.462	-637
994.540	-1928
994.619	-1964
994.697	-1242
994.776	-1320
994.854	-1175
994.932	-1702
995.011	-1298
995.089	-1665
995.167	-1105
995.245	-1109
995.324	-2194
995.402	-1222
995.480	-929
995.558	-1776
995.636	-1512
995.714	-2231
995.792	-490
995.870	-1969
995.948	-849
996.026	-1482
996.104	-1885
996.182	-369
996.260	-3001
996.338	-1675
996.416	-1294
996.494	-1419
996.572	-1166
996.649	-669
996.727	-1723
996.805	-997
996.883	-1376
996.960	-642
997.038	-1084
997.116	-1360
997.193	-1729
997.271	-1651
997.348	-2283
997.426	-1695
997.504	-1275
997.581	-1004
997.658	-1201
997.736	-1885
997.813	-2187
997.891	-891
997.968	-1284
998.046	-1299
998.123	-1168
998.200	-847
998.277	-1888
998.355	-484
998.432	-2763
998.509	-214
998.586	-514
998.663	-318
998.741	-1404
998.818	-1263
998.895	-1626
998.972	-1418
999.049	-1170
999.126	-1909
999.203	-479
999.280	-856
999.357	-1357
999.434	-919
999.511	-1482
999.587	-1457
999.664	-1568
999.741	-1271
999.818	-1296
999.895	-1384
999.971	-1864
1000.048	-1243
1000.125	-417
1000.202	-1475
1000.278	-1669
1000.355	-824
1000.431	-1101
1000.508	-972
1000.584	-1013
1000.661	-1029
1000.738	-1282
1000.814	-1274
1000.890	-1536
1000.967	-1291
1001.043	-1907
1001.120	-2087
1001.196	-1677
1001.272	-1605
1001.349	-700
1001.425	-1300
1001.501	-1564
1001.577	-1979
1001.654	-604
1001.730	-1462
1001.806	-1170
1001.882	-2538
1001.958	-1185
1002.034	-898
1002.110	-923
1002.186	-1110
1002.262	-1326
1002.338	-987
1002.414	-1653
1002.490	-948
1002.566	-2060
1002.642	-1460
1002.718	-850
1002.794	-1860
1002.870	-1691
1002.945	-1179
1003.021	-706
1003.097	-1580
1003.173	-1258
1003.248	-1356
1003.324	-1397
1003.400	-1105
1003.475	-2168
1003.551	-733
1003.626	-1446
1003.702	-1603
1003.777	-1772
1003.853	-1562
1003.928	-1391
1004.004	-1375
1004.079	-830
1004.155	-1493
1004.230	-2716
1004.305	-1226
1004.381	-1833
1004.456	-2355
1004.531	-2026
1004.607	-1270
1004.682	-1017
1004.757	-924
1004.832	-1338
1004.907	-1695
1004.982	-1574
1005.057	-686
1005.133	-2477
1005.208	-1821
1005.283	-2368
1005.358	-872
1005.433	-2034
1005.508	-1071
1005.583	-2431
1005.657	-1480
1005.732	-1383
1005.807	-2021
1005.882	-1950
1005.957	-1807
1006.032	-1459
1006.106	-1332
1006.181	-1769
1006.256	-1374
1006.331	-2375
1006.405	-1855
1006.480	-1151
1006.554	-1167
1006.629	-1535
1006.704	-771
1006.778	-1209
1006.853	-600
1006.927	-2863
1007.002	-1338
1007.076	-2128
1007.150	-736
1007.225	-1560
1007.299	-1639
1007.373	-2917
1007.448	-1203
1007.522	-1365
1007.596	-1275
1007.671	-1603
1007.745	-713
1007.819	-2189
1007.893	-1828
1007.967	-502
1008.041	-1829
1008.115	-1282
1008.190	-1857
1008.264	-1431
1008.338	-2613
1008.412	-1647
1008.486	-1616
1008.560	-1067
1008.633	-1814
1008.707	-1215
1008.781	-1470
1008.855	-1849
1008.929	-1616
1009.003	-1766
1009.076	-1748
1009.150	-2009
1009.224	-1945
1009.298	-1297
1009.371	-1523
1009.445	-1421
1009.519	-2096
1009.592	-2026
1009.666	-1777
1009.739	-2033
1009.813	-2016
1009.886	-771
1009.960	-2538
1010.033	-911
1010.107	-2064
1010.180	-1489
1010.253	-1312
1010.327	-2014
1010.400	-2072
1010.473	-2104
1010.547	-1202
1010.620	-1865
1010.693	-888
1010.766	-2630
1010.840	-736
1010.913	-1578
1010.986	-2091
1011.059	-2155
1011.132	-1646
1011.205	-2520
1011.278	-1303
1011.351	-2246
1011.424	-415
1011.497	-2135
1011.570	-1628
1011.643	-1804
1011.716	-2170
1011.789	-1360
1011.862	-1018
1011.934	-1179
1012.007	-1920
1012.080	-1731
1012.153	-831
1012.225	-1016
1012.298	-2137
1012.371	-2067
1012.443	-1032
1012.516	-1977
1012.588	-1136
1012.661	-2054
1012.733	-2615
1012.806	-1116
1012.879	-1913
1012.951	-2059
1013.023	-1476
1013.096	-1715
1013.168	-1107
1013.241	-1572
1013.313	-1522
1013.385	-1583
1013.458	-1919
1013.530	-1742
1013.602	-2313
1013.674	-1500
1013.746	-1303
1013.819	-1999
1013.891	-1137
1013.963	-1553
1014.035	-1267
1014.107	-1387
1014.179	-1360
1014.251	-2135
1014.323	-1127
1014.395	-1735
1014.467	-1006
1014.539	-2263
1014.611	-1763
1014.683	-751
1014.754	-1865
1014.826	-2291
1014.898	-2486
1014.970	-2299
1015.042	-1070
1015.113	-1759
1015.185	-1593
1015.257	-1420
1015.328	-968
1015.400	-1609
1015.471	-1166
1015.543	-2481
1015.615	-1809
1015.686	-1735
1015.757	-2044
1015.829	-1397
1015.901	-2191
1015.972	-1606
1016.043	-1742
1016.115	-2233
1016.186	-2261
1016.257	-2258
1016.328	-1669
1016.400	-1285
1016.471	-2360
1016.542	-1495
1016.613	-1252
1016.685	-1218
1016.756	-1839
1016.827	-2091
1016.898	-2648
1016.969	-1281
1017.040	-1721
1017.111	-1854
1017.182	-1805
1017.253	-1380
1017.324	-1732
1017.395	-2311
1017.466	-1781
1017.537	-1685
1017.608	-1094
1017.678	-1551
1017.749	-1748
1017.820	-1135
1017.891	-1337
1017.961	-1719
1018.032	-2079
1018.103	-2449
1018.173	-1166
1018.244	-1751
1018.315	-1509
1018.385	-974
1018.456	-1345
1018.526	-2719
1018.597	-1153
1018.667	-1593
1018.738	-1631
1018.808	-1776
1018.878	-1691
1018.949	-989
1019.019	-1422
1019.089	-1888
1019.160	-1416
1019.230	-1663
1019.300	-706
1019.371	-2826
1019.441	-967
1019.511	-1324
1019.581	-1237
1019.651	-1239
1019.721	-1688
1019.791	-2165
1019.861	-1229
1019.931	-1929
1020.001	-1677
1020.071	-1481
1020.141	-2802
1020.211	-1595
1020.281	-2751
1020.351	-1980
1020.421	-1593
1020.491	-1281
1020.560	-1659
1020.630	-1376
1020.700	-2008
1020.770	-1914
1020.839	-1783
1020.909	-1775
1020.979	-2323
1021.048	-1997
1021.118	-1560
1021.187	-1329
1021.257	-1727
1021.326	-1381
1021.396	-2045
1021.465	-1586
1021.535	-1863
1021.604	-2275
1021.674	-1610
1021.743	-1211
1021.812	-1655
1021.882	-2433
1021.951	-1897
1022.020	-2125
1022.089	-1664
1022.159	-2074
1022.228	-916
1022.297	-1934
1022.366	-1632
1022.435	-1970
1022.504	-2206
1022.573	-2281
1022.642	-1900
1022.711	-1081
1022.781	-1377
1022.849	-1538
1022.918	-1397
1022.987	-884
1023.056	-1727
1023.125	-2119
1023.194	-891
1023.263	-2255
1023.331	-945
1023.400	-2798
1023.469	-1883
1023.538	-1563
1023.606	-2414
1023.675	-1822
1023.744	-2112
1023.812	-2285
1023.881	-1527
1023.949	-1243
1024.018	-1813
1024.086	-2056
1024.155	-1803
1024.223	-1580
1024.292	-1731
1024.360	-1687
1024.429	-1349
1024.497	-2104
1024.565	-1758
1024.634	-1465
1024.702	-1848
1024.770	-2043
1024.838	-2001
1024.907	-1416
1024.975	-1751
1025.043	-1337
1025.111	-2667
1025.179	-1912
1025.247	-1882
1025.315	-1444
1025.383	-1716
1025.451	-2186
1025.519	-1761
1025.587	-2354
1025.655	-2309
1025.723	-1952
1025.791	-1668
1025.859	-1735
1025.927	-906
1025.995	-2114
1026.062	-1758
1026.130	-1695
1026.198	-1049
1026.266	-1808
1026.333	-1729
1026.401	-1509
1026.469	-1643
1026.536	-2729
1026.604	-1416
1026.671	-1840
1026.739	-1898
1026.806	-1710
1026.874	-2053
1026.941	-1965
1027.009	-1962
1027.076	-1813
1027.144	-328
1027.211	-2034
1027.278	-1959
1027.345	-1609
1027.413	-1825
1027.480	-1561
1027.547	-2000
1027.614	-1962
1027.682	-1450
1027.749	-2029
1027.816	-1399
1027.883	-1047
1027.950	-1136
1028.017	-2807
1028.084	-850
1028.151	-1702
1028.218	-1682
1028.285	-1289
1028.352	-1990
1028.419	-2144
1028.486	-1275
1028.553	-1691
1028.619	-1696
1028.686	-1529
1028.753	-1575
1028.820	-2016
1028.886	-1780
1028.953	-2199
1029.020	-2012
1029.086	-2084
1029.153	-2106
1029.220	-2218
1029.286	-1394
1029.353	-2064
1029.419	-1824
1029.486	-1733
1029.552	-1104
1029.619	-1935
1029.685	-1600
1029.751	-2538
1029.818	-1541
1029.884	-2529
1029.951	-2207
1030.017	-1372
1030.083	-1807
1030.149	-2313
1030.216	-1675
1030.282	-1977
1030.348	-1276
1030.414	-1853
1030.480	-1643
1030.546	-2027
1030.612	-1668
1030.678	-2209
1030.744	-2137
1030.810	-1725
1030.876	-1685
1030.942	-1910
1031.008	-1507
1031.074	-1982
1031.140	-1534
1031.206	-1809
1031.272	-2387
1031.337	-1292
1031.403	-1446
1031.469	-2402
1031.534	-1897
1031.600	-1577
1031.666	-2258
1031.731	-1721
1031.797	-1362
1031.863	-1447
1031.928	-1601
1031.994	-2042
1032.059	-1538
1032.125	-1427
1032.190	-2597
1032.256	-2482
1032.321	-2133
1032.386	-1692
1032.452	-1903
1032.517	-1830
1032.582	-1809
1032.647	-1995
1032.713	-2180
1032.778	-2025
1032.843	-2248
1032.908	-1872
1032.974	-2062
1033.039	-1740
1033.104	-2113
1033.169	-1905
1033.234	-1838
1033.299	-1224
1033.364	-1609
1033.429	-2161
1033.494	-2916
1033.559	-1487
1033.624	-1620
1033.688	-1895
1033.753	-1805
1033.818	-2042
1033.883	-1894
1033.948	-1626
1034.013	-1834
1034.077	-1735
1034.142	-1457
1034.207	-1573
1034.271	-1156
1034.336	-2127
1034.400	-1176
1034.465	-2453
1034.530	-2304
1034.594	-2200
1034.658	-1773
1034.723	-2728
1034.787	-1177
1034.852	-1882
1034.916	-1361
1034.981	-1459
1035.045	-1884
1035.109	-2618
1035.173	-1675
1035.238	-1875
1035.302	-1936
1035.366	-1766
1035.430	-2161
1035.495	-2316
1035.559	-1582
1035.623	-2518
1035.687	-2674
1035.751	-2231
1035.815	-1730
1035.879	-2044
1035.943	-1716
1036.007	-2703
1036.071	-1911
1036.135	-2133
1036.198	-828
1036.262	-2138
1036.326	-2362
1036.390	-2003
1036.454	-1929
1036.517	-2184
1036.581	-2355
1036.645	-1950
1036.709	-1953
1036.772	-2416
1036.836	-1239
1036.900	-1659
1036.963	-2071
1037.026	-2894
1037.090	-1517
1037.154	-2270
1037.217	-1585
1037.280	-2055
1037.344	-1970
1037.407	-2538
1037.471	-1466
1037.534	-2956
1037.597	-1676
1037.661	-2508
1037.724	-1754
1037.787	-2094
1037.850	-2114
1037.913	-1541
1037.977	-2571
1038.040	-1966
1038.103	-1548
1038.166	-1494
1038.229	-1998
1038.292	-2201
1038.355	-1826
1038.418	-2212
1038.481	-1535
1038.544	-2354
1038.607	-1992
1038.670	-3009
1038.732	-2359
1038.795	-2146
1038.858	-1688
1038.921	-1935
1038.984	-1519
1039.046	-2091
1039.109	-2069
1039.172	-1293
1039.234	-1847
1039.297	-2094
1039.360	-2476
1039.422	-1941
1039.485	-2456
1039.547	-2038
1039.610	-2129
1039.672	-2554
1039.734	-1715
1039.797	-1513
1039.859	-2489
1039.922	-2617
1039.984	-2093
1040.046	-1839
1040.109	-2644
1040.171	-1859
1040.233	-1732
1040.295	-2059
1040.358	-1244
1040.420	-1820
1040.482	-1237
1040.544	-2077
1040.606	-1247
1040.668	-1648
1040.730	-2406
1040.792	-2419
1040.854	-1771
1040.916	-2635
1040.978	-1973
1041.040	-1229
1041.102	-2082
1041.164	-1861
1041.225	-2004
1041.287	-2703
1041.349	-2691
1041.411	-2439
1041.472	-2088
1041.534	-2019
1041.596	-1904
1041.657	-1678
1041.719	-1230
1041.781	-1437
1041.842	-2013
1041.904	-2044
1041.965	-1284
1042.027	-1668
1042.088	-1682
1042.150	-2635
1042.211	-2014
1042.272	-1506
1042.334	-1867
1042.395	-2187
1042.456	-1674
1042.518	-2081
1042.579	-1184
1042.640	-1492
1042.701	-1563
1042.763	-1864
1042.824	-1386
1042.885	-2179
1042.946	-1598
1043.007	-1565
1043.068	-1592
1043.129	-2204
1043.190	-1488
1043.251	-2011
1043.312	-2032
1043.373	-1812
1043.434	-2045
1043.495	-1930
1043.556	-2017
1043.616	-1871
1043.677	-1671
1043.738	-1954
1043.799	-2377
1043.859	-2627
1043.920	-1216
1043.981	-1733
1044.041	-1305
1044.102	-2957
1044.162	-2139
1044.223	-2393
1044.284	-1555
1044.344	-2250
1044.405	-1146
1044.465	-1903
1044.525	-1422
1044.586	-2148
1044.646	-1437
1044.707	-2143
1044.767	-1387
1044.827	-1067
1044.887	-2092
1044.948	-1351
1045.008	-1680
1045.068	-1964
1045.128	-1729
1045.188	-2125
1045.249	-1169
1045.309	-1699
1045.369	-1607
1045.429	-1800
1045.489	-2487
1045.549	-1919
1045.609	-2203
1045.669	-1568
1045.729	-2404
1045.789	-1553
1045.848	-1019
1045.908	-2225
1045.968	-1913
1046.028	-1146
1046.088	-1960
1046.147	-1581
1046.207	-1270
1046.267	-2775
1046.326	-1932
1046.386	-1625
1046.446	-621
1046.505	-1094
1046.565	-582
1046.624	-1413
1046.684	-361
1046.743	-776
1046.803	-1191
1046.862	-1581
1046.922	0
